,aX,aY,aZ,gX,gY,gZ,little,ring,middle,index,thumb,number
0,0.03,0.91,0.4,2.14,-3.23,-0.92,409,458,189,240,199,0
1,0.02,0.91,0.4,0.73,-0.79,-1.59,416,455,192,243,195,0
2,0.01,0.91,0.41,-1.59,-1.83,-5.62,409,451,190,242,197,0
3,-0.0,0.89,0.43,3.42,-4.7,-1.1,413,451,190,249,202,0
4,0.05,0.91,0.38,-1.46,-1.28,-0.06,410,458,190,243,199,0
5,0.07,0.85,0.41,-12.94,-9.83,2.38,413,454,192,241,189,0
6,0.08,0.92,0.45,-2.26,-2.99,-7.81,412,458,190,240,196,0
7,0.1,0.88,0.45,-0.31,-3.3,-7.75,415,455,195,244,197,0
8,0.08,0.86,0.46,1.71,-3.48,-2.62,413,452,184,239,198,0
9,0.08,0.91,0.47,2.5,-4.58,1.71,414,457,197,244,199,0
10,0.09,0.88,0.46,1.4,-2.32,0.43,413,454,193,242,203,0
11,0.12,0.9,0.46,-0.49,-1.22,-3.72,409,452,195,247,195,0
12,0.07,0.9,0.45,2.08,-2.44,-3.42,406,452,180,242,197,0
13,0.1,0.89,0.45,1.71,-2.75,-6.04,402,456,197,242,193,0
14,0.11,0.89,0.45,4.58,-0.73,-2.75,405,455,187,237,195,0
15,0.07,0.89,0.45,0.98,-0.12,-2.44,407,452,191,246,200,0
16,0.1,0.88,0.43,0.37,-2.38,-1.53,413,451,195,228,200,0
17,0.1,0.89,0.45,2.5,-4.09,-3.42,411,449,190,245,193,0
18,0.11,0.89,0.45,1.83,-3.23,-2.81,402,453,194,245,206,0
19,0.1,0.9,0.46,1.46,-2.75,-1.65,404,450,193,242,198,0
20,0.11,0.89,0.44,0.06,-2.26,-2.5,412,452,195,243,200,0
21,0.09,0.9,0.45,0.61,-2.32,-4.88,410,456,196,245,203,0
22,0.11,0.9,0.45,2.32,-4.76,-2.38,405,451,196,245,198,0
23,0.11,0.88,0.44,-0.61,-4.58,-1.65,408,452,199,243,199,0
24,0.12,0.89,0.44,1.04,-2.2,-2.08,409,448,194,244,199,0
25,0.11,0.91,0.45,2.32,-5.68,-3.85,408,455,198,246,203,0
26,0.08,0.94,0.46,-0.18,-0.31,-1.95,407,454,194,246,200,0
27,0.11,0.84,0.46,-9.28,-1.22,-3.17,408,449,190,246,200,0
28,0.15,0.81,0.46,-5.49,-2.81,-0.79,409,451,193,248,200,0
29,0.08,0.88,0.55,1.89,3.72,2.56,405,444,192,240,200,0
30,0.12,0.8,0.54,-10.44,-7.39,-3.36,408,454,198,244,201,0
31,0.14,0.78,0.58,-3.6,-16.54,-7.87,400,447,193,246,204,0
32,0.28,0.78,0.4,30.33,-0.67,-29.97,406,449,197,245,201,0
33,0.16,0.82,0.4,-4.09,-8.67,-18.19,407,445,193,248,201,0
34,0.1,0.92,0.5,-7.32,0.67,-11.66,408,450,195,246,202,0
35,0.12,0.83,0.51,-7.63,5.19,-4.03,413,450,196,245,203,0
36,0.13,0.9,0.51,-8.91,1.77,-4.7,358,442,199,243,203,0
37,0.07,0.87,0.5,33.51,-9.52,-8.73,399,438,198,243,206,0
38,0.06,0.89,0.44,-5.13,-2.32,-4.64,410,445,195,249,198,0
39,0.05,0.88,0.46,-1.1,-6.16,3.05,415,449,195,246,200,0
40,0.06,0.86,0.49,-10.99,-7.08,7.14,413,451,198,247,204,0
41,0.08,0.84,0.52,-6.65,0.0,-6.35,417,449,194,247,199,0
42,0.09,0.85,0.54,-1.53,-1.59,-6.53,414,449,202,248,198,0
43,0.07,0.85,0.52,-0.37,1.16,-6.16,408,454,195,244,187,0
44,0.06,0.86,0.52,-0.37,0.06,-6.47,408,451,197,250,193,0
45,0.02,0.85,0.52,1.16,-1.1,-4.39,412,446,187,247,197,0
46,0.0,0.84,0.53,0.12,-2.87,-2.81,410,450,197,246,198,0
47,0.01,0.85,0.52,-0.18,-1.89,-3.72,413,444,198,248,192,0
48,-0.01,0.86,0.53,-0.31,-0.06,-5.43,413,448,198,246,191,0
49,-0.01,0.87,0.54,1.95,-4.64,-3.6,409,453,191,247,190,0
50,0.01,0.84,0.53,9.16,-10.93,2.56,401,451,196,247,198,0
51,0.01,0.86,0.51,0.18,-1.83,-2.14,402,449,186,245,198,0
52,0.02,0.86,0.51,-1.34,-0.61,-1.77,409,446,204,247,193,0
53,0.04,0.86,0.52,-6.16,-0.98,1.22,412,452,201,251,194,0
54,0.02,0.83,0.51,5.0,-1.59,-2.69,415,453,198,251,198,0
55,0.05,0.86,0.54,2.87,7.87,-3.72,414,453,190,245,191,0
56,-0.08,0.91,0.56,7.75,13.37,-12.33,415,445,200,242,197,0
57,-0.01,0.88,0.52,1.89,-2.01,-6.59,414,449,187,244,196,0
58,-0.02,0.81,0.55,2.2,-4.94,2.99,414,447,201,250,200,0
59,-0.03,0.85,0.51,2.14,-4.15,-5.68,415,449,198,255,195,0
60,0.02,0.86,0.51,-0.24,-7.39,-5.8,414,451,197,249,198,0
61,0.07,0.86,0.52,-2.26,-2.62,-0.37,414,455,203,249,198,0
62,0.08,0.86,0.5,-0.12,-6.41,0.67,410,448,195,248,197,0
63,0.11,0.9,0.51,-0.73,-12.33,4.82,410,445,199,244,197,0
64,0.11,0.83,0.5,-3.97,-7.87,0.55,415,449,194,249,199,0
65,0.07,0.89,0.52,0.24,-1.16,-3.85,414,448,196,248,203,0
66,0.06,0.85,0.53,1.71,-1.95,-5.19,416,452,200,249,200,0
67,0.05,0.83,0.53,1.22,-2.62,-3.11,413,452,200,251,201,0
68,0.03,0.85,0.53,-4.39,-2.2,-7.69,415,453,198,248,198,0
69,0.04,0.81,0.51,-2.2,-9.28,-6.35,414,446,200,248,200,0
70,0.01,0.86,0.53,-3.11,-5.49,-3.36,417,445,200,246,200,0
71,0.01,0.83,0.54,0.73,-2.56,-2.93,411,452,197,251,191,0
72,0.01,0.82,0.54,1.53,-3.72,-2.44,416,449,203,250,208,0
73,0.01,0.83,0.56,-0.12,-6.9,-0.98,414,458,210,252,197,0
74,0.03,0.82,0.56,0.98,-3.72,-5.43,416,450,193,249,197,0
75,0.06,0.86,0.5,4.03,-7.39,-3.05,409,466,197,240,200,0
76,0.03,0.88,0.48,1.53,-5.8,-2.14,407,462,199,248,202,0
77,0.06,0.87,0.49,2.81,-4.33,0.37,409,463,194,252,201,0
78,0.06,0.87,0.48,-1.95,-1.22,-2.69,414,463,197,251,202,0
79,0.04,0.85,0.5,-0.49,-1.53,-2.44,413,465,196,248,202,0
80,0.08,0.9,0.53,0.61,3.17,-5.37,414,467,199,240,201,0
81,0.07,0.87,0.49,3.66,-5.0,1.95,418,464,193,248,217,0
82,0.06,0.86,0.46,-0.18,-7.81,-7.51,418,470,194,252,201,0
83,0.05,0.83,0.48,2.01,-3.72,-3.85,417,467,194,249,199,0
84,0.04,0.87,0.53,0.12,-3.97,-1.65,412,463,203,252,192,0
85,0.07,0.83,0.49,6.29,-4.09,0.43,415,469,196,247,199,0
86,0.09,0.86,0.48,-1.71,-13.18,1.83,417,459,200,252,202,0
87,0.11,0.82,0.5,-2.81,-4.39,-3.91,417,468,205,244,199,0
88,0.13,0.86,0.5,-1.1,-3.11,-7.26,413,467,198,249,195,0
89,0.1,0.87,0.5,0.06,5.49,-6.53,417,465,198,253,203,0
90,-0.01,0.86,0.52,-1.65,4.03,0.31,415,465,196,253,202,0
91,0.12,0.88,0.48,-2.93,-12.21,-2.5,419,463,199,256,199,0
92,0.09,0.85,0.54,1.1,3.72,5.13,414,464,203,250,201,0
93,0.07,0.87,0.55,4.52,3.85,2.87,410,461,199,253,202,0
94,0.12,0.89,0.52,0.06,-1.71,-2.99,417,463,201,251,200,0
95,0.11,0.83,0.51,-3.48,-8.61,0.18,414,463,200,251,199,0
96,0.16,0.8,0.51,-0.43,-6.04,-0.79,416,455,204,251,201,0
97,0.13,0.84,0.52,0.85,-5.43,-0.92,420,464,200,254,203,0
98,0.15,0.83,0.51,-1.04,-3.23,-3.54,417,463,201,248,201,0
99,0.18,0.85,0.54,0.37,-0.55,-3.05,418,464,193,253,205,0
100,0.16,0.85,0.53,2.38,0.92,-3.97,416,461,204,250,199,0
101,0.13,0.85,0.53,1.59,0.37,-2.62,416,462,202,248,207,0
102,0.13,0.84,0.52,0.49,-3.3,-3.72,413,466,199,252,200,0
103,0.15,0.86,0.55,2.87,6.1,3.6,418,465,202,252,198,0
104,0.13,0.9,0.52,12.02,19.41,-10.31,414,461,203,263,201,0
105,0.15,0.87,0.48,-1.59,1.95,-3.97,420,454,200,253,201,0
106,0.1,0.89,0.56,5.49,1.83,-5.0,419,461,196,252,201,0
107,0.19,0.84,0.49,-0.61,-18.68,5.74,417,461,204,253,203,0
108,0.2,0.84,0.51,-2.01,-8.79,-6.29,413,457,204,249,201,0
109,0.16,0.84,0.51,-2.44,-18.74,-0.43,417,463,195,250,202,0
110,0.22,0.86,0.5,-1.89,-10.68,-2.14,417,470,199,250,203,0
111,0.29,0.83,0.51,2.26,-1.95,-1.04,418,463,200,249,200,0
112,0.2,0.84,0.47,-0.24,4.03,-5.92,412,462,199,251,203,0
113,0.21,0.84,0.51,-0.67,-6.41,-3.11,420,462,202,255,202,0
114,0.24,0.85,0.5,-1.34,0.43,-3.17,413,461,202,251,201,0
115,0.21,0.85,0.49,1.4,3.05,-5.86,418,458,198,252,200,0
116,0.19,0.85,0.48,-3.6,-5.49,-3.72,416,467,208,253,208,0
117,0.15,0.83,0.52,0.37,-1.1,5.86,412,466,200,254,203,0
118,0.17,0.87,0.52,0.12,-0.49,-0.24,413,461,201,245,210,0
119,0.17,0.85,0.5,0.67,-0.85,-2.62,415,462,203,251,205,0
120,0.17,0.86,0.51,0.37,-0.79,-2.56,417,461,202,251,216,0
121,0.18,0.83,0.5,-2.38,-5.55,-0.24,414,460,202,252,204,0
122,0.17,0.85,0.52,-0.24,-5.19,-3.42,414,462,200,251,197,0
123,0.18,0.84,0.54,-1.1,-3.42,-2.14,418,460,201,252,205,0
124,0.19,0.83,0.52,-0.73,0.79,-0.24,417,463,199,252,205,0
125,0.19,0.82,0.54,-0.85,-8.12,-4.94,417,463,202,253,203,0
126,0.22,0.9,0.55,2.69,-12.51,12.57,419,465,208,255,203,0
127,0.22,0.81,0.51,-4.33,-7.39,-6.84,412,462,200,252,208,0
128,0.22,0.84,0.53,-0.06,-4.64,-6.35,418,462,203,251,203,0
129,0.25,0.79,0.5,-0.12,-1.89,1.04,418,464,200,257,203,0
130,0.22,0.84,0.53,-1.28,-1.65,-5.37,420,458,199,253,215,0
131,0.17,0.83,0.54,1.77,-2.75,-6.53,419,462,201,255,202,0
132,0.22,0.83,0.53,-3.66,-8.79,-0.85,419,460,201,252,202,0
133,0.18,0.82,0.54,3.48,4.03,-2.62,417,465,200,255,204,0
134,0.17,0.83,0.55,-2.26,-5.86,-1.4,413,472,199,251,205,0
135,0.19,0.82,0.53,-4.64,-2.99,-1.89,416,464,202,251,202,0
136,0.18,0.83,0.56,-0.67,2.08,-1.65,414,465,200,258,206,0
137,0.17,0.83,0.56,0.98,-1.16,-1.46,417,464,199,245,200,0
138,0.2,0.82,0.55,-0.49,0.73,-4.7,416,464,201,255,205,0
139,0.16,0.8,0.57,0.24,-2.26,-5.43,417,462,194,253,203,0
140,0.18,0.83,0.55,0.79,-3.11,-2.32,408,463,200,250,205,0
141,0.16,0.8,0.54,-1.4,-6.1,-4.76,415,462,196,252,204,0
142,0.2,0.82,0.55,0.0,-2.62,-8.18,417,463,202,253,206,0
143,0.15,0.82,0.57,1.22,-1.04,-8.3,417,458,199,254,203,0
144,0.16,0.81,0.56,-1.34,-5.19,-4.76,419,453,204,258,197,0
145,0.19,0.84,0.58,6.23,0.61,-1.16,415,461,200,250,203,0
146,0.18,0.89,0.55,-1.53,-11.47,-8.48,417,459,202,251,205,0
147,0.2,0.86,0.54,-8.18,-15.08,1.65,417,463,209,252,204,0
148,0.21,0.77,0.55,1.22,-7.26,-2.99,416,462,204,252,205,0
149,0.23,0.8,0.53,8.36,9.28,13.06,415,460,200,252,207,0
150,0.28,0.88,0.51,20.2,21.73,-6.53,421,463,204,252,204,0
151,0.31,0.86,0.44,-4.82,6.53,-4.46,416,459,205,260,202,0
152,0.23,0.85,0.47,1.95,-3.23,-3.54,414,458,206,254,207,0
153,0.24,0.86,0.48,-1.4,-4.09,-1.65,416,456,204,257,204,0
154,0.2,0.84,0.5,-3.05,-6.53,-4.39,416,463,200,249,206,0
155,0.2,0.85,0.51,-0.06,-12.63,-10.19,417,461,198,258,207,0
156,0.21,0.83,0.5,-1.4,-12.39,-9.03,419,462,205,253,208,0
157,0.21,0.82,0.5,-2.44,-11.78,-9.52,414,449,202,254,205,0
158,0.23,0.84,0.51,0.92,-5.19,-4.94,414,460,206,252,203,0
159,0.23,0.83,0.5,0.92,0.24,-1.59,415,458,198,248,206,0
160,0.23,0.86,0.5,1.46,3.91,2.2,415,460,201,251,200,0
161,0.23,0.85,0.51,2.99,7.69,2.56,413,463,203,256,207,0
162,0.21,0.85,0.48,4.58,9.58,4.82,416,462,201,255,204,0
163,0.2,0.86,0.48,2.87,4.7,2.81,418,455,202,250,204,0
164,0.18,0.7,0.38,-10.31,-26.25,9.89,408,463,209,257,207,0
165,0.23,0.85,0.52,-18.37,-16.42,12.21,413,457,200,250,205,0
166,0.13,0.83,0.48,24.35,5.98,-20.32,415,461,203,255,207,0
167,0.18,0.87,0.52,-8.24,-19.59,-1.16,416,458,200,250,199,0
168,0.22,0.83,0.53,5.86,-1.89,-12.88,415,465,203,250,203,0
169,0.23,0.84,0.51,6.84,3.11,-3.23,416,457,200,245,207,0
170,0.24,0.88,0.55,1.16,-6.9,-6.9,413,453,205,266,206,0
171,-0.04,0.77,0.68,4.03,-28.26,-29.11,416,459,199,255,204,0
172,0.14,0.69,0.55,6.84,15.56,-13.85,414,463,202,252,207,0
173,0.2,0.74,0.52,-16.6,-15.14,2.81,411,464,192,254,215,0
174,0.25,0.73,0.58,18.01,-18.49,12.33,412,457,204,255,204,0
175,0.32,0.69,0.57,-25.76,43.4,-19.65,414,459,205,249,209,0
176,0.28,0.76,0.63,11.29,-15.44,3.78,417,460,203,259,205,0
177,0.4,0.78,0.57,-4.15,-7.26,-0.98,410,464,201,253,207,0
178,0.4,0.7,0.54,4.64,-11.17,8.18,418,454,203,257,204,0
179,0.33,0.73,0.59,-3.05,12.76,-21.06,415,460,210,262,205,0
180,0.29,0.75,0.6,-2.08,0.18,-7.26,416,456,204,251,211,0
181,0.27,0.8,0.64,-2.81,1.46,-8.73,413,456,204,257,207,0
182,0.24,0.76,0.6,-1.28,8.73,-12.63,412,461,202,250,207,0
183,0.14,0.75,0.63,0.37,3.11,-10.07,414,454,205,254,214,0
184,0.1,0.76,0.65,2.75,-3.72,-1.65,413,460,206,253,205,0
185,-0.03,0.71,0.66,-4.15,11.41,-14.53,416,466,197,254,206,0
186,0.02,0.74,0.67,3.36,-4.82,-8.97,412,457,205,254,207,0
187,0.01,0.74,0.68,3.66,-6.16,1.95,414,459,203,258,208,0
188,0.09,0.76,0.66,8.67,-20.87,11.54,411,460,205,250,211,0
189,0.12,0.76,0.64,3.11,-7.02,3.91,413,455,192,255,202,0
190,0.11,0.77,0.63,2.14,-4.76,-4.76,416,459,200,255,205,0
191,0.14,0.77,0.62,1.77,-5.19,-2.5,414,440,200,253,201,0
192,0.15,0.77,0.62,0.12,-2.01,-1.46,415,432,205,255,208,0
193,0.17,0.78,0.62,0.49,-3.11,-2.5,415,432,201,254,205,0
194,0.15,0.78,0.63,-2.08,-6.84,2.75,412,439,210,255,208,0
195,0.16,0.75,0.66,-4.03,3.3,-1.95,412,441,199,254,206,0
196,0.14,0.75,0.64,4.7,-2.08,-1.95,413,436,201,254,206,0
197,0.22,0.77,0.61,-1.04,-10.25,1.77,415,435,204,257,207,0
198,0.37,0.83,0.6,21.73,-1.4,-12.57,413,437,206,258,199,0
199,0.33,0.77,0.5,-9.52,2.62,-9.4,416,460,203,256,199,0
200,0.23,0.81,0.6,-4.33,7.45,-10.31,417,460,207,257,206,0
201,0.23,0.77,0.59,2.08,-8.06,2.32,414,458,201,254,207,0
202,0.18,0.77,0.6,-3.91,-2.38,-2.93,414,458,202,251,209,0
203,0.2,0.77,0.61,-14.89,-1.89,-3.54,414,459,198,256,202,0
204,0.18,0.76,0.62,-0.12,-4.7,-2.08,418,457,201,255,207,0
205,0.19,0.78,0.63,-0.18,-0.67,-5.19,412,461,204,256,205,0
206,0.16,0.75,0.62,1.46,-3.91,-3.23,414,460,195,256,208,0
207,0.16,0.77,0.62,-1.16,-6.35,-5.0,417,460,205,258,207,0
208,0.17,0.76,0.65,0.18,-9.09,0.73,414,458,201,257,208,0
209,0.15,0.75,0.63,0.85,-5.86,1.28,412,458,211,262,206,0
210,0.25,0.74,0.63,-1.89,14.34,2.75,415,457,201,254,205,0
211,0.14,0.74,0.68,-5.0,3.97,2.26,414,460,205,254,209,0
212,0.16,0.7,0.68,2.2,-1.16,-4.94,409,463,206,256,212,0
213,0.12,0.72,0.7,-5.0,-3.17,1.71,414,462,204,257,206,0
214,0.15,0.78,0.71,2.81,-1.95,-5.07,413,461,206,256,209,0
215,0.21,0.71,0.66,0.98,-6.16,-0.18,412,451,208,257,217,0
216,0.18,0.73,0.64,-7.57,-1.04,18.31,413,458,205,255,210,0
217,0.26,0.7,0.66,-3.85,-8.91,-3.48,410,456,193,257,208,0
218,0.28,0.71,0.69,0.79,-4.27,-6.47,417,458,206,255,208,0
219,0.24,0.69,0.69,0.92,-5.8,-0.73,410,454,208,256,207,0
220,0.31,0.69,0.67,6.71,-0.67,-6.59,410,456,204,258,205,0
221,0.22,0.71,0.69,-4.52,4.03,1.83,407,457,203,250,210,0
222,0.2,0.68,0.72,3.42,0.43,-10.13,412,458,211,254,210,0
223,0.18,0.72,0.72,2.56,-2.5,-2.69,407,459,191,253,208,0
224,0.2,0.69,0.69,-0.73,-4.52,-3.97,410,459,208,268,206,0
225,0.22,0.74,0.69,-1.95,-2.14,-4.76,411,454,205,255,210,0
226,0.19,0.69,0.67,2.32,-3.11,-1.71,405,460,205,258,207,0
227,0.22,0.73,0.71,-1.95,-6.84,-4.52,406,458,209,258,208,0
228,0.24,0.7,0.66,1.59,-1.65,-2.5,409,455,202,255,204,0
229,0.2,0.75,0.65,2.2,-0.37,-4.33,407,462,204,254,205,0
230,0.17,0.76,0.65,4.88,0.31,-16.17,409,453,208,258,206,0
231,0.08,0.86,0.61,1.22,-4.39,-1.83,413,460,207,255,208,0
232,0.15,0.76,0.63,-0.49,1.4,-3.54,410,459,206,259,208,0
233,0.14,0.76,0.64,1.4,-1.1,-1.89,409,460,214,256,211,0
234,0.12,0.78,0.66,-1.71,-2.2,-9.03,410,460,205,271,212,0
235,0.11,0.79,0.66,-1.1,-9.77,-8.0,414,457,197,260,208,0
236,0.12,0.74,0.65,-1.28,-1.46,-8.79,407,462,207,257,209,0
237,0.13,0.74,0.65,0.67,-0.43,-1.34,407,457,202,260,210,0
238,0.11,0.76,0.67,0.85,2.44,1.04,416,458,204,256,208,0
239,0.11,0.76,0.66,1.53,3.11,2.01,411,457,205,255,208,0
240,0.08,0.76,0.68,1.28,-2.08,-1.53,409,461,202,254,209,0
241,0.11,0.74,0.65,0.92,-9.58,-5.98,410,458,216,256,208,0
242,0.11,0.76,0.66,-0.61,-6.84,-6.47,411,456,206,256,223,0
243,0.11,0.76,0.67,-0.24,-6.53,-8.48,407,458,220,251,209,0
244,0.15,0.76,0.66,1.22,-2.87,-3.78,412,456,201,253,212,0
245,0.05,0.69,0.61,-0.67,-4.58,7.75,410,460,205,258,205,0
246,0.16,0.8,0.75,2.26,-2.2,-5.74,409,461,208,258,216,0
247,0.08,0.73,0.63,2.32,4.09,-0.73,410,458,206,254,199,0
248,0.1,0.7,0.59,1.04,-5.55,-5.98,407,456,206,256,207,0
249,0.13,0.74,0.63,2.81,-8.12,0.67,408,458,203,261,211,0
250,0.09,0.74,0.67,0.0,-2.32,-4.94,408,459,205,259,208,0
251,0.14,0.76,0.66,0.67,-2.56,-3.54,412,456,201,258,209,0
252,0.13,0.74,0.66,1.59,1.4,-0.61,411,456,207,256,212,0
253,0.12,0.77,0.66,0.67,5.25,3.48,413,452,209,256,207,0
254,0.08,0.78,0.69,-0.98,1.89,-2.01,411,454,208,260,211,0
255,0.05,0.76,0.67,-0.55,-11.6,-4.21,414,456,208,259,210,0
256,0.08,0.72,0.67,0.18,-14.71,-12.33,411,453,206,255,216,0
257,0.13,0.75,0.65,0.73,-11.72,-10.31,414,462,207,259,211,0
258,0.16,0.75,0.66,0.43,-2.75,3.48,415,454,202,256,208,0
259,0.13,0.77,0.68,4.46,4.82,3.17,410,460,198,254,207,0
260,0.11,0.74,0.65,1.83,2.93,3.3,410,453,203,253,210,0
261,0.12,0.77,0.67,2.2,-0.79,-1.34,411,460,205,257,209,0
262,0.07,0.71,0.65,-2.87,-10.44,-1.16,412,458,209,256,204,0
263,0.13,0.72,0.63,-0.49,-5.13,-1.59,412,454,208,255,219,0
264,0.14,0.77,0.7,4.21,-4.21,-7.14,414,459,204,256,209,0
265,0.15,0.75,0.65,-2.14,-3.6,-2.87,411,461,211,252,211,0
266,0.14,0.72,0.6,-6.04,-6.29,3.36,412,458,205,258,207,0
267,0.18,0.73,0.63,-0.85,1.16,-1.59,408,459,204,262,211,0
268,0.16,0.76,0.66,1.53,0.61,1.46,410,456,202,254,211,0
269,0.14,0.75,0.66,0.67,-1.28,-1.59,413,454,209,257,205,0
270,0.16,0.75,0.66,-0.61,-7.02,-1.95,415,460,206,262,208,0
271,0.13,0.76,0.67,1.1,-2.69,-5.55,410,458,207,259,210,0
272,0.19,0.77,0.65,1.83,-9.28,-5.98,413,461,208,256,208,0
273,0.2,0.75,0.64,0.37,0.0,-2.08,414,462,208,252,210,0
274,0.19,0.75,0.64,0.61,5.92,3.78,406,457,207,258,210,0
275,0.14,0.75,0.65,1.4,2.26,0.49,409,456,204,256,210,0
276,0.14,0.75,0.65,-1.83,-6.53,-9.83,413,456,205,260,208,0
277,0.18,0.76,0.69,2.14,-13.79,-4.39,410,460,207,257,207,0
278,0.16,0.73,0.64,0.85,-10.44,-10.01,406,454,203,260,207,0
279,0.21,0.76,0.65,0.31,1.04,-0.24,411,455,203,256,208,0
280,0.17,0.75,0.65,2.56,5.0,3.05,409,452,209,261,205,0
281,0.14,0.76,0.64,3.23,7.14,5.55,412,461,204,263,209,0
282,0.1,0.76,0.66,-0.12,-1.89,-5.49,408,453,207,264,212,0
283,0.15,0.77,0.68,-1.65,-9.77,-11.35,411,457,207,258,209,0
284,0.14,0.75,0.66,-1.16,-14.89,-11.96,407,458,204,257,210,0
285,0.2,0.74,0.63,-1.28,-7.02,-6.29,413,455,219,256,209,0
286,0.18,0.75,0.65,1.16,1.77,0.06,408,455,206,256,210,0
287,0.17,0.76,0.64,0.92,4.76,4.09,411,462,211,261,207,0
288,0.14,0.77,0.66,2.99,6.9,4.58,412,457,207,254,203,0
289,0.1,0.77,0.65,1.95,-0.55,-3.72,414,461,202,272,210,0
290,0.14,0.79,0.64,5.25,-9.89,-8.54,411,459,209,260,205,0
291,0.17,0.77,0.6,3.23,-8.85,-1.46,410,446,205,261,212,0
292,0.16,0.8,0.6,1.95,-5.49,-2.26,408,428,205,258,211,0
293,0.15,0.79,0.61,3.05,-4.58,-0.31,410,444,202,260,209,0
294,0.16,0.81,0.65,-8.79,-0.37,-5.86,409,456,206,261,218,0
295,0.12,0.75,0.63,-0.67,-0.55,-2.01,410,457,215,254,212,0
296,0.07,0.78,0.61,26.12,-17.58,2.32,401,452,205,259,210,0
297,0.21,0.83,0.54,2.93,-4.94,-0.79,409,450,202,258,213,0
298,0.19,0.82,0.53,-1.95,-2.44,-4.09,409,469,210,259,221,0
299,0.17,0.85,0.54,1.1,-0.37,-6.47,414,451,209,257,212,0
300,0.17,0.82,0.54,-3.17,-5.74,-2.99,414,458,208,258,213,0
301,0.19,0.81,0.54,-2.08,-7.63,-6.9,413,452,211,270,213,0
302,0.21,0.81,0.56,0.12,-1.28,0.55,414,449,205,255,211,0
303,0.18,0.82,0.57,1.71,3.23,0.55,415,454,208,263,215,0
304,0.18,0.81,0.57,2.38,2.14,-0.18,416,454,201,260,212,0
305,0.16,0.85,0.56,-0.31,1.34,0.79,409,455,203,261,207,0
306,0.24,0.77,0.54,-6.96,-8.42,6.84,415,459,205,260,213,0
307,0.2,0.82,0.57,-7.75,-9.58,1.1,416,453,194,262,213,0
308,0.28,0.76,0.58,-1.22,-6.23,-4.88,418,459,211,261,214,0
309,0.23,0.79,0.61,5.25,2.26,-2.32,417,456,211,260,200,0
310,0.27,0.82,0.6,2.5,1.59,-5.37,417,459,210,259,210,0
311,0.23,0.79,0.57,2.99,0.98,2.32,416,460,207,265,213,0
312,0.21,0.83,0.56,0.06,-5.68,-3.3,414,460,216,262,217,0
313,0.29,0.73,0.55,-3.48,-9.03,-3.11,416,455,207,256,213,0
314,0.28,0.79,0.57,0.06,-7.26,2.38,416,455,206,259,212,0
315,0.31,0.78,0.6,4.39,0.85,-9.95,419,457,208,259,209,0
316,0.38,0.73,0.54,-3.66,-6.84,-9.52,416,467,206,256,211,0
317,0.28,0.72,0.57,-5.19,0.61,-3.54,416,458,205,262,206,0
318,0.22,0.68,0.51,2.62,-5.25,-1.53,419,458,209,262,212,0
319,0.32,0.67,0.54,4.09,-3.54,-11.6,421,451,206,262,214,0
320,0.22,0.77,0.6,1.22,4.58,-0.37,414,462,206,265,211,0
321,0.26,0.78,0.56,8.97,-0.49,-1.1,415,459,206,260,212,0
322,0.19,0.82,0.59,1.83,2.08,-9.46,417,451,206,263,210,0
323,0.2,0.83,0.62,5.13,-8.61,-5.25,417,460,205,261,212,0
324,0.21,0.79,0.58,-4.52,-12.76,-3.11,421,457,210,260,215,0
325,0.27,0.78,0.58,-2.01,-10.74,-4.21,417,466,208,254,210,0
326,0.27,0.76,0.57,1.28,-0.18,-0.12,412,459,211,264,211,0
327,0.27,0.78,0.59,1.59,8.36,0.85,412,461,209,264,214,0
328,0.23,0.76,0.6,3.36,8.54,1.1,420,462,210,257,211,0
329,0.15,0.8,0.6,0.0,-1.34,-2.14,413,462,205,261,214,0
330,0.18,0.79,0.6,-2.75,-10.19,-8.06,417,456,212,257,218,0
331,0.27,0.76,0.6,-4.39,-22.71,0.37,417,461,211,263,216,0
332,0.22,0.75,0.61,-2.32,-8.42,-10.38,414,455,208,255,209,0
333,0.29,0.77,0.61,2.08,-0.24,0.37,418,459,208,261,216,0
334,0.25,0.75,0.59,1.4,6.47,0.67,418,461,201,261,211,0
335,0.21,0.76,0.59,3.66,8.48,9.03,419,455,208,258,212,0
336,0.16,0.78,0.61,1.28,0.85,0.61,425,458,208,259,215,0
337,0.17,0.77,0.62,-1.65,-10.93,-10.13,421,465,203,260,241,0
338,0.21,0.77,0.61,-2.93,-17.33,-15.32,416,463,200,258,212,0
339,0.23,0.75,0.62,0.92,-13.0,-13.61,413,460,205,261,213,0
340,0.25,0.76,0.61,0.37,0.92,1.89,416,459,208,265,218,0
341,0.21,0.79,0.62,2.44,6.71,3.72,418,460,213,262,215,0
342,0.19,0.78,0.6,2.01,7.87,4.58,418,455,208,258,210,0
343,0.19,0.78,0.59,2.69,1.89,0.61,416,464,207,264,208,0
344,0.18,0.77,0.6,-0.37,-9.4,-8.24,418,455,212,263,212,0
345,0.17,0.78,0.61,-4.64,-12.21,-8.85,423,460,209,259,211,0
346,0.19,0.79,0.61,-4.94,-13.0,-10.86,417,455,194,261,213,0
347,0.22,0.75,0.61,0.06,-6.9,-3.66,416,463,206,260,215,0
348,0.22,0.77,0.62,3.54,3.3,2.5,419,464,211,259,214,0
349,0.2,0.79,0.63,3.97,8.06,5.07,415,460,213,261,215,0
350,0.21,0.75,0.58,0.85,4.94,5.25,415,458,209,262,216,0
351,0.16,0.78,0.6,0.06,0.18,-5.13,413,456,207,266,215,0
352,0.19,0.79,0.61,2.14,-9.09,-15.44,410,463,210,262,212,0
353,0.22,0.76,0.6,-1.65,-10.13,-6.65,418,464,203,263,212,0
354,0.23,0.77,0.6,-2.2,-8.97,-8.79,417,465,203,261,212,0
355,0.28,0.76,0.59,0.92,-0.98,-1.53,415,462,212,262,211,0
356,0.21,0.78,0.61,3.91,10.07,-2.75,418,465,206,261,210,0
357,0.2,0.77,0.61,6.23,8.06,2.14,412,460,213,257,215,0
358,0.17,0.79,0.58,2.01,6.53,1.95,413,462,222,263,207,0
359,0.14,0.79,0.61,0.37,-6.59,-8.0,417,459,206,268,213,0
360,0.17,0.8,0.59,-1.83,-12.08,-11.11,419,457,206,262,211,0
361,0.2,0.81,0.62,-6.47,-12.57,-11.72,415,459,208,268,213,0
362,0.24,0.71,0.61,1.04,-11.29,-6.41,418,460,214,262,212,0
363,0.23,0.76,0.6,7.26,10.74,1.34,417,454,208,251,215,0
364,0.21,0.78,0.64,5.43,6.41,3.91,416,456,212,265,210,0
365,0.15,0.91,0.68,7.57,15.56,-6.96,419,449,212,260,212,0
366,0.17,0.8,0.6,-0.67,-1.77,-2.38,418,444,209,260,215,0
367,0.18,0.82,0.62,1.83,3.91,-6.9,420,434,207,261,216,0
368,0.15,0.81,0.59,-0.06,-15.14,0.85,415,432,209,264,210,0
369,0.21,0.79,0.59,0.79,-17.4,-8.67,419,442,212,263,214,0
370,0.24,0.79,0.59,0.12,0.31,-1.46,414,436,208,259,213,0
371,0.19,0.79,0.59,3.54,3.3,-5.62,419,438,209,265,212,0
372,0.16,0.82,0.59,-0.92,-1.59,2.38,417,466,206,261,213,0
373,0.15,0.78,0.59,-3.85,4.52,3.54,417,460,211,262,214,0
374,0.13,0.78,0.61,3.11,0.06,0.12,418,462,210,261,211,0
375,0.14,0.8,0.62,-6.65,-7.08,-3.66,422,461,214,257,215,0
376,0.31,0.72,0.57,3.3,-26.79,8.42,416,460,208,264,211,0
377,0.26,0.8,0.58,3.23,-8.12,3.54,418,456,207,257,209,0
378,0.18,0.7,0.59,-0.37,-11.66,-7.81,419,455,213,258,202,0
379,0.27,0.93,0.57,-6.29,-20.39,-4.52,415,456,209,264,212,0
380,0.38,0.78,0.39,-10.86,8.79,-1.77,418,460,208,260,213,0
381,0.22,0.67,0.55,-2.99,-3.05,1.34,417,459,206,266,210,0
382,0.24,0.73,0.61,-2.44,47.61,-48.4,413,458,208,263,215,0
383,0.17,0.78,0.71,-27.59,15.87,-26.49,410,455,209,261,208,0
384,0.18,0.59,0.5,-4.09,-18.86,4.39,421,449,209,265,214,0
385,0.25,0.79,0.7,4.09,-26.25,9.22,414,455,204,263,214,0
386,0.19,0.66,0.59,-3.78,3.78,-29.91,414,452,212,261,213,0
387,0.34,0.79,0.65,1.95,-22.4,23.68,409,452,211,263,214,0
388,0.17,0.78,0.66,14.83,1.16,1.16,412,456,211,264,214,0
389,0.36,0.75,0.54,3.05,-5.68,2.69,413,453,210,264,216,0
390,0.29,0.8,0.58,-1.53,-4.7,-8.06,408,460,215,263,212,0
391,0.38,0.8,0.52,-1.89,-3.54,-21.0,411,452,216,261,216,0
392,0.4,0.76,0.52,-0.43,1.59,-13.37,416,461,213,261,212,0
393,0.33,0.79,0.55,0.43,-4.52,-5.37,410,461,208,264,216,0
394,0.38,0.77,0.5,1.46,1.89,-7.69,412,455,208,264,212,0
395,0.33,0.79,0.53,3.85,-6.41,3.05,411,456,211,261,215,0
396,0.35,0.81,0.52,3.42,-2.26,9.77,407,457,209,262,212,0
397,0.3,0.81,0.54,1.89,-7.45,-2.08,410,462,214,262,216,0
398,0.32,0.8,0.51,-2.38,-10.19,1.89,412,453,211,262,210,0
399,0.37,0.71,0.48,2.93,-26.79,10.01,405,457,209,259,212,0
400,0.52,0.76,0.48,6.53,-22.09,13.67,407,458,208,265,213,0
401,0.42,0.79,0.48,-1.28,2.99,-7.02,405,459,212,265,212,0
402,0.38,0.77,0.47,2.81,3.05,-2.56,410,453,211,259,213,0
403,0.37,0.77,0.48,0.73,-3.42,0.61,407,464,208,263,214,0
404,0.41,0.77,0.47,-3.85,0.92,-12.21,406,463,209,258,218,0
405,0.33,0.75,0.49,2.38,-3.85,-1.71,409,464,213,260,213,0
406,0.3,0.81,0.55,5.25,-21.91,17.09,405,462,211,261,211,0
407,0.29,0.83,0.57,4.7,-10.07,5.98,407,464,213,257,211,0
408,0.29,0.8,0.56,0.55,0.12,-3.23,406,454,207,260,214,0
409,0.29,0.78,0.55,-2.62,-3.05,-5.0,402,456,209,260,212,0
410,0.29,0.79,0.54,1.1,-3.42,-0.24,404,460,209,260,213,0
411,0.37,0.74,0.53,-1.95,-5.62,-9.7,405,464,199,263,213,0
412,0.3,0.79,0.54,-0.55,2.81,-5.19,401,460,212,265,239,0
413,0.28,0.75,0.52,-23.13,-13.55,3.36,404,454,217,262,213,0
414,0.36,0.7,0.61,-2.75,5.13,3.17,403,458,210,265,213,0
415,0.37,0.63,0.53,-1.4,8.36,-7.14,404,454,211,264,213,0
416,0.26,0.77,0.72,4.21,-0.37,-20.14,405,459,212,279,218,0
417,0.21,0.69,0.65,0.73,3.05,-6.1,402,459,204,261,213,0
418,0.28,0.71,0.7,9.58,-7.45,-4.09,402,455,207,262,216,0
419,0.38,0.72,0.63,1.4,0.43,-9.7,404,462,208,259,215,0
420,0.18,0.76,0.71,4.03,12.27,-7.81,401,455,211,263,215,0
421,0.26,0.71,0.65,2.69,-3.91,-15.01,404,457,210,263,213,0
422,0.19,0.78,0.63,1.95,-0.31,2.75,401,463,210,265,214,0
423,0.13,0.71,0.59,-1.59,-15.38,0.12,410,458,210,274,212,0
424,0.19,0.74,0.63,2.75,3.72,8.18,401,458,213,259,213,0
425,0.19,0.76,0.62,2.56,-1.46,-0.61,398,458,209,264,213,0
426,0.2,0.79,0.67,-0.43,-1.46,-1.77,402,458,208,264,216,0
427,0.23,0.76,0.63,-0.85,-5.07,-9.83,403,453,210,258,211,0
428,0.22,0.75,0.61,-0.43,-2.5,-0.18,400,458,213,267,211,0
429,0.17,0.74,0.64,-0.67,1.1,-1.04,403,456,210,270,218,0
430,0.22,0.75,0.64,1.16,-4.09,-2.62,402,462,209,258,212,0
431,0.2,0.77,0.65,-4.21,-0.79,-0.67,402,458,214,260,214,0
432,0.19,0.73,0.67,-3.42,10.19,-2.75,404,457,209,267,215,0
433,0.11,0.72,0.7,0.67,-4.09,8.67,402,458,212,262,216,0
434,0.19,0.73,0.62,1.1,8.61,2.62,407,452,211,262,214,0
435,0.19,0.66,0.61,-1.65,3.85,-0.49,405,451,209,259,213,0
436,0.28,0.75,0.67,-13.37,-14.89,-10.13,403,457,205,262,216,0
437,0.23,0.69,0.6,-2.38,-4.76,-10.44,398,459,213,263,213,0
438,0.2,0.81,0.65,-2.69,2.26,-6.84,405,461,199,265,214,0
439,0.16,0.67,0.65,6.47,9.16,4.58,401,453,210,261,215,0
440,0.27,0.77,0.64,-4.52,-10.68,-2.14,402,451,217,265,217,0
441,0.19,0.64,0.68,9.34,-6.59,2.38,399,456,216,262,217,0
442,0.16,0.73,0.78,6.04,9.89,6.59,400,457,211,265,214,0
443,0.25,0.8,0.63,2.87,-5.0,-3.48,409,454,209,263,218,0
444,0.2,0.85,0.71,-4.39,-5.13,-18.13,404,458,224,265,210,0
445,0.3,0.71,0.61,-14.71,3.36,-11.47,400,461,208,264,214,0
446,0.21,0.64,0.66,-2.32,-18.13,0.06,402,453,207,265,216,0
447,0.35,0.68,0.7,6.47,-3.6,-14.34,400,458,216,269,217,0
448,0.21,0.69,0.68,2.32,0.31,-2.32,402,452,212,267,214,0
449,0.27,0.73,0.66,12.57,-6.65,2.5,399,459,211,263,218,0
450,0.21,0.66,0.7,17.33,-2.32,5.25,398,459,212,267,212,0
451,0.1,0.69,0.67,7.39,9.22,-1.83,398,460,209,268,214,0
452,0.3,0.75,0.61,10.19,-0.43,-11.29,400,457,210,264,216,0
453,0.15,0.75,0.6,6.35,0.49,0.18,402,453,211,264,214,0
454,0.24,0.79,0.65,4.52,-5.68,4.52,403,460,210,264,216,0
455,0.25,0.75,0.58,-4.09,6.77,6.29,399,459,208,264,217,0
456,0.17,0.72,0.69,-14.95,6.47,-1.4,404,455,211,267,211,0
457,0.29,0.71,0.62,-8.73,-4.58,-14.71,398,454,210,263,213,0
458,0.22,0.75,0.7,-5.68,1.53,-13.0,402,457,211,262,214,0
459,0.25,0.69,0.67,-7.87,-9.77,-2.2,401,458,212,263,218,0
460,0.25,0.68,0.68,0.61,-1.89,-3.78,398,455,217,261,217,0
461,0.26,0.71,0.66,0.37,2.14,-9.52,395,452,208,266,221,0
462,0.18,0.71,0.66,3.23,3.97,0.43,404,458,210,266,215,0
463,0.15,0.72,0.67,2.56,5.62,-9.16,402,459,207,263,217,0
464,0.1,0.76,0.68,2.38,-1.89,-4.39,400,456,212,264,216,0
465,0.14,0.75,0.65,3.97,-11.78,-4.39,402,456,216,263,218,0
466,0.13,0.77,0.64,3.85,-1.53,-6.47,396,454,209,263,211,0
467,0.16,0.75,0.62,-3.42,-0.43,-3.6,401,459,212,269,216,0
468,0.15,0.74,0.65,0.06,-11.41,0.67,402,454,212,263,218,0
469,0.18,0.73,0.66,-1.77,-5.37,-5.74,400,458,223,268,214,0
470,0.18,0.8,0.68,4.03,3.23,-1.46,397,459,212,265,214,0
471,0.18,0.75,0.66,6.1,-5.55,-1.04,394,459,213,265,218,0
472,0.13,0.76,0.62,9.64,9.22,-10.99,400,458,211,267,218,0
473,0.07,0.77,0.62,0.24,0.37,1.77,402,461,212,268,215,0
474,0.06,0.77,0.63,-2.26,-4.52,-1.95,400,455,212,265,216,0
475,0.11,0.78,0.63,0.92,-10.13,-3.17,400,455,212,265,215,0
476,0.08,0.76,0.61,2.01,-3.48,-3.11,402,459,208,263,217,0
477,0.07,0.79,0.63,1.22,-1.65,-3.54,403,459,205,268,218,0
478,0.07,0.79,0.63,0.98,-3.36,-2.75,407,459,213,263,216,0
479,0.08,0.78,0.63,0.67,-5.37,-1.34,401,458,213,268,220,0
480,0.11,0.8,0.62,-0.67,-1.77,0.61,400,456,211,267,215,0
481,0.11,0.77,0.62,-2.99,-3.3,-1.71,402,459,209,262,227,0
482,0.15,0.75,0.64,-4.76,-8.79,1.77,403,457,210,267,216,0
483,0.13,0.79,0.63,3.54,-2.14,-7.2,402,460,207,266,215,0
484,0.12,0.8,0.73,-7.26,-6.53,-3.17,397,457,211,267,213,0
485,0.17,0.74,0.67,-0.79,-11.35,-0.61,399,455,212,260,216,0
486,0.25,0.76,0.64,9.22,1.65,2.08,403,464,213,266,215,0
487,0.25,0.71,0.62,-3.23,-4.52,-2.38,399,453,216,264,208,0
488,0.25,0.72,0.64,0.79,-3.23,-0.43,400,453,213,259,218,0
489,0.28,0.76,0.68,8.61,3.42,-10.62,400,455,210,265,208,0
490,0.24,0.81,0.66,-2.44,0.73,-4.76,399,455,213,266,217,0
491,0.24,0.72,0.6,7.02,-6.59,-3.54,400,456,212,263,220,0
492,0.19,0.81,0.65,6.65,1.77,17.82,398,461,211,264,215,0
493,0.22,0.75,0.63,-8.36,-22.52,0.0,401,462,208,262,239,0
494,0.22,0.68,0.67,-4.03,-10.93,-5.55,401,455,210,266,219,0
495,0.3,0.7,0.64,3.3,-9.52,-2.26,397,459,213,269,216,0
496,0.33,0.74,0.64,0.24,-2.32,-1.22,401,459,212,267,227,0
497,0.26,0.73,0.61,6.9,13.06,-1.4,400,457,211,261,213,0
498,0.29,0.76,0.64,2.32,0.43,1.65,399,463,216,266,218,0
499,0.21,0.73,0.63,-4.58,-1.22,-6.29,398,454,210,264,218,0
500,0.13,0.98,0.0,-3.78,-4.58,-2.87,430,467,228,279,235,0
501,0.18,0.98,0.0,-0.49,-7.87,6.9,430,460,231,284,233,0
502,0.16,1.01,-0.01,12.57,-5.74,-2.75,429,460,229,281,235,0
503,0.17,1.0,0.0,-10.19,3.23,-4.21,432,465,227,276,235,0
504,0.16,1.02,0.02,9.28,-4.39,-4.94,430,468,222,272,223,0
505,0.15,0.91,-0.04,4.64,-13.37,10.01,427,467,222,280,223,0
506,0.16,0.95,-0.02,-9.89,-12.7,7.63,427,466,226,274,225,0
507,0.24,1.04,0.01,-1.34,-3.78,-5.86,429,469,225,276,226,0
508,0.21,0.99,-0.03,-1.65,-2.62,4.15,426,469,230,279,227,0
509,0.2,0.95,0.02,1.65,-5.86,-1.46,427,471,227,276,226,0
510,0.21,0.96,0.0,-0.18,0.92,-1.53,430,465,228,277,229,0
511,0.21,0.97,-0.01,-0.18,-0.79,-6.41,428,466,227,275,244,0
512,0.2,0.97,-0.02,0.18,3.3,-3.85,431,464,226,276,228,0
513,0.18,0.97,-0.02,-0.37,-1.71,-3.23,429,461,229,277,226,0
514,0.2,0.98,-0.01,-0.73,-1.04,-2.93,429,465,230,279,228,0
515,0.18,0.98,0.0,1.71,2.75,-0.98,430,468,229,276,226,0
516,0.17,0.99,0.01,1.65,-3.85,-2.56,429,465,225,274,226,0
517,0.17,0.96,0.01,-2.87,-7.93,-2.32,433,467,231,279,227,0
518,0.2,0.99,0.01,0.43,-5.49,-4.46,431,463,227,279,227,0
519,0.19,0.98,0.01,-0.31,-3.42,-2.93,430,467,228,275,257,0
520,0.17,0.98,0.02,-1.65,-6.04,-1.04,426,476,226,279,230,0
521,0.18,0.97,0.02,2.14,-3.78,-3.11,429,466,224,277,230,0
522,0.18,0.98,0.02,-0.67,-2.14,-2.56,432,469,227,278,227,0
523,0.17,0.98,0.03,-2.08,-3.3,-5.13,428,471,225,279,228,0
524,0.16,0.98,0.02,2.26,-0.79,-2.2,424,468,222,277,228,0
525,0.16,0.98,0.02,-0.79,-3.66,-3.3,423,470,223,283,227,0
526,0.15,0.98,0.03,-1.77,-4.33,-1.83,429,467,228,278,229,0
527,0.17,0.98,0.01,-0.85,-4.76,-0.92,424,467,224,281,227,0
528,0.17,0.99,0.03,1.65,-4.39,-1.65,423,466,227,280,226,0
529,0.19,0.98,0.01,0.98,-1.1,-1.34,424,468,226,279,228,0
530,0.17,0.98,0.0,4.64,-0.98,-2.56,426,464,229,280,227,0
531,0.18,0.98,-0.01,2.93,-3.3,-0.61,426,466,225,276,230,0
532,0.21,0.96,-0.02,0.67,-0.37,-0.06,426,467,223,281,228,0
533,0.2,0.98,0.0,-3.3,3.42,-1.53,425,467,230,279,229,0
534,0.21,0.97,0.01,-0.18,2.44,-0.06,426,467,224,280,257,0
535,0.17,0.95,0.01,2.32,-0.98,4.52,427,469,228,278,235,0
536,0.23,0.98,0.0,3.42,-7.51,-3.05,423,463,228,280,230,0
537,0.24,0.95,-0.02,-2.81,3.17,-6.35,427,468,230,281,229,0
538,0.21,0.93,0.0,-4.58,-1.65,0.55,426,467,228,280,232,0
539,0.29,1.04,0.0,-21.61,13.55,-15.14,431,465,229,280,232,0
540,0.27,1.08,0.44,35.03,26.86,-18.74,424,469,228,283,233,0
541,0.32,0.95,0.11,10.19,-6.16,-5.62,430,470,232,285,232,0
542,0.37,0.9,0.06,2.32,-3.54,-0.98,427,461,233,280,235,0
543,0.39,0.93,0.06,1.34,-3.54,-0.85,426,471,232,281,231,0
544,0.39,0.93,0.07,0.55,-3.91,-0.31,432,467,228,284,230,0
545,0.4,0.92,0.05,4.21,-2.08,-5.0,427,471,230,279,235,0
546,0.38,0.92,0.05,0.67,-0.55,-5.49,429,472,230,282,234,0
547,0.4,0.91,0.05,-0.49,-3.85,-1.46,429,462,230,283,236,0
548,0.4,0.91,0.04,-0.06,-3.6,-1.65,429,467,233,284,229,0
549,0.4,0.9,0.04,0.73,-4.39,-2.69,429,467,232,283,231,0
550,0.4,0.91,0.04,-0.18,-3.54,-3.3,431,469,230,283,234,0
551,0.4,0.92,0.04,-0.37,-3.11,-4.15,425,471,235,283,233,0
552,0.39,0.91,0.06,-1.34,-3.3,-1.77,429,467,228,285,234,0
553,0.41,0.91,0.04,-0.43,-3.3,-2.26,430,467,226,285,232,0
554,0.41,0.91,0.05,1.4,-2.69,-2.5,427,467,231,280,232,0
555,0.4,0.91,0.04,2.14,-2.44,-4.33,431,479,229,285,232,0
556,0.4,0.91,0.01,1.65,-3.3,-2.56,426,467,233,283,234,0
557,0.4,0.92,0.02,-0.37,-2.08,-4.33,428,473,232,283,232,0
558,0.4,0.91,0.01,-1.28,-2.93,-2.56,426,468,227,283,235,0
559,0.4,0.91,0.02,-1.53,-2.87,-2.26,429,465,228,284,233,0
560,0.41,0.91,0.02,-0.06,-3.17,-2.62,429,470,232,285,233,0
561,0.41,0.91,0.03,0.0,-3.23,-2.5,430,466,233,286,236,0
562,0.4,0.92,0.03,0.06,-2.93,-2.08,430,468,230,284,231,0
563,0.4,0.91,0.04,-0.24,-3.85,-2.62,429,469,226,283,236,0
564,0.41,0.92,0.03,2.56,-3.42,-2.62,426,467,234,286,236,0
565,0.41,0.91,0.02,2.2,-5.37,1.83,422,473,230,294,231,0
566,0.43,0.91,0.0,0.43,-4.15,-1.04,425,463,231,287,250,0
567,0.43,0.9,0.0,-0.49,-2.62,-3.97,428,481,232,281,234,0
568,0.42,0.92,0.01,0.43,-3.85,-3.05,430,470,232,284,236,0
569,0.42,0.9,0.01,-0.85,-3.42,-2.87,423,469,234,287,236,0
570,0.42,0.9,0.02,0.31,-3.05,-2.93,429,471,246,287,236,0
571,0.42,0.91,0.02,0.18,-3.48,-3.97,431,467,236,287,234,0
572,0.4,0.91,0.02,0.0,-3.36,-2.56,428,467,234,286,236,0
573,0.4,0.91,0.01,1.1,-2.2,-2.93,430,467,229,284,234,0
574,0.41,0.91,0.01,0.12,-2.32,-3.23,431,465,231,285,235,0
575,0.41,0.91,0.02,-0.24,-3.36,-2.75,430,472,231,282,238,0
576,0.41,0.92,0.02,0.55,-4.09,-1.59,428,468,230,287,237,0
577,0.41,0.91,0.03,0.92,-2.93,-2.5,426,467,233,284,233,0
578,0.4,0.91,0.03,-2.75,-2.2,-1.53,424,467,228,284,241,0
579,0.4,0.91,0.03,-0.98,-2.93,-3.3,426,467,234,285,234,0
580,0.39,0.92,0.04,1.89,-3.36,-2.32,428,465,231,284,234,0
581,0.4,0.91,0.03,0.0,-3.54,-2.62,427,468,235,285,237,0
582,0.39,0.94,0.04,-0.18,-4.7,-2.08,435,468,225,288,234,0
583,0.4,0.89,0.03,-5.0,-6.65,-0.98,427,469,235,283,235,0
584,0.41,0.91,0.04,-0.12,-6.65,-3.91,425,472,236,284,236,0
585,0.41,0.85,0.06,-3.23,-5.0,-4.94,428,471,228,284,240,0
586,0.39,0.89,0.06,0.31,-3.42,0.31,424,475,233,285,234,0
587,0.43,0.88,0.02,-0.43,-3.72,-2.32,424,471,232,286,233,0
588,0.42,0.89,0.02,4.94,-9.03,-7.08,427,465,235,285,237,0
589,0.4,0.94,-0.01,2.93,-5.8,-4.39,421,470,231,284,238,0
590,0.35,0.93,-0.02,1.59,-0.98,0.24,424,471,233,287,236,0
591,0.39,0.91,-0.03,1.46,-6.41,-5.13,423,473,230,286,235,0
592,0.4,0.92,-0.03,0.67,0.18,-6.1,418,469,230,281,237,0
593,0.36,0.95,-0.03,16.36,3.66,-7.51,420,469,228,283,236,0
594,0.31,0.95,-0.01,-4.76,8.12,0.73,425,466,231,285,225,0
595,0.36,0.91,-0.01,-7.87,-5.31,-0.79,426,469,234,287,236,0
596,0.38,0.91,0.09,7.39,-11.11,-10.74,426,471,235,288,235,0
597,0.36,0.91,0.03,-0.79,1.59,1.53,428,468,232,285,234,0
598,0.38,0.92,0.02,2.14,-5.19,-1.71,425,469,235,282,234,0
599,0.38,0.88,0.03,-10.74,-6.47,7.02,428,465,232,292,240,0
600,0.48,0.96,0.14,1.77,9.83,-4.46,430,469,237,288,235,0
601,0.42,0.86,0.14,-7.39,0.61,-2.69,427,472,236,287,239,0
602,0.43,0.88,0.17,-4.64,-10.38,-2.32,426,467,233,286,237,0
603,0.43,0.92,0.14,-8.18,-10.31,-3.72,430,469,232,288,236,0
604,0.49,0.92,0.12,9.7,-0.43,-9.09,429,473,229,285,236,0
605,0.41,0.95,0.23,-2.01,-10.19,-9.16,431,471,235,285,239,0
606,0.43,0.9,0.15,5.0,2.44,-2.32,431,470,236,287,236,0
607,0.44,0.88,0.12,4.88,-3.66,0.49,426,473,243,289,239,0
608,0.37,0.9,0.14,-0.31,-2.56,0.92,427,467,232,286,236,0
609,0.45,0.95,0.11,-0.06,-9.64,-0.61,424,470,231,290,237,0
610,0.4,0.96,0.01,7.63,8.12,-2.26,429,469,233,287,237,0
611,0.37,0.97,0.09,0.79,7.02,-6.65,424,469,232,287,236,0
612,0.34,0.96,0.09,-3.36,-21.3,1.46,429,472,231,290,239,0
613,0.4,0.89,0.08,-4.33,-12.39,-3.42,428,473,236,287,236,0
614,0.42,0.88,0.09,4.33,-2.08,-0.31,427,469,233,290,239,0
615,0.42,0.91,0.09,3.85,-2.38,-2.81,427,468,232,287,237,0
616,0.4,0.92,0.11,-0.06,-4.58,-4.94,424,468,235,288,240,0
617,0.36,0.93,0.12,5.68,8.06,-10.38,430,466,233,290,239,0
618,0.33,0.94,0.1,0.92,-13.67,-9.58,427,473,232,289,237,0
619,0.32,0.93,0.04,5.19,-9.77,-2.87,427,473,234,291,237,0
620,0.3,0.94,0.02,6.1,8.91,1.28,426,473,235,288,237,0
621,0.3,0.94,0.06,-1.28,1.95,6.71,424,470,234,287,235,0
622,0.41,0.93,0.1,-0.73,2.14,1.65,428,473,233,284,239,0
623,0.39,0.9,0.12,0.43,2.32,3.72,428,468,232,289,238,0
624,0.41,0.87,0.12,2.44,-4.82,-1.04,429,467,243,288,239,0
625,0.41,0.89,0.13,2.32,0.18,-1.59,428,470,235,290,235,0
626,0.41,0.89,0.11,-1.4,-3.72,0.43,429,469,234,287,238,0
627,0.44,0.92,0.14,-1.16,-7.45,-4.64,431,464,236,288,239,0
628,0.47,0.91,0.12,3.42,-4.64,-5.25,425,472,240,288,233,0
629,0.44,0.93,0.07,5.55,-2.75,-7.2,426,469,236,287,237,0
630,0.35,0.95,0.17,-1.71,2.56,-7.57,427,464,228,285,237,0
631,0.35,0.92,0.07,-2.38,1.16,-5.62,429,469,234,289,238,0
632,0.44,0.89,0.15,-0.73,1.77,-8.42,428,469,238,286,237,0
633,0.29,0.95,0.11,6.29,1.59,-12.76,429,472,234,287,246,0
634,0.26,0.88,0.07,4.21,1.89,-3.11,427,466,234,289,237,0
635,0.24,0.94,0.13,-4.7,-8.97,0.61,427,470,232,288,268,0
636,0.29,0.96,0.12,2.62,-6.47,-10.93,428,469,234,290,241,0
637,0.27,0.94,0.13,3.78,-5.37,3.54,428,473,234,287,238,0
638,0.25,0.91,0.07,8.3,-2.93,-8.3,431,473,247,288,240,0
639,0.29,0.97,0.1,2.01,-6.9,-5.19,428,469,234,291,237,0
640,0.28,0.94,0.07,-0.85,-3.11,1.71,426,482,231,287,237,0
641,0.28,0.94,0.07,4.58,-6.47,-3.6,428,470,233,288,238,0
642,0.3,0.95,0.07,-0.85,-7.08,-0.49,428,470,234,287,237,0
643,0.28,0.95,0.07,1.04,-2.69,-2.01,423,468,237,287,236,0
644,0.29,0.94,0.07,-3.05,-1.46,-3.78,429,469,233,284,240,0
645,0.28,0.98,0.08,-3.48,-5.07,-4.64,424,466,235,290,245,0
646,0.29,0.96,0.08,4.15,-1.4,-3.42,426,471,236,290,240,0
647,0.26,0.94,0.07,-2.26,0.0,-2.44,427,473,235,288,238,0
648,0.37,1.04,0.15,4.94,10.38,5.92,429,478,242,289,239,0
649,0.4,0.96,-0.08,-5.62,10.38,-22.71,427,468,233,286,238,0
650,0.29,0.91,0.08,5.49,9.22,-6.29,428,469,236,287,237,0
651,0.29,0.99,0.05,3.11,-1.83,0.12,426,473,237,289,239,0
652,0.27,0.93,0.1,-1.46,5.07,1.83,425,464,235,289,239,0
653,0.3,0.94,0.08,4.7,-4.88,-0.85,426,473,236,287,237,0
654,0.3,0.94,0.06,-0.98,-4.76,0.12,427,469,235,290,239,0
655,0.3,0.95,0.07,-0.98,-2.81,-2.69,426,465,236,296,240,0
656,0.29,0.95,0.07,0.85,-4.33,-3.17,425,465,236,285,238,0
657,0.27,0.94,0.09,-2.93,1.4,-4.88,426,469,236,291,238,0
658,0.29,0.95,0.08,-0.55,-2.32,-4.39,430,465,235,291,240,0
659,0.32,0.98,0.01,-0.79,10.8,-4.33,425,470,232,285,240,0
660,0.28,0.97,0.11,2.44,-13.24,6.53,427,472,235,290,257,0
661,0.37,0.93,0.1,0.98,-5.68,0.31,428,473,235,289,237,0
662,0.39,0.89,0.08,-2.38,-7.14,-1.77,429,464,236,284,238,0
663,0.39,0.92,0.05,3.78,-3.11,-3.23,427,465,233,289,241,0
664,0.38,0.93,0.06,-1.16,-3.91,-2.38,428,470,235,288,240,0
665,0.38,0.91,0.05,-0.43,-3.05,-1.71,429,474,234,291,237,0
666,0.38,0.92,0.06,-2.26,-1.65,-1.95,426,470,236,286,239,0
667,0.38,0.92,0.07,0.67,-2.99,-3.66,425,468,233,287,242,0
668,0.37,0.92,0.06,-0.55,-2.38,-2.56,426,471,236,289,239,0
669,0.38,0.93,0.06,-0.67,-2.99,-3.91,423,468,237,287,240,0
670,0.37,0.93,0.06,1.28,-2.44,-2.81,427,468,237,288,240,0
671,0.38,0.91,0.05,0.31,-3.17,-2.14,423,474,237,288,238,0
672,0.37,0.92,0.05,-0.61,-2.69,-2.99,428,467,236,290,239,0
673,0.37,0.92,0.06,0.61,-1.89,-3.91,427,470,234,290,241,0
674,0.38,0.93,0.06,0.31,-2.44,-3.17,422,473,234,292,239,0
675,0.37,0.93,0.06,1.53,-3.85,-3.66,427,469,235,289,241,0
676,0.39,0.91,0.07,-5.98,-8.97,2.08,428,469,238,291,241,0
677,0.4,0.9,0.08,-0.85,-3.6,-2.44,427,470,237,288,239,0
678,0.4,0.92,0.1,1.59,-1.89,-3.6,430,474,236,288,247,0
679,0.39,0.91,0.12,0.85,-2.14,-2.87,428,473,237,293,239,0
680,0.4,0.92,0.09,1.77,-2.38,-3.11,427,469,234,292,238,0
681,0.39,0.92,0.09,2.32,-3.42,-1.77,425,470,236,290,239,0
682,0.4,0.9,0.09,2.14,-3.78,-2.44,428,473,235,287,238,0
683,0.4,0.92,0.08,0.12,-2.93,-2.81,428,466,234,291,242,0
684,0.4,0.91,0.07,0.31,-3.05,-4.33,423,470,235,291,238,0
685,0.39,0.91,0.08,0.18,-3.48,-2.32,427,474,235,289,239,0
686,0.4,0.92,0.08,1.71,-2.26,-2.75,425,469,234,291,240,0
687,0.39,0.94,0.08,-2.01,-0.49,-6.04,426,467,238,293,239,0
688,0.36,0.87,0.1,3.36,-4.94,-3.17,422,468,238,289,242,0
689,0.36,0.91,0.12,5.07,-1.1,1.77,422,469,234,292,241,0
690,0.33,0.96,-0.02,7.02,-9.95,-5.37,422,470,235,290,240,0
691,0.32,0.97,0.04,-5.62,-7.81,1.28,419,468,238,291,243,0
692,0.37,0.93,0.07,1.77,2.26,1.22,427,471,236,289,243,0
693,0.3,0.91,0.08,4.88,2.62,-8.06,424,474,235,291,241,0
694,0.33,0.94,0.03,0.0,-7.51,-1.1,421,465,236,284,241,0
695,0.36,0.91,0.04,-4.58,-5.0,-4.03,436,468,232,290,242,0
696,0.36,0.92,0.04,-5.8,-2.81,0.37,426,470,237,292,244,0
697,0.37,0.92,0.1,-6.96,-3.78,-0.43,426,473,236,293,242,0
698,0.34,0.91,0.1,-14.59,-6.23,2.99,426,474,235,288,243,0
699,0.34,0.94,0.07,-18.68,1.04,3.3,424,470,235,288,238,0
700,0.36,0.95,0.12,-3.78,-4.15,-2.69,423,469,239,289,239,0
701,0.31,0.95,0.08,6.29,-1.1,-2.87,423,468,238,291,241,0
702,0.3,0.94,0.08,2.44,-7.93,-4.21,426,470,237,292,238,0
703,0.32,0.94,0.07,0.98,-6.71,-4.09,427,467,235,290,240,0
704,0.32,0.94,0.06,-0.49,-5.74,-2.44,426,468,236,289,241,0
705,0.3,0.94,0.1,-4.58,-2.87,-5.98,429,465,233,291,243,0
706,0.27,0.93,0.12,1.95,-3.72,0.67,426,473,237,293,241,0
707,0.3,0.85,0.06,11.17,0.61,-4.88,431,468,238,287,242,0
708,0.28,1.06,0.0,-7.63,-2.56,-10.38,427,474,239,292,243,0
709,0.39,0.96,0.02,-2.44,2.08,3.42,428,473,238,292,244,0
710,0.37,0.9,0.07,-4.94,5.37,1.46,428,468,239,290,242,0
711,0.35,0.99,0.07,-2.32,-1.89,-2.44,427,471,233,290,240,0
712,0.37,0.88,0.08,-1.1,-10.31,-1.46,427,465,237,290,241,0
713,0.37,0.94,0.09,5.25,-2.75,-3.91,425,464,236,290,242,0
714,0.33,0.95,0.05,-5.37,-3.23,-3.97,428,468,246,290,244,0
715,0.32,0.91,0.07,7.75,-8.73,-19.17,428,464,239,293,242,0
716,0.31,0.92,0.1,9.89,8.06,-20.87,428,468,236,292,244,0
717,0.17,0.94,0.03,-10.68,30.7,2.44,431,469,239,285,241,0
718,0.07,0.99,0.1,-10.56,7.45,17.76,424,472,239,290,244,0
719,0.21,0.95,0.2,2.2,5.37,18.92,431,465,235,288,242,0
720,0.33,0.91,0.18,-5.31,-15.69,9.58,429,468,236,289,245,0
721,0.45,0.96,0.09,5.86,-19.9,7.45,426,474,236,293,245,0
722,0.41,0.98,0.07,3.54,-8.12,-5.74,433,472,240,288,242,0
723,0.38,0.94,-0.05,1.65,-13.0,-5.31,428,473,235,291,242,0
724,0.23,0.88,0.0,-11.66,-0.31,-13.55,426,472,238,290,242,0
725,0.21,0.97,0.02,-12.15,-7.63,-3.23,430,470,238,290,239,0
726,0.15,0.98,0.07,-3.05,-8.67,-8.79,425,474,240,287,245,0
727,0.15,0.98,0.08,0.37,-0.67,-9.77,426,471,237,287,244,0
728,0.14,0.96,0.07,-3.72,-3.48,-2.69,429,473,235,292,241,0
729,0.14,0.98,0.09,-2.38,-0.92,1.28,425,465,236,292,241,0
730,0.16,0.98,0.09,-1.89,-3.17,-1.65,427,470,236,291,241,0
731,0.15,0.98,0.09,2.44,-4.15,-2.99,429,470,238,294,240,0
732,0.14,0.98,0.09,-0.12,-4.64,-3.78,424,470,237,290,244,0
733,0.13,0.98,0.11,-0.73,-5.68,-3.97,426,469,237,289,242,0
734,0.15,0.97,0.08,-0.31,-6.59,-1.16,421,473,236,290,241,0
735,0.14,0.99,0.1,-0.43,-4.33,-1.89,426,469,233,289,241,0
736,0.17,0.97,0.08,-0.43,-7.14,-1.53,425,472,235,293,241,0
737,0.16,0.98,0.09,0.98,-4.03,-3.11,425,468,232,291,244,0
738,0.16,0.97,0.09,1.95,-1.22,-2.32,425,470,239,291,242,0
739,0.15,0.98,0.09,0.18,-3.3,-1.89,426,469,238,292,242,0
740,0.17,0.98,0.08,4.7,-5.62,-4.82,426,469,238,292,244,0
741,0.15,0.97,0.07,-0.67,-3.11,-2.69,431,470,238,290,242,0
742,0.16,0.98,0.08,-0.49,-4.82,-2.62,426,472,238,293,242,0
743,0.16,0.97,0.07,-0.61,-2.93,-1.89,425,467,236,293,241,0
744,0.16,0.99,0.08,0.61,-4.27,-2.38,426,471,232,294,244,0
745,0.16,0.98,0.07,0.67,-4.03,-3.17,425,470,238,293,240,0
746,0.16,0.98,0.07,3.48,0.0,-3.97,427,468,237,290,242,0
747,0.16,0.98,0.07,-2.75,4.09,5.49,425,472,233,294,249,0
748,0.18,0.98,0.07,0.67,3.66,-1.28,424,471,236,292,244,0
749,0.23,0.99,0.11,1.77,-5.43,-1.46,426,470,237,288,244,0
750,0.22,0.92,0.15,4.76,-2.87,6.16,426,469,234,290,245,0
751,0.31,0.96,0.06,1.28,-21.48,10.68,422,469,237,291,269,0
752,0.35,0.97,0.04,2.75,-8.73,1.77,425,470,234,294,242,0
753,0.34,0.92,0.0,10.38,-1.34,-1.16,423,469,239,290,240,0
754,0.36,0.97,0.02,1.53,0.37,-1.34,425,470,236,289,244,0
755,0.34,0.89,0.05,3.48,6.23,-3.42,426,467,238,292,242,0
756,0.42,0.87,0.05,-2.62,-9.83,-2.38,431,469,243,289,242,0
757,0.35,1.0,0.03,6.16,3.54,3.17,428,469,238,290,245,0
758,0.41,0.93,0.09,3.54,2.44,-7.63,427,469,238,293,244,0
759,0.42,0.86,0.13,1.71,5.31,13.43,427,468,235,293,240,0
760,0.49,0.83,0.13,15.38,9.03,4.58,427,471,230,292,241,0
761,0.39,0.75,0.23,-13.31,4.52,-0.24,426,472,236,289,239,0
762,0.26,0.98,-0.07,8.91,0.73,-23.13,424,464,236,292,242,0
763,0.27,0.95,0.03,-1.59,2.62,1.95,423,470,237,291,242,0
764,0.22,0.97,0.01,-2.99,-4.88,-6.65,424,472,235,300,243,0
765,0.16,0.95,0.07,-2.32,-2.81,-11.72,425,468,235,290,243,0
766,0.27,0.99,0.06,2.81,2.62,24.96,424,471,240,292,239,0
767,0.29,0.97,0.05,0.43,-3.23,-4.7,423,471,237,291,241,0
768,0.22,0.88,0.14,5.49,8.48,0.0,425,470,235,289,240,0
769,0.29,0.96,0.08,-0.73,-3.72,-11.17,427,469,234,290,241,0
770,0.24,0.97,0.03,0.67,1.16,-3.66,424,474,236,290,258,0
771,0.23,0.98,0.08,-2.32,-2.69,-2.26,427,470,235,291,243,0
772,0.22,0.95,0.15,-5.0,-5.98,1.89,428,474,235,287,240,0
773,0.25,0.93,0.1,3.6,-6.47,-2.26,426,473,235,286,240,0
774,0.24,0.97,0.11,-1.71,-1.34,-3.54,424,468,236,293,239,0
775,0.23,0.95,0.14,-10.31,2.81,-5.0,428,472,234,287,235,0
776,0.14,0.95,0.14,5.43,-12.63,-18.92,426,469,234,289,239,0
777,0.13,0.98,0.16,-1.59,-4.7,-4.33,423,481,237,300,243,0
778,0.16,0.96,0.14,-1.65,-2.32,-2.62,425,470,233,288,244,0
779,0.16,0.96,0.14,-0.55,-3.17,-0.98,419,465,237,287,243,0
780,0.17,0.98,0.17,0.31,1.95,-3.36,424,469,234,292,242,0
781,0.18,0.94,0.16,-0.49,9.16,4.88,422,474,235,287,239,0
782,0.18,0.97,0.15,1.59,-12.7,-2.08,423,469,238,289,244,0
783,0.28,0.94,0.09,4.03,-27.77,28.75,424,469,235,289,241,0
784,0.3,0.94,0.11,3.42,-0.85,0.06,418,467,233,292,240,0
785,0.31,0.96,0.11,-8.24,11.47,-7.81,422,470,235,289,241,0
786,0.26,0.96,0.16,0.73,-5.19,-3.66,423,472,237,291,241,0
787,0.27,0.95,0.14,-0.92,-5.0,-1.59,423,468,238,290,240,0
788,0.27,0.95,0.15,-2.26,-5.37,-0.98,421,469,236,289,244,0
789,0.3,0.94,0.14,1.95,-5.98,-2.26,423,469,239,291,253,0
790,0.29,0.95,0.13,-0.85,-2.32,-0.12,423,473,238,286,245,0
791,0.27,0.94,0.13,0.73,-3.3,-4.52,423,474,237,290,275,0
792,0.27,0.92,0.13,-3.36,-10.07,2.81,414,469,240,292,260,0
793,0.3,0.95,0.11,2.75,-6.1,-2.81,427,474,241,293,255,0
794,0.27,0.95,0.09,1.46,-1.65,-6.35,428,468,243,292,253,0
795,0.26,0.94,0.09,-0.73,-3.05,-2.87,428,468,244,292,251,0
796,0.26,0.96,0.1,1.16,-2.44,-4.82,425,468,241,292,246,0
797,0.25,0.96,0.08,0.73,-4.76,-1.89,427,468,241,292,242,0
798,0.25,0.96,0.08,-2.5,-2.5,-1.28,425,463,241,292,241,0
799,0.25,0.98,0.09,-0.79,-4.03,-2.62,424,465,241,290,238,0
800,0.25,0.97,0.08,0.67,-5.07,-7.93,425,464,239,291,234,0
801,0.23,0.97,0.09,0.18,-6.35,-2.44,420,465,241,287,234,0
802,0.28,0.94,0.03,-6.23,-5.13,0.49,424,470,243,292,239,0
803,0.26,1.01,0.1,-0.61,3.05,-2.93,426,472,244,293,237,0
804,0.28,0.94,0.1,0.98,-1.53,-1.71,425,471,239,293,242,0
805,0.26,0.94,0.11,-3.6,0.67,-0.37,425,468,243,295,258,0
806,0.27,0.96,0.12,-1.46,-2.14,-3.42,429,472,240,292,241,0
807,0.28,0.91,0.13,0.24,-4.27,-0.92,425,472,239,295,241,0
808,0.27,0.91,0.11,-3.72,-3.05,1.28,425,472,237,294,241,0
809,0.28,0.93,0.13,-2.44,-1.95,-1.59,426,469,238,290,244,0
810,0.29,0.94,0.12,-3.11,-3.66,-1.89,427,473,243,294,239,0
811,0.31,0.96,0.13,0.55,-4.52,-4.21,423,467,238,295,243,0
812,0.3,0.96,0.12,-4.64,-3.48,-2.62,423,468,240,293,241,0
813,0.34,0.95,0.12,6.29,-6.16,-4.15,425,464,245,292,245,0
814,0.28,0.95,0.13,1.46,-3.42,-0.85,434,477,244,293,244,0
815,0.3,0.94,0.14,-0.12,-3.23,-2.38,427,465,244,291,243,0
816,0.29,0.94,0.13,0.06,-2.08,-2.93,424,474,241,292,243,0
817,0.3,0.95,0.15,-0.24,-2.56,-3.3,422,473,241,295,242,0
818,0.29,0.94,0.14,-0.31,-2.93,-2.08,425,470,239,294,242,0
819,0.29,0.95,0.15,-1.4,-3.54,-2.69,424,464,243,291,242,0
820,0.28,0.94,0.14,0.55,-8.61,-2.38,429,475,244,294,245,0
821,0.3,0.94,0.16,-4.94,-6.71,-1.22,424,472,241,295,244,0
822,0.31,0.94,0.16,-1.04,-5.86,-6.47,424,464,242,293,256,0
823,0.3,0.95,0.15,-2.99,-10.8,-6.53,424,468,240,296,245,0
824,0.27,0.92,0.16,-7.75,-16.97,-3.05,421,468,241,290,243,0
825,0.28,0.88,0.18,-11.47,-31.31,-0.06,423,465,240,292,246,0
826,0.29,0.94,0.19,3.66,-6.53,-5.74,428,468,239,292,241,0
827,0.33,0.93,0.23,6.59,10.5,7.14,422,470,242,296,246,0
828,0.31,0.94,0.17,0.98,28.44,-0.73,425,467,243,297,243,0
829,0.42,0.9,0.31,18.68,26.31,5.43,425,472,243,295,246,0
830,0.42,0.88,0.22,-8.73,-12.7,-2.38,426,473,240,294,245,0
831,0.47,0.9,0.19,15.56,-15.69,-5.0,428,470,239,297,248,0
832,0.4,0.84,0.18,1.28,-14.89,-2.14,425,469,243,294,247,0
833,0.42,0.89,0.15,-2.32,1.83,-9.58,429,470,241,295,244,0
834,0.37,0.9,0.19,-13.98,-11.17,-2.81,427,468,241,298,247,0
835,0.29,0.78,0.28,-10.13,-15.2,-3.72,428,477,241,298,249,0
836,0.27,0.89,0.21,0.55,0.24,-4.88,424,473,241,296,248,0
837,0.33,0.9,0.26,-9.22,-12.21,0.79,425,469,242,298,249,0
838,0.3,0.91,0.28,2.08,-0.85,-4.15,423,471,242,299,246,0
839,0.26,0.94,0.25,12.63,18.86,3.42,424,466,241,298,259,0
840,0.28,0.94,0.21,-1.1,-2.87,2.56,425,467,240,295,251,0
841,0.29,0.94,0.24,-0.92,-7.32,0.79,425,467,240,295,247,0
842,0.32,0.9,0.26,-2.26,-5.98,-0.37,425,468,244,295,249,0
843,0.33,0.91,0.26,0.85,-8.48,-6.53,426,464,243,294,252,0
844,0.31,0.91,0.25,0.18,-2.75,-0.24,423,470,245,295,248,0
845,0.32,0.92,0.26,1.65,-2.32,-1.53,426,469,243,295,254,0
846,0.33,0.92,0.26,0.67,-3.48,-1.28,421,470,240,295,253,0
847,0.32,0.9,0.25,2.14,-2.01,-4.09,426,465,240,292,253,0
848,0.32,0.92,0.25,6.04,0.43,-0.92,427,472,240,299,253,0
849,0.32,0.91,0.2,7.51,2.14,-9.46,423,470,240,297,251,0
850,0.28,0.93,0.24,2.56,1.4,-4.39,425,468,239,296,253,0
851,0.29,0.91,0.25,-0.43,-5.13,-2.81,425,465,241,299,258,0
852,0.29,0.92,0.25,0.0,-3.85,-1.04,423,474,242,298,256,0
853,0.28,0.92,0.25,-1.34,-3.17,-2.38,424,474,238,297,253,0
854,0.3,0.94,0.25,-4.27,-6.47,-5.13,424,469,243,297,253,0
855,0.3,0.92,0.27,0.79,-3.11,-1.34,424,470,239,297,251,0
856,0.28,0.92,0.25,-0.31,-2.93,-4.27,426,472,242,299,255,0
857,0.29,0.93,0.26,-0.31,-2.38,-0.49,423,471,241,299,252,0
858,0.27,0.94,0.27,-2.87,-5.0,-2.38,426,478,243,297,252,0
859,0.28,0.92,0.27,1.28,-4.64,-2.01,424,470,243,297,256,0
860,0.27,0.93,0.27,-0.73,-2.81,-2.99,421,470,245,295,254,0
861,0.32,0.94,0.24,8.91,10.99,-8.73,426,477,244,297,255,0
862,0.2,0.93,0.24,17.21,15.99,1.34,423,473,239,299,254,0
863,0.24,0.97,0.19,2.01,0.0,-5.07,424,464,241,296,254,0
864,0.24,0.97,0.16,3.78,2.26,-4.94,425,464,242,295,250,0
865,0.22,0.97,0.16,4.15,-2.99,-3.66,423,469,242,297,256,0
866,0.23,0.97,0.15,1.77,-1.89,-1.77,424,473,238,300,256,0
867,0.2,0.96,0.13,-0.43,-11.11,-7.26,424,466,241,305,253,0
868,0.25,0.99,0.15,4.82,-8.48,-4.03,425,472,241,299,252,0
869,0.21,0.97,0.14,3.42,2.44,-3.36,426,474,244,296,258,0
870,0.18,0.96,0.13,0.67,-0.98,-4.09,423,471,242,297,260,0
871,0.16,0.87,0.11,18.62,-16.17,15.14,425,467,246,298,255,0
872,0.26,0.99,0.01,19.71,-19.9,-11.23,430,473,245,293,254,0
873,0.13,1.0,-0.04,-2.5,-18.49,-8.24,422,464,239,295,255,0
874,0.21,0.95,-0.04,-20.69,3.48,5.92,429,473,242,299,255,0
875,0.29,1.07,-0.07,1.04,-0.24,-10.74,424,468,245,296,257,0
876,0.23,0.91,0.0,-0.67,-7.81,-6.47,423,468,243,298,258,0
877,0.16,0.93,-0.03,-7.63,11.6,2.75,428,474,243,299,258,0
878,0.19,0.99,-0.01,1.22,-1.28,-2.5,424,471,245,295,258,0
879,0.18,0.98,-0.01,-0.37,-5.8,-3.36,423,473,241,297,256,0
880,0.21,0.98,0.01,1.4,-4.94,-5.49,424,469,244,299,254,0
881,0.19,0.96,0.01,-3.54,-4.88,1.28,425,469,238,308,257,0
882,0.21,0.98,0.04,-0.98,-5.19,1.46,425,469,244,298,252,0
883,0.2,0.97,0.04,-0.37,-4.88,-2.69,426,469,241,297,256,0
884,0.21,0.96,0.04,-0.73,-5.43,-2.62,427,472,243,298,256,0
885,0.2,0.98,0.05,-0.37,-3.36,-3.72,426,467,238,299,284,0
886,0.2,0.97,0.04,0.37,-3.48,-3.36,426,470,242,300,257,0
887,0.2,0.98,0.05,-0.12,-3.3,-2.44,424,467,242,296,255,0
888,0.2,0.98,0.05,-0.06,-1.95,-3.17,421,470,242,300,257,0
889,0.19,0.98,0.05,0.55,-3.11,-2.5,423,469,252,297,254,0
890,0.19,0.97,0.05,-1.46,-4.39,-2.5,426,470,244,299,257,0
891,0.19,0.97,0.05,0.67,-3.36,-3.54,428,472,242,296,254,0
892,0.19,0.98,0.05,0.55,-3.42,-2.2,425,470,240,297,252,0
893,0.2,0.97,0.05,1.34,-5.25,-3.23,426,471,240,295,254,0
894,0.19,0.98,0.04,1.4,-3.6,-2.81,427,470,239,300,253,0
895,0.19,0.98,0.05,0.31,-2.44,-2.26,422,471,244,297,256,0
896,0.18,0.97,0.04,0.12,-2.2,-2.87,424,467,248,301,256,0
897,0.17,0.98,0.06,-0.61,-3.36,-2.01,425,469,242,301,253,0
898,0.17,0.98,0.05,1.53,-4.52,-2.32,421,469,243,295,258,0
899,0.17,0.97,0.04,0.12,-4.27,-2.75,426,467,240,297,255,0
900,0.17,0.98,0.04,1.4,-4.52,-3.91,426,468,250,295,257,0
901,0.17,1.0,0.01,2.99,5.55,1.28,425,486,246,299,256,0
902,0.1,0.88,0.1,-10.44,30.33,24.35,419,470,257,300,255,0
903,0.21,1.07,0.19,0.06,-15.93,-2.5,419,471,243,296,257,0
904,0.21,0.93,0.14,1.59,-12.76,-1.1,429,469,245,299,258,0
905,0.21,0.96,0.13,-3.11,-11.66,-3.78,424,469,241,306,256,0
906,0.24,0.96,0.11,5.0,-7.08,-1.22,426,474,245,299,255,0
907,0.23,0.97,0.09,1.83,-0.06,-3.42,427,466,243,297,257,0
908,0.21,0.96,0.1,-0.67,-2.44,-2.99,424,465,244,297,256,0
909,0.24,0.96,0.1,1.53,-4.03,-3.72,420,472,244,300,252,0
910,0.22,0.94,0.11,-2.69,-5.98,-2.38,425,467,242,300,255,0
911,0.23,0.89,0.09,9.34,-1.71,-3.17,421,468,244,296,254,0
912,0.28,1.03,0.04,7.81,0.0,-9.7,426,472,239,294,257,0
913,0.22,0.96,-0.04,-8.12,7.45,-1.53,425,469,242,299,253,0
914,0.3,0.97,0.18,-1.65,-5.98,-5.92,424,474,237,301,257,0
915,0.26,0.87,0.13,-4.94,-3.17,3.23,421,470,240,299,253,0
916,0.21,0.98,0.13,-2.08,-4.64,12.63,423,468,244,299,256,0
917,0.2,0.94,0.12,-3.85,5.8,-5.07,424,470,244,299,256,0
918,0.26,0.97,0.12,-0.43,-4.82,2.69,425,472,241,297,252,0
919,0.23,0.98,0.13,-3.36,-4.7,0.98,424,469,244,300,251,0
920,0.29,0.95,0.13,2.44,-4.64,-6.53,425,469,242,296,254,0
921,0.26,0.97,0.14,-8.0,-2.87,4.88,425,467,244,300,251,0
922,0.29,0.96,0.14,-0.61,-6.1,2.5,424,473,241,294,256,0
923,0.2,0.93,0.22,15.01,-2.93,-7.39,425,469,244,297,253,0
924,0.24,1.0,-0.07,1.89,3.42,-19.41,425,470,245,297,254,0
925,0.18,1.11,0.09,4.82,8.61,5.86,426,469,244,302,257,0
926,0.26,0.92,0.06,-6.71,-2.81,17.88,426,471,242,297,257,0
927,0.34,1.0,0.12,-5.0,-2.99,-6.77,426,474,240,296,254,0
928,0.24,0.93,0.09,2.75,-16.66,-2.93,425,466,242,295,253,0
929,0.32,0.91,0.1,-10.86,-11.72,8.42,425,470,241,301,257,0
930,0.3,0.95,0.18,-11.41,-4.15,-7.02,425,473,243,298,254,0
931,0.35,0.81,0.2,2.5,-16.24,-4.21,427,474,239,300,254,0
932,0.33,0.98,0.19,1.34,6.1,-0.61,423,470,242,298,254,0
933,0.21,0.97,0.15,13.55,-15.69,-20.45,427,470,242,300,272,0
934,0.25,0.9,0.09,-2.93,-0.85,-1.53,419,471,244,298,262,0
935,0.24,0.97,0.1,-0.98,2.14,-5.07,421,471,243,300,257,0
936,0.24,0.97,0.09,0.31,-2.08,-1.65,423,469,243,295,253,0
937,0.26,0.99,0.1,0.43,-10.25,-2.38,427,467,240,299,257,0
938,0.29,1.01,0.12,-1.95,-9.28,9.58,425,466,244,307,258,0
939,0.29,0.86,0.15,5.62,5.25,-1.34,424,471,239,298,253,0
940,0.27,0.99,0.0,3.78,-9.03,-6.65,420,470,240,296,257,0
941,0.32,1.03,0.05,2.99,-7.39,-14.65,423,468,240,295,254,0
942,0.3,0.96,0.03,2.56,-2.93,-3.78,426,464,257,294,253,0
943,0.31,0.94,0.02,-0.12,-6.04,-3.36,422,465,242,300,256,0
944,0.27,0.98,0.09,1.28,-1.77,-6.84,427,465,244,299,254,0
945,0.24,0.93,0.09,-3.23,-2.2,-6.84,425,470,244,296,253,0
946,0.26,0.98,0.04,1.34,-3.3,-4.15,427,469,242,299,255,0
947,0.22,0.95,0.08,1.59,0.31,-2.69,425,470,240,297,254,0
948,0.24,0.97,0.08,1.65,-4.33,-2.32,426,473,242,295,258,0
949,0.22,0.96,0.08,-1.04,-3.72,-3.3,425,469,244,300,254,0
950,0.25,0.98,0.1,1.34,-4.52,-4.76,426,471,245,299,253,0
951,0.23,0.95,0.07,1.83,-3.85,-3.66,425,474,243,297,254,0
952,0.24,0.99,0.09,-0.61,-5.19,-2.26,424,472,241,298,256,0
953,0.24,0.97,0.07,-3.91,-4.15,-3.72,423,469,242,299,257,0
954,0.23,0.95,0.09,-0.85,-8.3,0.73,421,471,240,298,252,0
955,0.23,0.92,0.06,-0.67,-2.62,-2.99,425,473,241,297,255,0
956,0.2,1.0,0.1,-0.12,-2.99,-0.43,423,470,242,297,257,0
957,0.23,0.99,0.08,2.87,-5.98,-6.41,423,474,245,298,257,0
958,0.24,0.97,0.09,-7.08,1.95,-4.33,424,470,246,300,254,0
959,0.2,0.95,0.06,10.38,-3.54,-5.8,421,470,246,300,254,0
960,0.2,1.01,0.02,-13.43,-7.14,5.25,425,464,242,298,257,0
961,0.27,1.0,0.09,8.54,-9.89,-5.25,424,470,241,295,259,0
962,0.21,0.89,0.08,-0.31,-1.4,-8.0,424,472,241,297,257,0
963,0.19,0.98,0.09,-0.06,7.26,3.54,425,470,242,299,271,0
964,0.2,1.0,0.09,0.79,-3.54,-5.68,424,461,242,299,255,0
965,0.22,0.97,0.07,1.1,-6.1,-2.99,424,469,241,295,255,0
966,0.22,0.99,0.07,1.83,-4.15,-2.01,426,468,245,295,258,0
967,0.2,0.96,0.07,1.04,-3.23,-2.93,423,469,242,293,253,0
968,0.2,0.97,0.07,-0.67,-3.11,-4.03,421,471,243,297,256,0
969,0.2,0.97,0.07,-0.18,-4.21,-1.77,419,473,241,298,253,0
970,0.2,0.98,0.07,-0.43,-2.81,-3.6,424,471,244,301,255,0
971,0.21,1.0,0.1,0.18,-3.48,-1.89,425,474,242,300,266,0
972,0.18,0.95,0.07,1.83,-1.95,-6.84,426,470,243,298,256,0
973,0.16,1.0,0.09,5.43,-3.48,-9.09,424,469,246,298,264,0
974,0.13,1.07,0.0,11.41,-6.59,-7.69,425,469,241,299,253,0
975,0.15,0.9,-0.01,-6.35,-10.19,20.2,421,470,245,300,254,0
976,0.19,0.91,0.04,4.82,-5.13,7.87,423,472,242,300,253,0
977,0.22,1.07,0.02,-14.83,-4.76,4.21,426,469,241,300,255,0
978,0.23,0.95,-0.1,0.12,3.23,-5.55,425,473,242,300,258,0
979,0.22,0.98,0.01,0.49,10.31,-9.77,425,470,244,300,258,0
980,0.25,0.97,0.01,-7.51,5.19,6.53,425,474,243,299,257,0
981,0.19,0.84,0.03,-5.68,-5.68,-8.97,426,474,242,295,255,0
982,0.24,1.12,0.08,5.07,-5.98,-24.11,422,473,244,302,254,0
983,0.04,0.82,0.01,8.0,-9.28,-14.16,426,470,248,301,255,0
984,0.05,1.1,0.15,-7.75,-12.94,-6.47,427,474,243,297,255,0
985,0.19,0.95,0.04,-1.71,2.14,0.61,426,469,244,301,257,0
986,0.2,0.95,0.11,-1.4,-8.24,-5.55,425,469,243,297,261,0
987,0.19,1.0,0.08,3.36,6.9,-4.7,427,466,245,297,255,0
988,0.13,0.97,0.09,-5.07,-4.15,-3.6,426,470,242,298,257,0
989,0.19,0.99,0.08,2.93,-8.79,-6.1,425,465,245,300,258,0
990,0.13,1.04,0.1,-6.84,-11.6,1.65,429,473,243,300,256,0
991,0.17,0.89,0.06,6.16,-9.83,-4.09,428,469,239,298,257,0
992,0.17,1.0,0.08,-5.68,-5.55,2.38,423,472,243,300,258,0
993,0.15,0.94,0.07,6.84,4.52,3.17,426,474,242,301,257,0
994,0.18,0.99,0.02,6.35,2.93,4.21,426,469,243,301,256,0
995,0.27,0.99,0.06,-3.78,-1.65,-2.14,427,473,241,297,256,0
996,0.25,1.02,0.03,14.22,-1.34,8.97,425,469,243,297,258,0
997,0.31,0.98,0.07,11.29,-9.34,-4.76,425,472,241,298,256,0
998,0.24,0.96,0.09,0.18,17.15,2.44,425,473,243,300,256,0
999,0.19,0.91,0.14,19.23,-8.18,21.61,426,470,245,299,264,0
1000,0.26,0.97,0.06,-0.85,-8.73,-11.54,424,470,243,298,256,0
1001,0.3,0.96,0.03,0.06,-8.85,-5.74,425,475,243,298,255,0
1002,0.25,0.96,0.06,-0.73,1.1,-1.71,427,470,246,300,258,0
1003,0.24,0.95,0.06,1.22,0.12,-3.97,425,471,243,301,258,0
1004,0.25,0.98,0.07,1.83,-1.59,-4.88,425,474,242,296,253,0
1005,0.24,0.94,0.05,0.85,-1.22,-1.16,427,465,245,298,256,0
1006,0.35,1.01,0.0,-12.76,9.34,20.51,427,465,243,298,254,0
1007,0.86,0.46,-0.05,-90.45,-292.66,53.71,337,470,260,329,300,0
1008,0.58,0.6,-0.47,-6.71,-44.43,9.34,323,463,296,377,325,0
1009,0.5,0.6,-0.56,14.77,5.37,0.61,320,451,358,434,370,0
1010,0.44,0.59,-0.78,24.6,-67.38,-6.23,316,461,361,423,377,0
1011,0.32,0.51,-0.79,7.2,5.07,10.01,306,418,288,334,292,0
1012,0.37,0.32,-0.9,60.67,-38.88,1.4,329,420,375,451,390,0
1013,0.58,0.74,0.41,1.77,-2.26,-6.71,413,468,236,310,219,0
1014,0.58,0.74,0.39,2.93,1.77,-8.3,413,464,236,309,220,0
1015,0.53,0.73,0.41,-5.25,-5.68,-4.82,412,467,235,310,223,0
1016,0.57,0.75,0.39,2.44,-6.41,-1.83,412,459,238,312,228,0
1017,0.57,0.76,0.39,-1.59,-3.17,-4.39,416,465,238,309,220,0
1018,0.51,0.74,0.41,-1.16,-5.0,-1.1,413,464,238,310,219,0
1019,0.55,0.74,0.42,-4.21,-2.14,3.91,413,467,236,311,223,0
1020,0.59,0.76,0.39,7.45,-3.23,-2.81,413,465,236,309,223,0
1021,0.55,0.71,0.42,-4.15,-3.42,-0.98,414,465,238,312,226,0
1022,0.58,0.75,0.4,2.26,-2.93,-3.11,413,465,246,311,223,0
1023,0.52,0.69,0.44,-2.14,-0.61,-3.17,412,464,239,308,222,0
1024,0.5,0.77,0.46,7.81,1.71,-7.39,413,461,240,311,224,0
1025,0.5,0.71,0.44,2.08,-2.5,-1.28,417,459,240,309,225,0
1026,0.45,0.83,0.47,2.32,2.08,-2.87,414,471,237,305,224,0
1027,0.45,0.82,0.43,-3.48,-3.85,4.39,415,463,235,307,224,0
1028,0.46,0.83,0.42,4.52,-1.16,-3.05,414,460,239,312,224,0
1029,0.44,0.8,0.43,3.48,0.49,-2.62,414,465,240,308,228,0
1030,0.45,0.79,0.42,1.04,-6.35,1.16,413,469,241,311,226,0
1031,0.46,0.81,0.44,-0.61,-3.3,-2.08,412,466,242,315,228,0
1032,0.46,0.77,0.42,1.04,-3.42,-0.98,414,466,242,310,226,0
1033,0.46,0.79,0.42,-0.73,-1.95,-1.28,411,468,237,313,227,0
1034,0.46,0.77,0.42,-1.53,-2.81,-3.17,412,467,241,314,228,0
1035,0.48,0.77,0.41,1.16,-3.97,-2.01,415,466,240,315,229,0
1036,0.48,0.79,0.41,0.24,-1.4,-2.44,410,467,239,311,227,0
1037,0.47,0.79,0.42,-2.32,-2.69,-3.85,416,468,242,309,227,0
1038,0.47,0.8,0.43,-2.32,-2.08,-2.14,415,466,241,313,228,0
1039,0.46,0.77,0.42,1.71,-0.24,-4.09,415,467,243,310,227,0
1040,0.47,0.79,0.42,0.12,-2.2,-2.5,410,474,241,311,268,0
1041,0.46,0.79,0.43,1.34,-2.81,-3.17,415,473,239,314,226,0
1042,0.46,0.8,0.42,0.73,-2.5,-3.48,415,471,242,317,229,0
1043,0.48,0.79,0.42,1.65,-2.56,-3.42,416,468,241,310,229,0
1044,0.46,0.78,0.43,1.04,-1.4,-1.95,413,463,240,311,231,0
1045,0.47,0.79,0.43,-0.37,-3.36,-2.32,409,470,237,311,227,0
1046,0.45,0.78,0.42,2.14,-1.04,-2.81,412,467,247,312,229,0
1047,0.46,0.79,0.43,-1.04,-2.44,-4.21,413,465,240,312,231,0
1048,0.47,0.8,0.4,5.19,-2.75,-2.56,413,471,236,308,228,0
1049,0.47,0.77,0.4,2.14,-2.14,-2.32,414,464,237,309,234,0
1050,0.48,0.79,0.39,-0.12,-3.17,-1.22,414,465,240,309,226,0
1051,0.47,0.79,0.39,1.77,-3.17,-2.2,412,468,239,309,266,0
1052,0.48,0.79,0.39,2.44,-5.62,0.24,414,464,237,312,229,0
1053,0.48,0.78,0.39,-0.18,-5.0,1.71,417,467,237,308,226,0
1054,0.49,0.79,0.38,2.14,-5.19,-1.77,410,468,240,310,229,0
1055,0.48,0.79,0.39,0.61,-3.11,-1.89,414,467,239,311,228,0
1056,0.49,0.79,0.38,2.26,-2.62,-2.93,415,469,242,308,226,0
1057,0.49,0.8,0.39,0.43,-2.87,-2.32,416,468,238,312,229,0
1058,0.49,0.8,0.38,1.22,-2.26,-0.43,411,471,237,311,228,0
1059,0.49,0.8,0.39,0.31,-2.99,-4.46,417,471,238,311,227,0
1060,0.48,0.79,0.39,2.81,-3.42,-3.54,413,472,239,309,231,0
1061,0.47,0.8,0.38,4.03,-4.76,-2.01,412,470,237,310,228,0
1062,0.48,0.8,0.38,0.79,-4.09,-3.3,414,467,236,309,232,0
1063,0.49,0.79,0.37,1.28,-2.5,-1.22,416,466,237,312,231,0
1064,0.49,0.79,0.37,2.2,-2.56,-0.55,415,481,238,311,227,0
1065,0.49,0.78,0.38,1.28,-2.69,-2.99,414,462,238,310,229,0
1066,0.48,0.8,0.4,1.34,-2.01,-4.82,415,463,239,319,229,0
1067,0.49,0.8,0.38,0.31,-2.75,-1.71,412,470,241,308,225,0
1068,0.48,0.78,0.38,0.61,-2.81,-0.24,412,472,237,313,232,0
1069,0.49,0.8,0.38,2.75,-2.44,-2.81,414,469,238,312,231,0
1070,0.49,0.79,0.37,-0.31,-3.48,-3.11,411,467,238,311,229,0
1071,0.47,0.81,0.38,-1.65,-3.23,-4.58,416,470,240,312,233,0
1072,0.49,0.79,0.36,0.92,-4.09,-1.83,415,471,241,315,225,0
1073,0.5,0.81,0.36,-1.53,-4.03,-0.67,414,471,240,313,223,0
1074,0.5,0.8,0.37,3.66,-3.91,-2.32,411,468,244,315,228,0
1075,0.5,0.78,0.36,1.28,-2.44,-1.04,413,467,243,313,244,0
1076,0.5,0.78,0.37,2.26,-4.39,-1.4,415,466,243,313,231,0
1077,0.49,0.79,0.36,-2.08,-2.99,-2.93,412,471,239,313,231,0
1078,0.49,0.79,0.36,-1.22,-2.93,-3.66,415,470,240,317,227,0
1079,0.48,0.8,0.38,0.37,-2.2,-3.42,417,465,244,313,232,0
1080,0.49,0.77,0.37,-1.71,-2.44,-2.08,415,473,241,313,231,0
1081,0.46,0.79,0.36,-3.36,-4.82,-4.82,410,468,238,314,231,0
1082,0.49,0.79,0.36,-0.43,-3.05,-1.34,415,470,240,313,232,0
1083,0.49,0.8,0.37,0.61,-2.81,-2.81,415,468,245,317,229,0
1084,0.48,0.8,0.37,1.4,-1.28,-4.27,415,481,239,312,232,0
1085,0.49,0.8,0.37,1.89,-2.69,-3.11,411,473,246,317,231,0
1086,0.48,0.79,0.38,-0.12,-1.65,-3.23,415,468,243,314,230,0
1087,0.49,0.79,0.36,0.0,-2.44,-3.05,415,482,244,311,230,0
1088,0.5,0.8,0.37,-0.49,-3.6,-0.24,416,462,240,315,229,0
1089,0.49,0.78,0.36,-0.18,-2.81,-2.44,416,464,241,314,228,0
1090,0.5,0.79,0.38,-0.06,-3.23,-2.93,415,470,241,314,231,0
1091,0.46,0.79,0.37,-0.61,-2.38,-3.23,416,468,242,322,231,0
1092,0.49,0.79,0.39,2.26,-1.71,-4.33,414,469,241,314,226,0
1093,0.48,0.8,0.38,-0.79,-2.93,-2.44,412,463,241,312,234,0
1094,0.49,0.78,0.39,-0.06,-3.54,-2.01,414,473,242,312,234,0
1095,0.48,0.8,0.37,0.49,-4.21,-2.93,415,461,240,318,233,0
1096,0.48,0.79,0.38,-0.49,-1.71,-2.38,414,467,242,310,231,0
1097,0.48,0.79,0.37,-1.83,-2.44,-2.38,416,467,239,316,231,0
1098,0.49,0.81,0.38,-0.67,-2.69,-3.72,415,466,242,316,231,0
1099,0.46,0.8,0.39,-1.4,-0.67,-4.46,418,470,241,316,233,0
1100,0.44,0.84,0.37,-3.3,-16.24,-9.58,416,471,239,316,232,0
1101,0.46,0.8,0.4,-1.22,-11.84,-10.38,415,466,240,313,231,0
1102,0.45,0.77,0.38,-4.21,-1.71,5.19,417,467,245,315,231,0
1103,0.49,0.78,0.36,-0.12,3.66,5.98,417,464,244,317,234,0
1104,0.48,0.75,0.36,2.32,3.66,10.99,416,468,240,318,232,0
1105,0.47,0.82,0.42,-0.06,6.1,-2.75,412,468,242,316,230,0
1106,0.49,0.8,0.39,2.5,-4.27,-1.53,415,471,242,318,234,0
1107,0.44,0.78,0.42,1.4,-0.18,1.53,419,469,238,315,233,0
1108,0.49,0.77,0.4,-0.06,-4.82,-2.26,414,467,242,316,233,0
1109,0.48,0.78,0.4,0.79,-4.03,-2.62,416,468,241,316,233,0
1110,0.5,0.8,0.4,0.49,-1.53,-3.17,414,478,246,316,233,0
1111,0.5,0.8,0.41,2.32,-1.28,-2.81,419,467,243,318,251,0
1112,0.49,0.77,0.39,0.31,-2.08,-0.79,414,468,244,317,227,0
1113,0.5,0.78,0.39,0.24,-3.42,-2.14,417,468,244,316,232,0
1114,0.5,0.78,0.4,0.24,-3.6,-2.01,417,471,247,316,272,0
1115,0.51,0.78,0.39,-0.73,-3.23,-1.53,415,466,243,316,231,0
1116,0.5,0.78,0.39,1.28,-2.5,-3.91,416,469,240,319,241,0
1117,0.51,0.77,0.39,-1.16,-2.62,-2.56,416,467,243,316,235,0
1118,0.5,0.77,0.39,-0.18,-4.39,-3.72,417,463,243,317,233,0
1119,0.51,0.76,0.39,-0.31,-4.27,-0.37,418,463,241,317,233,0
1120,0.5,0.77,0.39,-1.04,-2.56,-1.89,416,464,241,318,231,0
1121,0.51,0.78,0.39,0.37,-4.03,-2.08,417,470,242,317,228,0
1122,0.52,0.78,0.39,-1.34,-3.97,-0.98,417,468,243,317,235,0
1123,0.52,0.78,0.39,-1.04,-3.91,-2.93,416,465,241,318,233,0
1124,0.49,0.78,0.4,-1.59,-0.98,-4.76,417,470,241,317,231,0
1125,0.49,0.78,0.39,0.06,-4.46,-2.93,417,466,245,320,231,0
1126,0.48,0.77,0.38,-0.31,-5.49,0.12,417,475,243,320,232,0
1127,0.51,0.78,0.4,-5.86,-10.68,-1.46,418,468,246,321,234,0
1128,0.47,0.71,0.4,-4.64,-2.26,14.34,416,467,245,320,234,0
1129,0.56,0.73,0.39,-3.72,-3.6,-1.53,416,467,249,317,237,0
1130,0.53,0.73,0.41,-3.05,-3.72,0.43,417,470,244,317,244,0
1131,0.55,0.77,0.43,0.43,-2.62,-3.72,417,471,246,317,234,0
1132,0.53,0.76,0.41,0.73,-3.11,1.1,419,474,243,317,233,0
1133,0.53,0.75,0.41,0.73,-4.58,-3.91,415,468,245,319,231,0
1134,0.52,0.73,0.4,-0.18,-3.36,-1.71,417,471,245,318,236,0
1135,0.53,0.77,0.4,2.2,0.73,-7.87,418,471,244,318,233,0
1136,0.54,0.77,0.42,3.23,-3.97,-2.32,416,478,243,322,236,0
1137,0.53,0.75,0.41,0.92,-2.26,-2.99,417,462,243,319,236,0
1138,0.54,0.75,0.4,1.1,-3.36,-1.83,418,466,245,321,234,0
1139,0.53,0.74,0.41,-2.2,-3.3,-2.44,417,473,245,318,237,0
1140,0.54,0.76,0.41,-2.26,-2.75,-1.34,413,471,245,319,234,0
1141,0.52,0.74,0.41,1.04,-3.78,-3.42,412,467,245,316,231,0
1142,0.52,0.76,0.41,-0.73,-2.44,-2.69,417,469,246,320,236,0
1143,0.53,0.74,0.41,-0.06,-4.46,-2.26,416,472,249,316,236,0
1144,0.52,0.76,0.41,-0.85,-1.28,-1.89,417,468,241,321,236,0
1145,0.51,0.76,0.42,1.83,-2.75,-4.46,418,467,244,319,235,0
1146,0.5,0.76,0.42,0.98,-1.22,-2.75,414,467,244,321,246,0
1147,0.53,0.76,0.41,2.56,-4.03,-1.95,417,462,246,324,237,0
1148,0.51,0.75,0.41,0.49,-2.81,-2.44,418,470,243,317,231,0
1149,0.51,0.75,0.41,0.55,-3.05,-1.77,419,471,244,327,234,0
1150,0.51,0.74,0.41,-1.22,-3.36,-2.44,417,467,244,322,230,0
1151,0.51,0.76,0.4,0.67,-2.93,-2.81,418,467,242,317,237,0
1152,0.52,0.74,0.4,0.0,-3.23,-2.32,413,468,245,325,233,0
1153,0.52,0.76,0.42,0.55,-1.83,-2.93,419,471,244,321,234,0
1154,0.51,0.76,0.42,0.49,-2.38,-3.05,418,469,246,319,233,0
1155,0.51,0.77,0.41,3.97,-1.46,-3.72,418,472,242,319,233,0
1156,0.5,0.74,0.4,0.85,-2.81,-2.93,419,467,245,319,230,0
1157,0.51,0.75,0.41,2.32,-2.87,-0.67,417,470,242,318,235,0
1158,0.51,0.77,0.42,0.55,-3.91,3.17,413,470,249,321,234,0
1159,0.53,0.75,0.39,0.49,-4.64,-1.95,416,467,243,320,234,0
1160,0.55,0.74,0.42,-1.83,0.12,1.16,416,470,243,318,235,0
1161,0.52,0.73,0.43,2.99,0.55,1.28,415,468,243,319,235,0
1162,0.54,0.73,0.42,1.4,-1.22,-2.93,420,463,260,322,234,0
1163,0.52,0.72,0.42,2.08,-1.95,-5.86,418,468,247,322,238,0
1164,0.53,0.78,0.41,0.24,-3.3,-0.85,414,464,244,320,235,0
1165,0.55,0.75,0.42,4.27,-4.46,0.06,419,463,246,319,235,0
1166,0.57,0.71,0.4,-2.5,-2.93,-0.85,419,468,247,320,237,0
1167,0.56,0.71,0.44,0.55,-5.0,-4.09,420,462,244,317,234,0
1168,0.55,0.73,0.43,0.49,-3.91,-4.39,418,464,244,317,230,0
1169,0.57,0.69,0.39,-0.79,-3.36,-0.18,418,462,246,323,237,0
1170,0.57,0.73,0.43,-2.75,-3.6,-5.37,417,468,250,323,235,0
1171,0.55,0.69,0.41,-1.16,-3.85,-2.32,418,464,243,322,245,0
1172,0.57,0.7,0.42,0.12,-2.5,-0.85,419,470,242,323,239,0
1173,0.59,0.68,0.43,4.39,-8.97,-8.61,416,463,247,326,238,0
1174,0.58,0.68,0.41,1.4,1.22,-4.46,416,474,245,323,236,0
1175,0.56,0.74,0.44,0.98,0.31,-4.58,417,466,245,320,237,0
1176,0.56,0.72,0.44,2.93,-0.37,-4.03,416,471,248,320,266,0
1177,0.55,0.74,0.45,1.59,-3.11,-2.99,418,468,248,321,236,0
1178,0.54,0.71,0.46,-1.04,-2.75,0.73,419,471,245,318,237,0
1179,0.55,0.71,0.45,-1.95,-2.87,-2.69,419,471,249,322,239,0
1180,0.58,0.71,0.44,0.43,-3.54,-2.87,418,467,249,326,236,0
1181,0.56,0.71,0.44,-0.73,1.04,-5.62,418,465,243,322,240,0
1182,0.57,0.7,0.47,-0.49,-4.58,-3.11,418,467,245,323,235,0
1183,0.55,0.7,0.46,3.23,-3.48,-2.38,418,471,248,323,242,0
1184,0.56,0.71,0.47,0.0,-3.48,-2.81,416,466,246,325,236,0
1185,0.54,0.71,0.44,-0.92,-0.61,-4.94,418,471,245,323,242,0
1186,0.52,0.71,0.47,-1.22,-2.87,-3.78,418,471,243,326,236,0
1187,0.55,0.72,0.47,0.85,-3.54,-2.5,420,470,261,324,239,0
1188,0.53,0.71,0.46,1.16,-2.14,-3.66,416,466,248,324,238,0
1189,0.53,0.72,0.46,0.12,-2.56,-2.38,419,461,246,325,236,0
1190,0.52,0.72,0.45,0.92,-4.21,-1.65,416,462,248,324,253,0
1191,0.56,0.73,0.45,4.64,-0.37,-3.23,418,482,248,323,233,0
1192,0.51,0.75,0.45,1.28,-3.72,-0.73,428,469,247,326,260,0
1193,0.51,0.71,0.44,-0.92,-3.05,-1.34,418,463,249,325,236,0
1194,0.53,0.75,0.45,2.62,-3.6,-6.04,415,467,247,320,236,0
1195,0.5,0.73,0.43,1.22,-2.93,-6.35,418,471,245,322,236,0
1196,0.5,0.75,0.45,0.31,-2.69,-2.44,417,471,246,326,236,0
1197,0.51,0.77,0.44,1.65,-1.83,-2.08,419,467,244,323,236,0
1198,0.5,0.76,0.42,1.77,-3.36,-3.11,418,466,246,329,237,0
1199,0.5,0.74,0.43,-1.22,-3.05,-1.28,419,470,256,324,237,0
1200,0.52,0.75,0.42,3.85,-4.21,-1.1,418,471,250,325,239,0
1201,0.51,0.75,0.41,3.17,-2.75,-3.48,420,471,251,323,237,0
1202,0.52,0.75,0.41,2.62,-2.26,-2.87,419,470,246,322,234,0
1203,0.5,0.77,0.41,1.22,-3.6,-4.7,418,467,247,323,238,0
1204,0.5,0.78,0.42,2.01,-2.69,-2.81,417,465,245,326,240,0
1205,0.5,0.77,0.42,0.67,-3.11,-2.81,418,471,256,324,239,0
1206,0.49,0.76,0.42,0.43,-4.46,-0.49,420,466,245,322,237,0
1207,0.51,0.77,0.41,0.43,-3.3,-1.16,416,468,247,326,237,0
1208,0.5,0.75,0.41,1.16,-4.52,-1.22,414,461,245,325,239,0
1209,0.51,0.77,0.4,2.5,-2.81,-2.93,413,470,246,323,237,0
1210,0.5,0.77,0.41,1.65,-2.32,-2.5,419,465,249,324,240,0
1211,0.5,0.78,0.41,0.24,-2.75,-2.56,418,466,249,320,239,0
1212,0.52,0.76,0.39,1.65,-3.66,-4.39,418,467,249,324,238,0
1213,0.5,0.78,0.41,0.18,-3.91,-3.05,417,470,247,324,238,0
1214,0.5,0.77,0.4,-1.77,-2.5,-1.95,419,466,257,326,240,0
1215,0.51,0.78,0.39,1.34,-1.71,-2.32,419,468,250,321,236,0
1216,0.5,0.78,0.41,-0.79,-2.38,-4.09,415,466,250,320,237,0
1217,0.49,0.75,0.41,0.61,-1.83,-2.81,418,469,247,323,237,0
1218,0.49,0.76,0.42,-1.28,-2.75,-2.99,418,465,248,326,239,0
1219,0.5,0.77,0.41,1.4,-1.95,-1.28,416,462,250,325,238,0
1220,0.5,0.78,0.42,0.85,-3.17,-1.95,419,472,248,323,237,0
1221,0.51,0.76,0.4,0.98,-3.97,-1.77,417,467,250,324,237,0
1222,0.51,0.76,0.4,0.24,-2.99,-2.08,418,465,250,324,237,0
1223,0.5,0.76,0.41,0.73,-4.39,-1.46,419,469,248,324,234,0
1224,0.51,0.76,0.41,1.46,-3.05,-2.44,414,465,245,324,237,0
1225,0.51,0.76,0.41,-0.37,-3.54,-2.56,418,469,245,326,240,0
1226,0.51,0.76,0.41,1.22,-4.03,-0.79,421,466,249,321,237,0
1227,0.51,0.75,0.42,-1.22,-3.3,-0.49,419,466,248,323,240,0
1228,0.51,0.77,0.43,2.93,-3.17,-2.87,417,463,247,326,240,0
1229,0.51,0.76,0.41,1.89,-3.48,-2.26,416,462,246,326,237,0
1230,0.49,0.77,0.41,1.22,-2.14,-2.2,418,462,247,324,239,0
1231,0.49,0.76,0.42,-0.67,-2.81,-2.99,418,465,247,324,240,0
1232,0.5,0.76,0.41,-0.24,-2.87,-4.27,418,470,248,324,233,0
1233,0.5,0.76,0.41,-2.26,-3.85,-1.71,418,467,247,324,237,0
1234,0.49,0.77,0.42,-0.73,-0.61,-4.33,413,466,243,324,238,0
1235,0.5,0.77,0.42,-0.18,-2.26,-2.81,420,463,247,324,237,0
1236,0.51,0.78,0.42,0.37,-2.93,-2.75,416,466,249,325,240,0
1237,0.51,0.76,0.41,-0.49,-2.44,-2.69,414,466,249,321,237,0
1238,0.5,0.76,0.41,-0.18,-3.05,-2.99,420,465,250,327,240,0
1239,0.5,0.76,0.41,-1.46,-2.75,-3.54,417,467,244,325,239,0
1240,0.51,0.75,0.42,-0.24,-2.08,-2.99,413,467,245,324,236,0
1241,0.52,0.76,0.41,1.28,-2.75,-4.46,414,465,246,324,240,0
1242,0.5,0.76,0.42,-0.24,-2.32,-2.87,418,467,250,325,242,0
1243,0.5,0.76,0.42,-0.31,-3.91,-3.36,418,470,246,324,238,0
1244,0.5,0.77,0.42,0.06,-2.01,-4.52,418,465,246,330,238,0
1245,0.5,0.78,0.42,1.4,-1.71,-2.81,421,461,246,324,239,0
1246,0.51,0.76,0.39,-0.67,-3.23,-3.05,415,470,245,324,238,0
1247,0.51,0.75,0.4,-6.47,-9.09,-4.88,418,470,248,326,239,0
1248,0.5,0.76,0.4,-1.89,-2.26,-1.65,419,470,247,324,239,0
1249,0.48,0.76,0.42,2.01,-5.19,-4.46,420,467,245,327,238,0
1250,0.51,0.76,0.41,4.21,-1.77,-5.13,417,464,247,324,237,0
1251,0.48,0.8,0.4,3.97,-2.56,-5.25,418,467,247,324,236,0
1252,0.47,0.8,0.4,0.79,-1.65,-3.78,418,469,244,326,236,0
1253,0.46,0.8,0.4,1.46,-4.09,-2.62,417,472,249,326,240,0
1254,0.46,0.79,0.38,1.22,-3.05,-2.26,418,470,253,326,239,0
1255,0.46,0.82,0.41,0.24,-0.49,-3.17,417,466,248,325,240,0
1256,0.47,0.78,0.39,0.73,-1.28,-4.21,419,466,249,325,238,0
1257,0.46,0.79,0.4,-1.89,-2.32,-2.01,416,465,246,327,250,0
1258,0.5,0.81,0.43,-0.98,-0.24,-1.65,419,461,246,324,237,0
1259,0.5,0.79,0.41,-0.06,-0.55,-0.92,416,466,250,325,237,0
1260,0.48,0.8,0.44,-0.67,-1.4,-3.05,417,469,245,324,241,0
1261,0.5,0.8,0.44,0.79,-4.7,-2.2,417,466,250,324,237,0
1262,0.46,0.75,0.42,1.04,-2.93,-3.85,417,467,249,324,237,0
1263,0.47,0.78,0.43,3.42,-1.89,-1.22,417,469,250,341,241,0
1264,0.46,0.8,0.42,0.79,-3.97,-2.93,417,466,249,327,238,0
1265,0.49,0.77,0.42,-0.06,-3.66,-2.08,414,464,249,326,239,0
1266,0.48,0.79,0.42,1.89,-2.56,-2.62,420,464,247,326,237,0
1267,0.48,0.77,0.42,-0.06,-2.69,-2.62,417,467,248,323,240,0
1268,0.48,0.79,0.42,0.61,-3.17,-2.81,419,465,248,327,239,0
1269,0.48,0.77,0.41,0.12,-3.05,-2.01,420,467,249,332,253,0
1270,0.5,0.76,0.41,1.46,-3.48,-2.44,419,465,253,325,242,0
1271,0.49,0.77,0.41,0.31,-3.05,-2.32,418,470,249,325,237,0
1272,0.49,0.77,0.42,1.28,-2.32,-4.33,417,466,248,325,238,0
1273,0.49,0.77,0.42,-0.43,-2.01,-3.17,418,467,248,324,238,0
1274,0.49,0.77,0.41,-0.98,-2.69,-2.32,417,470,244,326,238,0
1275,0.49,0.78,0.42,0.06,-2.44,-3.17,417,466,251,324,229,0
1276,0.49,0.76,0.41,0.43,-2.26,-2.81,425,464,247,329,238,0
1277,0.49,0.78,0.4,-1.65,-3.05,-2.08,418,470,250,325,237,0
1278,0.48,0.79,0.41,-3.17,-3.54,-3.23,417,464,246,321,241,0
1279,0.48,0.78,0.42,0.12,-3.54,-1.83,418,462,246,327,235,0
1280,0.48,0.77,0.42,-0.55,-1.71,-0.92,418,467,247,328,251,0
1281,0.49,0.78,0.42,0.37,-3.17,-2.32,417,465,248,325,239,0
1282,0.48,0.77,0.41,0.92,-2.08,-1.83,418,465,251,322,240,0
1283,0.49,0.76,0.42,0.67,-2.5,-2.5,414,470,250,326,237,0
1284,0.48,0.77,0.42,0.06,-3.36,-2.38,419,461,251,326,238,0
1285,0.48,0.75,0.4,3.23,-0.31,-5.92,418,470,247,329,238,0
1286,0.49,0.78,0.42,0.73,-3.11,-2.87,418,465,249,328,237,0
1287,0.47,0.76,0.42,-0.98,-0.37,0.24,418,461,249,328,238,0
1288,0.5,0.72,0.4,1.59,-3.17,-4.03,421,463,249,324,240,0
1289,0.51,0.79,0.43,0.55,-2.14,-2.38,417,460,251,326,246,0
1290,0.49,0.75,0.41,1.89,-2.08,-4.03,418,475,245,327,237,0
1291,0.5,0.76,0.42,-0.43,-3.05,-1.71,415,466,247,328,238,0
1292,0.51,0.75,0.42,-1.28,-3.3,-1.28,418,461,248,324,237,0
1293,0.49,0.75,0.42,-0.67,-2.01,-3.36,418,470,251,326,233,0
1294,0.48,0.76,0.43,0.67,-3.85,-2.5,417,470,246,328,239,0
1295,0.5,0.74,0.42,-0.43,-4.21,-2.32,415,460,248,322,240,0
1296,0.5,0.75,0.41,-1.77,-2.75,-3.72,417,462,244,326,237,0
1297,0.5,0.76,0.42,-6.29,-3.85,-1.1,418,468,246,325,239,0
1298,0.51,0.75,0.44,-2.38,-3.3,-1.46,420,470,251,331,235,0
1299,0.49,0.76,0.43,-0.55,-4.64,-1.59,419,466,249,325,240,0
1300,0.5,0.78,0.44,1.89,-4.27,-1.53,418,466,247,327,233,0
1301,0.49,0.77,0.45,1.71,-1.59,-4.94,418,464,252,325,238,0
1302,0.5,0.78,0.45,1.28,-3.66,-2.38,417,460,249,327,238,0
1303,0.48,0.76,0.42,3.97,-6.71,0.55,418,461,249,327,238,0
1304,0.59,0.73,0.42,-13.49,-0.92,-14.71,420,465,248,328,238,0
1305,0.46,0.79,0.49,8.97,6.53,-22.71,418,469,249,327,240,0
1306,0.45,0.81,0.42,8.48,4.64,-9.03,418,468,251,330,241,0
1307,0.47,0.8,0.36,12.15,-0.18,-2.38,416,461,253,328,241,0
1308,0.43,0.81,0.39,2.56,-2.5,2.2,415,467,253,327,236,0
1309,0.45,0.8,0.38,-2.01,1.34,0.0,413,465,252,330,240,0
1310,0.44,0.84,0.4,5.25,-1.89,-10.31,417,469,252,328,238,0
1311,0.46,0.81,0.4,4.82,-3.48,-1.89,418,473,246,329,238,0
1312,0.42,0.81,0.4,-1.22,2.93,-4.27,418,469,253,328,240,0
1313,0.44,0.79,0.43,-1.77,6.41,0.49,417,461,250,330,241,0
1314,0.45,0.78,0.4,1.71,-1.04,-1.53,418,466,252,326,238,0
1315,0.43,0.8,0.41,2.01,-3.42,-4.39,417,464,252,329,241,0
1316,0.45,0.76,0.41,-1.1,-4.88,-1.1,415,466,251,330,239,0
1317,0.46,0.84,0.45,3.17,0.31,-3.11,415,467,251,331,240,0
1318,0.45,0.79,0.44,0.92,-1.95,-4.33,416,461,250,325,239,0
1319,0.47,0.79,0.4,4.09,-4.27,-1.59,417,471,249,327,238,0
1320,0.48,0.81,0.42,2.81,-4.82,-5.55,417,469,256,328,238,0
1321,0.46,0.8,0.42,0.12,-3.36,-2.26,420,464,252,327,238,0
1322,0.44,0.8,0.41,5.92,-1.1,-3.78,416,467,251,328,241,0
1323,0.43,0.8,0.43,0.85,-2.32,-4.09,417,476,249,328,238,0
1324,0.44,0.81,0.41,3.72,-2.81,-2.26,413,465,251,338,241,0
1325,0.47,0.81,0.4,4.82,-8.54,4.58,417,472,250,331,238,0
1326,0.44,0.81,0.42,-1.4,-3.6,-4.64,417,462,259,328,238,0
1327,0.45,0.79,0.41,1.65,-5.07,-3.36,417,464,255,333,238,0
1328,0.44,0.8,0.41,2.87,-2.99,-4.52,418,467,252,342,238,0
1329,0.41,0.81,0.4,-1.95,-10.68,-8.67,417,470,250,331,239,0
1330,0.45,0.79,0.4,-1.65,-2.93,-2.14,417,466,253,330,241,0
1331,0.45,0.8,0.41,0.92,-3.17,-0.55,418,464,251,327,240,0
1332,0.43,0.79,0.41,-0.49,-4.58,-0.85,417,468,256,325,239,0
1333,0.44,0.8,0.41,0.67,-2.75,-2.69,417,466,250,333,252,0
1334,0.44,0.8,0.41,-0.18,-2.99,-3.97,417,467,248,328,241,0
1335,0.44,0.82,0.42,1.16,-2.93,-2.26,417,465,253,331,236,0
1336,0.42,0.81,0.41,0.0,-3.97,-1.89,418,460,253,327,239,0
1337,0.42,0.81,0.41,-0.79,-2.62,-2.14,418,460,251,330,239,0
1338,0.43,0.82,0.41,-0.43,-2.08,-2.32,419,464,248,328,239,0
1339,0.42,0.82,0.43,-1.4,-4.03,-1.53,417,463,252,329,240,0
1340,0.44,0.79,0.4,-0.12,-4.21,-0.18,416,463,251,329,247,0
1341,0.43,0.81,0.41,1.4,-2.38,-3.72,418,466,264,332,243,0
1342,0.44,0.82,0.42,2.14,-2.5,-3.48,415,468,253,327,241,0
1343,0.43,0.81,0.41,0.37,-2.5,-2.69,417,465,249,324,238,0
1344,0.42,0.83,0.41,-1.22,-2.99,-2.32,418,468,247,329,238,0
1345,0.43,0.82,0.4,0.43,-4.33,-1.16,417,468,248,322,238,0
1346,0.43,0.81,0.39,0.55,-3.23,-2.62,413,469,248,327,236,0
1347,0.44,0.8,0.39,2.26,-1.71,-3.3,418,469,243,322,238,0
1348,0.45,0.81,0.4,3.54,-3.17,-2.2,417,465,249,325,236,0
1349,0.43,0.83,0.4,-0.85,-2.87,-2.75,417,468,248,329,234,0
1350,0.42,0.81,0.4,-0.31,-1.77,-3.66,416,467,246,324,240,0
1351,0.42,0.82,0.4,-0.12,-2.08,-2.75,419,466,246,324,239,0
1352,0.44,0.81,0.41,0.55,-3.48,-2.2,407,469,248,331,239,0
1353,0.43,0.81,0.4,0.43,-1.53,-3.91,412,461,243,327,241,0
1354,0.42,0.82,0.42,-2.2,-0.98,-1.89,417,465,251,324,241,0
1355,0.42,0.81,0.4,3.3,-5.98,-0.73,419,466,244,328,252,0
1356,0.44,0.78,0.38,-1.89,-3.42,1.77,415,461,250,326,240,0
1357,0.43,0.8,0.41,-0.92,-2.69,-3.66,415,465,245,325,240,0
1358,0.42,0.83,0.43,0.43,-1.1,-0.98,419,468,247,327,242,0
1359,0.46,0.84,0.39,1.22,-4.88,-4.09,417,470,246,325,238,0
1360,0.42,0.8,0.39,1.71,-3.17,-1.71,415,468,250,322,239,0
1361,0.44,0.81,0.39,0.79,-2.32,-1.65,415,466,248,324,239,0
1362,0.44,0.81,0.41,0.49,-3.11,-2.56,415,466,248,325,240,0
1363,0.44,0.8,0.39,1.34,-2.38,-1.16,417,460,250,325,238,0
1364,0.45,0.83,0.41,-2.01,-4.94,2.93,419,473,245,328,241,0
1365,0.45,0.79,0.4,-0.49,-4.21,-2.38,420,465,251,326,240,0
1366,0.44,0.8,0.41,-3.3,-5.74,-0.49,417,466,250,325,244,0
1367,0.45,0.79,0.41,2.2,-3.66,-1.04,418,463,249,334,241,0
1368,0.43,0.79,0.43,0.92,-2.14,-3.23,416,465,250,325,239,0
1369,0.45,0.79,0.4,-0.12,-4.64,-0.18,419,466,251,326,240,0
1370,0.46,0.81,0.42,1.04,-3.6,-3.05,419,468,251,327,240,0
1371,0.44,0.79,0.41,1.16,-2.32,-3.17,418,460,248,331,241,0
1372,0.45,0.8,0.42,1.4,-1.65,-3.72,417,468,251,329,239,0
1373,0.46,0.81,0.42,1.1,-3.3,-2.56,417,464,251,326,241,0
1374,0.44,0.79,0.41,0.55,-2.69,-1.34,417,470,249,324,240,0
1375,0.44,0.8,0.42,-0.55,-2.2,-3.05,416,470,249,324,239,0
1376,0.44,0.79,0.43,0.06,-1.28,-2.56,420,470,256,335,241,0
1377,0.45,0.8,0.42,0.98,-2.14,-2.44,418,467,250,326,238,0
1378,0.44,0.79,0.41,2.26,-3.17,-2.26,418,465,247,327,237,0
1379,0.44,0.79,0.43,-0.92,-3.48,-1.46,420,468,251,324,239,0
1380,0.46,0.81,0.43,0.49,-3.05,-2.99,412,467,245,330,240,0
1381,0.44,0.79,0.43,0.79,-1.77,-2.56,420,464,255,329,240,0
1382,0.41,0.78,0.41,0.37,-0.18,-5.49,416,465,250,328,242,0
1383,0.45,0.79,0.41,0.31,-2.5,-2.75,417,469,249,327,245,0
1384,0.44,0.79,0.42,-1.89,-3.23,-2.26,417,468,252,329,241,0
1385,0.44,0.78,0.42,0.06,-2.93,-2.14,415,466,252,328,240,0
1386,0.44,0.8,0.42,-0.31,-2.32,-2.56,418,466,261,328,242,0
1387,0.45,0.8,0.42,1.28,-3.11,-2.14,417,469,249,331,238,0
1388,0.44,0.81,0.43,0.31,-2.87,-2.69,416,464,257,327,242,0
1389,0.45,0.79,0.42,-0.31,-3.17,-2.14,417,466,253,329,240,0
1390,0.45,0.81,0.42,1.34,-2.62,-2.75,417,470,252,327,240,0
1391,0.45,0.8,0.41,-1.34,-4.52,-1.89,420,463,253,325,239,0
1392,0.44,0.78,0.42,-0.24,-3.48,-1.83,419,465,252,328,244,0
1393,0.46,0.77,0.42,-0.37,-2.38,-3.97,414,467,251,328,242,0
1394,0.45,0.79,0.43,0.98,-2.93,-1.83,418,460,252,328,244,0
1395,0.47,0.78,0.43,0.06,-3.66,-2.99,416,462,252,324,237,0
1396,0.45,0.79,0.43,2.38,-3.23,-2.81,417,472,251,329,240,0
1397,0.45,0.79,0.42,1.22,-1.95,-2.69,414,466,253,325,242,0
1398,0.46,0.82,0.43,1.95,-1.71,-1.65,417,464,250,328,241,0
1399,0.44,0.79,0.42,-2.75,-2.81,-1.89,420,466,252,327,241,0
1400,0.45,0.78,0.42,-0.24,-3.23,-0.67,415,466,253,327,240,0
1401,0.47,0.79,0.42,-0.79,-4.21,-0.43,419,481,251,331,240,0
1402,0.47,0.79,0.43,0.85,-3.36,-2.2,418,460,251,328,240,0
1403,0.46,0.78,0.42,-0.18,-2.62,-2.75,413,464,249,329,241,0
1404,0.47,0.79,0.43,1.22,-3.6,-2.2,416,464,253,325,239,0
1405,0.46,0.77,0.42,-0.73,-1.34,-3.36,420,469,251,326,252,0
1406,0.45,0.78,0.42,2.5,-1.95,-3.23,413,470,252,327,239,0
1407,0.47,0.79,0.43,-2.26,-3.66,-0.67,417,465,249,327,240,0
1408,0.47,0.8,0.43,1.83,-2.99,-2.56,417,466,253,332,239,0
1409,0.45,0.79,0.43,0.49,-2.26,-2.38,418,463,251,329,240,0
1410,0.46,0.78,0.42,2.14,-2.14,-3.36,417,466,251,329,241,0
1411,0.47,0.79,0.42,-0.61,-3.6,-1.89,418,469,248,329,240,0
1412,0.47,0.81,0.43,0.73,-3.54,-3.05,414,469,251,331,237,0
1413,0.45,0.78,0.41,4.64,-2.38,-3.17,425,465,248,325,242,0
1414,0.45,0.78,0.41,-0.73,-1.83,-2.75,417,467,250,331,242,0
1415,0.46,0.8,0.42,1.04,-3.23,-3.11,418,464,251,327,237,0
1416,0.47,0.8,0.43,0.92,-2.69,-2.26,419,467,250,330,243,0
1417,0.46,0.79,0.42,0.24,-3.48,-2.38,415,465,253,326,240,0
1418,0.47,0.8,0.42,0.24,-2.44,-3.72,417,464,250,331,241,0
1419,0.47,0.78,0.43,0.43,-2.69,-3.6,418,474,249,326,240,0
1420,0.45,0.77,0.41,0.37,-1.89,-2.87,417,462,253,329,238,0
1421,0.45,0.78,0.42,0.79,-4.03,-1.34,417,464,252,326,242,0
1422,0.45,0.79,0.43,-1.53,-2.87,-2.62,413,465,253,329,242,0
1423,0.46,0.77,0.41,0.49,-2.38,-3.6,414,466,254,329,238,0
1424,0.45,0.79,0.42,-1.04,-2.44,-2.01,417,464,254,329,243,0
1425,0.45,0.79,0.42,-2.26,-2.62,-1.59,418,468,254,333,241,0
1426,0.46,0.8,0.44,-0.73,-2.26,-3.42,414,464,251,330,241,0
1427,0.44,0.8,0.43,1.95,-1.77,-4.39,418,466,251,332,240,0
1428,0.44,0.8,0.42,2.99,-5.98,-0.24,417,466,254,327,241,0
1429,0.41,0.78,0.45,-0.85,2.69,-2.08,415,466,249,333,240,0
1430,0.44,0.79,0.42,0.92,-1.53,-3.42,416,466,251,327,241,0
1431,0.44,0.81,0.41,1.95,-3.6,-4.82,419,466,252,329,242,0
1432,0.42,0.81,0.42,-1.28,-1.16,-3.36,415,464,254,332,241,0
1433,0.41,0.79,0.41,-1.59,-0.61,-6.04,423,464,251,328,240,0
1434,0.36,0.79,0.36,25.57,-4.88,-8.67,415,461,252,328,241,0
1435,0.39,0.92,0.22,-7.69,-1.77,2.87,414,468,252,329,237,0
1436,0.44,0.88,0.2,-2.62,-0.55,-1.77,415,470,253,331,241,0
1437,0.45,0.9,0.21,3.85,2.44,-6.41,412,465,252,328,243,0
1438,0.43,0.89,0.21,0.18,-0.73,-5.43,415,463,249,328,241,0
1439,0.45,0.87,0.19,2.69,-4.94,0.12,415,464,249,328,241,0
1440,0.44,0.89,0.22,-0.85,-3.3,-1.95,413,468,253,332,242,0
1441,0.44,0.88,0.21,2.62,-3.72,-1.65,417,461,250,329,251,0
1442,0.43,0.86,0.22,1.4,-1.77,-3.78,415,470,251,333,245,0
1443,0.43,0.88,0.22,-0.06,-1.89,-3.05,417,464,256,333,245,0
1444,0.43,0.87,0.22,-2.26,-2.56,-3.48,415,464,256,334,245,0
1445,0.42,0.87,0.23,-0.06,-3.66,-0.98,417,465,253,335,245,0
1446,0.44,0.86,0.22,0.0,-2.2,-2.08,414,466,251,331,244,0
1447,0.44,0.87,0.23,-1.71,-3.91,-2.26,413,470,254,332,245,0
1448,0.44,0.88,0.23,-0.18,-3.66,-0.18,410,466,250,333,245,0
1449,0.44,0.88,0.23,1.59,-3.11,-3.17,422,464,255,333,245,0
1450,0.44,0.87,0.23,-1.4,-2.81,-2.69,414,465,255,335,247,0
1451,0.43,0.86,0.23,-0.43,-2.62,-1.95,414,465,253,333,247,0
1452,0.42,0.87,0.24,0.0,-1.1,-3.36,417,465,255,342,244,0
1453,0.45,0.86,0.23,0.98,-2.93,-1.89,413,465,256,337,248,0
1454,0.45,0.87,0.23,0.31,-2.75,-2.81,415,459,269,336,249,0
1455,0.44,0.87,0.23,-0.73,-2.81,-2.62,415,468,253,337,248,0
1456,0.45,0.87,0.22,-0.49,-2.99,-1.83,414,467,254,339,248,0
1457,0.44,0.87,0.23,0.49,-1.34,-3.72,415,467,256,336,248,0
1458,0.44,0.86,0.22,0.85,-3.78,-0.67,416,465,252,333,245,0
1459,0.44,0.86,0.22,-0.79,-3.66,-1.71,415,465,255,333,247,0
1460,0.43,0.87,0.23,-1.53,-2.99,-2.32,418,459,256,334,241,0
1461,0.46,0.87,0.22,0.0,-5.92,-2.5,419,461,254,337,244,0
1462,0.44,0.87,0.24,-1.16,-1.34,-3.72,415,460,256,333,245,0
1463,0.44,0.81,0.26,-34.91,20.94,-12.27,419,464,255,336,247,0
1464,0.39,0.79,0.38,-4.09,-0.79,0.37,415,463,254,336,247,0
1465,0.41,0.84,0.39,-0.85,-1.95,-2.26,415,465,255,336,245,0
1466,0.42,0.81,0.37,-3.78,-4.09,-1.95,414,469,256,333,242,0
1467,0.41,0.85,0.37,0.49,-4.03,-2.32,414,464,254,334,245,0
1468,0.4,0.84,0.37,-2.2,-1.65,-3.6,419,467,256,337,245,0
1469,0.43,0.85,0.37,1.04,-3.23,-1.16,415,465,257,334,246,0
1470,0.41,0.84,0.36,0.31,-2.87,-3.72,416,469,254,336,245,0
1471,0.42,0.83,0.35,0.73,-3.05,-1.83,419,467,255,336,245,0
1472,0.42,0.82,0.35,1.16,-3.11,-1.71,415,465,252,338,245,0
1473,0.42,0.82,0.33,-2.56,-1.89,-1.46,416,469,256,334,245,0
1474,0.43,0.82,0.35,0.55,-3.23,-1.89,421,460,257,328,247,0
1475,0.43,0.83,0.35,0.67,-3.6,-2.62,417,469,252,334,248,0
1476,0.43,0.83,0.35,-1.04,-4.21,-2.2,418,462,254,334,245,0
1477,0.43,0.84,0.35,4.39,-2.5,-0.67,415,470,254,333,247,0
1478,0.43,0.84,0.36,-0.37,-2.81,-2.08,417,465,256,334,248,0
1479,0.44,0.83,0.37,-0.79,-1.46,-4.7,416,465,256,330,245,0
1480,0.43,0.82,0.36,-1.53,-2.38,-3.3,416,465,258,335,246,0
1481,0.44,0.83,0.36,0.79,-3.42,-2.32,413,462,254,336,248,0
1482,0.44,0.83,0.35,0.85,-2.44,-2.5,417,466,253,335,245,0
1483,0.45,0.84,0.35,0.61,-4.09,-1.16,416,465,254,334,244,0
1484,0.44,0.83,0.35,1.4,-4.46,-1.59,415,464,257,334,246,0
1485,0.45,0.83,0.36,-0.92,-1.65,-2.56,416,465,249,336,246,0
1486,0.43,0.81,0.35,0.61,-3.91,-2.81,415,464,255,333,248,0
1487,0.46,0.84,0.36,-1.34,-4.39,2.14,414,468,255,336,249,0
1488,0.44,0.82,0.35,-0.43,-3.91,-2.99,418,465,255,334,246,0
1489,0.46,0.82,0.35,2.2,-2.75,-0.61,414,469,252,334,248,0
1490,0.45,0.84,0.35,0.49,-3.36,-2.32,418,476,257,336,245,0
1491,0.45,0.82,0.35,-0.06,-3.23,-2.5,420,465,256,335,249,0
1492,0.44,0.82,0.36,0.31,-3.11,-1.71,412,466,260,334,246,0
1493,0.45,0.82,0.36,-0.49,-2.26,-3.66,416,465,255,338,245,0
1494,0.44,0.82,0.36,0.31,-1.89,-2.08,415,469,254,335,249,0
1495,0.44,0.82,0.36,-0.73,-3.11,-1.95,416,460,256,337,248,0
1496,0.44,0.83,0.36,0.98,-0.92,-3.05,416,469,257,334,246,0
1497,0.45,0.81,0.36,-1.46,-3.72,-2.08,416,468,254,334,245,0
1498,0.46,0.83,0.36,0.37,-2.93,-2.99,419,464,252,334,246,0
1499,0.44,0.79,0.34,-4.09,-4.46,-1.04,415,465,253,333,248,0
1500,0.45,0.84,0.37,0.61,-2.08,-2.38,418,464,254,338,246,0
1501,0.48,0.82,0.37,-0.79,-3.72,-1.04,412,468,256,337,243,0
1502,0.45,0.82,0.37,1.16,-3.66,-2.01,414,465,254,335,245,0
1503,0.46,0.82,0.35,1.22,-4.88,-1.28,417,466,259,335,245,0
1504,0.44,0.81,0.36,-1.22,-2.38,-1.95,415,465,252,338,248,0
1505,0.47,0.83,0.36,1.04,-1.71,-0.79,414,465,257,335,247,0
1506,0.44,0.83,0.36,-3.3,-1.95,-2.87,416,468,255,335,244,0
1507,0.45,0.82,0.36,0.55,-2.99,-3.11,416,463,257,341,244,0
1508,0.45,0.82,0.34,-2.93,-2.75,-2.08,416,467,255,337,248,0
1509,0.44,0.84,0.36,0.31,-2.5,-2.69,411,468,266,335,245,0
1510,0.45,0.87,0.36,2.26,-3.6,-2.93,419,467,255,347,236,0
1511,0.46,0.83,0.34,-0.92,-3.42,-1.59,416,462,259,336,247,0
1512,0.46,0.81,0.32,0.55,-4.21,-1.59,420,465,257,336,247,0
1513,0.46,0.83,0.33,0.37,-3.91,-1.28,416,465,255,331,249,0
1514,0.46,0.82,0.33,2.14,-3.85,-1.28,418,466,256,338,246,0
1515,0.47,0.82,0.34,-0.37,-4.09,-0.61,412,461,254,336,245,0
1516,0.43,0.86,0.31,10.31,-3.91,4.21,264,312,224,472,418,0
1517,0.46,0.85,0.27,20.45,1.83,4.94,268,307,226,466,413,0
1518,0.36,0.92,0.24,29.36,14.71,-26.12,268,310,226,458,416,0
1519,0.31,0.95,0.24,-15.2,-14.53,1.59,269,314,227,470,414,0
1520,0.36,0.93,0.23,-2.99,-6.1,0.43,270,302,228,470,418,0
1521,0.35,0.89,0.32,-1.46,-17.82,3.17,269,299,230,474,416,0
1522,0.45,0.89,0.25,1.83,-11.41,1.77,269,301,233,470,421,0
1523,0.37,0.91,0.28,2.87,-0.43,-4.27,264,305,237,474,419,0
1524,0.36,0.9,0.29,-7.26,-3.36,-3.3,270,305,234,471,421,0
1525,0.37,0.87,0.28,-3.17,-2.14,-5.31,269,308,235,470,420,0
1526,0.38,0.9,0.25,0.0,-3.3,0.31,272,309,232,464,421,0
1527,0.37,0.9,0.25,-0.61,-2.44,-0.18,271,308,244,467,418,0
1528,0.39,0.89,0.25,3.72,-5.0,-2.93,270,305,232,466,421,0
1529,0.36,0.91,0.28,-4.52,-3.36,-2.87,269,306,232,470,420,0
1530,0.34,0.89,0.27,2.01,-0.12,-3.23,287,311,233,472,421,0
1531,0.36,0.9,0.25,3.97,-0.49,-3.66,270,310,234,473,419,0
1532,0.43,0.92,0.24,24.35,-1.53,15.26,263,310,237,469,424,0
1533,0.3,1.0,0.49,-137.27,3.42,-15.56,250,301,209,461,427,0
1534,0.38,0.86,0.23,49.68,-12.27,-5.49,259,302,232,458,417,0
1535,0.41,0.86,0.15,2.5,9.64,-17.33,260,307,235,464,419,0
1536,0.41,0.9,0.15,10.56,-0.43,-2.87,264,308,241,465,419,0
1537,0.38,0.91,0.19,-0.61,2.08,-5.74,265,310,243,469,420,0
1538,0.35,0.89,0.19,7.69,0.92,-5.43,263,313,240,471,418,0
1539,0.37,0.9,0.18,-0.61,-2.32,-7.39,264,310,239,472,418,0
1540,0.34,0.92,0.16,-0.98,2.2,-6.59,263,311,239,468,418,0
1541,0.35,0.91,0.19,-2.99,-2.5,-4.33,265,314,245,465,418,0
1542,0.34,0.94,0.17,0.49,-4.82,-0.92,263,313,243,466,416,0
1543,0.33,0.92,0.18,2.99,-2.32,-2.01,264,314,245,469,420,0
1544,0.34,0.94,0.17,2.44,-1.04,-1.59,265,316,245,473,420,0
1545,0.3,0.89,0.16,1.04,-9.4,-0.37,266,315,244,476,417,0
1546,0.4,0.91,0.31,-30.82,5.13,-12.27,266,325,244,473,419,0
1547,0.38,0.97,0.28,-23.93,-1.89,-13.98,268,316,249,471,419,0
1548,0.5,0.74,0.61,-22.77,-28.02,10.38,265,318,246,483,417,0
1549,0.46,0.69,0.47,1.95,1.77,-8.91,270,315,249,478,416,0
1550,0.45,0.74,0.33,18.43,-12.02,-4.39,266,316,245,479,418,0
1551,0.41,0.82,0.38,-0.06,-1.28,-7.75,268,318,249,477,421,0
1552,0.38,0.86,0.41,29.24,-5.43,-7.51,267,316,253,478,422,0
1553,0.28,0.87,0.25,-12.57,20.87,-67.81,265,313,243,482,421,0
1554,0.37,0.97,0.26,0.49,-6.1,-3.36,265,316,234,474,421,0
1555,0.32,0.93,0.21,6.16,-3.97,0.18,265,321,235,474,422,0
1556,0.36,0.89,0.16,-0.67,-2.93,4.15,265,318,237,473,424,0
1557,0.5,0.87,0.0,46.2,-25.33,42.24,266,321,239,473,423,0
1558,0.5,0.85,0.02,8.73,9.83,-10.68,267,324,239,474,426,0
1559,0.59,0.86,-0.1,16.72,-15.32,9.7,257,313,229,478,428,0
1560,0.59,0.81,-0.06,5.07,10.99,-5.8,254,266,211,481,426,0
1561,0.59,0.8,-0.12,23.8,-28.93,25.94,257,278,225,471,426,0
1562,0.52,0.86,-0.06,-17.09,23.56,-28.99,258,273,225,472,425,0
1563,0.47,0.89,0.05,-5.25,7.39,-14.04,258,277,227,466,418,0
1564,0.44,0.89,0.09,6.1,-1.22,-3.6,258,282,226,477,423,0
1565,0.45,0.89,0.07,1.04,-5.49,-2.81,261,280,232,468,423,0
1566,0.44,0.9,0.04,12.57,3.11,-8.73,260,276,236,476,420,0
1567,0.51,0.98,-0.02,2.2,14.89,-23.01,264,299,229,472,413,0
1568,0.35,0.9,0.14,-24.96,-4.15,7.08,288,304,234,473,418,0
1569,0.34,0.92,0.13,-4.39,-9.7,7.08,272,303,233,468,417,0
1570,0.33,0.9,0.18,2.93,0.24,-3.85,267,304,232,471,422,0
1571,0.39,0.93,0.14,3.85,-0.98,-4.88,269,301,236,472,420,0
1572,0.38,0.91,0.12,-2.69,-3.11,-4.64,266,304,234,475,417,0
1573,0.33,0.94,0.14,8.36,-2.5,-2.5,266,301,236,477,422,0
1574,0.33,0.92,0.15,-6.71,-4.15,-0.55,272,303,236,466,419,0
1575,0.31,0.93,0.15,-1.71,8.54,-12.15,267,304,238,475,423,0
1576,0.21,0.95,0.17,-0.49,-0.06,-6.41,284,304,241,474,424,0
1577,0.25,0.94,0.18,-2.32,-1.53,-2.26,270,304,237,473,420,0
1578,0.25,0.95,0.19,2.87,-2.81,-3.11,269,307,240,471,419,0
1579,0.26,0.99,0.19,5.86,-5.13,-7.75,267,305,241,471,421,0
1580,0.24,0.91,0.2,-2.2,-1.1,-5.31,271,307,241,473,418,0
1581,0.28,0.92,0.19,-0.55,-3.85,-2.26,270,304,241,473,423,0
1582,0.28,0.96,0.19,0.37,-2.56,-2.44,270,302,239,472,419,0
1583,0.29,0.95,0.18,2.99,-4.52,-1.16,267,303,251,474,419,0
1584,0.27,0.93,0.19,-0.79,-3.3,-2.26,268,307,241,470,423,0
1585,0.27,0.96,0.18,0.61,-1.53,-5.13,269,308,239,474,420,0
1586,0.26,0.95,0.2,-1.16,-3.48,-1.46,280,306,241,473,421,0
1587,0.25,0.96,0.21,1.83,-2.69,-0.55,268,309,239,469,422,0
1588,0.29,0.93,0.2,-1.95,0.98,-0.85,270,306,240,479,423,0
1589,0.26,0.92,0.21,-0.98,-5.0,-3.91,275,309,242,475,422,0
1590,0.27,0.95,0.25,-1.04,-1.83,-2.08,277,303,240,475,423,0
1591,0.28,0.93,0.23,-0.61,-3.66,-1.53,266,306,244,469,423,0
1592,0.28,0.94,0.21,2.26,-1.1,-2.99,272,308,239,474,423,0
1593,0.29,0.93,0.21,2.75,-4.52,-0.79,270,309,239,475,423,0
1594,0.28,0.95,0.22,0.43,-3.36,-2.93,267,306,239,480,422,0
1595,0.27,0.93,0.21,2.14,-3.78,-1.04,269,307,243,476,422,0
1596,0.28,0.93,0.21,-0.06,-2.01,-4.76,268,309,244,475,426,0
1597,0.26,0.93,0.23,-1.59,-2.26,-2.62,266,307,243,475,420,0
1598,0.39,0.87,0.2,5.31,-1.04,-12.21,255,377,283,467,426,0
1599,0.3,0.92,0.29,-19.04,-9.22,0.18,250,366,273,476,431,0
1600,0.45,0.84,0.04,54.5,23.32,2.14,258,285,191,456,438,0
1601,0.44,0.91,0.23,23.93,-21.79,6.71,222,289,209,440,427,0
1602,0.46,0.9,0.23,6.1,22.16,-15.26,222,294,216,450,426,0
1603,0.38,0.88,0.18,-6.16,-24.96,4.21,257,295,219,468,428,0
1604,0.47,0.95,0.2,1.95,-3.42,-7.87,234,297,219,462,430,0
1605,0.44,0.86,0.23,4.46,-1.4,-6.77,229,301,222,465,433,0
1606,0.42,0.91,0.23,-8.73,-1.46,-5.98,233,302,220,464,433,0
1607,0.41,0.87,0.26,8.67,-2.44,1.4,232,303,225,462,433,0
1608,0.44,0.87,0.26,-2.93,-5.68,-6.65,232,304,224,465,431,0
1609,0.38,0.88,0.3,-2.44,-0.67,-4.09,233,307,223,461,430,0
1610,0.39,0.88,0.27,9.77,-0.85,-4.21,234,308,223,465,432,0
1611,0.41,0.85,0.28,14.95,0.24,-8.36,233,307,227,469,435,0
1612,0.37,0.89,0.32,2.32,-6.29,8.06,234,309,224,467,427,0
1613,0.43,0.85,0.3,-4.21,0.85,-4.7,243,311,222,460,425,0
1614,0.37,0.87,0.28,7.87,-1.16,-7.32,240,312,229,468,428,0
1615,0.38,0.87,0.32,-4.88,-7.63,1.77,238,311,229,472,429,0
1616,0.4,0.88,0.3,-0.61,-2.99,-4.15,237,311,227,468,433,0
1617,0.38,0.87,0.32,2.99,-1.53,-2.75,238,312,227,469,429,0
1618,0.41,0.9,0.3,2.32,-5.55,4.7,236,315,225,467,432,0
1619,0.57,0.83,0.13,19.04,-9.16,5.62,271,291,195,429,435,0
1620,0.46,0.84,0.39,-43.15,-10.62,-14.95,274,293,202,453,424,0
1621,0.42,0.89,0.31,24.35,-5.07,-6.96,229,309,221,463,427,0
1622,0.35,0.87,0.27,-0.37,10.44,-15.81,234,300,225,464,426,0
1623,0.2,0.91,0.31,30.88,-19.23,39.43,239,305,226,469,428,0
1624,0.26,0.96,0.36,7.14,-28.26,13.12,234,308,233,462,433,0
1625,0.36,0.91,0.34,-0.67,-2.69,1.46,237,304,229,462,431,0
1626,0.48,0.89,0.3,-23.93,4.21,0.92,239,306,227,458,425,0
1627,0.36,0.94,0.33,26.67,-14.34,3.66,239,310,228,470,430,0
1628,0.19,0.88,0.44,17.76,-2.26,-1.22,239,309,231,465,426,0
1629,0.32,0.88,0.36,3.97,-9.77,2.44,240,309,233,469,424,0
1630,0.3,0.87,0.4,0.06,-0.31,-1.59,241,309,234,471,429,0
1631,0.32,0.83,0.41,1.65,-12.76,1.4,244,311,231,465,427,0
1632,0.24,0.82,0.44,0.79,3.17,-15.99,243,312,230,464,424,0
1633,0.39,1.03,0.35,8.61,-29.48,13.31,244,312,232,467,430,0
1634,0.19,0.85,0.34,-18.07,-20.39,50.05,239,312,230,462,432,0
1635,0.35,0.78,0.58,5.13,20.26,-0.18,242,314,228,459,433,0
1636,0.56,0.92,0.2,34.67,-10.68,9.89,242,311,228,471,431,0
1637,0.44,0.89,0.25,-2.81,-2.26,-6.53,241,311,229,466,433,0
1638,0.36,0.88,0.31,-4.39,-2.2,-9.77,244,311,229,462,435,0
1639,0.41,0.86,0.3,3.48,-5.55,-0.31,244,310,229,471,432,0
1640,0.42,0.87,0.27,-3.66,1.59,-7.87,245,313,234,471,433,0
1641,0.42,0.82,0.26,-1.53,3.78,-11.84,245,313,230,468,431,0
1642,0.37,0.87,0.29,-1.22,-4.09,-3.3,244,313,231,470,433,0
1643,0.39,0.87,0.3,0.24,-1.95,-1.95,245,311,229,474,433,0
1644,0.39,0.87,0.31,-2.32,-1.65,-3.23,247,309,231,464,434,0
1645,0.39,0.88,0.29,5.43,-4.15,-1.89,247,313,231,469,432,0
1646,0.39,0.86,0.3,4.21,-3.78,-3.17,242,315,232,471,434,0
1647,0.38,0.89,0.32,-11.72,-4.46,-0.67,247,313,232,471,432,0
1648,0.39,0.88,0.29,0.79,-5.37,-1.65,249,310,232,465,433,0
1649,0.38,0.87,0.31,1.46,-5.07,-1.22,246,314,232,473,434,0
1650,0.37,0.88,0.3,2.08,-1.34,-3.85,245,313,237,473,434,0
1651,0.38,0.86,0.3,-1.65,-3.42,-3.3,245,314,233,467,431,0
1652,0.38,0.89,0.3,0.06,-4.58,-0.31,244,316,235,470,429,0
1653,0.41,0.87,0.28,4.21,-3.54,-1.46,247,314,233,470,433,0
1654,0.37,0.88,0.29,4.52,-0.37,-5.43,243,315,232,469,427,0
1655,0.38,0.87,0.29,-0.49,-1.28,-3.85,244,314,233,466,430,0
1656,0.39,0.87,0.29,0.06,-3.66,-1.53,247,313,235,467,432,0
1657,0.43,0.9,0.29,-8.73,-3.48,-6.1,245,314,233,468,432,0
1658,0.38,0.85,0.34,-2.01,-1.65,-1.4,261,319,242,470,435,0
1659,0.39,0.86,0.32,1.46,-0.73,-6.77,253,317,235,466,434,0
1660,0.35,0.86,0.34,-0.18,-1.04,-1.95,247,316,232,473,432,0
1661,0.37,0.88,0.33,2.26,-1.71,-5.8,249,314,237,472,434,0
1662,0.39,0.88,0.31,3.6,-3.05,-0.79,248,318,236,469,431,0
1663,0.37,0.88,0.31,1.59,-3.48,-2.81,246,316,232,471,433,0
1664,0.36,0.87,0.32,2.62,-1.89,-2.99,246,316,234,472,433,0
1665,0.39,0.87,0.29,0.85,-4.09,-3.85,247,315,233,468,434,0
1666,0.38,0.87,0.31,-3.54,-0.67,-3.42,246,318,233,470,434,0
1667,0.37,0.89,0.29,3.42,-2.44,-4.03,247,316,233,473,433,0
1668,0.38,0.88,0.28,-2.2,-3.48,-3.54,245,316,234,469,430,0
1669,0.41,0.88,0.27,2.56,-6.35,2.81,249,313,233,465,429,0
1670,0.37,0.88,0.29,-1.4,-1.1,-4.76,245,315,232,467,431,0
1671,0.38,0.88,0.28,3.85,2.5,-9.28,245,316,234,465,428,0
1672,0.34,0.88,0.28,-0.98,-1.04,-3.54,246,312,234,462,430,0
1673,0.36,0.88,0.31,-4.82,-2.2,-3.23,247,315,234,468,429,0
1674,0.35,0.89,0.3,1.71,-3.54,-1.04,246,317,238,470,432,0
1675,0.35,0.88,0.3,1.95,-2.14,-3.42,285,315,240,471,434,0
1676,0.34,0.89,0.31,-9.58,-6.77,0.73,247,316,236,472,434,0
1677,0.35,0.89,0.31,2.32,-2.99,-2.99,247,315,241,473,433,0
1678,0.34,0.89,0.29,4.52,-3.97,-3.05,262,317,236,472,434,0
1679,0.34,0.9,0.3,1.34,-4.82,0.06,248,325,239,471,436,0
1680,0.35,0.91,0.31,-1.22,-1.95,-1.89,249,317,238,469,435,0
1681,0.38,0.85,0.33,-3.05,-8.48,0.0,249,317,236,475,435,0
1682,0.31,0.87,0.34,4.7,-2.01,2.14,249,317,239,472,432,0
1683,0.37,0.87,0.36,-1.4,-4.88,-1.4,251,317,234,474,435,0
1684,0.45,0.89,0.27,-0.98,-2.56,-5.74,250,313,236,474,436,0
1685,0.36,0.89,0.27,15.14,1.65,-10.25,246,316,237,474,437,0
1686,0.38,0.88,0.28,-6.04,-1.22,-3.23,249,317,238,468,430,0
1687,0.41,0.9,0.3,1.53,-5.37,-5.37,248,317,237,473,429,0
1688,0.41,0.85,0.3,-2.38,-1.4,-2.87,249,317,236,471,436,0
1689,0.41,0.85,0.28,1.65,-3.66,-3.97,251,321,237,470,434,0
1690,0.4,0.85,0.3,2.44,-3.54,-3.17,249,314,237,471,435,0
1691,0.37,0.87,0.32,-2.75,-0.18,-5.25,248,317,237,475,432,0
1692,0.39,0.88,0.31,3.48,-1.34,-0.61,249,318,236,468,436,0
1693,0.39,0.87,0.32,2.5,-3.11,-3.3,253,321,238,473,431,0
1694,0.36,0.85,0.33,2.99,-1.53,-1.4,253,321,239,470,434,0
1695,0.38,0.85,0.32,-4.88,-3.3,-2.2,249,320,235,473,434,0
1696,0.38,0.87,0.31,1.71,-2.14,-3.48,252,322,236,472,438,0
1697,0.38,0.87,0.31,-2.44,-3.23,3.11,253,320,237,475,438,0
1698,0.42,0.87,0.32,-0.06,-3.23,-2.32,251,318,239,475,432,0
1699,0.4,0.86,0.3,-1.22,-3.23,-1.59,252,322,240,472,438,0
1700,0.38,0.86,0.32,5.43,-3.11,-1.4,250,320,236,476,436,0
1701,0.39,0.85,0.31,9.89,-2.2,-4.94,247,318,235,473,436,0
1702,0.4,0.87,0.3,2.14,-4.58,-4.09,249,320,239,467,435,0
1703,0.38,0.87,0.3,-2.44,-3.05,-5.37,249,319,245,469,434,0
1704,0.36,0.88,0.32,0.49,-3.11,-2.56,250,316,239,471,437,0
1705,0.37,0.88,0.3,3.11,-5.0,-2.75,253,323,237,469,435,0
1706,0.35,0.89,0.26,7.39,-3.23,-6.71,251,319,238,478,434,0
1707,0.32,0.93,0.26,-1.77,-6.16,-2.56,249,315,240,466,433,0
1708,0.32,0.89,0.3,-0.79,-3.36,-1.34,248,321,239,466,434,0
1709,0.32,0.91,0.29,-0.79,-3.48,-2.14,250,318,238,472,437,0
1710,0.31,0.91,0.29,1.53,-4.39,-2.56,271,323,238,471,433,0
1711,0.3,0.88,0.32,-3.91,-3.91,-0.98,254,318,241,473,437,0
1712,0.32,0.9,0.31,1.59,-3.66,-2.81,252,319,237,469,437,0
1713,0.33,0.93,0.29,-1.53,-1.04,-2.14,254,321,239,477,437,0
1714,0.32,0.89,0.32,1.16,-4.15,-2.38,251,322,241,478,434,0
1715,0.33,0.88,0.34,-26.92,-5.8,0.37,252,321,242,471,435,0
1716,0.32,0.88,0.34,2.44,-1.22,-1.46,252,320,240,472,434,0
1717,0.32,0.88,0.3,-10.56,-1.1,-6.84,252,323,239,471,432,0
1718,0.33,0.96,0.25,-6.47,9.95,12.51,252,318,238,469,444,0
1719,0.29,0.91,0.49,-53.71,17.4,-21.73,255,318,238,462,433,0
1720,0.3,0.73,0.8,9.46,2.08,-7.26,256,320,240,462,429,0
1721,0.45,0.67,0.57,17.4,-7.32,-1.53,252,319,241,464,434,0
1722,0.37,0.72,0.49,-0.67,1.22,-13.0,252,322,240,467,435,0
1723,0.45,0.82,0.51,2.93,-7.75,-1.53,255,326,242,469,434,0
1724,0.43,0.74,0.47,1.65,-7.81,-0.92,254,321,238,466,434,0
1725,0.41,0.77,0.5,5.43,-6.53,-0.79,254,324,243,470,434,0
1726,0.39,0.82,0.47,8.67,-3.05,-0.18,251,321,242,477,430,0
1727,0.38,0.81,0.47,2.38,-3.78,-1.16,253,323,244,463,432,0
1728,0.38,0.82,0.49,1.04,-0.12,-4.82,257,318,239,468,433,0
1729,0.38,0.81,0.47,0.55,-2.32,-5.31,261,321,241,472,434,0
1730,0.4,0.81,0.45,1.95,-1.95,-2.99,254,322,240,473,435,0
1731,0.39,0.81,0.46,1.53,-2.69,-4.58,257,322,242,472,436,0
1732,0.39,0.77,0.46,2.14,-5.0,-1.83,255,321,239,467,436,0
1733,0.4,0.82,0.47,-1.65,-3.11,-2.81,255,325,241,473,436,0
1734,0.38,0.83,0.46,4.64,-1.4,-3.54,279,319,237,462,434,0
1735,0.37,0.78,0.45,0.06,-3.91,-2.93,255,321,238,471,434,0
1736,0.38,0.79,0.48,-4.46,-4.58,-1.28,255,325,245,472,438,0
1737,0.35,0.82,0.48,3.91,-2.75,-3.11,258,324,239,465,437,0
1738,0.37,0.82,0.44,0.73,-2.44,-1.46,256,325,241,468,435,0
1739,0.34,0.82,0.47,-4.64,-4.82,-0.98,257,323,241,466,437,0
1740,0.38,0.78,0.48,-5.55,-2.08,-1.65,257,325,244,467,430,0
1741,0.32,0.77,0.52,-7.02,0.79,-6.77,256,327,240,471,435,0
1742,0.39,0.79,0.49,-2.32,-4.33,-3.48,251,325,243,465,434,0
1743,0.37,0.77,0.52,1.04,-2.56,-4.82,253,326,241,467,437,0
1744,0.41,0.84,0.51,3.91,7.75,1.53,258,324,241,468,437,0
1745,0.34,0.79,0.47,4.03,0.31,-7.26,256,325,241,468,437,0
1746,0.35,0.78,0.51,-2.69,-4.21,-2.87,259,326,242,467,438,0
1747,0.35,0.82,0.49,-0.43,-2.01,-5.25,255,324,244,466,435,0
1748,0.31,0.81,0.53,0.67,-4.21,-5.74,256,324,241,469,434,0
1749,0.37,0.83,0.45,4.88,-10.19,-3.3,259,323,242,468,435,0
1750,0.3,0.82,0.46,11.17,-0.55,-8.0,257,326,242,471,437,0
1751,0.32,0.91,0.39,18.31,-11.84,-3.48,255,323,243,460,425,0
1752,0.39,0.87,0.25,17.15,-20.26,3.36,256,324,239,462,430,0
1753,0.37,0.89,0.16,16.54,-15.69,12.57,255,319,244,467,433,0
1754,0.35,0.89,0.2,-0.73,-4.03,-0.18,257,322,246,468,432,0
1755,0.33,0.92,0.22,-3.78,1.65,-7.93,249,325,243,468,433,0
1756,0.35,0.91,0.22,9.58,-7.69,-0.31,252,324,242,473,433,0
1757,0.37,0.97,0.18,4.46,-4.03,-11.41,255,330,241,473,433,0
1758,0.34,0.95,0.19,-12.82,-4.88,-5.68,256,321,241,473,439,0
1759,0.27,0.91,0.21,-2.5,1.83,-7.32,249,322,244,473,434,0
1760,0.3,0.9,0.23,-7.81,0.37,-4.39,255,325,243,466,435,0
1761,0.31,0.95,0.18,-0.43,-5.92,-1.16,264,323,242,471,436,0
1762,0.34,0.9,0.25,-1.89,1.83,-2.93,256,325,243,469,435,0
1763,0.32,0.92,0.27,-2.62,4.03,-7.63,255,326,253,473,434,0
1764,0.32,0.91,0.26,-6.04,-2.81,-1.77,256,326,243,474,437,0
1765,0.32,0.89,0.26,2.44,-2.56,-1.22,257,326,243,474,435,0
1766,0.32,0.91,0.27,3.48,-3.17,-2.5,255,323,242,477,439,0
1767,0.32,0.9,0.27,-2.5,-3.6,0.43,257,326,243,475,440,0
1768,0.32,0.92,0.25,17.15,5.37,-5.55,255,325,246,474,436,0
1769,0.41,0.88,0.17,4.15,-0.06,-0.61,258,317,242,477,434,0
1770,0.31,0.91,0.22,1.89,5.13,1.95,261,321,245,473,432,0
1771,0.39,0.92,0.23,-1.89,-8.18,-4.88,258,323,244,466,435,0
1772,0.39,0.9,0.17,5.31,1.16,4.64,255,322,248,468,434,0
1773,0.25,0.93,0.35,-25.57,-0.61,-5.43,262,326,246,468,431,0
1774,0.48,0.89,0.12,-4.52,-31.49,14.4,253,311,229,475,437,0
1775,0.63,0.75,0.01,-28.75,-2.75,-17.7,255,263,207,468,438,0
1776,0.37,0.94,0.31,-0.73,-5.98,2.14,232,262,209,466,420,0
1777,0.35,0.99,0.31,8.97,-19.84,10.99,239,276,207,467,417,0
1778,0.41,0.79,0.2,-5.25,-1.28,2.32,238,277,211,466,423,0
1779,0.44,0.84,0.24,4.94,-1.89,-9.64,241,279,212,474,421,0
1780,0.45,0.87,0.25,-0.92,-0.37,-8.12,240,280,211,470,422,0
1781,0.35,0.9,0.28,-3.6,2.81,-1.59,243,282,213,474,425,0
1782,0.4,0.89,0.27,4.39,-3.48,-2.56,241,283,211,471,426,0
1783,0.37,0.86,0.28,-1.89,-0.18,-4.03,241,285,216,472,421,0
1784,0.38,0.88,0.27,-1.95,-3.91,-2.14,242,286,217,473,424,0
1785,0.39,0.89,0.3,-4.33,-7.81,1.16,242,287,215,474,425,0
1786,0.38,0.86,0.27,1.28,-2.69,-4.27,242,285,216,469,425,0
1787,0.39,0.88,0.27,1.22,-4.33,0.12,242,285,218,474,423,0
1788,0.4,0.89,0.27,5.86,-3.66,-7.14,245,285,215,473,423,0
1789,0.38,0.86,0.27,0.73,-2.81,-4.09,243,287,217,474,423,0
1790,0.35,0.9,0.28,-5.25,-0.79,-7.2,242,289,216,471,424,0
1791,0.38,0.89,0.28,-2.2,-3.91,-2.62,244,291,220,478,423,0
1792,0.34,0.89,0.27,1.34,-0.43,-2.99,243,288,215,471,423,0
1793,0.34,0.87,0.32,0.49,-0.12,-1.22,244,292,230,472,425,0
1794,0.37,0.9,0.28,3.23,-2.14,-2.56,247,290,220,474,426,0
1795,0.36,0.89,0.29,-3.11,-2.2,-3.48,247,292,221,476,429,0
1796,0.33,0.88,0.28,1.22,-0.37,-5.0,244,291,221,476,426,0
1797,0.33,0.89,0.27,3.3,-5.86,-3.48,244,292,220,474,427,0
1798,0.34,0.89,0.21,-29.91,17.33,-23.86,244,294,219,474,424,0
1799,0.46,0.97,0.32,-34.48,22.28,-16.6,247,288,223,475,427,0
1800,0.23,0.67,0.57,22.03,-18.13,14.4,246,289,222,471,425,0
1801,0.09,0.75,0.59,-57.56,0.79,-34.67,243,289,223,477,425,0
1802,0.22,0.79,0.51,-7.69,12.94,5.62,243,294,222,475,426,0
1803,0.39,0.75,0.38,-60.49,32.41,-13.37,275,294,219,473,423,0
1804,0.4,0.7,0.58,1.71,34.61,6.96,248,296,219,471,425,0
1805,0.47,0.85,0.67,22.28,-2.01,-30.52,246,296,220,474,428,0
1806,0.4,0.73,0.54,-2.99,12.27,-17.27,246,297,222,474,429,0
1807,0.42,0.75,0.49,-0.24,0.85,-3.91,249,298,221,474,430,0
1808,0.4,0.76,0.55,1.46,-3.66,-2.38,248,295,231,475,429,0
1809,0.41,0.78,0.52,-6.16,-0.24,-1.4,247,299,219,475,430,0
1810,0.38,0.78,0.51,10.25,2.87,-5.55,249,298,225,477,427,0
1811,0.4,0.79,0.47,0.85,-5.55,-4.15,250,299,221,476,429,0
1812,0.39,0.79,0.49,4.33,-4.76,-0.43,249,299,228,471,427,0
1813,0.42,0.79,0.46,-1.65,0.49,-5.62,249,297,219,475,428,0
1814,0.36,0.82,0.48,0.37,0.98,-3.66,249,296,228,474,429,0
1815,0.38,0.81,0.44,-0.73,-1.1,-5.43,256,295,225,478,428,0
1816,0.33,0.81,0.47,3.78,0.0,-3.17,247,294,222,476,426,0
1817,0.37,0.82,0.45,2.26,-2.69,-1.22,250,299,225,476,424,0
1818,0.34,0.82,0.45,-0.37,-2.62,-2.87,247,297,223,481,429,0
1819,0.35,0.82,0.46,1.83,-1.4,-3.85,251,297,226,474,427,0
1820,0.35,0.81,0.44,4.27,-1.71,-7.57,249,300,223,479,423,0
1821,0.26,0.84,0.43,-1.4,6.77,-2.56,249,295,227,476,429,0
1822,0.28,0.83,0.44,4.27,-2.08,-2.26,251,298,225,477,423,0
1823,0.33,0.86,0.45,1.59,-3.23,-2.93,250,294,228,476,428,0
1824,0.31,0.87,0.47,2.44,-0.31,-7.75,264,300,223,476,429,0
1825,0.34,0.86,0.45,3.48,3.3,-10.8,248,295,221,482,426,0
1826,0.34,0.84,0.45,4.09,-1.22,3.48,249,299,227,471,427,0
1827,0.29,0.81,0.43,1.83,-0.24,2.01,249,297,224,474,429,0
1828,0.3,0.85,0.41,3.17,-4.09,-1.04,248,296,226,476,427,0
1829,0.28,0.86,0.42,3.23,-2.2,-1.77,249,299,237,476,431,0
1830,0.28,0.85,0.45,-0.18,-1.71,-2.32,249,298,224,472,427,0
1831,0.3,0.91,0.36,-2.14,-14.71,-0.12,249,299,226,477,428,0
1832,0.29,0.89,0.41,3.85,1.46,-1.95,251,297,227,481,429,0
1833,0.27,0.86,0.39,2.93,-6.71,-12.15,252,301,226,476,428,0
1834,0.27,0.83,0.36,2.32,-16.72,-4.82,250,297,224,474,427,0
1835,0.29,0.88,0.37,1.53,1.1,2.93,249,299,226,477,427,0
1836,0.28,0.89,0.38,2.56,-4.94,-3.48,249,297,222,476,427,0
1837,0.27,0.87,0.36,-3.85,-9.34,-5.07,247,299,230,475,436,0
1838,0.36,0.89,0.32,11.78,-2.26,8.97,248,298,221,475,431,0
1839,0.31,0.89,0.32,3.17,-4.76,-0.12,247,299,225,469,425,0
1840,0.37,0.89,0.33,-1.71,-3.23,-2.14,253,298,225,476,429,0
1841,0.3,0.86,0.39,-8.18,-2.08,-2.56,250,301,224,472,427,0
1842,0.34,0.87,0.37,4.33,-2.2,-2.26,250,298,228,475,429,0
1843,0.35,0.87,0.38,7.08,-4.21,-0.55,252,300,223,476,425,0
1844,0.33,0.87,0.37,0.0,-2.26,-2.44,252,298,227,480,429,0
1845,0.37,0.88,0.33,-0.61,-6.9,-4.94,252,298,234,476,425,0
1846,0.28,0.83,0.41,4.82,2.26,-5.37,250,299,227,471,424,0
1847,0.33,0.87,0.34,1.22,-2.62,-2.32,250,299,226,476,428,0
1848,0.3,0.87,0.38,1.89,-5.86,-3.11,252,300,228,477,432,0
1849,0.32,0.89,0.35,2.32,-2.32,-0.79,251,298,224,471,431,0
1850,0.31,0.86,0.36,-0.55,-1.46,-3.78,246,302,228,475,430,0
1851,0.33,0.9,0.36,1.46,-2.2,-2.38,250,299,224,476,428,0
1852,0.32,0.88,0.36,0.73,-1.89,-2.26,249,298,226,472,423,0
1853,0.35,0.88,0.35,2.08,-2.44,-3.54,250,300,224,476,428,0
1854,0.3,0.87,0.37,-0.24,-3.42,-1.34,253,300,226,475,427,0
1855,0.32,0.89,0.34,1.46,1.22,1.95,273,301,224,478,426,0
1856,0.39,0.84,0.34,-1.83,-6.47,-5.37,253,298,226,478,428,0
1857,0.34,0.89,0.39,-10.62,-13.18,-12.45,253,302,226,475,425,0
1858,0.33,0.86,0.43,-6.29,4.27,-6.53,249,301,223,474,427,0
1859,0.32,0.86,0.42,5.92,-7.63,2.14,250,301,226,478,419,0
1860,0.36,0.88,0.38,3.91,-6.29,-3.36,247,302,237,480,427,0
1861,0.34,0.83,0.4,2.69,4.03,-0.61,252,302,226,473,430,0
1862,0.34,0.85,0.4,-2.62,-0.43,-1.95,250,302,227,481,429,0
1863,0.39,0.84,0.39,2.81,-2.56,-4.21,251,301,225,477,431,0
1864,0.36,0.86,0.38,-0.98,-3.3,-9.09,252,299,227,481,428,0
1865,0.32,0.89,0.38,3.6,-7.69,2.32,252,302,225,479,428,0
1866,0.4,0.88,0.35,5.8,-7.14,-4.76,250,298,223,472,429,0
1867,0.36,0.85,0.33,7.93,-0.92,1.22,249,298,228,472,430,0
1868,0.37,0.87,0.31,1.34,-4.39,-1.95,251,295,229,477,424,0
1869,0.38,0.88,0.34,-0.24,-2.87,-4.7,253,298,224,473,428,0
1870,0.44,0.85,0.33,2.87,-1.83,-2.75,251,298,224,474,428,0
1871,0.36,0.89,0.32,-3.11,0.18,-4.27,251,300,229,472,431,0
1872,0.38,0.86,0.34,1.83,1.34,-3.23,251,303,230,475,428,0
1873,0.33,0.89,0.34,2.26,-3.05,-2.62,251,299,231,474,426,0
1874,0.35,0.85,0.33,-1.28,-1.89,-2.69,250,301,227,472,431,0
1875,0.37,0.85,0.32,3.85,-4.94,-0.43,250,299,230,479,429,0
1876,0.32,0.89,0.35,-1.28,-3.48,-3.78,247,299,226,479,430,0
1877,0.39,0.93,0.29,3.17,-1.22,-3.91,251,301,230,479,430,0
1878,0.36,0.89,0.33,-4.09,-4.46,-7.87,248,304,229,476,424,0
1879,0.33,0.91,0.32,-8.73,-3.17,-20.94,251,309,230,473,428,0
1880,0.34,0.82,0.37,-2.69,-0.79,-10.31,253,302,228,473,430,0
1881,0.36,0.87,0.36,-2.99,-7.32,-2.14,253,300,227,475,431,0
1882,0.41,0.87,0.35,-1.22,-3.91,-1.34,251,301,227,479,429,0
1883,0.35,0.86,0.36,1.59,-3.48,-6.16,254,302,226,470,429,0
1884,0.38,0.84,0.35,2.14,-5.31,-9.28,251,304,230,480,429,0
1885,0.36,0.89,0.33,0.06,-6.9,-3.23,249,297,227,480,427,0
1886,0.36,0.87,0.36,0.55,-3.78,-1.04,253,302,233,471,425,0
1887,0.34,0.88,0.36,0.85,-0.67,-3.23,249,303,228,478,425,0
1888,0.35,0.86,0.35,0.18,-3.97,-1.22,251,304,229,490,426,0
1889,0.36,0.86,0.31,2.32,-5.92,-1.95,253,304,228,476,424,0
1890,0.35,1.02,0.4,-5.19,-17.21,4.94,251,300,229,479,426,0
1891,0.34,0.82,0.37,-5.74,-7.02,0.79,253,299,230,478,426,0
1892,0.35,0.84,0.41,0.73,-31.74,6.77,251,302,226,475,426,0
1893,0.37,0.86,0.38,-5.19,1.71,-10.74,254,300,227,477,431,0
1894,0.28,0.83,0.45,6.41,-2.44,0.0,251,302,231,476,424,0
1895,0.32,0.83,0.45,3.6,-5.86,-1.95,251,298,229,476,430,0
1896,0.33,0.85,0.41,4.03,-3.48,-3.23,255,301,230,476,426,0
1897,0.32,0.85,0.42,-0.67,0.12,-2.08,253,302,227,476,430,0
1898,0.27,0.86,0.42,10.13,-0.31,-8.42,250,301,226,480,429,0
1899,0.38,0.84,0.4,-3.42,-6.35,-3.78,253,301,225,469,427,0
1900,0.27,0.86,0.44,-1.4,2.5,-5.62,253,303,227,472,433,0
1901,0.34,0.83,0.34,7.93,1.95,-0.85,252,299,228,476,423,0
1902,0.35,0.95,0.36,2.01,-0.12,-11.29,282,300,233,470,421,0
1903,0.54,0.98,0.42,20.32,-9.83,2.81,254,304,231,473,426,0
1904,0.23,0.72,0.55,-13.98,-12.02,22.64,254,306,227,467,429,0
1905,0.62,0.92,0.41,25.39,-13.61,6.41,255,314,226,472,426,0
1906,0.6,0.75,0.43,12.76,-20.75,5.19,252,305,230,474,432,0
1907,0.73,0.66,0.42,-9.83,5.31,-5.74,254,302,227,478,428,0
1908,0.61,0.75,0.36,19.84,11.35,-13.79,251,307,233,473,424,0
1909,0.52,0.71,0.42,-8.54,0.24,-1.71,256,306,230,468,424,0
1910,0.6,0.74,0.43,-16.11,-7.81,0.61,250,307,229,471,428,0
1911,0.51,0.62,0.43,-5.92,-18.49,1.46,258,311,228,477,427,0
1912,0.52,0.67,0.43,-25.63,9.4,-18.19,253,306,231,478,428,0
1913,0.57,0.73,0.36,-4.76,9.28,-13.06,257,308,229,475,427,0
1914,0.53,0.73,0.47,-12.57,-4.15,-6.29,249,310,230,468,424,0
1915,0.55,0.76,0.39,5.25,-8.91,-17.82,254,304,229,479,423,0
1916,0.54,0.77,0.4,-4.39,2.93,-15.08,254,307,230,477,430,0
1917,0.45,0.78,0.37,6.04,2.99,-7.51,255,307,231,469,427,0
1918,0.43,0.79,0.44,-4.15,0.06,-21.48,254,307,230,475,427,0
1919,0.4,0.82,0.36,-0.43,-1.28,-5.31,272,307,233,481,430,0
1920,0.32,0.86,0.4,14.59,3.97,-8.79,257,307,231,474,424,0
1921,0.36,0.86,0.35,1.4,-9.89,-2.93,256,307,232,472,426,0
1922,0.32,0.89,0.34,0.43,-6.41,-4.58,257,307,232,481,426,0
1923,0.28,0.92,0.33,2.38,-0.61,-4.09,255,303,231,477,426,0
1924,0.3,0.89,0.3,-2.56,-3.42,-6.35,254,314,230,477,424,0
1925,0.28,0.89,0.3,-0.98,-0.31,-5.43,254,307,235,479,419,0
1926,0.27,0.91,0.32,0.98,-3.72,-2.75,255,306,234,473,422,0
1927,0.31,0.93,0.3,7.69,-7.57,9.03,256,309,232,476,420,0
1928,0.33,0.89,0.27,2.2,-0.24,-4.64,253,304,236,474,421,0
1929,0.28,0.93,0.27,5.13,2.01,-9.52,257,307,238,473,424,0
1930,0.31,0.9,0.27,7.26,-6.53,3.72,256,309,242,475,424,0
1931,0.3,0.9,0.27,1.16,-0.98,-4.09,255,307,238,478,426,0
1932,0.27,0.92,0.29,2.56,-2.01,-4.88,257,307,237,479,425,0
1933,0.29,0.92,0.27,0.0,-3.85,-2.81,256,309,239,475,429,0
1934,0.28,0.91,0.26,2.81,-1.71,-4.94,255,307,243,477,426,0
1935,0.28,0.92,0.27,-1.16,-2.2,-3.36,258,307,238,476,425,0
1936,0.27,0.93,0.28,-0.98,-2.56,-2.56,259,310,237,478,428,0
1937,0.27,0.92,0.25,0.06,-5.8,2.14,256,311,236,476,427,0
1938,0.34,0.92,0.19,1.53,-2.14,1.16,260,308,242,474,427,0
1939,0.31,0.92,0.25,0.73,-3.11,-1.22,257,308,237,479,427,0
1940,0.31,0.93,0.22,1.4,-3.36,-4.58,256,309,242,480,428,0
1941,0.3,0.93,0.23,-0.12,-2.08,-6.35,259,309,244,477,427,0
1942,0.31,0.92,0.23,3.6,-4.82,-2.93,255,308,242,476,426,0
1943,0.29,0.92,0.22,2.93,-4.64,-0.37,258,309,244,475,428,0
1944,0.29,0.91,0.24,-0.12,-2.01,-3.36,259,312,251,476,427,0
1945,0.24,0.91,0.27,-8.12,1.89,-13.12,257,317,243,476,425,0
1946,0.3,0.91,0.24,-1.89,-2.62,-4.33,258,311,241,477,424,0
1947,0.29,0.92,0.25,0.12,-1.34,-0.43,259,309,243,476,427,0
1948,0.3,0.91,0.23,-0.55,-3.3,-3.36,258,311,244,479,426,0
1949,0.25,0.91,0.24,-7.39,5.43,-7.81,266,312,244,482,430,0
1950,0.33,0.92,0.26,-2.87,-2.38,-2.32,261,311,245,472,430,0
1951,0.31,0.91,0.22,1.71,3.23,-1.16,255,313,243,480,428,0
1952,0.32,0.93,0.2,2.5,-1.65,-1.77,258,311,243,475,427,0
1953,0.37,0.94,0.17,6.1,-6.84,5.86,258,311,245,471,425,0
1954,0.26,0.95,0.24,-0.18,5.07,-0.92,257,322,244,476,429,0
1955,0.33,1.02,0.23,-0.12,-0.31,1.04,259,311,247,476,427,0
1956,0.33,0.78,0.24,-5.55,9.52,4.64,260,311,242,473,427,0
1957,0.36,0.96,0.13,-18.86,-13.31,6.29,288,317,244,475,423,0
1958,0.38,0.97,0.35,-17.94,13.18,7.63,259,312,245,478,428,0
1959,0.36,0.87,0.29,-4.94,-3.42,-2.14,261,317,247,471,424,0
1960,0.38,0.82,0.35,8.61,-5.49,1.28,260,313,244,477,429,0
1961,0.41,0.91,0.31,9.22,1.16,-4.03,258,314,247,481,429,0
1962,0.36,0.85,0.31,2.01,-0.37,-4.82,258,315,245,482,430,0
1963,0.35,0.87,0.24,-2.99,-8.24,2.32,260,316,246,479,432,0
1964,0.37,0.89,0.25,4.76,-4.39,-0.49,264,315,246,477,430,0
1965,0.39,0.87,0.24,5.92,-3.6,-5.25,258,312,247,481,430,0
1966,0.39,0.86,0.23,-6.77,7.93,4.7,264,316,246,482,427,0
1967,0.3,0.97,0.27,-9.16,-1.53,-14.77,259,314,247,481,429,0
1968,0.48,0.79,0.28,-28.81,-5.49,11.47,259,317,246,479,428,0
1969,0.57,0.77,0.4,-7.02,-16.11,24.72,260,311,247,480,430,0
1970,0.49,0.65,0.35,-76.54,26.73,-48.22,261,318,245,479,432,0
1971,0.42,0.79,0.57,22.95,8.24,16.48,259,317,244,478,424,0
1972,0.38,0.78,0.51,8.24,-2.08,-8.24,259,315,248,474,425,0
1973,0.5,0.8,0.52,1.95,-7.93,-14.34,263,318,247,479,429,0
1974,0.41,0.73,0.51,10.31,-0.98,-8.54,259,315,249,472,425,0
1975,0.41,0.77,0.47,1.65,-4.03,-7.14,260,312,247,477,429,0
1976,0.42,0.81,0.44,7.45,-5.31,-11.54,259,318,247,480,427,0
1977,0.41,0.79,0.43,1.28,-16.24,-0.73,262,316,247,470,426,0
1978,0.39,0.81,0.41,0.18,0.06,-8.12,261,317,245,480,426,0
1979,0.37,0.84,0.43,1.71,-0.49,-1.1,260,314,258,481,427,0
1980,0.34,0.83,0.44,2.87,0.92,-3.66,260,316,248,477,426,0
1981,0.32,0.86,0.44,4.21,-5.86,-7.08,260,318,245,479,425,0
1982,0.31,0.79,0.42,3.48,-11.29,2.75,256,315,247,481,429,0
1983,0.35,0.85,0.41,1.89,-1.4,-2.2,261,316,251,479,427,0
1984,0.34,0.86,0.41,-1.77,-0.49,-2.2,263,314,251,479,427,0
1985,0.32,0.87,0.4,5.43,-2.01,-3.85,260,323,248,478,428,0
1986,0.35,0.84,0.4,-0.79,-2.14,-2.81,260,318,250,477,427,0
1987,0.35,0.83,0.39,0.0,-4.27,-0.18,259,315,248,479,427,0
1988,0.34,0.84,0.41,0.61,-2.38,-4.27,258,318,248,485,429,0
1989,0.36,0.85,0.4,1.34,-3.17,-3.72,261,319,248,478,427,0
1990,0.34,0.84,0.41,-1.4,-2.99,-2.14,262,320,251,479,427,0
1991,0.37,0.85,0.39,2.93,-3.05,-3.6,266,317,247,481,427,0
1992,0.35,0.83,0.39,0.67,-4.76,-2.5,261,321,245,478,424,0
1993,0.36,0.84,0.4,-3.36,-4.09,-0.85,264,320,249,481,427,0
1994,0.34,0.86,0.41,0.43,-1.71,-1.83,261,320,248,483,427,0
1995,0.35,0.85,0.4,0.37,-4.76,-0.12,259,319,251,476,424,0
1996,0.35,0.86,0.39,0.0,-3.78,-2.26,260,321,249,482,428,0
1997,0.35,0.86,0.38,2.56,-5.43,-1.77,261,315,250,474,430,0
1998,0.35,0.86,0.39,0.24,-2.14,-5.55,261,319,247,479,427,0
1999,0.34,0.85,0.38,3.78,-5.13,-2.44,262,319,249,483,424,0
2000,0.34,0.86,0.38,2.5,-5.0,1.59,263,319,251,481,426,0
2001,0.35,0.84,0.37,-1.04,-6.04,-3.36,260,320,252,477,425,0
2002,0.32,0.85,0.36,0.12,-3.23,-3.66,261,318,254,477,427,0
2003,0.38,0.85,0.36,11.66,-7.57,2.01,259,318,251,478,428,0
2004,0.38,0.86,0.37,4.94,-1.34,-1.83,263,315,249,478,428,0
2005,0.42,0.87,0.32,1.83,-6.59,0.98,260,316,250,480,430,0
2006,0.45,0.89,0.34,2.01,-2.56,-4.52,263,316,247,478,430,0
2007,0.39,0.86,0.35,-3.42,-5.98,-3.78,261,315,250,482,423,0
2008,0.33,0.84,0.36,-1.59,-0.06,3.23,263,320,248,481,431,0
2009,0.42,0.81,0.35,4.82,2.62,5.98,263,320,251,482,428,0
2010,0.4,0.85,0.32,-1.28,-7.26,-9.83,259,321,249,478,424,0
2011,0.37,0.86,0.35,4.39,-5.25,-0.37,263,321,250,482,428,0
2012,0.39,0.88,0.29,9.28,-1.28,-1.59,262,322,247,482,430,0
2013,0.4,0.85,0.32,-1.1,-1.95,-3.78,263,323,252,482,428,0
2014,0.41,0.88,0.28,4.27,-3.48,-3.54,263,321,250,482,426,0
2015,0.42,0.87,0.29,0.49,-2.87,-2.87,262,317,250,482,427,0
2016,0.4,0.88,0.31,-5.92,-1.59,-1.71,256,320,253,484,432,0
2017,0.4,0.86,0.29,3.11,-3.17,-4.15,261,323,254,480,424,0
2018,0.41,0.88,0.31,2.08,-4.82,-1.53,263,320,250,483,427,0
2019,0.42,0.86,0.28,-0.61,-3.91,-4.52,262,321,249,482,431,0
2020,0.37,0.87,0.25,5.31,-5.55,-2.01,262,325,251,478,424,0
2021,0.42,0.89,0.24,-1.95,-3.23,-3.42,264,322,251,469,426,0
2022,0.39,0.87,0.23,0.0,-5.49,-3.85,262,322,252,474,431,0
2023,0.36,0.88,0.25,-2.32,2.01,2.08,268,321,250,473,425,0
2024,0.4,0.93,0.25,-1.95,1.22,-0.12,266,317,250,476,427,0
2025,0.38,0.93,0.25,0.61,3.78,-8.06,263,323,248,476,429,0
2026,0.42,0.87,0.25,-0.55,-6.35,-4.21,298,323,254,475,427,0
2027,0.34,0.9,0.27,1.28,-2.44,-3.97,263,322,253,475,428,0
2028,0.39,0.89,0.28,-0.61,0.79,2.5,263,321,252,477,428,0
2029,0.37,0.96,0.28,6.77,-1.34,0.18,263,320,248,477,426,0
2030,0.41,0.84,0.29,-3.48,-2.93,-4.94,261,320,253,478,428,0
2031,0.36,0.93,0.29,1.89,1.04,-5.8,258,322,253,480,428,0
2032,0.43,0.87,0.26,1.59,-1.71,-8.42,262,321,253,477,428,0
2033,0.42,0.86,0.28,1.28,-3.11,-3.78,262,316,255,480,428,0
2034,0.4,0.9,0.23,3.05,-2.87,-5.19,264,321,254,478,425,0
2035,0.39,0.89,0.26,-4.15,1.34,-4.82,260,322,250,478,429,0
2036,0.38,0.91,0.25,5.25,-3.23,-3.05,265,324,250,481,425,0
2037,0.42,0.86,0.21,-5.8,-8.24,8.24,260,323,253,476,428,0
2038,0.39,0.87,0.26,-4.09,-4.03,-6.1,262,325,249,469,429,0
2039,0.38,0.88,0.22,0.31,0.0,-4.09,263,321,253,476,430,0
2040,0.36,0.9,0.25,-1.77,-0.18,-3.48,261,322,253,477,427,0
2041,0.37,0.89,0.24,1.4,-0.24,-5.62,264,320,254,477,433,0
2042,0.38,0.9,0.23,2.38,-5.19,-3.05,265,322,249,477,427,0
2043,0.36,0.9,0.23,-3.23,-1.71,-4.64,264,322,255,476,423,0
2044,0.33,0.91,0.24,3.23,-2.14,-5.55,260,321,252,478,428,0
2045,0.36,0.91,0.21,-1.28,-3.05,-2.81,262,322,256,481,426,0
2046,0.34,0.9,0.22,-1.22,-4.64,-0.85,263,322,252,481,428,0
2047,0.34,0.94,0.2,1.95,-2.5,-2.93,266,320,260,479,434,0
2048,0.32,0.89,0.22,2.93,-4.58,-1.59,264,322,253,479,428,0
2049,0.36,0.84,0.14,5.43,-5.74,-3.66,265,321,253,478,429,0
2050,0.37,0.83,0.18,1.65,-3.66,-0.37,264,322,252,479,429,0
2051,0.36,0.94,0.2,-0.37,-2.2,-5.8,272,324,254,480,430,0
2052,0.35,0.91,0.19,3.36,-3.6,-2.69,263,322,254,481,431,0
2053,0.32,0.9,0.2,3.23,-4.09,-3.23,265,321,256,478,431,0
2054,0.37,0.91,0.18,0.73,-2.75,-2.01,265,323,266,479,432,0
2055,0.34,0.92,0.17,4.39,-1.46,-5.8,265,323,252,478,429,0
2056,0.35,0.92,0.19,1.16,-3.48,-3.11,261,322,252,487,433,0
2057,0.33,0.92,0.19,0.0,-3.48,-3.91,266,330,257,474,428,0
2058,0.3,0.91,0.21,-0.49,-0.49,-1.89,262,318,256,484,430,0
