,aX,aY,aZ,gX,gY,gZ,little,ring,middle,index,thumb,number
0,0.84,-0.42,-0.26,-0.18,-1.77,-1.04,227,250,207,453,394,1
1,0.86,-0.43,-0.26,0.85,-2.08,-1.77,230,248,205,455,393,1
2,0.87,-0.44,-0.25,0.0,-2.69,-1.65,228,243,206,456,392,1
3,0.86,-0.43,-0.25,-2.26,-3.05,-2.14,231,248,202,456,395,1
4,0.85,-0.44,-0.26,2.44,-4.82,-2.69,220,246,204,453,393,1
5,0.87,-0.45,-0.26,-0.98,-2.93,-0.92,231,248,205,455,393,1
6,0.86,-0.49,-0.21,0.06,-1.95,-2.14,232,246,207,453,393,1
7,0.85,-0.46,-0.26,0.06,-2.87,-2.32,229,248,208,451,393,1
8,0.86,-0.45,-0.26,3.72,-3.6,-2.2,230,246,211,449,394,1
9,0.86,-0.46,-0.27,-2.5,-4.15,0.0,221,248,207,447,393,1
10,0.85,-0.44,-0.27,-2.81,-3.36,-5.8,234,247,209,448,393,1
11,0.84,-0.48,-0.33,-13.73,4.03,1.4,231,260,207,449,391,1
12,0.79,-0.49,-0.32,-2.32,-3.36,-10.62,232,247,208,451,389,1
13,0.83,-0.47,-0.3,-2.69,-1.22,-6.1,234,250,208,449,398,1
14,0.84,-0.46,-0.29,-3.23,0.43,-3.17,233,248,210,448,394,1
15,0.84,-0.45,-0.29,-1.46,0.85,-3.3,235,248,209,458,395,1
16,0.84,-0.45,-0.26,2.14,-0.24,-3.78,273,249,214,453,393,1
17,0.86,-0.44,-0.27,1.71,-3.3,-2.62,236,246,210,456,389,1
18,0.85,-0.45,-0.28,-0.24,-0.73,-2.32,233,249,204,459,394,1
19,0.83,-0.46,-0.23,-0.67,-5.55,-1.34,235,251,207,456,394,1
20,0.88,-0.4,-0.24,6.77,18.86,-18.43,240,250,211,456,392,1
21,0.88,-0.43,-0.29,-0.55,-2.93,0.18,235,250,211,458,389,1
22,0.88,-0.42,-0.25,-3.23,-2.32,-0.98,235,252,210,455,398,1
23,0.87,-0.44,-0.27,2.93,-4.27,-3.11,242,252,208,458,389,1
24,0.86,-0.44,-0.28,2.32,-4.03,-3.6,228,249,216,453,391,1
25,0.85,-0.45,-0.27,1.16,-2.56,-2.44,238,251,210,457,388,1
26,0.85,-0.44,-0.27,2.14,-3.54,-1.95,234,247,210,454,390,1
27,0.83,-0.46,-0.28,0.37,-1.77,-2.81,236,247,216,456,390,1
28,0.84,-0.45,-0.28,1.46,-2.01,-4.58,237,249,209,451,392,1
29,0.85,-0.44,-0.26,-2.75,-1.89,1.04,237,258,210,455,387,1
30,0.86,-0.45,-0.25,0.92,-2.32,-1.71,241,253,209,454,388,1
31,0.86,-0.44,-0.25,0.06,-2.44,-2.75,234,251,212,450,391,1
32,0.84,-0.46,-0.26,-1.71,-3.11,-2.62,238,251,209,452,392,1
33,0.85,-0.46,-0.24,-15.01,-1.71,-2.69,237,267,213,446,392,1
34,0.85,-0.46,-0.26,2.2,-3.36,-1.77,237,250,213,446,393,1
35,0.86,-0.45,-0.25,0.31,-2.75,-1.71,237,251,210,454,393,1
36,0.85,-0.46,-0.27,1.77,-4.03,-2.99,240,253,210,449,395,1
37,0.84,-0.47,-0.27,1.1,-3.91,-2.2,240,251,214,454,392,1
38,0.84,-0.47,-0.27,1.1,-3.23,-3.17,239,250,210,457,389,1
39,0.84,-0.46,-0.26,0.43,-2.81,-3.48,239,252,207,454,392,1
40,0.85,-0.46,-0.26,-0.24,-2.56,-2.81,238,250,210,450,393,1
41,0.84,-0.46,-0.27,2.26,-3.05,0.06,239,253,211,455,390,1
42,0.84,-0.46,-0.26,-0.85,-1.59,-3.17,247,251,212,451,391,1
43,0.84,-0.47,-0.27,1.1,-6.23,-1.28,237,253,211,449,394,1
44,0.85,-0.47,-0.26,1.28,-2.01,-2.99,230,255,210,450,394,1
45,0.85,-0.47,-0.26,0.06,-3.05,-2.5,228,256,213,448,394,1
46,0.84,-0.46,-0.25,-5.62,-2.69,-0.24,226,258,216,452,395,1
47,0.84,-0.46,-0.27,1.53,-3.6,-2.75,220,269,218,451,394,1
48,0.84,-0.47,-0.26,2.81,-3.85,-3.42,222,266,217,451,393,1
49,0.83,-0.47,-0.26,0.92,-3.11,-3.72,219,270,219,452,393,1
50,0.85,-0.47,-0.28,-1.1,-4.27,-1.46,223,268,215,457,392,1
51,0.84,-0.46,-0.25,0.67,-2.62,-4.09,223,268,220,456,393,1
52,0.84,-0.47,-0.24,0.37,-11.35,0.67,227,270,211,455,393,1
53,0.84,-0.46,-0.27,0.0,-3.66,-2.01,227,269,219,457,391,1
54,0.84,-0.47,-0.26,0.0,-4.03,-1.1,226,275,216,452,391,1
55,0.84,-0.47,-0.26,0.12,-2.69,-2.38,226,271,216,452,392,1
56,0.84,-0.47,-0.27,0.24,-2.01,-3.05,227,267,216,452,391,1
57,0.84,-0.47,-0.27,0.61,-2.44,-3.54,230,270,218,448,390,1
58,0.84,-0.47,-0.26,1.89,-4.21,-3.36,231,266,215,457,390,1
59,0.83,-0.47,-0.27,1.71,-3.85,-1.65,230,268,217,455,392,1
60,0.84,-0.47,-0.26,0.73,-3.11,-2.32,229,276,218,452,392,1
61,0.84,-0.47,-0.27,-0.49,-2.69,-2.14,226,269,216,447,390,1
62,0.84,-0.47,-0.26,0.79,-2.56,-2.56,258,269,219,449,393,1
63,0.84,-0.47,-0.26,1.28,-3.6,-2.01,229,268,214,453,392,1
64,0.83,-0.48,-0.25,1.89,-3.23,-2.56,228,269,219,456,393,1
65,0.84,-0.47,-0.27,-1.22,-3.66,-3.48,229,269,220,448,392,1
66,0.84,-0.47,-0.27,0.73,-2.2,-3.3,229,271,217,452,392,1
67,0.84,-0.47,-0.27,-0.12,-3.23,-2.93,233,271,217,449,392,1
68,0.84,-0.47,-0.26,0.31,-3.36,-2.69,232,271,220,449,402,1
69,0.84,-0.48,-0.27,1.65,-2.81,-2.44,231,269,219,456,390,1
70,0.84,-0.47,-0.26,0.18,-2.99,-2.5,229,267,219,456,392,1
71,0.84,-0.47,-0.26,-2.93,-1.89,-3.91,230,270,219,453,389,1
72,0.8,-0.49,-0.26,1.46,1.71,-1.46,259,267,217,455,393,1
73,0.84,-0.48,-0.25,-1.53,-2.75,-2.99,230,268,216,446,392,1
74,0.82,-0.48,-0.27,-1.16,-2.5,-1.89,229,271,217,456,403,1
75,0.83,-0.48,-0.27,1.83,-4.15,-2.44,231,270,219,453,392,1
76,0.83,-0.48,-0.27,-0.37,-2.26,-2.69,233,270,217,458,393,1
77,0.83,-0.47,-0.26,-0.73,-3.05,-2.93,233,269,223,453,392,1
78,0.84,-0.47,-0.28,0.55,-2.69,-4.09,232,272,219,452,391,1
79,0.84,-0.47,-0.28,-0.85,-2.93,-3.91,229,269,216,456,393,1
80,0.84,-0.46,-0.26,-4.76,-0.98,-3.11,229,273,218,452,392,1
81,0.85,-0.45,-0.28,-1.4,-4.82,-1.89,216,281,219,450,392,1
82,0.84,-0.45,-0.29,-6.84,-3.66,-2.08,211,287,218,454,388,1
83,0.82,-0.45,-0.28,6.53,-7.81,-1.04,200,290,225,455,390,1
84,0.82,-0.47,-0.29,4.27,-5.86,3.78,197,289,222,452,389,1
85,0.43,-0.56,-0.0,-49.74,67.93,-56.46,201,277,217,447,388,1
86,0.88,-0.43,-0.23,-17.64,-2.99,-1.89,204,281,219,450,392,1
87,0.85,-0.43,-0.22,1.34,1.65,-3.97,207,281,220,451,391,1
88,0.88,-0.44,-0.29,-0.49,-4.15,-0.79,204,286,217,452,390,1
89,0.83,-0.46,-0.29,4.94,-2.5,-1.28,203,281,215,452,390,1
90,0.8,-0.5,-0.32,-1.28,-7.08,-5.74,210,282,219,448,393,1
91,0.8,-0.46,-0.27,-5.13,-6.1,7.45,206,281,219,452,393,1
92,0.81,-0.49,-0.29,-3.6,-3.72,-4.27,209,279,214,454,387,1
93,0.84,-0.46,-0.34,3.85,2.69,-13.79,211,279,218,452,390,1
94,0.77,-0.52,-0.27,-11.29,-10.93,33.2,206,282,216,455,389,1
95,0.77,-0.55,-0.35,-4.64,-0.55,11.35,209,280,217,452,390,1
96,0.77,-0.53,-0.34,0.92,4.76,-10.74,210,276,216,449,387,1
97,0.77,-0.52,-0.28,4.7,20.26,-12.45,210,279,214,451,388,1
98,0.77,-0.54,-0.28,1.89,-5.13,-2.01,213,278,219,448,389,1
99,0.79,-0.53,-0.3,-1.53,-2.38,-4.76,211,278,218,450,390,1
100,0.8,-0.53,-0.29,0.98,-2.81,-1.83,210,278,216,454,389,1
101,0.8,-0.52,-0.3,-2.44,-1.46,-4.58,210,277,216,448,389,1
102,0.81,-0.51,-0.3,1.4,-1.59,-5.37,210,278,217,451,391,1
103,0.82,-0.5,-0.31,-3.72,-2.81,-7.26,208,277,216,452,392,1
104,0.81,-0.5,-0.25,2.32,27.53,-4.33,208,280,219,453,391,1
105,0.84,-0.49,-0.23,1.46,-11.29,0.55,213,280,219,451,389,1
106,0.82,-0.5,-0.24,-4.46,3.17,-3.6,212,279,219,451,389,1
107,0.85,-0.49,-0.28,-0.31,3.17,-4.27,199,279,218,455,390,1
108,0.82,-0.5,-0.28,0.79,-3.05,-1.89,206,278,220,451,390,1
109,0.8,-0.51,-0.25,-7.45,6.04,-11.35,213,280,217,447,388,1
110,0.79,-0.51,-0.27,-1.71,-3.72,-1.95,210,281,218,451,384,1
111,0.84,-0.49,-0.28,10.25,-1.65,-6.29,211,280,218,451,388,1
112,0.79,-0.49,-0.26,9.34,3.3,0.31,241,279,217,459,384,1
113,0.76,-0.54,-0.3,-1.22,1.04,-4.39,214,278,218,452,387,1
114,0.76,-0.52,-0.27,4.88,-7.69,1.46,211,278,218,451,390,1
115,0.78,-0.54,-0.3,2.99,-2.75,-2.75,209,281,216,451,389,1
116,0.76,-0.55,-0.31,-1.83,-2.75,-2.2,209,280,215,451,387,1
117,0.76,-0.54,-0.31,-1.83,-4.09,-3.36,213,278,220,448,386,1
118,0.8,-0.52,-0.3,-0.49,-2.62,-4.09,212,279,217,450,386,1
119,0.81,-0.52,-0.3,4.76,-3.23,-0.06,214,280,221,451,386,1
120,0.76,-0.56,-0.34,-2.93,-4.27,-1.04,213,280,217,451,385,1
121,0.75,-0.51,-0.27,-12.7,-11.11,0.79,215,280,218,453,387,1
122,0.79,-0.5,-0.29,-16.17,2.14,4.09,213,279,232,451,386,1
123,0.67,-0.59,-0.47,4.15,11.72,-10.13,211,279,221,451,385,1
124,0.77,-0.51,-0.31,8.73,7.75,-10.99,216,279,217,453,387,1
125,0.75,-0.54,-0.34,1.4,-15.63,4.7,213,279,217,451,386,1
126,0.76,-0.54,-0.35,1.95,-4.03,-1.46,221,290,218,450,385,1
127,0.71,-0.57,-0.38,-0.98,-2.14,-2.87,214,280,219,452,378,1
128,0.75,-0.55,-0.38,1.77,-1.71,-4.15,213,278,221,451,388,1
129,0.74,-0.56,-0.36,7.14,-3.23,-3.72,215,277,221,445,388,1
130,0.75,-0.54,-0.35,4.64,-1.1,-4.39,209,279,220,451,389,1
131,0.75,-0.55,-0.35,1.77,-1.28,-5.8,215,279,219,452,391,1
132,0.75,-0.54,-0.33,-1.46,-2.99,-1.4,213,280,219,454,387,1
133,0.77,-0.52,-0.34,-2.62,0.12,-2.5,214,282,224,447,387,1
134,0.76,-0.54,-0.33,3.36,-2.99,-4.94,216,277,221,452,388,1
135,0.78,-0.52,-0.34,0.12,-2.93,-4.21,220,282,222,454,387,1
136,0.77,-0.52,-0.34,1.89,-3.11,-3.6,216,280,222,456,390,1
137,0.78,-0.52,-0.34,-0.43,-3.66,-1.46,235,282,223,451,387,1
138,0.78,-0.52,-0.33,1.28,-1.16,-3.17,214,279,218,451,384,1
139,0.79,-0.52,-0.33,0.24,-0.43,-4.46,214,280,219,447,387,1
140,0.79,-0.52,-0.33,-1.65,-0.92,-3.17,214,281,220,455,386,1
141,0.79,-0.52,-0.33,1.28,-4.7,-1.77,214,282,220,451,386,1
142,0.79,-0.52,-0.34,1.59,-2.38,-4.52,227,278,224,454,387,1
143,0.78,-0.52,-0.33,1.28,-2.99,-3.05,223,278,224,454,387,1
144,0.8,-0.51,-0.32,1.89,-2.87,-3.36,214,279,222,448,383,1
145,0.81,-0.51,-0.32,2.62,-3.17,-4.39,215,283,222,451,387,1
146,0.81,-0.5,-0.3,0.18,-4.27,-1.83,216,282,221,451,386,1
147,0.81,-0.51,-0.31,-1.83,10.68,-4.21,216,282,222,448,385,1
148,0.84,-0.49,-0.24,-2.08,4.09,-2.01,214,280,218,454,382,1
149,0.83,-0.49,-0.25,1.46,-3.05,-3.6,213,281,221,448,383,1
150,0.84,-0.47,-0.25,-1.95,-21.24,2.93,214,283,222,448,379,1
151,0.82,-0.45,-0.34,27.47,-25.57,-10.07,215,281,222,453,386,1
152,0.84,-0.42,-0.29,9.28,25.33,-15.26,215,283,220,451,383,1
153,0.84,-0.49,-0.34,-12.57,-6.71,5.74,217,280,217,454,386,1
154,0.81,-0.5,-0.33,-1.65,-7.26,3.91,216,278,220,451,383,1
155,0.77,-0.52,-0.32,-0.61,-6.53,1.65,220,281,218,452,383,1
156,0.77,-0.54,-0.35,1.83,-3.6,-2.93,215,281,221,451,385,1
157,0.77,-0.53,-0.35,0.24,-1.77,-3.36,224,281,218,450,381,1
158,0.85,-0.49,-0.33,-0.85,-0.49,-9.52,212,279,219,452,382,1
159,0.78,-0.54,-0.46,41.02,-65.06,-2.99,214,287,222,452,382,1
160,0.73,-0.52,-0.36,3.72,-6.77,-3.72,222,280,218,452,383,1
161,0.75,-0.53,-0.4,-29.24,18.01,3.91,214,286,221,455,382,1
162,0.75,-0.52,-0.37,3.54,5.19,-9.52,216,278,219,449,383,1
163,0.79,-0.51,-0.34,2.56,-3.54,-1.22,212,281,219,451,383,1
164,0.8,-0.51,-0.37,-0.79,0.61,-4.21,216,280,220,456,382,1
165,0.79,-0.49,-0.35,-0.98,-3.17,-2.08,212,281,219,456,384,1
166,0.78,-0.51,-0.4,-5.07,-5.68,0.06,217,282,222,447,381,1
167,0.78,-0.5,-0.35,-0.67,-4.33,-0.37,216,281,220,454,380,1
168,0.79,-0.5,-0.36,1.89,-0.98,-5.43,216,277,218,451,381,1
169,0.79,-0.5,-0.36,-2.87,-2.38,-2.32,214,281,222,450,383,1
170,0.7,-0.55,-0.41,5.49,-20.14,0.43,216,281,219,455,382,1
171,0.84,-0.5,-0.42,-17.09,0.92,6.65,216,280,220,452,382,1
172,0.87,-0.42,-0.31,5.92,-0.67,-6.59,217,283,223,453,381,1
173,0.82,-0.45,-0.32,3.78,0.67,-6.16,217,281,219,453,383,1
174,0.77,-0.49,-0.38,-5.25,0.55,-7.14,216,279,218,451,383,1
175,0.79,-0.45,-0.38,-1.46,-3.6,-2.14,219,277,222,450,382,1
176,0.76,-0.46,-0.34,-1.53,-2.08,-1.4,242,279,220,454,378,1
177,0.82,-0.47,-0.37,2.14,-1.59,-4.39,216,283,221,451,383,1
178,0.81,-0.46,-0.36,1.22,-0.37,-5.13,217,281,218,456,381,1
179,0.83,-0.47,-0.37,1.59,-4.27,-2.81,218,283,227,452,381,1
180,0.81,-0.47,-0.36,1.95,-1.4,-3.48,219,282,221,454,383,1
181,0.83,-0.46,-0.35,0.61,-3.97,-1.53,219,278,225,451,383,1
182,0.83,-0.45,-0.33,2.69,-2.69,-1.83,219,278,226,452,382,1
183,0.85,-0.45,-0.31,1.77,-3.36,-5.49,216,279,221,452,383,1
184,0.79,-0.46,-0.32,-2.38,-1.65,-3.36,217,281,221,452,383,1
185,0.77,-0.47,-0.31,6.65,-7.2,-0.61,218,282,221,456,389,1
186,0.77,-0.47,-0.34,-2.38,-4.7,-3.11,218,283,219,455,383,1
187,0.8,-0.47,-0.32,6.65,-1.89,-5.0,217,280,222,450,385,1
188,0.84,-0.44,-0.32,-1.65,-3.97,-1.22,224,283,224,448,383,1
189,0.81,-0.46,-0.35,3.91,-4.21,-2.62,220,283,225,450,380,1
190,0.79,-0.45,-0.32,-2.5,-0.92,-3.78,213,282,220,452,386,1
191,0.84,-0.41,-0.28,2.44,-1.46,-1.77,218,284,221,454,381,1
192,0.83,-0.44,-0.34,-3.36,-1.53,-4.76,220,283,220,455,383,1
193,0.85,-0.41,-0.31,-2.44,-2.32,-3.48,225,283,219,455,382,1
194,0.84,-0.43,-0.34,0.49,-3.97,-0.73,220,282,224,447,381,1
195,0.82,-0.45,-0.34,2.93,-3.97,-2.38,237,283,222,455,383,1
196,0.82,-0.44,-0.33,-1.65,-1.77,-3.11,219,274,211,455,386,1
197,0.85,-0.43,-0.33,0.92,-3.72,-2.5,219,272,209,451,384,1
198,0.84,-0.44,-0.31,-0.73,6.71,-5.62,220,266,203,451,386,1
199,0.86,-0.42,-0.35,-7.45,24.35,3.91,199,271,199,443,383,1
200,0.81,-0.5,-0.18,25.76,9.09,-0.61,191,298,217,446,390,1
201,0.83,-0.57,-0.11,-18.31,-22.52,-1.53,258,320,182,445,392,1
202,0.88,-0.46,-0.23,9.28,-7.51,-5.49,167,250,188,443,391,1
203,0.85,-0.49,-0.2,28.02,-9.4,-1.22,172,252,188,450,387,1
204,0.85,-0.52,-0.18,8.18,-11.11,0.67,177,253,189,451,393,1
205,0.83,-0.52,-0.2,3.48,-0.85,-5.31,177,255,189,450,397,1
206,0.84,-0.52,-0.17,2.32,-2.87,-3.36,178,257,190,456,405,1
207,0.84,-0.5,-0.19,-1.16,-2.26,-3.17,179,254,191,454,405,1
208,0.86,-0.51,-0.18,-6.35,-1.16,-2.5,175,260,194,454,408,1
209,0.83,-0.5,-0.16,1.4,-5.68,-0.67,178,256,192,453,405,1
210,0.85,-0.5,-0.19,0.92,-4.21,-3.78,179,256,193,453,403,1
211,0.84,-0.5,-0.18,1.46,-3.05,-2.5,179,257,196,452,403,1
212,0.84,-0.5,-0.19,-1.28,-6.47,0.73,178,258,195,452,405,1
213,0.85,-0.5,-0.18,2.87,-3.78,-2.01,177,257,192,451,402,1
214,0.85,-0.49,-0.17,0.12,-3.54,-3.23,178,258,193,451,404,1
215,0.85,-0.49,-0.18,2.32,-4.27,-1.4,177,258,195,445,400,1
216,0.87,-0.48,-0.18,-4.15,-1.89,-4.82,178,256,196,453,407,1
217,0.86,-0.45,-0.11,-3.66,-3.05,4.33,180,262,196,453,402,1
218,0.84,-0.47,-0.18,-3.36,-3.11,-7.81,179,259,194,452,402,1
219,0.78,-0.49,-0.25,20.14,-33.14,8.48,180,258,194,454,405,1
220,0.87,-0.45,-0.15,-4.88,0.61,-0.85,180,260,196,453,402,1
221,0.77,-0.51,-0.24,1.1,-0.61,-5.68,180,258,196,447,405,1
222,0.8,-0.52,-0.26,0.06,-8.67,-1.89,182,263,196,450,408,1
223,0.81,-0.54,-0.33,-7.39,9.28,-11.17,180,261,193,448,408,1
224,0.92,-0.41,-0.15,7.69,-8.79,-2.08,183,260,194,455,410,1
225,0.88,-0.41,-0.14,-0.24,-5.07,-5.68,181,264,191,445,405,1
226,0.93,-0.33,-0.07,-1.65,0.43,-10.07,182,261,197,453,406,1
227,0.94,-0.31,-0.08,1.04,-10.86,3.6,181,261,193,451,410,1
228,0.87,-0.42,-0.2,-3.72,-1.4,-0.12,182,264,196,455,407,1
229,0.91,-0.38,-0.17,-1.04,-2.38,-2.75,182,262,192,451,406,1
230,0.91,-0.38,-0.15,4.76,-4.64,-2.01,183,266,194,447,408,1
231,0.91,-0.37,-0.14,0.06,-1.16,-4.46,183,263,197,446,407,1
232,0.91,-0.4,-0.19,-2.93,-1.59,-3.6,179,260,204,453,404,1
233,0.91,-0.37,-0.14,-1.16,-5.49,-0.12,183,262,197,447,405,1
234,0.92,-0.39,-0.16,1.95,-5.55,-1.65,209,264,195,451,406,1
235,0.9,-0.4,-0.17,1.95,-3.66,-1.77,181,265,199,446,401,1
236,0.9,-0.39,-0.16,-0.18,-3.78,-1.34,184,263,205,449,410,1
237,0.91,-0.4,-0.14,2.26,-3.54,-2.69,182,265,200,455,404,1
238,0.88,-0.4,-0.15,2.32,-6.23,-0.79,182,265,198,451,402,1
239,0.91,-0.39,-0.16,3.66,-2.69,-3.97,182,267,196,454,404,1
240,0.92,-0.39,-0.17,3.78,-2.81,-3.48,184,264,198,451,406,1
241,0.89,-0.38,-0.14,-0.85,-1.22,-2.32,182,264,199,445,403,1
242,0.91,-0.36,-0.15,-2.62,-0.79,-1.77,182,260,195,455,404,1
243,0.91,-0.39,-0.16,-4.39,-2.81,-1.34,185,268,196,450,404,1
244,0.89,-0.39,-0.15,1.1,-2.5,-3.48,181,263,196,451,404,1
245,0.92,-0.39,-0.15,-0.61,-2.32,-3.3,182,265,196,454,406,1
246,0.9,-0.38,-0.15,-0.55,-2.56,-2.2,183,264,199,447,405,1
247,0.9,-0.4,-0.15,0.12,-4.33,-2.38,183,265,195,455,404,1
248,0.91,-0.39,-0.16,-1.77,-2.62,-3.11,183,273,194,453,401,1
249,0.92,-0.38,-0.17,2.14,-3.23,-5.19,180,263,197,454,402,1
250,0.91,-0.39,-0.18,5.19,-11.47,2.81,182,265,196,451,401,1
251,0.91,-0.39,-0.18,1.53,-2.44,-2.44,182,262,195,449,405,1
252,0.91,-0.4,-0.18,-0.98,-2.81,-2.44,182,262,196,454,403,1
253,0.9,-0.4,-0.18,3.3,-5.68,-0.79,218,265,197,447,400,1
254,0.9,-0.4,-0.17,-0.73,-2.44,-2.14,181,266,199,456,405,1
255,0.9,-0.4,-0.17,1.04,-2.99,-3.05,192,263,197,451,404,1
256,0.9,-0.41,-0.18,0.49,-2.44,-3.17,183,264,199,454,405,1
257,0.9,-0.4,-0.18,0.67,-2.32,-3.42,182,264,201,450,403,1
258,0.9,-0.41,-0.18,-0.06,-2.44,-3.48,183,264,199,455,406,1
259,0.9,-0.39,-0.17,-0.85,-1.95,-3.78,182,265,198,454,403,1
260,0.9,-0.39,-0.17,1.22,-3.72,-2.69,186,265,197,453,406,1
261,0.91,-0.39,-0.18,-2.26,-2.99,-1.95,185,265,197,454,402,1
262,0.89,-0.39,-0.18,-0.24,-3.3,-1.53,193,267,197,451,399,1
263,0.9,-0.4,-0.17,2.01,-3.11,-2.08,183,264,200,455,405,1
264,0.9,-0.4,-0.19,0.0,-3.36,-1.77,212,267,196,451,401,1
265,0.9,-0.38,-0.19,-2.99,-3.66,-2.2,184,264,196,450,401,1
266,0.86,-0.39,-0.18,-1.16,-2.32,-0.61,185,267,199,445,401,1
267,0.9,-0.39,-0.19,3.6,-3.42,-3.17,195,268,197,454,399,1
268,0.9,-0.39,-0.19,1.16,-2.38,-3.72,185,265,199,451,403,1
269,0.91,-0.39,-0.18,-0.55,-2.08,-4.27,208,267,197,455,400,1
270,0.9,-0.39,-0.18,1.77,-2.69,-3.48,184,264,197,452,405,1
271,0.9,-0.38,-0.17,0.31,-2.99,-2.69,185,268,198,454,402,1
272,0.9,-0.39,-0.17,0.18,-3.23,-1.83,183,267,198,451,399,1
273,0.9,-0.39,-0.18,-0.37,-3.66,-1.65,184,269,208,454,400,1
274,0.89,-0.4,-0.18,0.06,-3.36,-3.3,181,267,200,441,405,1
275,0.9,-0.39,-0.19,-0.79,-2.87,-2.2,185,266,199,445,401,1
276,0.9,-0.4,-0.18,-1.1,-3.48,-2.14,184,267,199,452,399,1
277,0.9,-0.39,-0.19,1.83,-3.3,-3.05,185,268,199,446,403,1
278,0.9,-0.39,-0.19,-1.22,-3.11,-3.36,185,267,200,454,399,1
279,0.9,-0.38,-0.18,1.71,-2.56,-3.85,184,264,200,451,403,1
280,0.91,-0.39,-0.18,-0.55,-3.05,-1.95,186,264,199,454,401,1
281,0.91,-0.38,-0.18,-0.79,-2.38,-2.26,203,263,198,451,402,1
282,0.9,-0.39,-0.18,0.06,-2.99,-2.14,183,267,198,450,404,1
283,0.91,-0.39,-0.19,-0.24,-2.26,-2.81,192,264,205,448,401,1
284,0.9,-0.39,-0.19,-0.98,-1.83,-3.54,185,269,201,446,399,1
285,0.9,-0.39,-0.18,0.18,-2.93,-2.62,186,273,196,450,403,1
286,0.91,-0.39,-0.2,-2.38,-2.26,-2.5,182,268,197,454,402,1
287,0.9,-0.39,-0.19,0.37,-2.75,-2.5,184,266,201,449,398,1
288,0.9,-0.39,-0.18,0.31,-2.2,-3.05,183,268,201,446,399,1
289,0.9,-0.39,-0.19,0.06,-3.11,-2.44,186,268,195,454,402,1
290,0.9,-0.39,-0.18,0.55,-2.62,-2.56,182,267,198,462,400,1
291,0.9,-0.4,-0.2,2.14,-11.05,-2.08,187,268,195,449,403,1
292,0.9,-0.4,-0.2,0.73,-3.17,-2.62,185,268,199,452,401,1
293,0.9,-0.38,-0.18,0.43,3.3,-5.92,184,268,196,452,401,1
294,0.9,-0.37,-0.18,-1.77,5.92,-5.98,183,263,196,451,404,1
295,0.91,-0.38,-0.17,1.95,-3.97,-2.81,215,277,200,452,401,1
296,0.92,-0.37,-0.17,1.04,-3.48,-3.6,186,266,201,450,401,1
297,0.89,-0.39,-0.15,1.4,-3.17,-2.01,186,269,199,446,401,1
298,0.9,-0.39,-0.17,0.98,-5.55,1.1,188,268,196,454,404,1
299,0.93,-0.39,-0.19,-0.67,-3.23,-2.75,187,266,198,453,394,1
300,0.89,-0.4,-0.17,0.61,-4.21,-2.14,187,278,200,450,400,1
301,0.91,-0.38,-0.18,3.11,-7.02,-4.64,185,265,199,452,401,1
302,0.87,-0.43,-0.21,1.77,-3.42,-3.42,182,269,199,454,399,1
303,0.91,-0.37,-0.17,0.98,-2.44,-2.93,182,268,200,452,399,1
304,0.92,-0.36,-0.16,0.98,-2.26,-4.76,188,270,198,455,401,1
305,0.91,-0.36,-0.16,1.59,-3.66,-3.85,186,266,200,451,401,1
306,0.92,-0.36,-0.18,2.2,-5.13,-0.31,185,267,202,450,398,1
307,0.94,-0.34,-0.17,1.89,-1.46,-4.03,185,266,200,452,401,1
308,0.92,-0.36,-0.17,-0.37,-2.08,-3.23,185,269,198,449,399,1
309,0.92,-0.36,-0.17,-0.18,-3.6,-1.59,185,265,202,451,401,1
310,0.9,-0.36,-0.17,-2.01,-2.93,-2.93,185,267,199,454,398,1
311,0.91,-0.37,-0.2,-2.01,-3.78,-5.62,188,268,200,448,398,1
312,0.98,-0.34,-0.18,1.34,-1.77,-0.37,187,267,199,448,403,1
313,0.86,-0.36,-0.14,-5.31,-5.55,-1.1,187,270,198,464,400,1
314,0.92,-0.34,-0.15,1.95,-5.92,2.99,185,267,200,446,401,1
315,0.89,-0.38,-0.19,6.71,-5.07,-3.91,201,269,202,454,398,1
316,0.9,-0.36,-0.17,-0.12,-2.69,-1.83,185,264,201,452,396,1
317,0.93,-0.34,-0.18,1.16,-1.28,-5.07,188,267,211,451,407,1
318,0.92,-0.34,-0.16,-0.73,-1.28,-4.15,186,270,198,452,396,1
319,0.92,-0.36,-0.17,-0.73,-3.3,-1.1,188,268,198,447,400,1
320,0.91,-0.36,-0.17,1.59,-3.54,-1.65,180,267,203,446,402,1
321,0.92,-0.35,-0.18,-0.24,-2.81,-2.75,183,268,201,451,399,1
322,0.92,-0.36,-0.17,-1.04,-3.97,-0.37,186,266,199,455,400,1
323,0.92,-0.36,-0.17,0.85,-4.09,-2.26,189,267,199,454,402,1
324,0.91,-0.35,-0.17,1.89,-2.69,-3.48,188,265,200,455,399,1
325,0.91,-0.36,-0.19,-2.2,-2.81,-2.56,188,266,201,448,396,1
326,0.93,-0.35,-0.19,-1.28,-1.71,-4.09,186,277,200,453,396,1
327,0.94,-0.34,-0.17,-1.59,-0.85,-5.19,186,268,200,452,400,1
328,0.92,-0.32,-0.15,2.87,-3.91,-0.06,189,267,200,453,399,1
329,0.92,-0.35,-0.17,-1.59,-2.99,-1.28,186,274,197,454,399,1
330,0.95,-0.35,-0.2,-1.71,-4.09,-5.07,188,268,201,449,398,1
331,0.92,-0.35,-0.18,4.21,-3.3,-1.04,185,270,197,451,401,1
332,0.92,-0.35,-0.18,-1.46,-2.75,-3.11,188,267,197,449,402,1
333,0.92,-0.35,-0.17,0.43,-2.32,-4.15,185,268,201,450,398,1
334,0.91,-0.32,-0.13,3.48,-2.38,-5.19,188,269,202,446,401,1
335,0.93,-0.33,-0.16,1.4,-2.5,-3.11,187,270,199,451,399,1
336,0.93,-0.33,-0.16,0.98,-1.89,-4.27,185,268,199,451,398,1
337,0.91,-0.34,-0.16,-2.2,-0.85,-4.09,188,267,203,451,400,1
338,0.92,-0.34,-0.15,-0.43,-3.17,-1.77,186,275,200,453,397,1
339,0.91,-0.34,-0.16,0.31,-3.3,-3.54,186,265,198,451,400,1
340,0.91,-0.35,-0.16,2.99,-4.52,-0.85,188,270,203,452,399,1
341,0.93,-0.36,-0.19,-2.62,-2.32,-2.75,186,268,202,454,400,1
342,0.94,-0.34,-0.18,-1.46,-1.89,-2.38,185,267,200,454,400,1
343,0.93,-0.34,-0.17,-3.48,-2.5,-2.2,187,268,202,451,399,1
344,0.92,-0.34,-0.16,-0.79,-2.26,-2.75,187,267,199,449,399,1
345,0.92,-0.34,-0.17,-0.49,-2.5,-2.81,188,268,202,450,398,1
346,0.92,-0.34,-0.17,1.1,-2.69,-2.62,184,270,203,446,395,1
347,0.93,-0.34,-0.17,0.92,-3.3,-2.81,188,268,203,450,400,1
348,0.93,-0.34,-0.16,-0.06,-3.3,-2.44,188,270,203,451,400,1
349,0.93,-0.34,-0.16,0.73,-2.44,-3.72,188,269,202,452,398,1
350,0.93,-0.34,-0.16,-0.55,-2.14,-2.69,185,270,202,449,398,1
351,0.93,-0.34,-0.16,0.73,-3.54,-1.95,186,268,204,455,400,1
352,0.93,-0.35,-0.16,-1.16,-2.5,-2.26,187,267,196,450,400,1
353,0.92,-0.35,-0.16,-0.12,-2.93,-2.62,184,268,200,454,398,1
354,0.92,-0.34,-0.15,-0.06,-3.3,-2.38,185,269,201,446,395,1
355,0.93,-0.33,-0.16,1.83,-3.72,-1.77,214,265,198,450,398,1
356,0.92,-0.35,-0.17,-0.18,-3.66,-1.4,187,271,203,450,397,1
357,0.91,-0.35,-0.17,1.65,-4.58,0.06,190,266,201,449,398,1
358,0.91,-0.36,-0.18,0.67,-2.44,-2.62,186,264,199,451,398,1
359,0.91,-0.35,-0.17,1.83,-1.77,-4.27,184,268,202,448,403,1
360,0.92,-0.34,-0.17,2.14,-2.75,-4.15,189,267,203,447,392,1
361,0.87,-0.32,-0.1,-3.36,-3.54,-0.85,186,270,203,445,397,1
362,0.91,-0.34,-0.16,2.93,-6.1,0.06,185,270,201,455,398,1
363,0.9,-0.37,-0.19,2.5,-3.85,-0.73,183,274,200,454,399,1
364,0.9,-0.39,-0.21,1.83,0.73,-4.64,187,267,198,455,399,1
365,0.91,-0.35,-0.18,-0.06,-4.64,-1.89,185,270,204,447,398,1
366,0.92,-0.39,-0.23,-2.87,-4.27,-0.55,185,269,199,452,399,1
367,0.87,-0.36,-0.17,15.44,3.42,-11.66,189,270,201,453,396,1
368,0.89,-0.4,-0.22,-3.54,-1.89,-1.77,184,268,201,451,398,1
369,0.91,-0.36,-0.21,0.0,-1.22,-2.87,187,268,203,452,398,1
370,0.92,-0.35,-0.18,1.04,-3.97,-2.01,185,269,203,454,398,1
371,0.93,-0.34,-0.19,2.81,-1.1,-4.82,187,265,198,446,391,1
372,0.91,-0.35,-0.17,2.2,-0.18,-5.55,184,270,198,450,396,1
373,0.92,-0.35,-0.17,2.38,-3.72,-2.99,189,271,205,454,397,1
374,0.92,-0.36,-0.17,-0.43,-10.31,2.2,188,272,194,454,399,1
375,0.72,-0.38,-0.04,23.01,-25.63,-1.16,187,267,201,452,397,1
376,0.82,-0.42,-0.3,5.25,-7.32,-10.25,183,269,201,451,397,1
377,0.93,-0.34,-0.21,2.93,-2.32,-2.69,190,267,201,454,395,1
378,0.77,-0.37,-0.32,18.25,32.35,2.2,187,268,199,450,391,1
379,0.74,-0.3,-0.15,-13.12,13.79,-5.86,188,268,200,451,392,1
380,0.92,-0.37,-0.2,-2.93,4.94,-5.13,187,268,199,450,389,1
381,0.93,-0.34,-0.23,-3.05,-1.95,-2.2,188,269,202,456,391,1
382,0.86,-0.4,-0.36,5.68,39.12,-32.47,205,269,201,449,389,1
383,0.78,-0.68,-0.39,15.99,-60.67,39.86,189,269,201,453,385,1
384,0.77,-0.51,-0.34,-14.53,-5.37,4.7,188,270,204,444,388,1
385,0.59,-0.62,-0.5,-0.24,0.12,-8.0,188,269,200,466,385,1
386,0.89,-0.41,-0.23,-4.88,23.86,-15.63,185,276,203,448,384,1
387,0.87,-0.45,-0.28,-2.14,-2.5,-3.23,188,270,203,445,384,1
388,0.83,-0.46,-0.22,3.05,-7.87,-2.87,191,267,201,453,384,1
389,0.91,-0.37,-0.22,-27.1,11.84,0.49,187,266,202,452,381,1
390,0.83,-0.46,-0.24,14.04,-6.65,-14.95,192,266,208,450,377,1
391,0.92,-0.35,-0.15,3.11,-1.83,-5.13,188,271,204,452,377,1
392,0.9,-0.38,-0.2,1.28,-4.15,-0.43,188,271,201,453,377,1
393,0.9,-0.39,-0.21,-0.43,-2.69,-1.71,190,267,204,447,368,1
394,0.88,-0.39,-0.21,-2.44,-3.6,-0.31,188,269,201,453,381,1
395,0.9,-0.4,-0.22,0.12,-1.89,-3.78,198,269,201,454,378,1
396,0.88,-0.39,-0.2,0.0,-2.44,-2.62,189,281,202,445,379,1
397,0.89,-0.41,-0.24,2.08,-4.21,-4.52,188,271,201,453,375,1
398,0.89,-0.39,-0.2,-0.98,-2.5,-2.99,192,269,208,453,379,1
399,0.9,-0.39,-0.22,-0.24,-1.46,-3.3,187,270,201,453,378,1
400,0.88,-0.41,-0.21,0.61,-2.38,-2.32,188,268,202,446,375,1
401,0.89,-0.4,-0.21,-1.28,-2.93,-1.77,188,273,201,453,381,1
402,0.87,-0.43,-0.25,-4.52,-1.1,-1.16,188,269,204,453,380,1
403,0.87,-0.42,-0.24,3.23,-4.7,-2.32,189,269,202,446,374,1
404,0.92,-0.37,-0.24,-26.79,-12.33,12.39,190,272,200,446,379,1
405,0.85,-0.44,-0.35,6.65,3.6,-9.95,188,269,204,453,380,1
406,0.99,-0.42,-0.29,4.82,27.71,-33.81,189,271,202,453,378,1
407,0.89,-0.42,-0.28,-2.08,-3.42,1.89,189,271,202,451,380,1
408,0.9,-0.27,-0.25,17.46,-22.64,-14.59,189,270,203,452,380,1
409,0.88,-0.42,-0.29,-13.37,-9.46,7.81,187,281,203,451,379,1
410,0.93,-0.36,-0.18,-0.24,14.4,-10.62,189,270,201,452,379,1
411,0.88,-0.39,-0.22,3.78,2.5,-4.39,189,269,206,453,379,1
412,0.88,-0.4,-0.28,-2.14,-3.72,-1.4,192,270,201,449,382,1
413,0.9,-0.38,-0.23,1.83,-2.38,-3.78,188,273,201,448,381,1
414,0.84,-0.41,-0.25,17.33,-41.63,9.95,187,269,201,455,380,1
415,0.93,-0.34,-0.25,4.76,1.71,-10.31,190,270,205,449,379,1
416,0.92,-0.33,-0.21,-21.0,65.0,-20.32,191,271,202,451,379,1
417,0.95,-0.31,-0.12,3.85,-18.25,4.21,192,269,200,445,381,1
418,0.96,-0.31,-0.13,2.99,-4.52,-2.93,192,269,201,448,384,1
419,0.94,-0.32,-0.15,1.46,-0.85,-1.59,190,268,201,452,386,1
420,0.93,-0.34,-0.17,2.08,-6.65,2.44,192,271,203,452,384,1
421,0.91,-0.36,-0.2,1.77,-1.53,-2.26,188,272,203,450,389,1
422,0.91,-0.37,-0.19,4.46,-3.72,-1.77,190,272,204,448,390,1
423,0.91,-0.36,-0.19,-0.61,-4.46,-2.26,193,268,201,446,394,1
424,0.9,-0.36,-0.19,0.79,-4.27,-1.83,189,273,202,443,398,1
425,0.9,-0.37,-0.18,1.1,-2.69,-1.53,193,275,201,449,401,1
426,0.92,-0.37,-0.2,1.83,-6.84,-2.81,192,273,201,452,400,1
427,0.91,-0.37,-0.18,0.24,-2.62,-1.71,194,267,206,442,398,1
428,0.9,-0.38,-0.19,-1.1,-3.11,-1.53,191,275,201,451,400,1
429,0.91,-0.37,-0.2,-0.06,-3.72,-1.59,191,274,203,449,402,1
430,0.9,-0.36,-0.18,2.87,-2.14,-3.72,189,270,205,450,400,1
431,0.92,-0.38,-0.18,2.08,-3.17,-3.91,190,271,206,449,403,1
432,0.9,-0.36,-0.18,3.42,-1.83,-4.76,190,273,203,448,401,1
433,0.92,-0.36,-0.19,-1.59,-2.14,-3.23,192,273,203,452,399,1
434,0.9,-0.36,-0.19,-0.18,-3.42,-2.2,194,269,206,450,398,1
435,0.92,-0.36,-0.17,4.27,-0.55,-6.16,186,277,204,448,398,1
436,0.91,-0.36,-0.15,0.49,-3.78,-1.53,192,271,204,448,398,1
437,0.9,-0.36,-0.17,3.91,-2.75,-1.77,190,271,202,449,396,1
438,0.92,-0.36,-0.17,-2.14,-2.81,-1.89,191,270,205,449,396,1
439,0.92,-0.36,-0.17,2.08,-2.26,-2.99,190,273,203,454,394,1
440,0.91,-0.36,-0.18,2.26,-3.6,-3.11,191,271,204,453,395,1
441,0.91,-0.37,-0.18,-0.85,-2.08,-3.97,189,271,205,444,396,1
442,0.92,-0.37,-0.18,0.31,-1.46,-4.21,190,271,207,447,399,1
443,0.9,-0.37,-0.17,0.55,-1.04,-3.72,189,273,204,448,395,1
444,0.91,-0.37,-0.17,2.08,-3.78,-1.53,190,275,204,449,396,1
445,0.88,-0.37,-0.16,-0.18,-2.5,-1.16,194,269,205,449,398,1
446,0.91,-0.36,-0.17,-3.6,2.69,-6.77,202,276,207,447,397,1
447,0.91,-0.37,-0.19,1.16,-2.93,-2.75,191,274,206,449,397,1
448,0.91,-0.38,-0.18,2.38,-3.48,-1.16,189,272,206,452,397,1
449,0.91,-0.36,-0.18,0.98,-2.99,-2.75,199,274,204,449,407,1
450,0.91,-0.37,-0.18,-0.85,-1.4,-3.11,192,269,204,452,400,1
451,0.92,-0.36,-0.17,2.81,-1.53,-6.29,192,271,203,449,394,1
452,0.9,-0.39,-0.23,-2.75,-2.81,-1.28,191,274,206,451,393,1
453,0.92,-0.35,-0.16,0.0,-2.75,-2.08,189,275,205,448,399,1
454,0.92,-0.36,-0.17,-0.61,-1.89,-4.03,191,271,206,453,396,1
455,0.91,-0.36,-0.17,-0.67,-2.08,-2.38,191,272,217,447,395,1
456,0.92,-0.36,-0.16,2.01,-3.11,-1.77,194,283,204,449,397,1
457,0.97,-0.37,-0.2,3.05,13.31,-18.43,194,273,204,450,396,1
458,0.99,-0.37,-0.17,7.93,-16.11,-2.62,195,271,204,450,389,1
459,0.93,-0.37,-0.24,-2.81,-9.83,1.77,188,273,202,454,396,1
460,0.9,-0.33,-0.14,3.17,-7.51,4.15,190,272,202,449,396,1
461,0.94,-0.34,-0.14,-0.67,-1.4,-3.17,220,275,205,453,395,1
462,0.91,-0.34,-0.14,5.98,-2.87,-4.7,194,273,201,450,395,1
463,0.96,-0.33,-0.17,-3.11,-7.14,-1.16,194,274,206,452,393,1
464,0.93,-0.34,-0.17,1.83,-1.04,-5.0,191,275,206,448,394,1
465,0.92,-0.34,-0.17,-1.59,-4.76,-2.5,191,274,205,448,392,1
466,0.93,-0.32,-0.14,4.46,-1.04,-3.91,193,275,203,444,394,1
467,0.9,-0.35,-0.18,2.26,5.55,-10.01,193,275,206,447,390,1
468,0.95,-0.29,-0.13,-3.54,-5.43,2.14,193,272,205,450,394,1
469,0.92,-0.32,-0.14,-5.49,-5.37,-7.93,192,272,204,449,394,1
470,0.88,-0.38,-0.19,3.48,-0.24,-9.16,191,272,204,453,394,1
471,0.95,-0.31,-0.12,12.21,-19.65,1.71,190,272,203,450,396,1
472,0.9,-0.35,-0.14,-1.28,-7.32,2.32,190,280,203,450,393,1
473,0.89,-0.33,-0.11,1.04,-0.67,-7.2,191,274,207,450,394,1
474,0.91,-0.29,-0.14,-9.09,11.96,-3.48,191,285,203,450,394,1
475,0.82,-0.45,-0.35,-9.58,-4.7,6.1,191,273,207,451,395,1
476,0.87,-0.36,-0.21,7.08,9.83,-9.89,194,270,205,451,397,1
477,0.89,-0.39,-0.31,6.47,-18.92,-2.56,194,275,205,448,394,1
478,0.92,-0.32,-0.07,-1.28,14.4,-9.77,231,272,203,453,396,1
479,0.75,-0.43,-0.29,9.83,-41.56,11.78,189,269,207,451,391,1
480,0.85,-0.36,-0.22,-1.22,-45.04,25.57,192,270,203,446,391,1
481,0.88,-0.36,-0.23,10.25,6.16,-13.92,193,272,207,453,393,1
482,0.87,-0.49,-0.48,3.23,15.87,-20.57,189,273,212,446,388,1
483,0.99,-0.29,-0.29,-22.64,-19.96,11.17,190,273,207,450,393,1
484,0.66,-0.42,-0.04,10.93,80.57,-37.9,191,272,205,449,389,1
485,0.83,-0.44,-0.41,-12.33,4.64,4.94,194,272,202,445,392,1
486,0.99,-0.32,-0.4,9.64,55.05,-37.17,191,271,206,444,388,1
487,0.72,-0.51,-0.4,-34.97,42.66,2.08,193,274,208,447,393,1
488,0.77,-0.47,-0.42,-2.32,3.05,-10.99,194,270,207,449,391,1
489,0.83,-0.44,-0.34,18.68,-35.16,10.68,191,274,205,450,388,1
490,0.8,-0.5,-0.37,-12.08,79.65,-30.82,194,270,208,449,390,1
491,1.0,-0.3,-0.27,7.32,-26.86,11.96,191,272,207,450,391,1
492,0.85,-0.41,-0.3,6.41,-5.13,-4.58,188,273,203,449,389,1
493,0.89,-0.36,-0.25,2.56,1.34,-4.39,193,274,207,453,391,1
494,0.97,-0.36,-0.36,18.55,-3.54,-14.22,191,270,202,451,390,1
495,0.92,-0.36,-0.28,-3.42,-8.0,0.92,189,273,204,451,385,1
496,0.91,-0.34,-0.21,1.28,-3.97,-3.72,192,274,206,451,393,1
497,0.88,-0.31,-0.25,-8.73,3.85,0.24,186,269,204,451,390,1
498,0.88,-0.34,-0.25,2.81,-2.75,-0.61,189,275,204,452,389,1
499,0.91,-0.36,-0.22,1.22,-4.33,-2.38,191,272,203,453,391,1
500,0.91,-0.34,-0.25,1.34,-5.98,-1.34,191,277,207,450,390,1
501,0.87,-0.37,-0.2,2.14,-5.49,0.55,290,337,263,454,388,1
502,0.91,-0.36,-0.26,-0.06,-2.5,-3.97,320,356,310,465,392,1
503,0.91,-0.36,-0.29,23.44,-17.33,-8.54,237,306,258,454,391,1
504,0.88,-0.35,-0.25,-0.12,-3.42,-1.22,192,271,231,456,392,1
505,0.9,-0.35,-0.26,3.42,-3.11,-4.82,189,269,229,456,397,1
506,0.89,-0.35,-0.26,4.21,-2.38,-5.43,185,264,224,456,392,1
507,0.89,-0.35,-0.25,-6.84,-8.85,2.56,204,250,210,449,389,1
508,0.9,-0.32,-0.22,-11.05,12.63,-9.58,182,249,210,453,388,1
509,0.91,-0.33,-0.22,2.99,-3.17,-2.38,184,251,207,452,389,1
510,0.89,-0.33,-0.2,3.48,-2.87,-3.78,181,250,209,443,386,1
511,0.96,-0.0,0.1,6.35,-9.46,12.51,432,464,230,269,198,1
512,0.99,-0.09,-0.05,-5.37,2.32,-0.67,429,462,231,278,202,1
513,0.94,-0.1,-0.02,0.92,-5.55,-4.39,427,472,233,273,201,1
514,0.96,-0.09,-0.04,-7.2,-2.75,-2.01,427,471,236,270,200,1
515,1.03,-0.04,-0.07,-8.61,12.94,-6.77,431,471,237,273,200,1
516,0.64,-0.15,0.11,0.49,11.84,10.44,425,476,235,271,201,1
517,1.08,-0.17,-0.13,1.89,37.11,-3.78,426,472,240,293,206,1
518,0.96,-0.31,0.01,-3.42,1.59,2.38,427,467,240,281,203,1
519,1.2,-0.25,-0.23,26.31,-30.09,-11.96,429,473,237,281,202,1
520,1.01,-0.36,-0.06,-5.0,30.4,-25.82,430,474,236,279,203,1
521,0.97,-0.26,0.15,27.22,-17.46,-0.92,429,477,238,279,204,1
522,0.87,-0.45,0.04,-42.11,4.58,32.1,434,473,239,276,201,1
523,0.92,-0.36,0.16,-1.89,-2.01,5.31,432,474,241,276,215,1
524,0.94,-0.38,0.16,-6.77,-4.46,-6.41,429,472,239,278,203,1
525,0.86,-0.47,0.08,-15.5,8.73,3.36,432,467,238,276,205,1
526,0.94,-0.39,0.13,24.05,-5.92,-5.92,433,474,242,282,203,1
527,0.91,-0.44,0.12,26.79,-32.04,39.06,432,465,240,282,205,1
528,0.82,-0.45,0.01,16.91,6.65,-29.6,434,463,241,278,207,1
529,0.88,-0.32,0.21,-16.42,-29.66,-32.9,435,462,244,282,209,1
530,0.87,-0.48,0.05,-21.67,-4.03,2.81,430,471,244,281,211,1
531,0.92,-0.39,0.09,-3.6,-5.37,-7.26,433,468,242,282,210,1
532,0.93,-0.39,0.07,-2.99,-4.58,-5.62,430,468,242,282,209,1
533,0.91,-0.37,0.09,-0.37,-1.71,-5.43,435,462,245,279,211,1
534,0.94,-0.36,0.08,0.24,-3.72,-2.14,432,467,245,284,212,1
535,0.93,-0.36,0.11,1.53,-0.98,0.37,428,473,239,283,209,1
536,0.92,-0.38,0.1,-6.84,-6.1,-0.12,432,468,243,283,210,1
537,0.94,-0.38,0.09,-3.17,-2.87,-4.15,434,466,244,285,212,1
538,0.92,-0.36,0.11,-0.61,-0.79,-4.82,433,472,244,283,210,1
539,0.94,-0.35,0.12,3.72,-1.83,-3.97,431,467,244,288,207,1
540,0.94,-0.36,0.13,1.28,-3.91,-0.73,432,468,238,286,212,1
541,0.93,-0.37,0.12,1.71,-1.77,-4.58,429,469,241,283,209,1
542,0.92,-0.38,0.11,2.2,-5.07,-1.65,432,464,243,281,210,1
543,0.92,-0.36,0.13,-0.92,-2.93,-2.62,433,468,239,283,209,1
544,0.93,-0.35,0.12,-1.22,-2.14,-2.62,433,471,244,286,207,1
545,0.93,-0.35,0.13,0.55,-3.05,-2.5,437,469,240,287,212,1
546,0.93,-0.35,0.13,0.98,-3.91,-3.05,435,467,244,286,212,1
547,0.95,-0.35,0.11,-0.18,-1.95,-2.62,430,463,241,286,212,1
548,0.93,-0.35,0.12,-0.24,-3.17,-2.44,436,468,240,284,207,1
549,0.93,-0.35,0.12,-0.43,-2.87,-2.81,433,468,243,282,209,1
550,0.93,-0.35,0.12,0.31,-2.56,-1.89,433,470,241,285,211,1
551,0.93,-0.35,0.12,0.61,-2.87,-2.87,434,469,242,284,210,1
552,0.94,-0.35,0.12,0.12,-2.38,-4.21,433,472,243,284,209,1
553,0.93,-0.35,0.12,-0.61,-3.17,-2.5,435,471,242,287,210,1
554,0.94,-0.34,0.12,-0.79,-3.42,-2.44,434,463,242,290,212,1
555,0.94,-0.35,0.12,-1.04,-2.75,-1.77,434,465,244,280,209,1
556,0.93,-0.34,0.12,-0.49,-3.23,-1.71,434,473,245,284,208,1
557,0.94,-0.35,0.12,-0.79,-2.5,-2.62,434,472,241,281,210,1
558,0.94,-0.35,0.12,-0.73,-3.85,-1.89,432,472,245,284,212,1
559,0.93,-0.34,0.13,-1.77,-2.93,-0.31,435,468,242,284,208,1
560,0.92,-0.34,0.14,-0.24,-2.44,-2.81,429,471,242,284,227,1
561,0.94,-0.33,0.12,-1.4,-3.6,-1.89,435,468,242,284,211,1
562,0.94,-0.31,0.14,-1.34,-2.32,-1.1,429,468,245,281,212,1
563,0.94,-0.32,0.13,-0.61,-2.87,-2.99,432,470,242,285,205,1
564,0.94,-0.31,0.14,0.67,-1.83,-3.05,430,472,241,284,212,1
565,0.95,-0.3,0.13,-0.43,-1.53,-4.94,431,468,241,284,215,1
566,0.96,-0.29,0.13,-0.24,-2.81,-3.3,433,469,241,285,211,1
567,0.95,-0.29,0.13,-1.16,-2.87,-2.44,432,469,240,287,219,1
568,0.95,-0.29,0.14,1.4,-3.66,-2.75,429,463,238,286,208,1
569,0.95,-0.29,0.14,0.79,-2.81,-1.83,433,467,243,285,210,1
570,0.95,-0.29,0.14,-2.62,-2.93,-1.65,431,469,242,284,211,1
571,0.95,-0.3,0.14,1.46,-2.38,-2.69,430,469,245,284,213,1
572,0.94,-0.3,0.15,0.43,-1.71,-3.6,431,466,244,284,213,1
573,0.93,-0.32,0.14,2.01,-3.54,-2.69,429,470,241,285,217,1
574,0.93,-0.32,0.14,1.16,-3.42,-2.32,428,464,241,286,210,1
575,0.95,-0.31,0.13,1.77,-3.78,-2.56,429,468,241,282,213,1
576,0.93,-0.32,0.14,0.06,-0.98,-3.85,425,468,245,284,212,1
577,0.94,-0.32,0.14,-0.55,-3.6,-2.99,426,465,245,285,210,1
578,0.95,-0.32,0.13,-0.79,-2.69,-3.6,425,473,247,284,212,1
579,0.95,-0.31,0.13,-2.56,-1.89,-1.53,431,468,242,286,250,1
580,0.94,-0.31,0.14,0.55,-2.93,-1.28,431,468,245,288,210,1
581,0.94,-0.33,0.14,-0.06,-3.36,-2.44,433,469,255,286,218,1
582,0.94,-0.33,0.13,0.73,-3.11,-2.62,428,469,252,292,214,1
583,0.92,-0.34,0.14,1.59,-2.32,-3.36,431,464,239,285,212,1
584,0.92,-0.33,0.14,-1.1,-4.15,-8.36,431,469,238,286,210,1
585,0.97,-0.22,0.15,-11.72,-2.08,-8.42,431,473,244,286,212,1
586,0.96,-0.21,0.15,-0.92,-0.49,-9.7,430,465,240,288,212,1
587,0.98,-0.2,0.14,0.98,-2.93,-2.62,427,467,244,285,214,1
588,0.98,-0.2,0.14,0.55,-2.62,-3.17,432,463,252,289,212,1
589,0.98,-0.18,0.15,0.43,-2.69,-4.58,427,468,242,284,212,1
590,0.98,-0.18,0.15,0.37,-2.75,-2.93,429,471,243,298,211,1
591,0.98,-0.18,0.15,-0.85,-2.99,-0.61,426,469,245,286,213,1
592,0.98,-0.2,0.14,1.22,-2.44,-2.2,433,472,243,286,214,1
593,0.97,-0.2,0.15,1.53,-2.38,-2.56,430,472,243,284,214,1
594,0.98,-0.18,0.16,1.53,-2.2,-2.14,431,463,242,282,214,1
595,0.97,-0.21,0.15,2.56,-2.99,1.04,431,465,244,286,214,1
596,0.97,-0.21,0.15,5.98,-3.42,-0.12,430,463,245,289,211,1
597,0.97,-0.23,0.15,2.62,-3.05,-4.58,427,472,241,282,216,1
598,0.97,-0.21,0.15,2.08,-1.95,-3.11,431,470,244,286,209,1
599,0.97,-0.22,0.16,1.59,-0.06,-1.59,430,469,243,287,239,1
600,0.96,-0.25,0.15,2.5,-2.93,-1.34,433,469,241,283,213,1
601,0.96,-0.23,0.15,-1.16,-2.87,0.92,432,475,245,289,212,1
602,0.95,-0.29,0.16,-5.92,0.18,2.93,433,472,242,288,212,1
603,0.94,-0.29,0.17,4.15,-2.32,1.34,431,469,245,286,215,1
604,0.92,-0.31,0.19,2.87,-1.4,1.53,430,476,246,284,214,1
605,0.95,-0.32,0.16,-1.22,-1.53,-1.95,430,467,242,287,213,1
606,0.94,-0.31,0.18,-0.61,-0.18,-3.97,430,464,243,284,212,1
607,0.92,-0.35,0.19,5.25,-2.32,-3.72,432,471,243,286,213,1
608,0.94,-0.39,0.16,-0.61,-2.14,-6.96,434,467,246,286,212,1
609,0.92,-0.31,0.21,-0.24,1.65,1.04,431,469,242,286,214,1
610,0.9,-0.38,0.21,8.24,-3.23,-4.27,431,474,246,286,212,1
611,1.02,-0.35,0.17,-1.53,-3.97,-2.38,434,469,244,286,210,1
612,0.94,-0.33,0.22,1.53,-1.53,-6.9,429,465,246,286,216,1
613,0.9,-0.31,0.27,-2.93,-3.72,3.05,432,467,244,286,214,1
614,0.92,-0.33,0.25,0.85,-5.49,-1.4,430,463,244,287,220,1
615,0.93,-0.37,0.21,7.2,-3.23,-9.46,435,466,247,285,212,1
616,0.95,-0.32,0.23,4.88,-5.25,-4.76,434,469,246,290,213,1
617,0.92,-0.35,0.23,-10.44,-3.91,-2.93,431,471,242,284,214,1
618,0.91,-0.35,0.24,-0.98,-3.42,-2.75,433,476,246,287,215,1
619,0.91,-0.35,0.23,1.83,-3.66,0.67,431,471,244,289,213,1
620,0.92,-0.34,0.24,1.77,-2.08,-3.3,427,463,243,286,209,1
621,0.95,-0.29,0.25,7.26,-1.16,-7.87,430,468,241,285,211,1
622,0.95,-0.28,0.26,4.39,0.12,-8.97,431,470,246,286,212,1
623,0.95,-0.41,0.15,1.1,-5.98,0.98,432,469,244,289,215,1
624,0.87,-0.43,0.25,-4.15,-2.2,6.71,430,463,244,287,210,1
625,0.93,-0.4,0.19,-0.37,-2.08,-2.32,429,468,244,286,213,1
626,0.9,-0.42,0.2,0.55,-0.31,-3.97,429,468,245,286,214,1
627,0.88,-0.44,0.2,-1.71,-1.53,-2.75,429,467,244,288,214,1
628,0.89,-0.43,0.2,-1.89,-1.16,-3.23,430,469,256,285,209,1
629,0.9,-0.42,0.2,-0.18,-3.42,-2.81,429,468,244,286,215,1
630,0.89,-0.41,0.2,1.34,-1.16,-5.68,430,472,244,287,215,1
631,0.91,-0.4,0.2,-0.67,-3.48,-2.62,428,469,245,287,214,1
632,0.9,-0.4,0.2,0.79,-2.32,-2.26,431,472,242,286,216,1
633,0.9,-0.4,0.2,0.79,-3.48,-2.14,427,471,243,290,221,1
634,0.9,-0.41,0.2,1.1,-3.17,-4.09,431,469,246,289,216,1
635,0.9,-0.41,0.2,0.06,-2.69,-3.97,434,469,246,289,215,1
636,0.89,-0.4,0.2,0.31,-2.5,-2.93,431,468,243,289,216,1
637,0.9,-0.39,0.21,1.53,-2.93,-2.75,427,466,241,287,214,1
638,0.91,-0.39,0.2,-0.18,-2.87,-2.44,431,478,245,287,211,1
639,0.89,-0.4,0.21,-0.61,-2.2,-2.56,428,473,243,286,210,1
640,0.9,-0.39,0.21,0.79,-2.5,-3.05,431,468,242,289,211,1
641,0.9,-0.38,0.21,0.0,-3.3,-1.89,429,471,254,286,212,1
642,0.91,-0.39,0.2,-0.73,-3.23,-1.89,431,477,244,286,210,1
643,0.89,-0.4,0.2,-1.34,-2.87,-2.32,431,469,243,286,212,1
644,0.89,-0.4,0.21,0.55,-2.38,-1.77,433,473,241,302,213,1
645,0.9,-0.4,0.19,-0.61,-2.75,-3.91,429,467,243,288,214,1
646,0.9,-0.39,0.2,1.28,-2.26,-2.08,431,466,244,289,212,1
647,0.9,-0.39,0.2,1.04,-2.81,-2.38,432,464,244,283,213,1
648,0.9,-0.39,0.2,0.79,-2.69,-3.36,428,474,249,286,211,1
649,0.91,-0.39,0.2,0.61,-3.23,-3.42,426,468,245,289,213,1
650,0.9,-0.38,0.21,0.67,-3.11,-3.05,432,470,244,289,211,1
651,0.9,-0.38,0.21,0.12,-3.48,-2.5,430,469,244,288,213,1
652,0.91,-0.38,0.2,0.18,-2.99,-2.56,434,476,242,303,213,1
653,0.91,-0.38,0.21,-0.31,-4.46,-1.34,431,465,245,287,215,1
654,0.91,-0.38,0.21,-0.79,-2.99,-2.56,433,469,244,286,210,1
655,0.91,-0.38,0.2,-1.04,-2.56,-2.99,430,464,242,288,213,1
656,0.91,-0.37,0.21,-0.06,-2.99,-1.77,427,468,240,286,211,1
657,0.91,-0.38,0.2,0.37,-3.17,-2.14,431,473,243,287,211,1
658,0.91,-0.36,0.21,0.79,-2.08,-3.91,432,470,242,287,213,1
659,0.9,-0.37,0.2,-1.59,-2.26,-1.95,429,469,244,289,219,1
660,0.92,-0.37,0.21,1.34,-3.11,-3.05,430,470,243,287,216,1
661,0.9,-0.37,0.21,0.24,-2.81,-4.09,430,473,243,288,214,1
662,0.92,-0.37,0.2,0.92,-2.56,-2.5,428,471,241,286,213,1
663,0.91,-0.37,0.21,1.1,-2.14,-2.44,428,466,242,287,212,1
664,0.91,-0.36,0.21,-1.34,-3.17,-1.28,430,470,245,286,222,1
665,0.92,-0.35,0.22,1.34,-1.53,-2.5,427,471,240,283,213,1
666,0.92,-0.36,0.21,0.49,-2.87,-2.14,429,470,245,291,216,1
667,0.92,-0.36,0.21,-0.98,-2.81,-2.44,430,472,242,289,215,1
668,0.91,-0.36,0.22,-0.61,-2.56,-1.95,427,469,246,289,247,1
669,0.91,-0.36,0.22,1.16,-3.11,-2.01,432,469,246,298,212,1
670,0.91,-0.37,0.21,0.79,-2.99,-2.26,428,470,240,286,215,1
671,0.91,-0.37,0.21,1.34,-3.85,-1.83,429,470,244,289,216,1
672,0.91,-0.36,0.22,-0.49,-2.44,-3.36,426,470,245,284,213,1
673,0.9,-0.36,0.22,-0.98,-2.99,-2.08,426,470,243,286,213,1
674,0.92,-0.36,0.21,-0.67,-3.05,-2.38,423,471,242,288,213,1
675,0.92,-0.36,0.21,0.12,-2.56,-2.87,423,469,243,287,213,1
676,0.92,-0.36,0.22,0.24,-2.93,-2.75,420,465,242,288,218,1
677,0.91,-0.36,0.21,-0.98,-2.69,-2.75,423,471,245,287,214,1
678,0.91,-0.36,0.22,0.85,-3.48,-2.56,422,469,244,286,214,1
679,0.92,-0.35,0.21,2.75,-4.46,-0.98,424,473,243,287,217,1
680,0.91,-0.38,0.21,3.6,-5.43,2.2,419,471,243,285,213,1
681,0.91,-0.4,0.2,2.99,-3.48,-0.73,423,469,244,293,212,1
682,0.91,-0.4,0.19,2.62,-4.94,-2.2,422,471,241,288,216,1
683,0.9,-0.4,0.19,1.22,-3.91,-1.46,425,472,242,286,225,1
684,0.9,-0.4,0.19,0.55,-2.81,-3.23,422,472,243,291,220,1
685,0.89,-0.4,0.2,0.67,-1.4,-3.97,429,480,246,288,216,1
686,0.91,-0.39,0.2,1.04,-3.17,-2.93,426,469,245,286,217,1
687,0.91,-0.39,0.19,0.49,-2.26,-2.87,426,473,240,288,217,1
688,0.9,-0.39,0.2,0.92,-4.21,-3.72,424,472,242,286,215,1
689,0.9,-0.39,0.2,-0.79,-3.42,-1.71,425,473,252,286,215,1
690,0.91,-0.39,0.2,0.0,-2.62,-2.69,437,471,242,286,215,1
691,0.92,-0.38,0.2,-0.67,-2.44,-0.92,429,469,242,288,216,1
692,0.91,-0.38,0.21,1.59,-2.14,-2.69,428,472,242,287,220,1
693,0.9,-0.39,0.21,0.24,-2.62,-2.2,428,471,243,286,217,1
694,0.91,-0.39,0.2,2.14,-3.6,-2.99,430,472,243,286,214,1
695,0.91,-0.39,0.2,1.28,-3.91,-3.97,429,467,242,290,216,1
696,0.91,-0.39,0.2,0.12,-2.75,-4.03,429,470,246,285,217,1
697,0.91,-0.38,0.21,0.67,-3.11,-2.5,431,470,246,285,217,1
698,0.91,-0.38,0.21,0.55,-3.3,-2.32,435,467,242,286,218,1
699,0.9,-0.38,0.21,0.67,-2.32,-2.99,428,470,241,286,218,1
700,0.91,-0.38,0.21,0.0,-1.77,-4.27,427,469,243,285,217,1
701,0.92,-0.38,0.21,-0.67,-2.93,-2.81,430,463,245,285,217,1
702,0.9,-0.38,0.21,0.67,-4.09,-4.27,430,469,244,288,212,1
703,0.9,-0.38,0.21,0.67,-1.71,-5.31,430,473,242,287,218,1
704,0.91,-0.37,0.21,1.1,-3.54,-2.69,431,467,243,283,216,1
705,0.91,-0.37,0.21,0.61,-2.44,-2.99,430,473,244,284,218,1
706,0.9,-0.37,0.22,-0.85,-2.56,-1.28,427,465,243,290,217,1
707,0.91,-0.39,0.21,0.31,-2.62,-2.87,430,470,243,297,217,1
708,0.9,-0.37,0.22,0.12,-2.69,-3.17,433,470,244,287,215,1
709,0.91,-0.37,0.22,1.04,-3.91,-2.14,431,473,243,289,245,1
710,0.91,-0.37,0.21,0.06,-2.56,-2.44,431,469,240,283,214,1
711,0.9,-0.38,0.22,-1.22,-4.33,-0.49,431,464,245,286,215,1
712,0.89,-0.39,0.21,-0.37,-2.75,-1.46,426,469,242,284,216,1
713,0.9,-0.41,0.21,-3.48,-1.71,-2.69,423,470,242,287,213,1
714,0.91,-0.45,0.15,-3.54,-6.9,10.74,423,467,244,292,214,1
715,0.88,-0.43,0.18,-0.24,2.87,14.4,424,463,242,286,212,1
716,0.89,-0.46,0.18,-2.14,-5.19,-7.45,429,465,243,288,217,1
717,0.78,-0.68,0.17,11.84,-24.84,-15.63,426,472,242,286,217,1
718,0.81,-0.52,0.18,-0.55,36.5,9.83,425,468,246,285,214,1
719,0.82,-0.59,0.24,-1.53,-1.77,-3.11,427,470,245,284,214,1
720,0.78,-0.56,0.31,2.93,-13.31,-0.18,426,469,241,287,214,1
721,0.81,-0.49,0.34,9.52,-2.26,-10.01,425,473,243,281,204,1
722,0.83,-0.47,0.32,1.46,-8.79,3.91,423,469,244,286,216,1
723,0.75,-0.53,0.35,-3.66,0.55,3.91,427,463,241,288,210,1
724,0.77,-0.53,0.35,3.54,-1.53,-6.47,427,471,245,286,215,1
725,0.8,-0.5,0.35,4.58,-3.6,-4.64,427,470,243,288,217,1
726,0.81,-0.51,0.34,4.27,-4.33,-1.89,426,473,243,285,231,1
727,0.79,-0.51,0.33,0.18,-7.69,-0.55,428,470,245,290,215,1
728,0.82,-0.51,0.28,3.48,-23.99,0.06,426,472,238,284,216,1
729,0.86,-0.45,0.24,2.5,-12.82,-13.43,422,459,244,287,212,1
730,0.86,-0.49,0.21,-3.23,2.32,-9.03,426,460,242,286,215,1
731,0.86,-0.48,0.23,-3.48,0.98,-2.32,423,466,243,284,215,1
732,0.84,-0.48,0.26,0.73,-2.81,-3.17,431,461,243,284,217,1
733,0.86,-0.46,0.26,5.0,-2.32,-6.04,425,458,243,286,219,1
734,0.86,-0.46,0.26,5.13,-2.26,-6.16,429,463,244,285,218,1
735,0.87,-0.45,0.27,1.1,-3.17,-3.11,430,466,244,286,214,1
736,0.86,-0.45,0.26,0.98,-2.56,-4.09,429,478,243,283,215,1
737,0.87,-0.44,0.27,-0.92,-3.23,-0.67,421,459,242,286,215,1
738,0.86,-0.44,0.28,0.0,-2.38,-2.26,432,466,239,283,217,1
739,0.86,-0.43,0.27,0.73,-2.14,-3.17,429,468,243,285,217,1
740,0.87,-0.44,0.27,1.04,-2.99,-3.11,430,464,240,287,220,1
741,0.86,-0.43,0.27,-0.24,-2.5,-3.23,425,465,244,285,214,1
742,0.86,-0.44,0.27,-0.85,-2.81,-2.2,430,465,245,282,214,1
743,0.86,-0.43,0.28,0.98,-3.05,-1.28,432,465,242,287,212,1
744,0.87,-0.43,0.28,-1.71,-3.17,-1.4,430,461,244,297,214,1
745,0.86,-0.43,0.28,0.43,-3.48,-2.38,429,467,245,288,216,1
746,0.87,-0.42,0.27,1.46,-3.48,-3.72,430,469,240,284,215,1
747,0.87,-0.42,0.29,0.43,-3.36,-2.87,429,464,243,282,215,1
748,0.87,-0.42,0.28,0.85,-4.46,-2.08,430,465,249,288,213,1
749,0.88,-0.42,0.28,0.92,-3.54,-1.53,429,464,246,286,214,1
750,0.87,-0.41,0.28,0.24,-3.66,-2.93,430,466,242,285,226,1
751,0.87,-0.42,0.28,0.18,-2.2,-2.81,433,469,246,286,215,1
752,0.87,-0.42,0.28,1.4,-4.33,-2.14,432,470,245,286,215,1
753,0.87,-0.41,0.28,0.37,-2.38,-2.87,430,466,241,290,216,1
754,0.88,-0.41,0.28,-0.55,-2.32,-3.36,431,469,243,288,217,1
755,0.88,-0.41,0.28,0.12,-2.75,-2.62,431,471,242,285,218,1
756,0.88,-0.41,0.3,1.1,-3.23,-2.87,433,468,242,282,215,1
757,0.87,-0.4,0.29,0.55,-2.56,-2.5,429,470,245,285,213,1
758,0.87,-0.4,0.29,0.85,-2.56,-3.23,427,460,245,288,212,1
759,0.88,-0.4,0.28,-1.04,-2.99,-1.4,431,465,248,285,217,1
760,0.88,-0.4,0.29,-0.61,-3.3,-1.77,426,463,242,287,215,1
761,0.88,-0.39,0.3,0.06,-5.0,-1.16,431,466,245,284,217,1
762,0.88,-0.4,0.29,0.37,-3.36,-1.34,433,468,245,285,218,1
763,0.88,-0.4,0.29,1.16,-5.37,-0.98,431,467,246,288,226,1
764,0.88,-0.4,0.29,-0.55,-3.91,-2.01,430,478,243,288,220,1
765,0.88,-0.4,0.3,-0.49,-2.5,-3.05,427,461,243,282,217,1
766,0.88,-0.39,0.3,0.06,-2.87,-2.01,433,461,239,287,216,1
767,0.88,-0.39,0.29,0.06,-2.93,-2.32,433,464,256,286,214,1
768,0.88,-0.39,0.3,-0.43,-2.87,-2.2,430,469,242,286,218,1
769,0.88,-0.4,0.29,0.31,-3.23,-2.2,431,460,244,302,217,1
770,0.88,-0.39,0.29,1.16,-2.99,-2.56,427,466,245,288,216,1
771,0.87,-0.39,0.29,1.46,-2.2,-3.23,430,461,244,286,215,1
772,0.89,-0.4,0.28,0.67,-3.17,-2.38,432,465,241,287,215,1
773,0.88,-0.4,0.29,0.43,-2.75,-2.99,431,468,240,287,213,1
774,0.87,-0.39,0.29,0.67,-2.99,-4.03,432,469,247,285,215,1
775,0.88,-0.4,0.29,0.49,-3.54,-1.89,428,461,241,289,215,1
776,0.88,-0.39,0.3,0.18,-2.44,-2.26,435,469,244,287,216,1
777,0.88,-0.4,0.29,-1.16,-2.75,-2.62,431,462,245,285,215,1
778,0.89,-0.4,0.28,-0.31,-2.87,-3.17,432,465,244,283,218,1
779,0.88,-0.39,0.29,1.1,-2.26,-1.89,430,483,246,287,214,1
780,0.87,-0.4,0.3,1.28,-2.81,-2.75,432,465,245,288,215,1
781,0.88,-0.4,0.3,0.12,-2.38,-3.05,433,467,246,295,215,1
782,0.87,-0.39,0.3,1.4,-3.23,-3.42,431,466,245,290,218,1
783,0.9,-0.4,0.3,0.0,-2.69,-2.44,432,472,246,289,216,1
784,0.87,-0.4,0.3,0.18,-3.23,-2.44,432,467,243,288,219,1
785,0.87,-0.39,0.29,0.67,-2.01,-3.23,432,470,242,284,217,1
786,0.88,-0.39,0.3,1.34,-2.93,-3.23,435,470,247,289,213,1
787,0.88,-0.39,0.3,0.37,-3.54,-1.77,427,470,239,289,255,1
788,0.88,-0.39,0.29,0.67,-2.56,-2.99,432,467,246,286,213,1
789,0.88,-0.39,0.3,0.85,-3.3,-3.05,431,461,244,287,214,1
790,0.88,-0.39,0.29,-0.12,-2.93,-2.44,431,469,245,287,219,1
791,0.88,-0.39,0.3,0.18,-3.23,-3.17,433,468,245,294,215,1
792,0.88,-0.39,0.3,0.18,-2.81,-2.87,431,466,245,284,215,1
793,0.88,-0.38,0.3,0.06,-3.85,-2.08,431,463,247,289,218,1
794,0.88,-0.39,0.3,0.73,-2.93,-2.93,432,466,248,288,215,1
795,0.89,-0.38,0.29,0.92,-2.14,-3.66,431,467,247,287,215,1
796,0.88,-0.38,0.3,0.49,-2.87,-3.11,428,464,245,286,216,1
797,0.88,-0.38,0.3,0.24,-2.99,-2.56,431,462,244,291,218,1
798,0.88,-0.38,0.31,0.43,-3.17,-2.5,431,465,255,289,218,1
799,0.88,-0.38,0.3,1.16,-2.01,-3.91,432,470,243,290,215,1
800,0.88,-0.38,0.3,0.43,-3.05,-3.91,429,470,244,289,218,1
801,0.87,-0.37,0.31,1.71,-2.14,-2.75,432,465,245,290,217,1
802,0.88,-0.38,0.3,0.61,-3.36,-1.65,433,468,243,290,217,1
803,0.89,-0.38,0.29,1.53,-1.77,-3.3,430,466,247,286,217,1
804,0.89,-0.37,0.3,0.06,-3.11,-2.75,428,470,244,287,218,1
805,0.88,-0.38,0.3,0.06,-2.93,-1.28,436,467,245,288,216,1
806,0.89,-0.38,0.3,-0.37,-2.69,-2.38,434,463,242,290,217,1
807,0.87,-0.38,0.32,0.37,-2.26,-2.75,432,467,242,286,213,1
808,0.91,-0.34,0.29,0.85,-2.38,-2.32,432,462,247,287,216,1
809,0.88,-0.38,0.32,0.31,-2.56,-3.05,433,465,239,286,216,1
810,0.88,-0.38,0.31,0.31,-3.23,-2.08,433,466,246,287,219,1
811,0.88,-0.38,0.32,0.12,-3.17,-2.62,429,463,247,285,215,1
812,0.88,-0.37,0.32,0.24,-2.38,-4.03,432,468,246,287,218,1
813,0.88,-0.38,0.31,-0.61,-2.87,-3.3,431,468,245,288,216,1
814,0.89,-0.37,0.31,0.06,-4.46,-0.73,434,467,246,288,216,1
815,0.88,-0.38,0.31,0.37,-3.11,-2.81,434,470,245,286,214,1
816,0.88,-0.37,0.32,0.85,-1.53,-2.26,431,461,243,287,216,1
817,0.88,-0.37,0.31,-0.18,-2.93,-2.14,431,469,242,287,216,1
818,0.88,-0.38,0.31,0.31,-4.09,-2.2,434,464,248,289,216,1
819,0.86,-0.39,0.33,2.75,-4.82,-1.16,432,467,247,287,218,1
820,0.9,-0.33,0.32,6.9,-4.58,-7.75,432,462,246,291,216,1
821,0.93,-0.32,0.31,0.79,-4.03,-0.18,429,469,245,290,216,1
822,0.91,-0.37,0.31,-2.5,-2.56,-0.31,433,468,247,289,232,1
823,0.89,-0.37,0.3,2.87,-2.81,-3.3,432,469,245,299,216,1
824,0.93,-0.38,0.26,-10.19,0.67,-1.65,432,466,247,285,219,1
825,0.83,-0.48,0.29,-4.58,-0.67,-2.44,430,466,248,291,218,1
826,0.86,-0.39,0.35,0.98,-2.44,-2.99,426,471,246,285,216,1
827,0.86,-0.39,0.35,1.95,-3.48,-3.48,432,464,248,287,217,1
828,0.86,-0.39,0.35,0.85,-2.44,-3.48,428,468,246,289,218,1
829,0.87,-0.39,0.35,1.46,-3.66,-4.27,428,467,244,290,217,1
830,0.85,-0.39,0.35,0.73,-2.2,-2.87,431,466,248,289,216,1
831,0.87,-0.39,0.34,0.24,-3.91,-2.32,431,467,245,285,216,1
832,0.85,-0.4,0.36,0.24,-2.38,-2.69,433,468,246,290,218,1
833,0.86,-0.39,0.35,0.49,-2.93,-2.69,432,470,245,290,217,1
834,0.86,-0.39,0.35,0.73,-2.38,-3.3,430,476,248,290,217,1
835,0.86,-0.39,0.35,0.55,-2.62,-2.08,433,470,245,285,215,1
836,0.85,-0.4,0.35,0.55,-3.05,-1.89,427,467,245,289,217,1
837,0.86,-0.39,0.35,0.49,-3.54,-1.53,427,466,242,286,223,1
838,0.85,-0.39,0.36,0.55,-2.44,-2.56,442,465,247,290,217,1
839,0.86,-0.39,0.35,1.89,-3.66,-3.36,432,471,244,290,213,1
840,0.86,-0.39,0.35,0.98,-3.11,-3.17,431,462,247,290,220,1
841,0.86,-0.39,0.36,-0.79,-2.93,-3.6,434,461,243,289,247,1
842,0.86,-0.39,0.36,-0.73,-2.75,-2.5,434,467,259,289,219,1
843,0.85,-0.39,0.37,0.92,-1.83,-2.93,430,461,245,286,216,1
844,0.85,-0.38,0.37,0.37,-2.69,0.12,431,468,245,287,219,1
845,0.87,-0.37,0.35,-1.16,-3.11,-4.39,428,467,247,286,216,1
846,0.87,-0.36,0.37,0.92,-3.05,-4.03,432,470,247,289,219,1
847,0.88,-0.36,0.36,3.17,-3.6,-4.33,433,467,247,286,218,1
848,0.87,-0.36,0.36,0.98,-2.26,-3.3,432,470,247,288,215,1
849,0.87,-0.35,0.37,1.28,-3.23,-2.99,433,467,247,287,218,1
850,0.9,-0.38,0.34,-0.24,-0.79,-4.58,438,464,248,289,219,1
851,0.86,-0.35,0.38,-0.12,-2.08,-4.88,432,471,245,286,219,1
852,0.87,-0.36,0.38,-2.44,-2.93,-1.53,431,478,259,287,216,1
853,0.87,-0.34,0.38,0.0,-2.93,-2.56,434,467,243,286,216,1
854,0.88,-0.33,0.38,-0.43,-2.87,-3.17,433,464,257,289,217,1
855,0.88,-0.33,0.38,-0.73,-2.56,-1.59,430,462,247,288,216,1
856,0.87,-0.34,0.39,0.0,-2.62,-2.26,432,466,247,287,216,1
857,0.87,-0.33,0.38,-0.49,-3.05,-1.95,432,467,244,288,216,1
858,0.87,-0.33,0.39,0.49,-2.81,-2.62,429,469,243,287,218,1
859,0.87,-0.32,0.39,0.06,-2.44,-0.79,432,467,241,286,219,1
860,0.87,-0.34,0.37,-1.83,-1.89,1.1,431,465,243,288,218,1
861,0.85,-0.37,0.39,-0.55,-2.26,1.46,430,466,246,289,218,1
862,0.85,-0.39,0.38,1.22,-2.69,-3.54,430,462,247,277,219,1
863,0.84,-0.39,0.38,0.98,-3.72,-2.26,432,465,246,290,224,1
864,0.86,-0.38,0.37,2.93,-3.85,-2.99,426,471,245,287,217,1
865,0.87,-0.38,0.38,1.22,-3.54,-4.03,426,471,246,297,221,1
866,0.84,-0.38,0.39,0.73,-4.09,-2.26,431,469,245,290,237,1
867,0.85,-0.37,0.39,-0.18,-2.75,-3.11,430,468,245,286,217,1
868,0.85,-0.38,0.38,-0.18,-3.17,-1.71,429,469,246,290,219,1
869,0.83,-0.39,0.39,2.14,-1.95,-0.67,427,468,244,291,248,1
870,0.85,-0.4,0.38,-1.16,-3.11,-2.69,429,471,247,289,219,1
871,0.85,-0.39,0.38,-0.06,-2.87,-2.62,428,467,246,289,215,1
872,0.85,-0.39,0.38,0.31,-2.08,-2.93,431,469,252,288,219,1
873,0.85,-0.39,0.39,0.06,-2.75,-2.62,431,471,245,286,217,1
874,0.85,-0.39,0.38,0.98,-2.2,-3.54,429,465,246,286,217,1
875,0.84,-0.39,0.39,-0.06,-2.87,-2.75,430,470,259,287,218,1
876,0.85,-0.39,0.38,-0.12,-3.05,-1.53,431,471,248,288,215,1
877,0.85,-0.39,0.38,1.4,-3.23,-2.26,430,462,249,291,217,1
878,0.85,-0.39,0.37,-0.55,-2.69,-3.23,434,467,246,287,217,1
879,0.85,-0.39,0.38,-1.34,-2.62,-1.28,429,467,246,289,218,1
880,0.85,-0.39,0.38,0.79,-3.48,-2.38,431,462,250,289,217,1
881,0.85,-0.39,0.38,-0.12,-2.69,-2.87,430,468,249,291,218,1
882,0.84,-0.39,0.38,-0.49,-3.11,-3.17,429,466,248,292,216,1
883,0.85,-0.4,0.37,-0.98,-2.99,-1.65,434,467,245,289,222,1
884,0.85,-0.4,0.38,0.49,-4.09,-2.2,427,464,246,289,220,1
885,0.84,-0.39,0.38,2.5,-4.09,-0.49,430,468,243,291,218,1
886,0.85,-0.4,0.37,1.77,-2.62,-1.65,428,469,246,295,215,1
887,0.84,-0.4,0.38,2.5,-3.23,-2.01,430,463,246,290,216,1
888,0.84,-0.42,0.37,1.1,-3.17,-1.89,426,471,246,288,220,1
889,0.83,-0.42,0.37,0.92,-2.38,-3.72,427,468,246,291,218,1
890,0.84,-0.4,0.38,2.75,-3.11,-3.48,427,464,248,289,218,1
891,0.85,-0.4,0.37,0.12,-2.99,-2.5,428,467,247,292,218,1
892,0.84,-0.4,0.38,-0.55,-2.81,-1.71,429,467,249,290,220,1
893,0.84,-0.4,0.38,0.55,-1.71,-2.69,434,469,247,296,220,1
894,0.84,-0.4,0.38,0.73,-1.95,-3.48,430,472,246,292,223,1
895,0.85,-0.39,0.37,0.12,-2.93,-2.87,428,471,248,292,218,1
896,0.8,-0.43,0.33,0.18,3.42,-18.07,430,471,245,289,220,1
897,0.85,-0.42,0.35,-2.14,-3.3,-4.15,431,466,243,289,218,1
898,0.86,-0.4,0.36,-0.06,-2.93,-2.75,429,468,249,292,218,1
899,0.87,-0.4,0.36,0.49,-2.99,-2.44,430,467,251,290,209,1
900,0.85,-0.4,0.36,0.18,-2.56,-3.23,431,472,246,290,217,1
901,0.85,-0.4,0.36,-0.37,-3.48,-2.75,426,468,249,289,220,1
902,0.85,-0.39,0.37,-0.24,-2.75,-2.62,429,470,248,289,221,1
903,0.85,-0.4,0.37,-0.49,-2.87,-2.32,428,480,246,292,220,1
904,0.84,-0.4,0.37,0.49,-3.05,-2.14,431,468,243,293,218,1
905,0.85,-0.4,0.37,0.73,-3.85,-1.46,432,466,249,291,218,1
906,0.85,-0.4,0.37,-0.98,-2.69,-2.32,428,463,248,293,217,1
907,0.85,-0.4,0.37,0.37,-2.32,-2.99,429,469,248,293,220,1
908,0.86,-0.38,0.37,-3.11,-4.64,-1.04,428,465,245,290,227,1
909,0.87,-0.42,0.34,-3.97,-2.93,-1.28,437,468,247,290,228,1
910,0.85,-0.42,0.35,1.77,-0.12,1.46,426,472,244,291,216,1
911,0.84,-0.43,0.36,1.34,-4.03,-1.89,425,467,245,291,221,1
912,0.86,-0.44,0.33,-0.98,-4.7,-3.6,429,472,248,292,220,1
913,0.85,-0.43,0.34,2.32,-2.5,-3.11,425,469,247,293,218,1
914,0.85,-0.41,0.35,5.19,-3.66,-3.36,425,466,243,290,220,1
915,0.87,-0.38,0.37,2.75,-1.71,-5.8,425,467,247,291,210,1
916,0.85,-0.38,0.37,0.12,-2.62,-2.2,428,472,245,292,220,1
917,0.83,-0.41,0.37,-1.89,-2.44,0.67,430,472,246,292,220,1
918,0.85,-0.41,0.36,-1.89,-3.36,-1.59,427,470,245,292,222,1
919,0.83,-0.43,0.36,-1.16,-2.81,-1.34,428,470,249,288,223,1
920,0.85,-0.43,0.35,-2.2,-3.48,-0.43,429,465,249,291,221,1
921,0.84,-0.42,0.36,-1.28,-2.99,-0.92,426,466,245,291,219,1
922,0.84,-0.44,0.34,-0.85,-2.75,-3.36,428,465,245,292,219,1
923,0.85,-0.44,0.34,1.04,-3.54,-2.5,428,461,248,290,219,1
924,0.84,-0.43,0.34,0.67,-2.87,-3.36,426,464,250,289,219,1
925,0.84,-0.43,0.35,0.85,-2.32,-2.93,426,471,249,291,219,1
926,0.83,-0.44,0.35,-0.18,-2.26,-1.53,427,462,246,289,217,1
927,0.84,-0.43,0.35,0.31,-2.62,-2.87,427,468,245,289,217,1
928,0.84,-0.43,0.35,0.55,-2.5,-1.28,426,466,245,290,217,1
929,0.84,-0.44,0.35,0.55,-3.17,-3.36,427,469,249,291,218,1
930,0.85,-0.44,0.34,-0.12,-3.11,-3.17,425,464,249,294,219,1
931,0.83,-0.44,0.35,0.24,-2.93,-2.81,423,467,244,292,220,1
932,0.83,-0.43,0.35,-0.98,-2.87,-2.62,418,464,248,292,218,1
933,0.82,-0.46,0.35,1.16,-3.17,-1.89,418,469,249,292,221,1
934,0.9,-0.47,0.23,0.43,-6.47,-6.59,418,467,248,291,217,1
935,0.87,-0.42,0.28,-2.93,-2.87,-4.46,425,472,250,292,220,1
936,0.9,-0.38,0.31,1.34,-3.36,-11.11,424,468,245,290,220,1
937,0.87,-0.39,0.29,2.01,-1.1,2.56,426,468,248,292,219,1
938,0.85,-0.42,0.31,3.72,-1.65,0.06,425,465,247,291,220,1
939,0.84,-0.44,0.31,2.93,-2.44,-1.34,427,466,249,290,221,1
940,0.85,-0.44,0.3,-0.49,-2.01,-2.08,427,470,247,293,215,1
941,0.85,-0.43,0.32,-1.28,-2.75,-0.79,425,470,251,292,219,1
942,0.85,-0.44,0.31,0.73,-2.93,-3.05,427,468,250,287,219,1
943,0.85,-0.44,0.31,0.49,-2.81,-3.11,425,469,247,290,219,1
944,0.85,-0.43,0.31,0.73,-3.36,-2.81,423,468,249,291,220,1
945,0.86,-0.43,0.31,0.61,-2.62,-2.5,423,468,245,291,222,1
946,0.85,-0.43,0.31,0.0,-2.69,-2.44,425,481,246,292,221,1
947,0.86,-0.43,0.32,0.49,-3.78,-1.4,431,468,244,293,222,1
948,0.85,-0.44,0.31,0.67,-3.48,-2.26,427,466,247,290,222,1
949,0.89,-0.51,0.21,-5.68,-7.08,-3.66,429,469,247,288,219,1
950,0.87,-0.46,0.25,5.8,-4.88,2.75,425,468,245,292,220,1
951,0.85,-0.46,0.28,-1.04,-3.97,-0.49,422,470,246,292,222,1
952,0.86,-0.45,0.26,0.67,-3.54,0.18,422,471,249,291,220,1
953,0.86,-0.46,0.27,3.42,-2.87,-3.23,424,467,243,290,219,1
954,0.86,-0.45,0.27,-0.18,-2.81,-0.24,424,465,248,290,221,1
955,0.84,-0.46,0.27,0.24,-3.42,-3.17,424,466,247,293,220,1
956,0.85,-0.46,0.27,0.12,-2.75,-2.93,421,466,247,293,219,1
957,0.86,-0.45,0.28,-0.79,-2.44,-2.81,429,465,250,292,218,1
958,0.85,-0.45,0.28,0.55,-2.69,-2.81,425,468,247,293,218,1
959,0.86,-0.44,0.28,2.14,-3.23,-3.42,432,469,251,294,220,1
960,0.86,-0.44,0.28,0.67,-2.69,-3.54,424,467,249,292,219,1
961,0.85,-0.45,0.28,0.24,-2.2,-4.21,428,471,248,291,226,1
962,0.85,-0.44,0.29,1.65,-4.09,-2.93,429,467,250,294,225,1
963,0.86,-0.44,0.29,-0.06,-3.3,-1.89,429,470,250,293,220,1
964,0.87,-0.44,0.28,-0.61,-2.81,-2.44,430,477,247,291,220,1
965,0.85,-0.44,0.29,0.49,-2.99,-1.71,429,468,246,291,219,1
966,0.86,-0.44,0.29,0.67,-2.44,-4.09,429,463,250,293,220,1
967,0.86,-0.43,0.29,0.37,-3.36,-1.16,429,468,250,292,222,1
968,0.85,-0.44,0.29,0.67,-2.69,-2.81,429,470,247,292,222,1
969,0.87,-0.44,0.28,-0.06,-2.99,-3.54,429,470,248,291,211,1
970,0.86,-0.44,0.28,-0.06,-2.26,-3.85,430,467,246,291,218,1
971,0.85,-0.43,0.29,-0.18,-1.4,-3.72,431,469,245,293,223,1
972,0.86,-0.43,0.29,-1.22,-2.69,-1.59,429,469,246,293,221,1
973,0.85,-0.42,0.3,-3.78,-4.21,-3.72,422,472,249,290,222,1
974,0.87,-0.43,0.28,-0.18,-2.87,-2.62,428,471,246,291,219,1
975,0.88,-0.43,0.26,-1.53,-3.48,-3.66,428,464,251,292,223,1
976,0.87,-0.43,0.25,0.43,-4.15,-1.34,429,468,246,294,220,1
977,0.87,-0.44,0.26,0.0,-3.66,-1.77,426,463,251,302,224,1
978,0.87,-0.44,0.26,0.55,-3.48,-1.83,426,470,248,293,219,1
979,0.86,-0.45,0.26,-0.12,-2.75,-3.42,429,462,250,290,220,1
980,0.86,-0.44,0.26,0.06,-2.62,-3.3,427,466,252,293,223,1
981,0.86,-0.46,0.25,-2.69,-2.2,-0.24,425,471,251,291,220,1
982,0.86,-0.45,0.26,0.24,-3.66,-2.01,426,467,247,293,223,1
983,0.86,-0.45,0.25,-0.73,-3.36,-2.2,426,466,250,294,221,1
984,0.86,-0.45,0.26,-1.16,-4.46,-0.85,427,468,251,293,220,1
985,0.87,-0.44,0.26,0.24,-3.48,-2.5,427,466,248,291,223,1
986,0.86,-0.45,0.26,0.43,-2.01,-4.09,430,464,248,294,219,1
987,0.86,-0.44,0.27,0.0,-2.5,-2.38,427,461,251,291,232,1
988,0.87,-0.45,0.26,-0.18,-2.08,-3.11,428,478,248,293,220,1
989,0.86,-0.44,0.27,0.31,-2.75,-2.75,429,469,247,295,222,1
990,0.86,-0.44,0.27,0.49,-2.2,-3.48,429,471,248,292,221,1
991,0.86,-0.45,0.27,0.43,-2.5,-2.93,426,468,246,292,220,1
992,0.87,-0.44,0.27,0.06,-2.75,-3.66,426,467,250,294,227,1
993,0.88,-0.45,0.26,3.17,-2.93,-5.0,431,467,247,292,225,1
994,0.87,-0.44,0.26,2.2,-3.36,-6.53,430,467,247,291,221,1
995,0.87,-0.43,0.26,0.24,-2.44,-3.11,429,467,246,289,216,1
996,0.87,-0.44,0.26,0.73,-1.71,-4.33,430,466,248,289,223,1
997,0.87,-0.43,0.27,-0.24,-2.14,-2.81,431,466,251,295,222,1
998,0.87,-0.43,0.27,-0.37,-2.2,-2.5,431,464,249,292,220,1
999,0.87,-0.43,0.27,1.4,-2.5,-2.75,425,468,246,292,223,1
1000,0.87,-0.43,0.27,1.59,-2.08,-4.21,431,463,249,289,223,1
1001,0.87,-0.42,0.27,1.22,-3.05,-2.75,429,471,251,289,222,1
1002,0.87,-0.42,0.27,-0.18,-2.2,-3.85,429,474,251,292,220,1
1003,0.87,-0.42,0.27,0.49,-2.44,-3.3,430,467,251,307,217,1
1004,0.87,-0.42,0.27,-0.37,-3.42,-2.56,433,469,248,294,222,1
1005,0.87,-0.42,0.27,0.31,-2.93,-2.44,429,467,250,295,247,1
1006,0.88,-0.43,0.27,1.4,-3.66,-2.32,430,463,249,293,221,1
1007,0.87,-0.43,0.27,1.28,-2.5,-2.93,432,469,251,289,220,1
1008,0.86,-0.46,0.25,-1.1,-2.87,-1.65,432,466,251,296,222,1
1009,0.87,-0.43,0.27,2.01,-3.11,-2.69,431,470,250,291,222,1
1010,0.87,-0.43,0.27,-0.73,-3.54,-0.37,429,463,249,302,220,1
1011,0.87,-0.44,0.27,-0.92,-2.44,-2.44,425,465,251,296,228,1
1012,0.87,-0.43,0.27,-1.22,-2.62,-3.6,439,470,247,294,220,1
1013,0.87,-0.42,0.28,-1.59,-3.48,-1.65,430,468,249,292,219,1
1014,0.86,-0.44,0.27,2.62,-3.6,-2.44,430,468,249,292,217,1
1015,0.87,-0.4,0.29,3.54,-3.66,-4.88,430,466,241,292,221,1
1016,0.8,-0.47,0.26,-3.54,-2.81,-0.24,430,466,250,295,222,1
1017,0.85,-0.37,0.26,-107.06,113.16,-122.07,363,474,272,349,270,1
1018,0.52,-0.11,0.94,-19.96,101.5,47.91,329,454,365,460,405,1
1019,0.39,-0.21,0.96,19.53,17.88,2.26,316,450,369,470,401,1
1020,0.28,-0.2,0.98,10.31,6.59,1.53,327,445,366,469,402,1
1021,0.2,-0.18,0.96,-7.08,-7.45,-3.91,330,441,364,466,394,1
1022,0.26,-0.2,0.96,0.06,-7.08,-3.91,327,443,362,461,389,1
1023,0.24,-0.2,0.96,0.37,-4.39,-2.75,328,442,361,459,381,1
1024,0.26,-0.2,0.97,0.31,-3.48,-2.87,326,435,361,460,377,1
1025,0.26,-0.2,0.97,0.85,-3.3,-2.87,329,442,361,457,380,1
1026,0.26,-0.2,0.97,0.61,-1.53,-2.38,328,444,355,455,383,1
1027,0.91,-0.38,-0.17,-1.4,-2.32,-2.56,392,465,234,308,227,1
1028,0.94,-0.37,-0.17,-0.18,1.34,0.24,395,463,239,309,232,1
1029,0.94,-0.36,-0.16,-2.38,-1.65,-7.26,393,468,237,307,230,1
1030,0.92,-0.36,-0.17,-0.31,-3.78,-3.66,395,465,237,307,233,1
1031,0.93,-0.35,-0.15,2.32,-9.03,-4.15,394,466,240,309,230,1
1032,0.96,-0.34,-0.18,1.95,-2.81,-1.28,395,465,240,307,231,1
1033,0.93,-0.34,-0.17,2.14,-3.36,-2.26,397,466,238,309,230,1
1034,0.92,-0.36,-0.18,-0.79,-2.99,-0.73,400,463,240,309,230,1
1035,0.91,-0.36,-0.18,3.05,-5.8,-0.79,398,466,235,304,233,1
1036,0.91,-0.37,-0.18,-0.43,0.0,-2.99,393,471,239,305,229,1
1037,0.92,-0.36,-0.17,-1.83,-2.08,-2.32,396,463,240,307,232,1
1038,0.91,-0.37,-0.17,1.71,-2.69,-4.64,396,477,241,306,232,1
1039,0.92,-0.36,-0.17,0.55,-0.85,-1.1,398,466,235,307,231,1
1040,0.92,-0.37,-0.18,2.14,-1.34,-7.2,397,467,238,308,234,1
1041,0.95,-0.34,-0.18,2.08,-2.38,-4.09,403,463,236,310,234,1
1042,0.94,-0.35,-0.15,2.75,-5.43,-1.95,400,474,240,308,233,1
1043,0.92,-0.35,-0.15,0.18,-3.11,-2.2,395,465,238,320,230,1
1044,0.93,-0.36,-0.16,-1.34,4.27,-5.31,399,471,240,308,235,1
1045,0.92,-0.36,-0.15,1.28,-2.2,-3.85,398,466,238,308,236,1
1046,0.93,-0.36,-0.16,1.53,-4.82,-3.54,401,470,236,309,234,1
1047,0.92,-0.36,-0.17,0.24,-3.78,-2.01,400,468,239,307,235,1
1048,0.95,-0.36,-0.17,0.67,2.44,0.37,400,465,250,312,230,1
1049,0.95,-0.36,-0.15,1.83,-3.72,-7.57,398,470,241,307,232,1
1050,0.91,-0.38,-0.16,0.79,-0.79,-5.31,398,466,237,308,233,1
1051,0.9,-0.39,-0.16,-1.28,-11.35,-2.26,397,466,247,307,234,1
1052,0.9,-0.39,-0.17,1.89,-1.28,1.53,399,472,240,306,231,1
1053,0.87,-0.4,-0.17,0.43,-3.72,-2.87,398,471,241,324,232,1
1054,0.9,-0.4,-0.18,-1.1,-2.08,-1.4,400,466,237,310,234,1
1055,0.9,-0.39,-0.17,0.61,-2.93,-2.38,400,467,244,307,234,1
1056,0.91,-0.38,-0.16,5.86,-2.32,-1.71,398,463,236,307,230,1
1057,0.9,-0.39,-0.16,0.18,-2.62,-4.33,399,464,237,306,233,1
1058,0.89,-0.39,-0.16,2.38,-0.12,-1.71,396,468,239,310,232,1
1059,0.88,-0.39,-0.15,-0.85,-1.4,-2.62,399,472,237,309,235,1
1060,0.92,-0.38,-0.18,3.11,0.85,-3.66,398,463,236,308,234,1
1061,0.9,-0.38,-0.16,1.4,-1.83,-3.66,402,469,238,311,233,1
1062,0.91,-0.39,-0.15,-0.37,-2.08,-2.44,395,469,240,308,234,1
1063,0.9,-0.38,-0.14,-0.85,-0.92,-3.54,394,463,235,318,233,1
1064,0.9,-0.38,-0.12,-1.4,2.14,-7.26,399,473,240,318,234,1
1065,0.92,-0.38,-0.14,-1.28,-3.91,-2.81,401,474,237,313,241,1
1066,0.91,-0.38,-0.16,1.71,-4.39,-5.37,398,464,240,311,233,1
1067,0.89,-0.38,-0.15,-1.34,-5.07,-5.07,399,469,238,309,233,1
1068,0.92,-0.37,-0.14,4.46,-5.25,4.82,401,469,240,309,233,1
1069,0.9,-0.37,-0.12,1.95,0.37,-4.7,400,464,241,305,232,1
1070,0.92,-0.37,-0.13,-4.09,-0.18,-1.04,397,461,244,310,231,1
1071,0.92,-0.38,-0.13,0.61,-3.72,-1.95,398,473,237,312,234,1
1072,0.94,-0.37,-0.15,3.54,-6.23,-2.62,400,464,242,310,231,1
1073,0.92,-0.37,-0.13,1.71,-2.14,-1.71,399,469,242,302,235,1
1074,0.93,-0.36,-0.14,0.49,-3.6,-1.71,402,473,238,312,236,1
1075,0.92,-0.37,-0.15,0.0,-4.52,-2.62,402,468,241,310,236,1
1076,0.91,-0.37,-0.13,1.65,-3.91,-2.75,397,468,241,310,232,1
1077,0.92,-0.36,-0.14,3.72,-4.39,-2.99,401,467,240,309,236,1
1078,0.92,-0.36,-0.14,0.24,-1.83,-3.3,399,468,242,311,235,1
1079,0.92,-0.36,-0.13,-0.43,-1.89,-3.54,400,468,241,309,235,1
1080,0.91,-0.36,-0.13,0.49,-2.44,-2.5,400,472,240,313,235,1
1081,0.92,-0.37,-0.15,2.44,-3.85,-3.17,399,473,238,311,235,1
1082,0.92,-0.36,-0.14,1.04,-3.17,-2.93,400,471,240,309,235,1
1083,0.93,-0.36,-0.14,-0.79,-2.32,-2.14,398,472,238,311,233,1
1084,0.93,-0.35,-0.14,-0.85,-3.11,-2.08,402,470,240,309,248,1
1085,0.93,-0.36,-0.15,0.18,-2.99,-2.56,399,469,238,310,250,1
1086,0.93,-0.36,-0.13,0.55,-0.61,-3.36,396,469,239,309,237,1
1087,0.93,-0.36,-0.14,-0.61,-1.1,-2.38,397,470,237,320,236,1
1088,0.92,-0.36,-0.14,-0.67,-2.32,-1.4,400,469,238,312,240,1
1089,0.92,-0.36,-0.14,0.98,-2.69,-2.75,396,466,238,308,237,1
1090,0.93,-0.36,-0.14,0.0,-2.2,-2.5,396,470,239,308,234,1
1091,0.93,-0.36,-0.13,0.18,-2.69,-1.71,400,467,240,308,235,1
1092,0.93,-0.36,-0.14,0.92,-2.87,-2.2,403,469,241,312,235,1
1093,0.92,-0.37,-0.16,0.43,-3.48,-3.3,400,467,240,312,235,1
1094,0.92,-0.36,-0.14,-0.24,-3.42,-2.38,398,465,240,313,232,1
1095,0.93,-0.36,-0.14,0.67,-2.93,-2.69,401,468,241,312,235,1
1096,0.92,-0.37,-0.14,-1.04,-3.66,-3.36,403,469,243,311,235,1
1097,0.91,-0.36,-0.14,0.55,-3.91,-1.59,398,472,241,309,237,1
1098,0.92,-0.36,-0.14,0.24,-3.6,-2.75,400,472,238,313,235,1
1099,0.92,-0.36,-0.15,0.43,-3.72,-3.17,400,467,239,309,237,1
1100,0.92,-0.36,-0.14,2.08,-3.42,-3.3,399,467,240,309,232,1
1101,0.92,-0.34,-0.13,1.16,-0.37,-5.74,402,465,244,314,234,1
1102,0.93,-0.35,-0.15,0.18,-3.48,-4.52,401,474,244,310,234,1
1103,0.92,-0.35,-0.16,2.14,-3.17,-3.97,398,472,238,311,276,1
1104,0.93,-0.34,-0.14,0.12,-2.2,-1.83,401,470,240,314,236,1
1105,0.93,-0.36,-0.15,1.83,-2.99,-3.05,398,470,241,310,235,1
1106,0.93,-0.35,-0.15,2.93,-2.93,-3.17,398,469,242,309,235,1
1107,0.93,-0.35,-0.14,1.95,-2.93,-2.69,401,473,242,314,238,1
1108,0.95,-0.35,-0.14,0.24,-4.52,-1.28,404,469,243,311,237,1
1109,0.94,-0.35,-0.13,2.26,-4.03,-2.5,400,467,246,312,237,1
1110,0.93,-0.35,-0.12,0.49,-2.81,-3.3,398,466,242,311,237,1
1111,0.92,-0.35,-0.11,3.42,-3.66,-1.46,401,477,244,313,255,1
1112,0.93,-0.35,-0.11,-1.4,-2.87,-2.93,400,469,244,314,239,1
1113,0.93,-0.35,-0.11,-0.18,-2.62,-3.42,401,469,243,313,236,1
1114,0.93,-0.36,-0.1,0.85,-3.3,-3.42,401,472,239,312,237,1
1115,0.92,-0.36,-0.12,1.28,-2.62,-1.4,402,463,243,311,236,1
1116,0.93,-0.35,-0.12,2.38,-2.81,-2.14,401,471,246,309,232,1
1117,0.92,-0.36,-0.13,1.22,-3.11,-3.85,403,485,241,311,238,1
1118,0.91,-0.36,-0.12,-0.67,-3.6,-2.14,403,469,248,314,233,1
1119,0.94,-0.37,-0.13,-0.24,-3.36,-2.14,400,473,243,313,239,1
1120,0.91,-0.35,-0.11,1.46,-2.2,0.67,397,472,246,315,237,1
1121,0.94,-0.36,-0.15,-2.26,-2.08,-3.48,401,467,240,311,237,1
1122,0.92,-0.37,-0.16,0.49,-6.9,-2.14,399,470,241,311,238,1
1123,0.89,-0.38,-0.15,1.1,-0.37,-1.1,403,470,242,312,238,1
1124,0.92,-0.38,-0.15,0.67,-2.32,-3.6,400,470,243,312,231,1
1125,0.91,-0.37,-0.16,-0.92,-2.5,-3.48,401,469,245,311,236,1
1126,0.92,-0.37,-0.14,2.69,-2.38,-2.56,399,467,245,314,235,1
1127,0.93,-0.37,-0.16,1.65,-3.66,-3.23,402,469,244,314,238,1
1128,0.92,-0.37,-0.15,-0.24,-3.11,-3.23,399,464,242,315,238,1
1129,0.91,-0.37,-0.15,-1.16,-3.17,-2.5,404,468,243,311,235,1
1130,0.89,-0.39,-0.18,0.79,-2.44,-4.39,399,473,241,314,236,1
1131,0.9,-0.38,-0.18,-1.1,-0.61,-4.58,399,472,244,312,240,1
1132,0.94,-0.36,-0.18,-0.24,-3.97,-1.59,398,469,243,314,236,1
1133,0.93,-0.36,-0.17,0.24,-3.66,-2.5,401,466,242,314,236,1
1134,0.92,-0.36,-0.14,0.06,-2.5,-3.05,398,470,244,313,234,1
1135,0.93,-0.35,-0.16,1.4,-2.87,1.34,404,471,245,314,244,1
1136,0.91,-0.37,-0.15,0.18,-3.05,-2.01,398,470,242,309,236,1
1137,0.92,-0.36,-0.15,0.73,-4.15,-0.43,406,468,244,309,239,1
1138,0.93,-0.35,-0.14,-0.61,-2.01,-2.01,400,471,244,310,236,1
1139,0.93,-0.34,-0.13,-0.24,-3.54,-0.49,399,473,241,315,239,1
1140,0.95,-0.35,-0.15,-0.24,-3.05,-4.03,399,471,243,309,234,1
1141,0.94,-0.34,-0.13,2.93,-4.94,-3.17,398,474,244,314,237,1
1142,0.91,-0.34,-0.14,-2.5,8.67,-15.01,400,469,241,309,239,1
1143,0.93,-0.34,-0.12,-0.31,1.65,-6.53,400,473,243,311,239,1
1144,0.95,-0.32,-0.12,0.49,-0.73,-4.03,400,468,242,312,239,1
1145,0.94,-0.33,-0.13,-0.73,-2.62,-2.81,397,470,243,312,234,1
1146,0.94,-0.33,-0.12,1.04,-3.91,-3.54,400,470,244,313,237,1
1147,0.93,-0.33,-0.12,-0.98,-3.48,-1.16,404,474,244,314,236,1
1148,0.93,-0.34,-0.13,0.92,-2.75,-2.2,401,469,243,314,238,1
1149,0.94,-0.33,-0.14,0.31,-5.49,-2.62,401,466,242,314,235,1
1150,0.93,-0.34,-0.14,-0.37,-2.2,-1.95,400,471,244,312,239,1
1151,0.94,-0.34,-0.13,-1.34,-3.48,-2.93,400,472,241,311,236,1
1152,0.93,-0.34,-0.14,3.48,-2.14,-3.36,400,471,243,312,238,1
1153,0.92,-0.35,-0.15,2.01,-2.44,-2.2,400,469,240,314,238,1
1154,0.94,-0.37,-0.18,2.14,-5.37,-3.97,400,469,240,313,236,1
1155,0.92,-0.36,-0.15,0.18,-1.95,-1.95,396,469,241,311,238,1
1156,0.93,-0.36,-0.15,-1.53,-1.77,-4.7,400,465,244,308,235,1
1157,0.94,-0.35,-0.17,2.01,-2.32,-4.03,400,472,244,314,234,1
1158,0.93,-0.36,-0.15,0.61,-3.17,-2.08,405,469,241,313,237,1
1159,0.94,-0.35,-0.14,0.73,-3.85,-1.16,400,473,245,315,239,1
1160,0.92,-0.36,-0.14,-2.87,-3.05,-0.55,405,469,239,311,237,1
1161,0.93,-0.35,-0.14,1.83,-3.36,-2.62,398,469,241,308,235,1
1162,0.92,-0.35,-0.14,2.2,-2.38,-2.81,401,468,243,312,237,1
1163,0.91,-0.35,-0.13,0.92,-3.85,-2.08,400,464,245,312,236,1
1164,0.91,-0.36,-0.15,-0.73,-6.53,-1.71,402,469,239,312,238,1
1165,0.93,-0.35,-0.15,1.16,-2.87,-2.81,401,469,244,312,238,1
1166,0.93,-0.36,-0.15,1.95,-2.56,-2.2,403,469,244,315,239,1
1167,0.93,-0.36,-0.14,1.34,-3.97,-1.53,395,471,240,313,233,1
1168,0.92,-0.35,-0.14,0.37,-3.11,-1.89,397,470,241,312,238,1
1169,0.93,-0.35,-0.14,1.83,-2.56,-2.26,401,474,242,318,236,1
1170,0.92,-0.36,-0.14,0.37,-2.81,-2.5,395,466,245,314,254,1
1171,0.92,-0.36,-0.14,-0.79,-1.65,-2.32,401,471,246,312,238,1
1172,0.92,-0.36,-0.14,0.12,-2.5,-2.32,398,473,243,312,238,1
1173,0.92,-0.36,-0.15,-0.37,-3.48,-1.65,399,472,242,310,238,1
1174,0.92,-0.35,-0.13,-1.1,-2.44,-2.81,400,470,245,313,238,1
1175,0.91,-0.36,-0.15,0.31,-2.26,-3.6,402,466,243,314,237,1
1176,0.92,-0.36,-0.13,-0.37,-2.14,-2.32,395,470,248,315,236,1
1177,0.93,-0.36,-0.14,0.18,-2.38,-2.32,398,470,242,315,236,1
1178,0.93,-0.35,-0.13,-0.06,-1.46,-3.54,400,469,242,312,236,1
1179,0.93,-0.36,-0.15,0.85,-2.99,-3.05,399,470,243,312,248,1
1180,0.93,-0.36,-0.15,0.98,-2.87,-2.26,401,470,242,312,235,1
1181,0.94,-0.36,-0.15,0.92,-2.62,-1.71,398,470,245,312,239,1
1182,0.93,-0.36,-0.14,0.67,-2.2,-2.14,400,469,247,312,259,1
1183,0.92,-0.36,-0.14,0.61,-3.42,-1.71,411,467,243,312,235,1
1184,0.92,-0.36,-0.15,0.37,-2.08,-2.99,401,470,241,312,239,1
1185,0.92,-0.36,-0.14,-0.37,-1.89,-3.91,401,467,243,315,236,1
1186,0.92,-0.36,-0.14,0.61,-2.69,-3.36,400,469,245,311,236,1
1187,0.93,-0.36,-0.16,0.37,-2.75,-1.83,398,471,247,312,239,1
1188,0.92,-0.36,-0.15,0.67,-3.42,-2.5,402,466,248,314,237,1
1189,0.93,-0.35,-0.13,-0.18,-2.38,-2.87,398,470,245,313,238,1
1190,0.93,-0.36,-0.14,-0.61,-0.24,-1.95,402,468,243,313,239,1
1191,0.92,-0.36,-0.13,0.24,-0.92,-3.05,399,474,242,315,236,1
1192,0.92,-0.36,-0.13,-0.55,-1.59,-2.69,400,469,246,313,239,1
1193,0.91,-0.37,-0.14,1.28,-3.36,-1.16,399,465,244,312,238,1
1194,0.92,-0.37,-0.15,-0.43,-3.23,-3.23,399,466,243,313,238,1
1195,0.91,-0.37,-0.15,1.04,-3.11,-1.53,399,473,244,315,236,1
1196,0.91,-0.36,-0.14,-0.12,-3.23,-2.69,400,466,243,312,234,1
1197,0.92,-0.36,-0.13,1.04,-2.38,-2.69,398,470,243,312,237,1
1198,0.92,-0.36,-0.14,0.98,-1.65,-2.32,399,470,244,313,237,1
1199,0.92,-0.37,-0.13,-2.14,-3.78,-1.28,397,470,245,313,238,1
1200,0.94,-0.36,-0.14,0.06,-1.04,-4.21,401,464,243,312,237,1
1201,0.94,-0.36,-0.13,3.11,-4.82,-4.76,401,468,246,310,236,1
1202,0.93,-0.35,-0.12,2.32,-4.39,-1.83,398,471,244,314,232,1
1203,0.92,-0.37,-0.15,0.49,-4.03,-4.88,396,469,245,310,239,1
1204,0.92,-0.36,-0.14,-0.12,-4.33,-5.07,397,470,243,313,236,1
1205,0.88,-0.38,-0.14,-2.5,-2.26,-0.98,402,465,242,313,237,1
1206,0.92,-0.38,-0.17,-0.79,-5.74,-0.73,396,469,246,312,237,1
1207,0.92,-0.37,-0.15,-0.55,-2.56,-2.08,402,473,242,314,235,1
1208,0.92,-0.37,-0.15,0.12,-2.87,-2.5,400,473,242,316,275,1
1209,0.95,-0.35,-0.13,1.16,-3.85,-3.6,403,469,247,313,235,1
1210,0.93,-0.36,-0.16,4.03,-2.87,-0.73,395,466,246,326,238,1
1211,0.92,-0.35,-0.13,-0.67,-1.77,-3.78,400,471,242,313,239,1
1212,0.94,-0.36,-0.17,2.62,-1.65,-6.23,399,467,243,311,237,1
1213,0.94,-0.37,-0.12,3.97,-1.22,-0.12,400,467,249,313,259,1
1214,0.92,-0.39,-0.14,-0.06,-2.69,-3.17,396,466,247,316,232,1
1215,0.92,-0.38,-0.12,-2.14,-4.03,-2.26,399,469,244,315,233,1
1216,0.93,-0.37,-0.13,1.77,-2.87,-3.3,395,471,243,316,231,1
1217,0.91,-0.38,-0.13,-0.61,-1.46,-2.32,399,472,241,313,232,1
1218,0.91,-0.38,-0.12,0.49,-0.67,-3.36,397,470,240,315,235,1
1219,0.91,-0.38,-0.13,0.37,-2.69,-3.66,399,469,243,313,230,1
1220,0.91,-0.37,-0.12,-1.89,-2.99,-1.95,400,474,242,314,230,1
1221,0.93,-0.37,-0.14,0.55,-2.93,-2.01,401,470,257,315,233,1
1222,0.92,-0.37,-0.13,-1.95,-4.46,-2.08,393,472,244,313,232,1
1223,0.93,-0.36,-0.12,0.43,-2.2,-3.72,396,469,244,312,237,1
1224,0.93,-0.36,-0.11,1.83,-2.2,-3.42,398,470,238,315,240,1
1225,0.93,-0.37,-0.12,1.77,-1.77,-3.05,398,473,246,313,234,1
1226,0.92,-0.37,-0.13,-0.67,-1.34,-2.01,402,469,244,315,237,1
1227,0.91,-0.37,-0.14,1.16,-3.11,-4.46,399,472,246,312,237,1
1228,0.92,-0.36,-0.13,-0.24,-2.26,-2.93,396,470,245,314,234,1
1229,0.92,-0.37,-0.14,1.1,-3.3,-3.36,397,471,242,312,235,1
1230,0.92,-0.37,-0.14,0.61,-3.11,-1.71,393,470,243,316,234,1
1231,0.92,-0.37,-0.13,1.89,-0.31,-3.36,398,465,243,313,237,1
1232,0.92,-0.36,-0.11,1.71,-2.44,-3.78,399,474,245,308,234,1
1233,0.93,-0.37,-0.13,6.23,-4.03,-0.37,397,468,242,314,233,1
1234,0.92,-0.38,-0.12,-0.92,-3.6,-2.08,394,474,246,315,235,1
1235,0.91,-0.38,-0.12,-0.06,-2.99,-1.77,399,470,244,314,232,1
1236,0.9,-0.38,-0.12,-0.43,-2.5,-3.36,394,469,242,326,237,1
1237,0.92,-0.38,-0.12,0.73,-3.05,-4.21,394,472,244,314,235,1
1238,0.93,-0.38,-0.13,1.53,-4.82,-2.44,398,474,246,313,236,1
1239,0.92,-0.37,-0.13,-0.61,-2.2,-1.4,400,469,240,315,237,1
1240,0.91,-0.38,-0.12,0.18,-2.26,-2.69,401,469,246,317,237,1
1241,0.92,-0.37,-0.12,0.37,-2.38,-3.3,398,464,241,313,233,1
1242,0.92,-0.35,-0.11,3.78,-4.15,-1.4,397,471,243,318,237,1
1243,0.92,-0.37,-0.12,1.1,-3.6,-1.95,398,476,244,316,231,1
1244,0.92,-0.36,-0.09,1.16,-2.69,-1.46,394,467,241,317,237,1
1245,0.92,-0.37,-0.11,-0.73,-3.48,-1.83,399,464,242,315,236,1
1246,0.92,-0.37,-0.12,0.0,-3.48,-2.5,401,470,241,315,238,1
1247,0.92,-0.37,-0.13,-0.55,-2.81,-2.14,400,470,244,318,237,1
1248,0.91,-0.37,-0.12,-0.06,-1.28,-3.05,398,475,243,310,238,1
1249,0.93,-0.37,-0.12,-0.24,-2.01,-1.71,400,469,243,316,236,1
1250,0.91,-0.37,-0.12,0.0,-2.26,-2.14,400,473,246,318,238,1
1251,0.92,-0.37,-0.12,-1.28,-1.89,-2.44,397,467,246,318,233,1
1252,0.93,-0.36,-0.12,-0.31,-1.83,-3.23,401,474,246,317,238,1
1253,0.92,-0.37,-0.13,0.24,-2.01,-3.48,399,472,242,314,233,1
1254,0.93,-0.37,-0.14,0.18,-0.73,-3.66,398,468,246,312,236,1
1255,0.93,-0.36,-0.13,1.4,-2.62,-2.93,401,475,246,316,235,1
1256,0.93,-0.36,-0.12,0.0,-1.83,-2.75,400,470,241,314,235,1
1257,0.94,-0.37,-0.14,-0.67,-3.23,-1.28,399,470,246,314,236,1
1258,0.93,-0.37,-0.13,1.53,-4.52,-0.37,395,474,244,311,235,1
1259,0.93,-0.37,-0.11,0.73,-3.54,-2.75,402,468,240,314,233,1
1260,0.92,-0.36,-0.11,-0.43,-3.05,-1.28,398,480,242,315,234,1
1261,0.92,-0.36,-0.12,1.1,-2.62,-1.04,399,473,246,315,238,1
1262,0.92,-0.37,-0.11,-1.46,-0.43,-2.5,402,466,246,315,237,1
1263,0.92,-0.37,-0.11,-0.85,-4.39,-1.89,398,474,244,312,238,1
1264,0.92,-0.37,-0.12,-0.55,-3.54,-2.69,398,471,246,314,234,1
1265,0.92,-0.37,-0.13,-0.24,-2.75,-3.17,402,474,245,312,233,1
1266,0.92,-0.36,-0.1,-1.1,-2.26,-2.08,401,474,245,316,237,1
1267,0.92,-0.37,-0.11,0.06,-2.87,-2.81,398,474,244,313,236,1
1268,0.92,-0.36,-0.1,0.85,-1.77,-3.36,400,470,256,314,236,1
1269,0.93,-0.36,-0.1,-0.55,-2.14,-1.95,402,472,242,315,239,1
1270,0.93,-0.37,-0.11,-0.85,-2.93,-2.93,399,473,241,314,234,1
1271,0.93,-0.37,-0.12,2.56,-4.88,-2.5,402,469,243,311,238,1
1272,0.92,-0.37,-0.12,1.95,-4.03,-2.14,401,471,244,313,239,1
1273,0.92,-0.37,-0.11,0.31,-5.37,-2.26,395,473,244,315,240,1
1274,0.93,-0.36,-0.13,-0.73,-0.61,-0.92,389,471,245,313,235,1
1275,0.92,-0.37,-0.11,0.43,-0.85,-0.61,399,470,244,317,238,1
1276,0.94,-0.36,-0.1,0.18,-2.2,-0.55,400,466,247,314,238,1
1277,0.93,-0.37,-0.11,-0.12,-3.6,-2.5,400,467,248,315,236,1
1278,0.92,-0.37,-0.11,-0.85,-4.15,-1.71,400,472,246,318,236,1
1279,0.92,-0.38,-0.12,-0.61,-4.39,-1.65,401,470,243,312,234,1
1280,0.92,-0.37,-0.12,1.04,-2.87,-1.4,398,474,242,315,237,1
1281,0.9,-0.39,-0.13,-1.22,-0.92,0.18,402,472,246,312,233,1
1282,0.9,-0.39,-0.1,-3.85,-3.36,-3.36,400,475,242,312,236,1
1283,0.9,-0.39,-0.13,-1.71,-4.88,-0.73,402,471,246,315,237,1
1284,0.91,-0.38,-0.12,2.56,-2.81,-1.65,399,468,246,319,237,1
1285,0.91,-0.39,-0.11,-2.87,-0.85,-4.33,400,469,243,314,235,1
1286,0.9,-0.4,-0.1,1.53,-3.72,-3.17,400,470,246,316,236,1
1287,0.9,-0.4,-0.12,1.59,-7.08,-0.67,400,469,247,321,239,1
1288,0.92,-0.4,-0.14,4.27,-2.81,-3.11,401,468,247,313,240,1
1289,0.91,-0.41,-0.14,2.5,-2.01,-2.32,403,470,243,312,241,1
1290,0.91,-0.41,-0.12,0.67,-1.95,-1.1,400,467,242,316,235,1
1291,0.9,-0.41,-0.1,2.14,-0.92,-3.36,399,474,243,311,235,1
1292,0.92,-0.4,-0.11,0.49,-3.54,-3.11,397,471,238,308,237,1
1293,0.91,-0.4,-0.1,2.08,-3.48,-4.03,401,472,237,307,234,1
1294,0.91,-0.4,-0.11,1.4,-3.72,-3.66,398,470,237,308,235,1
1295,0.91,-0.4,-0.11,0.43,-4.03,-0.49,391,471,238,308,234,1
1296,0.9,-0.41,-0.11,-0.12,-2.99,-3.36,398,473,240,309,235,1
1297,0.9,-0.41,-0.11,0.61,-3.6,-2.5,395,470,237,308,234,1
1298,0.92,-0.41,-0.13,-3.42,-2.44,-3.54,400,466,238,310,235,1
1299,0.88,-0.43,-0.15,-2.87,-6.04,-2.01,396,470,238,303,234,1
1300,0.89,-0.39,-0.1,-0.24,-2.38,-1.53,397,473,236,308,238,1
1301,0.92,-0.39,-0.14,-1.89,-4.27,1.65,402,471,241,307,235,1
1302,0.86,-0.4,-0.12,8.73,-7.08,6.65,395,469,235,310,236,1
1303,0.92,-0.4,-0.17,-1.83,-1.89,-4.82,401,470,234,304,234,1
1304,0.9,-0.39,-0.15,-0.37,-4.46,-2.44,396,469,240,309,236,1
1305,0.89,-0.38,-0.14,-0.67,-1.53,-1.04,397,468,236,307,234,1
1306,0.87,-0.4,-0.17,-0.12,-4.82,0.31,403,470,238,310,232,1
1307,0.91,-0.39,-0.14,0.24,0.43,0.12,400,468,241,307,266,1
1308,0.89,-0.4,-0.16,3.97,-1.71,-3.48,401,470,252,305,236,1
1309,0.92,-0.4,-0.17,-1.95,-0.43,-3.66,400,469,235,308,234,1
1310,0.94,-0.41,-0.16,1.59,-4.52,-3.48,392,469,239,311,235,1
1311,0.9,-0.42,-0.16,1.28,-2.81,-4.39,400,465,236,309,234,1
1312,0.89,-0.4,-0.14,0.67,-2.08,-2.5,400,473,241,307,235,1
1313,0.92,-0.4,-0.18,0.49,-3.97,-3.78,398,467,241,310,237,1
1314,0.91,-0.39,-0.15,0.31,-2.32,-3.11,393,469,238,309,233,1
1315,0.91,-0.4,-0.17,1.65,-2.81,-3.17,398,470,241,309,234,1
1316,0.87,-0.42,-0.15,-3.23,-2.87,-2.81,397,471,238,304,235,1
1317,0.9,-0.4,-0.14,1.77,-3.05,-2.5,400,468,236,309,235,1
1318,0.93,-0.41,-0.21,3.72,-4.94,-1.83,398,465,238,308,236,1
1319,0.93,-0.37,-0.16,1.4,-1.53,-2.69,395,470,241,310,232,1
1320,0.9,-0.39,-0.18,0.49,-2.75,-3.66,396,474,240,310,236,1
1321,0.93,-0.37,-0.14,0.98,-5.0,-0.67,394,470,236,310,250,1
1322,0.91,-0.37,-0.14,1.53,-1.89,-2.56,398,470,237,308,233,1
1323,0.91,-0.39,-0.17,4.76,-6.53,-4.76,394,470,240,308,236,1
1324,0.88,-0.39,-0.13,3.97,-1.4,-1.77,398,471,239,311,235,1
1325,0.92,-0.38,-0.16,-2.75,-3.05,-3.66,395,474,239,310,238,1
1326,0.94,-0.39,-0.13,-5.19,-7.81,4.64,396,465,241,306,233,1
1327,0.9,-0.39,-0.12,-1.53,-2.69,-2.14,396,470,238,326,232,1
1328,0.9,-0.4,-0.16,-2.69,-3.11,-1.53,396,472,240,318,236,1
1329,0.91,-0.39,-0.13,-0.55,-5.07,-3.11,398,469,237,311,235,1
1330,0.93,-0.37,-0.14,6.59,-0.79,-5.07,400,468,236,309,234,1
1331,0.91,-0.37,-0.11,1.59,-2.32,-5.19,396,469,235,309,243,1
1332,0.87,-0.42,-0.14,-2.56,-2.26,4.7,398,478,239,309,233,1
1333,0.87,-0.42,-0.11,5.37,-7.51,1.65,406,470,241,311,235,1
1334,0.93,-0.41,-0.15,-0.98,-1.95,-2.5,398,465,237,308,235,1
1335,0.91,-0.41,-0.17,6.35,2.01,-7.32,401,472,238,311,234,1
1336,0.88,-0.41,-0.12,-1.89,2.01,-1.65,399,467,235,311,238,1
1337,0.9,-0.41,-0.13,-1.1,-2.62,-3.36,398,467,238,311,235,1
1338,0.89,-0.42,-0.15,-0.12,-3.48,-2.32,402,468,238,311,235,1
1339,0.91,-0.41,-0.15,4.88,-3.3,-5.98,399,470,248,306,232,1
1340,0.92,-0.39,-0.16,4.21,-2.62,-2.81,398,466,239,312,235,1
1341,0.95,-0.38,-0.17,2.75,-20.63,-0.18,399,471,236,306,236,1
1342,0.9,-0.38,-0.14,1.22,-2.32,-2.5,400,465,240,309,235,1
1343,0.88,-0.4,-0.17,-2.38,-3.97,-0.61,399,464,237,312,237,1
1344,0.92,-0.41,-0.18,1.46,-8.18,1.46,400,467,240,309,236,1
1345,0.91,-0.4,-0.14,-4.94,-0.85,-0.98,398,471,236,309,235,1
1346,0.91,-0.41,-0.16,3.42,-2.87,-2.56,399,466,241,311,235,1
1347,0.89,-0.41,-0.16,0.18,-3.36,-2.01,398,465,243,308,232,1
1348,0.88,-0.43,-0.18,3.42,-4.46,-2.99,400,470,238,308,236,1
1349,0.89,-0.42,-0.16,-0.98,-4.82,-2.87,395,470,238,308,235,1
1350,0.88,-0.43,-0.17,0.92,-4.94,-0.73,398,465,238,310,237,1
1351,0.9,-0.41,-0.17,-0.31,-2.26,-2.14,400,475,240,309,247,1
1352,0.89,-0.41,-0.17,2.08,-2.99,-3.54,394,475,240,310,235,1
1353,0.89,-0.42,-0.18,-2.38,-3.11,-2.93,395,476,239,310,235,1
1354,0.88,-0.42,-0.16,-1.04,-3.17,0.43,397,473,240,311,237,1
1355,0.91,-0.4,-0.15,2.26,-2.26,-5.19,400,470,237,308,236,1
1356,0.9,-0.39,-0.16,1.77,-0.85,-2.08,397,470,235,312,235,1
1357,0.89,-0.4,-0.14,1.65,-2.38,-0.85,397,473,241,309,237,1
1358,0.91,-0.4,-0.13,-0.37,-2.26,-0.61,399,471,237,308,238,1
1359,0.91,-0.4,-0.14,-0.31,-3.36,-2.99,400,468,241,312,235,1
1360,0.88,-0.41,-0.15,-1.28,-2.5,-2.75,394,471,238,308,242,1
1361,0.9,-0.41,-0.16,-0.18,-4.58,-0.37,400,466,237,307,235,1
1362,0.92,-0.4,-0.15,0.79,-2.69,-1.77,396,472,237,309,237,1
1363,0.91,-0.41,-0.16,0.55,-3.3,-1.77,397,474,238,311,232,1
1364,0.9,-0.41,-0.16,-0.67,-3.97,-2.93,399,468,241,309,228,1
1365,0.91,-0.4,-0.16,0.79,-4.82,-3.54,399,475,238,312,235,1
1366,0.9,-0.4,-0.16,1.46,-1.83,-3.78,397,470,241,306,236,1
1367,0.9,-0.4,-0.14,0.12,-1.71,-1.65,398,471,240,311,233,1
1368,0.91,-0.4,-0.15,0.24,-2.69,-1.59,398,472,240,309,235,1
1369,0.92,-0.39,-0.13,0.43,-2.2,-3.54,397,469,236,312,236,1
1370,0.9,-0.4,-0.14,-0.24,-4.27,0.24,397,470,238,311,234,1
1371,0.92,-0.39,-0.14,-0.31,-0.43,-2.81,397,470,241,312,235,1
1372,0.91,-0.4,-0.16,-1.16,-2.87,-4.27,398,468,242,310,235,1
1373,0.92,-0.39,-0.15,1.77,-2.26,-6.16,397,472,240,310,236,1
1374,0.9,-0.39,-0.15,1.04,-1.65,-2.93,398,474,240,311,238,1
1375,0.9,-0.39,-0.12,1.89,-2.38,-1.53,401,474,241,311,235,1
1376,0.9,-0.41,-0.13,-0.98,-2.32,0.0,398,471,242,309,252,1
1377,0.91,-0.41,-0.15,0.43,-4.33,-1.4,394,467,245,312,234,1
1378,0.91,-0.4,-0.13,-1.46,-4.52,-2.2,398,470,238,305,235,1
1379,0.91,-0.4,-0.15,-0.06,-4.27,-1.65,401,468,238,309,238,1
1380,0.91,-0.39,-0.15,1.22,-2.75,-2.69,400,474,241,310,234,1
1381,0.91,-0.4,-0.15,2.2,-3.78,-3.54,394,474,237,314,235,1
1382,0.92,-0.4,-0.14,2.5,-4.09,-1.95,398,472,241,313,235,1
1383,0.89,-0.4,-0.15,-0.55,-3.91,-2.5,398,465,238,311,237,1
1384,0.91,-0.4,-0.14,0.98,-3.72,-2.75,399,477,238,313,243,1
1385,0.91,-0.39,-0.14,0.98,-2.38,-1.59,394,470,238,306,247,1
1386,0.91,-0.39,-0.13,1.1,-2.2,-1.95,397,474,240,315,236,1
1387,0.89,-0.41,-0.16,1.1,-5.86,-3.91,397,473,236,310,235,1
1388,0.89,-0.41,-0.15,1.04,-2.99,-4.46,398,471,237,313,242,1
1389,0.89,-0.41,-0.14,0.43,-3.42,-0.49,398,471,237,309,235,1
1390,0.92,-0.39,-0.12,2.62,-2.99,0.18,399,471,235,309,234,1
1391,0.93,-0.38,-0.11,3.6,-2.81,-1.65,399,470,238,309,232,1
1392,0.91,-0.38,-0.1,0.55,-3.42,-0.61,395,470,238,308,236,1
1393,0.91,-0.39,-0.13,-4.88,-3.78,1.71,399,471,241,312,232,1
1394,0.92,-0.39,-0.13,-0.55,-3.42,-2.2,399,475,238,308,236,1
1395,0.91,-0.39,-0.12,1.83,-1.4,-2.75,398,466,241,310,235,1
1396,0.91,-0.4,-0.13,2.75,-3.05,-2.32,395,474,238,309,236,1
1397,0.92,-0.39,-0.12,0.79,-2.2,-2.14,396,465,239,310,233,1
1398,0.92,-0.4,-0.13,1.16,-2.5,-3.54,396,465,241,312,232,1
1399,0.9,-0.39,-0.11,0.31,-2.87,-2.32,394,469,238,310,238,1
1400,0.9,-0.4,-0.14,-0.49,-2.44,-2.26,400,464,241,311,237,1
1401,0.91,-0.41,-0.14,-0.12,-3.36,-3.48,400,469,238,311,235,1
1402,0.91,-0.4,-0.15,0.12,-3.11,-3.66,396,465,239,308,236,1
1403,0.91,-0.39,-0.15,-2.32,-4.15,-1.71,400,470,239,311,233,1
1404,0.92,-0.38,-0.13,1.4,-2.93,-2.26,399,470,237,310,236,1
1405,0.93,-0.39,-0.17,-0.49,-4.33,-1.46,398,475,239,310,236,1
1406,0.89,-0.4,-0.16,-1.04,-4.88,-1.34,399,471,241,310,236,1
1407,0.91,-0.39,-0.17,-1.22,-2.75,-4.15,396,470,240,312,235,1
1408,0.92,-0.39,-0.18,1.83,-2.01,-3.54,400,469,237,310,238,1
1409,0.91,-0.38,-0.15,0.43,-2.14,-2.14,398,464,238,307,236,1
1410,0.92,-0.38,-0.15,1.77,-2.99,-2.32,397,473,238,310,232,1
1411,0.9,-0.39,-0.16,6.9,-2.5,-5.49,397,472,238,310,239,1
1412,0.9,-0.38,-0.15,-2.2,-4.03,-0.37,398,464,238,311,238,1
1413,0.92,-0.38,-0.15,-1.22,-4.03,-2.38,398,472,244,307,238,1
1414,0.9,-0.38,-0.14,-0.06,-3.91,-1.4,398,470,241,312,236,1
1415,0.9,-0.37,-0.12,-3.85,-2.08,-3.91,397,471,242,311,237,1
1416,0.91,-0.36,-0.12,3.3,-3.36,-8.79,401,470,240,309,239,1
1417,0.89,-0.39,-0.16,5.19,-1.04,10.56,397,468,238,314,236,1
1418,0.91,-0.41,-0.2,0.37,-2.44,-2.44,397,464,239,307,235,1
1419,0.93,-0.39,-0.16,2.01,-2.56,-0.55,395,475,240,313,238,1
1420,0.92,-0.39,-0.15,-0.06,-3.23,-2.75,398,469,241,307,235,1
1421,0.92,-0.4,-0.17,0.24,-2.93,-1.95,398,475,239,310,235,1
1422,0.9,-0.39,-0.16,-2.01,-4.09,-2.44,397,471,239,311,235,1
1423,0.9,-0.39,-0.15,-0.12,-3.17,-1.65,394,472,237,308,233,1
1424,0.93,-0.39,-0.18,-1.28,-3.11,-1.89,400,471,240,310,235,1
1425,0.91,-0.39,-0.16,-0.31,-3.11,-1.22,399,468,239,311,237,1
1426,0.9,-0.4,-0.16,1.89,-3.23,-2.08,400,474,236,310,238,1
1427,0.89,-0.4,-0.15,-1.4,-3.3,0.12,400,469,236,309,235,1
1428,0.9,-0.4,-0.16,-0.18,-3.3,-2.14,394,473,241,311,235,1
1429,0.9,-0.4,-0.15,-0.61,-3.85,-2.01,398,464,239,311,238,1
1430,0.91,-0.4,-0.17,-1.1,-2.87,-2.5,401,481,238,312,236,1
1431,0.89,-0.4,-0.17,0.12,-3.23,-2.38,399,470,239,313,235,1
1432,0.9,-0.4,-0.16,0.85,-2.62,-2.44,398,468,241,313,237,1
1433,0.89,-0.41,-0.16,-1.04,-2.32,-2.14,398,468,241,312,238,1
1434,0.89,-0.42,-0.17,-0.24,-2.62,-1.95,398,469,241,311,235,1
1435,0.89,-0.41,-0.15,1.59,-2.75,-2.93,398,471,238,313,235,1
1436,0.89,-0.41,-0.16,0.12,-3.17,-1.83,395,471,237,311,235,1
1437,0.9,-0.4,-0.15,0.0,-2.69,-2.56,397,465,239,309,235,1
1438,0.9,-0.41,-0.16,0.37,-2.93,-2.38,399,474,237,310,234,1
1439,0.9,-0.4,-0.16,0.92,-3.54,-2.75,398,470,237,313,233,1
1440,0.9,-0.41,-0.17,1.95,-3.72,-3.05,394,470,243,314,234,1
1441,0.89,-0.41,-0.17,0.0,-2.26,-1.65,396,466,241,310,245,1
1442,0.9,-0.41,-0.16,0.98,-4.09,-0.67,394,469,239,309,235,1
1443,0.89,-0.41,-0.16,0.06,-1.89,-0.24,402,472,240,306,235,1
1444,0.91,-0.41,-0.15,2.08,-2.87,-2.69,399,471,239,310,236,1
1445,0.9,-0.41,-0.14,1.04,-3.6,-2.32,400,477,242,308,236,1
1446,0.9,-0.41,-0.16,0.0,-4.09,-2.01,398,470,237,313,236,1
1447,0.91,-0.41,-0.17,0.43,-5.13,-2.81,397,473,241,314,238,1
1448,0.91,-0.4,-0.15,1.46,-3.6,-2.62,398,466,239,311,237,1
1449,0.91,-0.4,-0.14,1.95,-1.1,-3.3,397,473,241,310,235,1
1450,0.92,-0.4,-0.15,1.28,-2.56,-2.75,397,470,233,312,237,1
1451,0.92,-0.39,-0.13,-2.32,-4.27,-0.55,393,473,241,309,238,1
1452,0.9,-0.4,-0.15,-0.12,-3.36,-2.5,397,464,239,309,236,1
1453,0.91,-0.4,-0.14,0.92,-5.31,-1.46,400,472,241,311,235,1
1454,0.92,-0.4,-0.15,0.31,-4.82,-1.89,397,473,242,312,237,1
1455,0.91,-0.4,-0.15,0.37,-1.28,-4.09,395,464,239,311,265,1
1456,0.9,-0.4,-0.14,-0.55,-0.79,-1.04,396,472,241,312,238,1
1457,0.91,-0.4,-0.14,-0.49,-2.62,-2.01,393,468,241,311,237,1
1458,0.92,-0.4,-0.13,-1.95,-4.21,-1.59,396,470,241,309,239,1
1459,0.93,-0.4,-0.14,-0.12,-3.85,-3.85,400,481,239,314,244,1
1460,0.92,-0.4,-0.14,-0.79,-3.66,-3.72,396,470,241,310,239,1
1461,0.9,-0.41,-0.15,1.77,-4.33,-2.56,398,473,250,310,238,1
1462,0.91,-0.4,-0.15,1.22,-4.15,-1.89,398,469,239,313,236,1
1463,0.9,-0.41,-0.14,-0.61,-2.81,-1.65,399,470,241,312,233,1
1464,0.9,-0.4,-0.14,-0.31,-4.21,-1.59,399,465,242,312,236,1
1465,0.91,-0.41,-0.14,0.67,-3.48,-2.14,393,465,243,311,236,1
1466,0.91,-0.4,-0.14,0.61,-2.5,-2.44,398,464,240,311,238,1
1467,0.88,-0.44,-0.15,8.85,-5.98,-1.89,398,468,240,314,236,1
1468,0.86,-0.44,-0.21,-3.66,-11.78,0.61,395,475,240,314,239,1
1469,0.91,-0.42,-0.17,-4.03,1.46,-3.48,398,465,250,316,240,1
1470,0.89,-0.39,-0.16,2.62,-3.23,-8.18,396,473,239,314,266,1
1471,0.9,-0.38,-0.17,-0.79,-0.79,0.18,394,471,240,310,235,1
1472,0.9,-0.39,-0.17,-0.31,-1.65,-2.26,398,465,239,309,235,1
1473,0.91,-0.4,-0.18,-0.24,-1.77,-3.42,398,469,237,311,239,1
1474,0.89,-0.41,-0.17,0.12,-2.01,-1.59,397,474,242,313,235,1
1475,0.9,-0.41,-0.18,0.73,-2.2,-2.38,399,461,242,313,236,1
1476,0.9,-0.42,-0.18,0.37,-2.56,-3.54,397,470,240,312,236,1
1477,0.89,-0.41,-0.17,0.92,-2.5,-2.69,394,471,245,313,239,1
1478,0.9,-0.41,-0.17,-0.73,-4.03,-1.59,401,471,243,313,239,1
1479,0.9,-0.41,-0.18,-0.43,-3.11,-1.53,398,470,239,311,238,1
1480,0.9,-0.41,-0.18,0.31,-3.11,-1.95,396,474,240,313,236,1
1481,0.89,-0.41,-0.18,0.06,-2.44,-1.16,400,471,240,312,236,1
1482,0.96,-0.39,-0.16,5.25,0.37,2.87,398,470,239,313,237,1
1483,0.92,-0.39,-0.14,0.18,-2.99,-5.43,399,475,240,312,236,1
1484,0.9,-0.42,-0.15,0.49,-1.28,-3.66,398,470,242,314,236,1
1485,0.89,-0.42,-0.15,0.24,-2.81,-2.62,399,467,240,313,234,1
1486,0.91,-0.41,-0.17,1.16,-3.97,-2.62,401,470,242,312,245,1
1487,0.91,-0.4,-0.14,0.61,-2.5,-1.89,401,474,243,315,237,1
1488,0.9,-0.4,-0.14,0.92,-1.4,-2.99,397,471,238,315,240,1
1489,0.9,-0.41,-0.15,-0.37,-1.16,-2.81,397,470,238,312,238,1
1490,0.9,-0.41,-0.14,-0.06,-1.83,-2.08,398,468,242,313,239,1
1491,0.9,-0.41,-0.15,1.1,-2.5,-2.99,399,471,240,313,236,1
1492,0.91,-0.41,-0.14,1.46,-2.87,-3.23,398,470,240,316,239,1
1493,0.9,-0.41,-0.13,0.73,-3.72,-2.5,394,472,239,313,235,1
1494,0.91,-0.4,-0.13,0.79,-3.48,-2.56,397,471,244,311,240,1
1495,0.9,-0.41,-0.14,0.18,-3.11,-2.69,396,465,239,315,237,1
1496,0.91,-0.41,-0.14,0.92,-3.11,-1.83,396,474,242,313,238,1
1497,0.91,-0.41,-0.15,0.31,-3.72,-1.89,396,469,242,312,235,1
1498,0.91,-0.41,-0.13,0.37,-2.69,-2.69,398,470,237,318,237,1
1499,0.89,-0.41,-0.12,-1.46,-2.69,-2.38,398,469,240,314,237,1
1500,0.9,-0.41,-0.14,3.6,-4.39,-1.83,397,465,242,315,236,1
1501,0.9,-0.41,-0.13,0.55,-2.01,-3.23,399,474,240,314,237,1
1502,0.9,-0.41,-0.13,0.61,-3.36,-1.1,398,470,242,316,240,1
1503,0.9,-0.41,-0.12,-0.31,-2.01,-2.69,396,467,238,314,239,1
1504,0.89,-0.42,-0.14,0.49,-3.85,-1.16,399,470,240,312,237,1
1505,0.91,-0.41,-0.12,0.85,-3.3,-2.38,397,471,238,315,266,1
1506,0.9,-0.42,-0.12,-0.24,-2.26,-2.81,394,474,240,311,240,1
1507,0.9,-0.42,-0.12,-0.98,-6.35,-0.49,397,465,243,310,239,1
1508,0.91,-0.41,-0.13,1.04,-4.58,-2.62,400,470,242,314,237,1
1509,0.91,-0.4,-0.12,-1.77,-0.06,-4.76,396,474,238,314,238,1
1510,0.91,-0.4,-0.12,0.85,-3.66,-1.46,397,465,240,312,237,1
1511,0.92,-0.4,-0.12,0.43,-1.89,-4.03,397,473,240,316,236,1
1512,0.91,-0.41,-0.13,1.77,-1.95,-4.33,399,467,242,314,240,1
1513,0.91,-0.41,-0.12,0.85,-2.75,-3.05,394,468,243,313,240,1
1514,0.9,-0.41,-0.11,-0.55,-2.75,-1.59,398,474,242,313,239,1
1515,0.89,-0.41,-0.12,-0.49,-3.48,-2.75,400,466,243,315,237,1
1516,0.91,-0.4,-0.13,-1.34,-3.3,-2.99,400,472,240,315,238,1
1517,0.91,-0.4,-0.13,-0.12,-1.89,-3.3,399,473,240,312,235,1
1518,0.9,-0.4,-0.12,0.79,-3.42,-2.87,397,473,240,313,237,1
1519,0.9,-0.4,-0.12,-1.1,-2.87,-2.62,399,465,238,314,234,1
1520,0.91,-0.4,-0.11,0.67,-2.93,-1.71,398,473,238,316,235,1
1521,0.9,-0.4,-0.12,2.5,-3.42,-1.04,395,474,242,317,235,1
1522,0.9,-0.41,-0.12,1.77,-2.5,-2.87,395,466,243,316,237,1
1523,0.9,-0.41,-0.14,0.37,-3.6,-2.5,397,466,238,313,237,1
1524,0.91,-0.4,-0.14,0.61,-3.66,-2.38,398,465,239,313,239,1
1525,0.9,-0.4,-0.14,1.77,-2.38,-2.56,399,471,238,314,233,1
1526,0.91,-0.4,-0.12,0.92,-2.26,-2.75,397,472,240,314,241,1
1527,0.91,-0.4,-0.13,0.55,-3.66,-2.5,398,471,239,312,240,1
1528,0.84,-0.33,0.12,-5.43,18.74,9.7,245,276,212,473,429,1
1529,0.95,-0.37,0.2,-18.74,1.53,14.1,241,281,216,475,433,1
1530,0.89,-0.46,0.1,-6.77,-3.54,-6.53,241,282,212,479,436,1
1531,0.91,-0.46,0.09,1.4,3.3,-5.68,242,283,212,474,433,1
1532,0.87,-0.45,0.19,-7.08,-3.66,-15.75,245,285,220,479,432,1
1533,0.87,-0.46,0.15,2.99,-8.97,1.04,239,287,218,471,434,1
1534,0.89,-0.44,0.14,-2.14,-6.84,-0.92,243,284,215,478,430,1
1535,0.92,-0.44,0.12,-8.18,-19.04,2.75,244,284,216,473,435,1
1536,0.84,-0.38,0.19,-3.36,22.95,-18.98,242,286,217,475,435,1
1537,1.01,-0.49,0.08,27.47,-22.83,3.23,244,285,215,468,431,1
1538,0.93,-0.43,-0.02,12.39,-16.91,5.19,245,285,214,476,434,1
1539,0.97,-0.45,-0.03,-14.16,7.51,-27.22,246,285,213,476,433,1
1540,0.81,-0.37,-0.05,-13.12,-19.71,2.56,243,284,219,476,433,1
1541,0.91,-0.38,0.09,5.19,-34.12,13.37,243,286,215,476,432,1
1542,0.83,-0.38,0.18,13.12,-11.96,9.22,245,284,219,475,435,1
1543,0.87,-0.4,0.1,-11.72,-3.05,-2.69,245,284,218,478,436,1
1544,0.9,-0.41,0.06,13.31,-10.38,-1.16,245,286,217,471,433,1
1545,0.9,-0.4,0.06,-15.26,0.31,-6.1,244,285,220,480,434,1
1546,0.91,-0.43,0.03,-14.34,4.15,-7.63,242,289,217,479,433,1
1547,0.95,-0.36,-0.14,-7.39,1.1,-10.93,245,290,221,475,433,1
1548,0.98,-0.35,-0.06,-10.25,6.96,-10.31,247,289,216,482,435,1
1549,0.95,-0.42,-0.04,-43.03,-10.38,7.81,243,291,221,472,433,1
1550,0.91,-0.33,0.0,14.59,-4.7,-6.29,237,293,220,476,432,1
1551,0.92,-0.37,-0.05,56.46,-9.03,-12.76,247,294,229,477,437,1
1552,0.92,-0.35,0.01,5.07,-1.04,-4.88,247,294,221,479,436,1
1553,0.84,-0.38,0.03,19.9,-9.58,-0.73,247,296,219,474,434,1
1554,0.96,-0.47,-0.0,9.46,-6.9,11.29,249,294,222,479,435,1
1555,0.98,-0.36,-0.09,17.76,-9.89,3.6,247,296,221,478,435,1
1556,0.67,-0.47,0.1,-1.46,21.79,-6.96,249,295,223,481,438,1
1557,0.86,-0.41,0.08,7.14,-4.52,-4.27,248,295,223,481,430,1
1558,0.93,-0.43,0.05,3.48,-11.23,3.23,244,293,224,475,430,1
1559,0.82,-0.49,0.06,-4.58,-8.61,2.75,247,295,221,480,433,1
1560,1.07,-0.36,0.02,10.99,10.99,-22.4,245,296,226,474,434,1
1561,0.87,-0.41,0.05,-1.46,-27.95,12.88,247,295,220,475,435,1
1562,0.9,-0.41,0.0,-13.12,3.78,-5.07,248,295,221,476,434,1
1563,0.9,-0.41,-0.01,0.49,-5.92,-1.65,247,299,228,477,437,1
1564,0.89,-0.4,0.04,-2.14,-3.3,-0.67,246,296,224,473,437,1
1565,0.93,-0.39,0.01,3.17,-1.71,-3.48,249,297,226,480,437,1
1566,0.93,-0.38,0.04,1.1,-2.75,-2.32,247,297,221,477,434,1
1567,0.92,-0.38,0.02,-0.85,-1.4,-2.2,244,295,220,471,437,1
1568,0.9,-0.38,0.02,-2.75,4.76,-6.9,249,300,224,476,433,1
1569,0.9,-0.36,0.04,-1.4,2.75,-7.45,248,298,221,477,438,1
1570,0.93,-0.34,0.05,-3.23,-1.28,-2.81,248,300,224,476,438,1
1571,0.91,-0.33,0.05,2.5,-0.67,-3.6,255,296,223,471,435,1
1572,0.94,-0.34,0.07,-0.24,-3.23,-2.08,248,299,224,473,437,1
1573,0.94,-0.33,0.06,-2.69,-0.31,-2.01,246,297,223,481,438,1
1574,0.95,-0.33,0.03,0.31,-2.99,0.12,249,302,226,477,438,1
1575,0.9,-0.34,0.07,4.88,3.97,-6.71,248,302,224,480,437,1
1576,0.93,-0.34,0.11,-1.46,-4.64,-0.12,250,300,226,476,434,1
1577,0.92,-0.35,0.08,-0.79,4.52,-3.91,249,303,223,480,438,1
1578,0.93,-0.36,0.08,1.28,-3.91,-2.01,253,300,222,478,437,1
1579,0.96,-0.34,0.08,-2.38,6.1,-2.81,254,296,226,477,439,1
1580,0.86,-0.43,-0.08,-1.34,-4.64,4.76,263,317,222,429,441,1
1581,0.83,-0.45,0.09,-0.55,13.37,-17.33,249,308,217,456,432,1
1582,0.94,-0.41,0.03,-6.53,0.31,-2.99,248,309,224,474,430,1
1583,0.91,-0.4,0.05,15.99,-0.37,-4.64,249,307,229,469,433,1
1584,0.95,-0.38,0.04,-3.97,-8.79,-3.36,251,307,228,472,431,1
1585,0.88,-0.34,-0.01,9.34,-3.11,-1.77,253,311,225,478,430,1
1586,0.92,-0.36,0.05,9.03,-5.25,-8.06,254,310,233,480,434,1
1587,0.92,-0.34,0.07,-5.07,-1.1,-3.6,250,314,233,470,431,1
1588,0.94,-0.34,0.05,1.04,-10.93,1.65,251,313,232,476,436,1
1589,0.95,-0.38,0.04,-10.68,-0.85,-1.28,253,313,233,480,433,1
1590,0.93,-0.37,-0.08,-9.03,-0.24,5.62,263,313,220,476,435,1
1591,0.88,-0.43,-0.09,19.35,-1.34,-3.66,254,295,212,472,437,1
1592,0.9,-0.35,0.09,-82.4,43.52,-12.39,255,289,220,475,432,1
1593,0.92,-0.4,-0.05,-32.04,-21.42,-17.09,247,279,218,477,429,1
1594,0.92,-0.27,-0.24,5.86,-3.17,13.31,245,274,218,459,423,1
1595,0.91,-0.47,-0.17,1.59,2.5,8.3,243,270,225,472,425,1
1596,0.99,-0.3,-0.23,8.67,-20.51,-18.01,242,269,226,472,426,1
1597,0.87,-0.41,-0.0,-13.55,-3.6,16.36,246,275,226,479,428,1
1598,0.96,-0.39,-0.09,-3.66,-13.92,2.14,244,274,226,478,427,1
1599,0.9,-0.45,-0.18,-9.58,-6.1,-3.6,249,278,226,477,431,1
1600,0.9,-0.41,-0.19,-0.24,-9.16,-0.61,246,281,228,478,430,1
1601,0.87,-0.41,-0.17,-15.63,-2.62,3.97,248,281,227,478,432,1
1602,0.88,-0.42,-0.17,-0.98,-4.46,-1.4,246,283,227,475,425,1
1603,0.94,-0.43,-0.17,26.55,-1.77,9.22,262,281,229,479,427,1
1604,0.86,-0.46,-0.13,2.14,10.99,-15.63,250,285,230,469,427,1
1605,0.88,-0.41,-0.13,1.28,-2.99,-2.99,251,282,230,476,427,1
1606,0.88,-0.4,-0.11,-6.1,-2.2,-2.69,248,285,234,478,433,1
1607,0.9,-0.39,-0.1,-0.98,-3.6,-0.55,250,286,232,477,435,1
1608,0.94,-0.44,-0.09,18.13,-0.73,-13.06,250,298,231,483,429,1
1609,0.91,-0.41,-0.14,-4.52,-5.86,0.37,249,298,233,477,432,1
1610,0.9,-0.4,-0.17,-1.04,-5.37,-0.73,248,300,235,480,433,1
1611,0.91,-0.42,-0.13,-2.87,-2.26,-1.83,249,300,235,475,434,1
1612,0.9,-0.41,-0.15,2.14,-3.54,-2.38,250,301,235,484,429,1
1613,0.91,-0.43,-0.11,14.89,-3.6,-4.03,250,298,235,479,433,1
1614,0.89,-0.39,-0.16,-3.11,-1.83,-2.62,248,300,238,478,429,1
1615,0.9,-0.39,-0.16,4.7,-1.34,-4.64,249,299,234,481,430,1
1616,0.92,-0.38,-0.14,2.2,-3.6,-2.93,254,297,235,477,429,1
1617,0.92,-0.39,-0.1,-3.72,0.73,-4.39,250,304,239,478,432,1
1618,0.91,-0.38,-0.16,-1.83,-3.3,-1.71,253,302,236,476,433,1
1619,0.91,-0.39,-0.15,3.78,-3.05,-2.56,249,303,237,481,434,1
1620,0.91,-0.4,-0.15,5.0,-4.21,-3.6,254,311,236,482,435,1
1621,0.93,-0.42,-0.11,-1.83,-2.81,-1.71,253,301,240,478,435,1
1622,0.91,-0.41,-0.14,-0.98,-3.97,-2.14,247,301,238,478,433,1
1623,0.9,-0.39,-0.13,2.5,-2.26,-3.6,251,301,238,475,435,1
1624,0.9,-0.41,-0.13,0.92,-0.31,-4.82,253,301,239,474,433,1
1625,0.9,-0.41,-0.13,-1.28,-1.59,-2.2,251,302,235,480,432,1
1626,0.9,-0.4,-0.15,2.56,-3.72,-2.87,251,302,237,475,434,1
1627,0.93,-0.41,-0.14,-0.98,-9.34,-0.55,255,306,236,478,432,1
1628,0.88,-0.4,-0.14,1.77,-3.91,-2.32,252,304,239,482,433,1
1629,0.9,-0.4,-0.16,1.46,-2.14,-3.3,253,316,239,479,434,1
1630,0.91,-0.42,-0.15,0.0,-5.0,-2.01,254,304,242,479,430,1
1631,0.91,-0.4,-0.14,-0.43,-0.31,-3.11,260,302,238,472,428,1
1632,0.92,-0.41,-0.13,1.46,-4.52,-2.93,254,304,236,480,430,1
1633,0.91,-0.43,-0.1,-6.47,-1.77,-1.71,254,302,239,475,430,1
1634,0.9,-0.38,-0.15,0.67,-2.2,-2.93,253,301,236,478,431,1
1635,0.91,-0.4,-0.11,1.46,0.18,-5.0,253,305,236,473,432,1
1636,0.91,-0.39,-0.11,3.6,-3.78,-3.42,253,302,237,474,432,1
1637,0.91,-0.39,-0.12,-0.49,-4.52,-1.4,253,305,239,478,433,1
1638,0.89,-0.38,-0.1,-1.16,0.73,-7.39,255,302,249,481,427,1
1639,0.93,-0.36,-0.09,4.94,-6.41,-2.01,252,305,236,481,429,1
1640,0.96,-0.32,-0.05,-16.72,-3.85,13.43,254,302,240,481,431,1
1641,0.87,-0.51,-0.18,-10.68,-5.13,-12.88,252,303,237,474,432,1
1642,0.93,-0.37,-0.15,-9.46,-4.03,4.46,253,302,239,475,434,1
1643,0.89,-0.41,-0.13,-21.0,-5.68,8.18,256,305,237,480,428,1
1644,0.9,-0.36,-0.2,-1.46,-5.0,-2.32,248,305,240,473,430,1
1645,0.93,-0.37,-0.17,0.79,-2.87,-7.63,254,305,237,488,434,1
1646,0.92,-0.35,-0.18,-5.0,-0.98,-1.34,255,306,237,476,430,1
1647,0.89,-0.37,-0.22,5.13,2.56,-2.5,249,308,242,481,430,1
1648,0.92,-0.37,-0.18,-1.16,-3.6,-1.28,254,305,240,480,432,1
1649,0.9,-0.38,-0.17,0.12,-2.32,-3.11,253,305,241,479,432,1
1650,0.91,-0.38,-0.17,2.75,-2.26,-3.17,252,308,241,478,435,1
1651,0.91,-0.38,-0.2,4.88,-1.83,-3.36,253,305,239,484,435,1
1652,0.9,-0.38,-0.17,1.89,-3.48,-0.24,256,308,237,481,431,1
1653,0.91,-0.38,-0.18,7.87,-1.65,-4.09,250,304,239,473,432,1
1654,0.92,-0.38,-0.16,0.79,6.29,-6.35,254,308,241,476,431,1
1655,0.93,-0.36,-0.09,2.01,1.04,-4.46,253,303,238,478,431,1
1656,0.94,-0.36,-0.09,-0.12,-5.37,-1.53,253,301,234,478,427,1
1657,0.93,-0.36,-0.09,0.37,-1.65,-3.23,255,307,240,481,430,1
1658,0.93,-0.36,-0.11,2.01,-3.23,-3.05,277,304,240,477,427,1
1659,0.92,-0.37,-0.1,0.79,0.31,-4.33,256,307,237,479,433,1
1660,0.94,-0.35,-0.11,2.62,-2.75,-4.76,252,309,241,475,435,1
1661,0.94,-0.36,-0.1,1.53,-3.72,-2.93,256,306,244,474,431,1
1662,0.95,-0.35,-0.07,1.04,-1.71,-4.21,253,307,237,478,428,1
1663,0.92,-0.35,-0.1,1.53,-3.23,-3.97,255,306,239,480,428,1
1664,0.94,-0.34,-0.07,-0.31,-2.75,-2.44,250,305,238,473,431,1
1665,0.94,-0.34,-0.1,2.32,-3.11,-1.89,253,305,236,476,436,1
1666,0.94,-0.36,-0.09,-0.06,-1.89,-2.44,257,308,236,479,430,1
1667,0.94,-0.35,-0.08,0.79,-4.33,-1.34,254,307,237,477,432,1
1668,0.93,-0.36,-0.08,-0.49,-2.93,-1.89,253,305,241,477,433,1
1669,0.93,-0.34,-0.08,1.46,-3.91,-2.56,253,308,237,482,430,1
1670,0.94,-0.35,-0.08,-0.92,-2.87,-1.83,250,303,237,473,430,1
1671,0.93,-0.35,-0.1,0.55,-2.44,-4.46,255,318,239,477,433,1
1672,0.93,-0.35,-0.07,1.89,-3.54,-3.6,257,307,234,473,433,1
1673,0.94,-0.35,-0.09,1.28,-3.05,-2.08,254,306,234,475,432,1
1674,0.93,-0.36,-0.09,0.18,-1.95,-5.68,256,303,240,482,433,1
1675,0.95,-0.35,-0.09,4.76,-5.31,-3.11,251,305,240,483,431,1
1676,0.93,-0.37,-0.09,3.48,-4.58,1.34,251,305,238,473,429,1
1677,0.92,-0.39,-0.06,-1.04,-6.41,-0.24,252,304,238,478,432,1
1678,0.93,-0.38,-0.07,-4.27,-1.28,-2.44,253,307,236,475,430,1
1679,0.91,-0.4,-0.06,2.75,-4.39,-2.01,262,308,236,475,429,1
1680,0.92,-0.39,-0.12,3.78,-4.09,-1.77,259,301,233,475,429,1
1681,0.89,-0.38,-0.11,1.89,-1.4,-3.54,255,297,243,485,430,1
1682,0.93,-0.37,-0.05,-3.85,2.08,-3.48,254,300,238,476,433,1
1683,0.97,-0.36,-0.1,3.3,-5.25,-4.58,266,301,237,472,430,1
1684,0.94,-0.36,-0.08,2.26,-4.82,-2.14,256,304,240,474,431,1
1685,0.92,-0.36,-0.07,2.14,-3.48,-2.81,254,304,236,478,431,1
1686,0.92,-0.37,-0.07,5.07,-2.93,-3.05,256,304,244,481,430,1
1687,0.92,-0.36,-0.07,1.46,-1.77,-3.11,265,300,238,479,427,1
1688,0.94,-0.36,-0.06,0.55,-3.23,-2.44,255,303,240,477,429,1
1689,0.94,-0.36,-0.04,-1.04,-1.59,-2.87,254,307,242,480,427,1
1690,0.93,-0.37,-0.06,0.12,-2.69,-2.44,255,303,239,482,430,1
1691,0.93,-0.36,-0.04,0.24,-2.44,-3.42,257,305,237,479,429,1
1692,0.94,-0.38,-0.05,-7.75,-3.23,-1.65,253,300,243,477,429,1
1693,0.94,-0.33,-0.1,-11.9,-4.94,-0.85,255,303,238,467,428,1
1694,0.92,-0.38,-0.08,-1.83,-3.3,0.12,255,305,243,475,429,1
1695,0.93,-0.36,-0.07,1.16,-3.66,-2.99,253,303,242,475,430,1
1696,0.95,-0.36,-0.08,3.85,-6.53,-1.77,253,303,239,475,429,1
1697,0.93,-0.35,-0.04,0.85,-2.14,-2.99,293,303,245,478,428,1
1698,0.93,-0.37,-0.08,0.37,-2.44,-3.42,259,306,239,478,429,1
1699,0.93,-0.36,-0.05,-0.06,-4.76,-1.46,256,304,243,475,428,1
1700,0.93,-0.38,-0.07,0.55,-3.11,-2.69,255,305,240,477,428,1
1701,0.94,-0.36,-0.05,-0.31,-2.56,-2.93,262,303,241,471,431,1
1702,0.94,-0.35,-0.06,2.2,-4.21,-2.14,254,307,241,476,426,1
1703,0.94,-0.36,-0.05,2.81,-2.69,-1.04,255,305,254,479,426,1
1704,0.92,-0.37,-0.04,-1.04,-1.95,-2.5,256,305,242,481,428,1
1705,0.93,-0.36,-0.05,6.29,-5.13,-2.81,256,305,243,477,428,1
1706,0.95,-0.37,-0.02,3.48,-3.42,-3.11,254,307,247,481,430,1
1707,0.9,-0.38,-0.02,10.44,-4.27,-6.47,256,307,240,477,431,1
1708,0.91,-0.4,-0.03,1.04,-2.08,5.37,256,303,241,476,427,1
1709,0.93,-0.4,-0.03,1.95,-2.62,-0.98,254,305,244,477,427,1
1710,0.92,-0.4,-0.02,3.54,-4.76,-4.21,254,308,241,482,426,1
1711,0.93,-0.38,-0.02,-2.26,-5.0,-0.85,254,307,239,476,433,1
1712,0.9,-0.39,-0.05,8.36,0.0,-3.91,256,305,244,476,428,1
1713,0.92,-0.4,-0.03,-1.59,-2.2,-5.8,254,301,240,477,431,1
1714,0.94,-0.36,-0.02,-3.6,-5.8,-4.46,260,306,241,477,429,1
1715,0.91,-0.41,-0.05,17.21,9.64,11.47,258,303,239,479,426,1
1716,0.91,-0.37,0.08,20.57,-54.26,6.16,255,302,242,472,430,1
1717,0.9,-0.44,-0.0,-7.02,-3.54,-2.69,255,305,251,478,430,1
1718,0.9,-0.43,-0.01,-1.59,-3.36,-2.69,257,307,243,480,433,1
1719,0.93,-0.41,-0.04,2.2,-3.42,-3.78,255,304,247,472,432,1
1720,0.91,-0.43,-0.02,0.31,-9.52,0.92,258,307,242,478,428,1
1721,0.94,-0.42,-0.06,-1.1,-5.68,-1.22,256,305,242,480,428,1
1722,0.89,-0.4,-0.09,10.56,-10.86,-1.65,256,303,241,478,428,1
1723,0.93,-0.43,-0.04,2.32,-3.6,-1.59,251,306,245,477,432,1
1724,0.9,-0.42,-0.03,-1.65,-2.75,-1.65,254,305,243,473,428,1
1725,0.89,-0.43,-0.05,-0.67,-1.34,-2.01,259,309,245,482,431,1
1726,0.91,-0.43,-0.05,3.17,-4.64,-2.99,255,306,242,473,431,1
1727,0.89,-0.44,-0.04,-1.89,-0.24,-4.94,256,304,243,474,431,1
1728,0.85,-0.44,-0.04,3.05,-6.9,-1.1,260,307,246,479,429,1
1729,0.89,-0.43,-0.04,-0.92,-0.49,-2.62,286,307,244,477,430,1
1730,0.92,-0.43,-0.06,3.72,-3.66,-2.99,253,306,245,475,427,1
1731,0.92,-0.44,-0.04,1.22,-4.39,-0.49,259,307,245,477,429,1
1732,0.9,-0.45,-0.06,0.98,-4.03,-0.55,256,308,244,478,433,1
1733,0.91,-0.44,-0.05,1.77,-2.26,-3.17,260,307,246,477,432,1
1734,0.89,-0.45,-0.06,-1.28,-1.04,-2.69,256,307,250,477,433,1
1735,0.9,-0.45,-0.05,-0.37,-1.46,-2.44,258,305,243,478,431,1
1736,0.89,-0.45,-0.06,2.32,-3.48,-3.72,258,307,245,480,431,1
1737,0.89,-0.45,-0.04,-1.1,-4.15,-1.22,254,308,247,475,432,1
1738,0.89,-0.44,-0.05,1.28,-3.72,-2.75,256,307,243,480,433,1
1739,0.9,-0.44,-0.07,-0.61,-3.23,-2.08,255,307,244,478,434,1
1740,0.89,-0.46,-0.06,0.79,-2.32,-2.81,257,307,244,483,427,1
1741,0.9,-0.44,-0.05,-1.16,-2.87,-2.81,260,306,244,478,429,1
1742,0.9,-0.44,-0.03,-1.4,-1.28,-2.81,257,309,241,472,429,1
1743,0.9,-0.44,-0.05,1.46,-3.54,-2.01,257,305,238,478,431,1
1744,0.91,-0.45,-0.03,-2.93,-3.85,-1.04,259,305,240,482,433,1
1745,0.89,-0.46,-0.04,6.47,-5.37,-4.09,257,318,241,478,432,1
1746,0.9,-0.45,-0.04,-4.76,-2.01,-0.61,260,311,242,478,429,1
1747,0.9,-0.44,-0.06,2.69,-7.26,-1.22,258,312,247,477,431,1
1748,0.89,-0.45,-0.02,0.37,-1.65,-4.39,261,309,245,480,430,1
1749,0.89,-0.45,-0.06,3.54,-4.94,-3.6,261,308,244,478,433,1
1750,0.89,-0.44,-0.05,1.77,-1.4,-4.88,257,309,246,480,435,1
1751,0.89,-0.45,-0.03,0.18,-4.09,-1.65,260,310,247,483,432,1
1752,0.9,-0.44,-0.04,-0.55,-3.23,-2.38,257,308,245,482,430,1
1753,0.9,-0.44,-0.04,-1.1,-4.03,-1.04,260,311,244,479,435,1
1754,0.9,-0.43,-0.04,-3.3,-0.92,-3.48,259,310,252,472,432,1
1755,0.88,-0.45,-0.07,1.34,-3.11,-1.89,258,311,243,482,428,1
1756,0.91,-0.44,-0.04,1.16,-5.49,-2.08,261,311,244,480,434,1
1757,0.89,-0.45,-0.01,2.87,-5.19,-1.1,259,311,247,482,426,1
1758,0.88,-0.44,-0.04,0.0,-1.59,-2.2,258,310,246,480,434,1
1759,0.9,-0.45,-0.03,-1.4,-3.48,-1.4,261,312,243,480,429,1
1760,0.88,-0.45,-0.05,1.53,-3.85,-2.62,259,310,248,480,430,1
1761,0.9,-0.45,-0.04,0.24,-2.69,-2.75,259,311,248,478,431,1
1762,0.9,-0.44,-0.05,2.08,-3.11,-2.99,260,313,243,476,429,1
1763,0.92,-0.44,-0.05,-2.69,-4.76,-3.48,262,310,248,478,434,1
1764,0.91,-0.44,-0.05,-2.01,-1.83,-3.78,262,312,247,475,431,1
1765,0.9,-0.44,-0.04,-4.03,-0.06,-2.32,263,312,245,476,434,1
1766,0.89,-0.45,-0.06,2.56,-3.05,-3.72,260,310,249,478,435,1
1767,0.9,-0.45,-0.04,-2.14,-4.39,-0.18,261,311,247,480,432,1
1768,0.91,-0.44,-0.04,-1.71,-2.56,-2.44,261,311,247,477,432,1
1769,0.89,-0.45,-0.05,1.89,-3.54,-2.5,259,312,246,479,432,1
1770,0.88,-0.46,-0.05,-0.98,-1.04,-3.17,262,308,245,479,432,1
1771,0.89,-0.45,-0.05,1.22,-2.99,-2.62,259,307,243,482,430,1
1772,0.9,-0.43,-0.04,0.18,-1.65,-3.91,259,310,247,478,432,1
1773,0.89,-0.44,-0.06,2.38,-2.99,-3.6,257,311,248,479,434,1
1774,0.89,-0.44,-0.05,-0.24,-2.08,-2.87,261,312,245,479,429,1
1775,0.9,-0.43,-0.06,1.1,-2.75,-3.66,260,311,245,481,432,1
1776,0.91,-0.43,-0.06,-2.01,-3.66,-2.93,262,311,245,473,428,1
1777,0.9,-0.43,-0.05,-0.92,-0.79,-2.44,263,311,246,480,432,1
1778,0.9,-0.43,-0.08,3.91,-4.76,-2.75,262,313,246,477,433,1
1779,0.9,-0.44,-0.06,-0.43,-2.69,-3.6,277,310,245,481,434,1
1780,0.9,-0.44,-0.07,-1.04,0.92,-4.27,260,314,244,477,430,1
1781,0.9,-0.43,-0.05,3.23,-2.38,-2.99,263,314,243,483,435,1
1782,0.91,-0.44,-0.06,0.06,-3.66,-1.89,260,312,243,479,433,1
1783,0.9,-0.44,-0.06,0.31,-3.66,-2.01,261,315,244,482,431,1
1784,0.9,-0.44,-0.04,-1.34,-3.42,-1.65,263,308,246,482,427,1
1785,0.9,-0.44,-0.05,-0.61,-1.34,-2.69,260,311,245,479,427,1
1786,0.9,-0.44,-0.08,-0.12,-4.76,-1.77,261,311,244,480,433,1
1787,0.9,-0.44,-0.03,-3.6,-2.14,-1.4,259,311,244,478,432,1
1788,0.9,-0.44,-0.08,6.53,-2.99,-5.49,258,314,252,478,430,1
1789,0.92,-0.42,-0.07,0.85,-4.52,-2.99,259,313,246,478,428,1
1790,0.89,-0.44,-0.06,0.0,-1.22,-2.5,261,312,254,480,433,1
1791,0.89,-0.44,-0.06,2.87,-3.85,-3.17,258,311,242,482,431,1
1792,0.9,-0.44,-0.06,1.34,-3.17,-2.44,261,311,249,481,434,1
1793,0.89,-0.45,-0.05,-1.59,-2.2,-2.2,262,312,247,480,432,1
1794,0.89,-0.44,-0.04,-1.83,-4.82,-2.87,260,312,247,472,432,1
1795,0.89,-0.43,-0.08,5.49,-7.93,-4.03,256,298,246,475,432,1
1796,0.9,-0.42,-0.06,1.34,-0.31,-2.75,253,295,245,477,427,1
1797,0.91,-0.42,-0.07,-3.11,-4.88,-1.83,255,297,247,472,430,1
1798,0.91,-0.42,-0.07,0.37,-4.33,-2.08,253,295,242,473,431,1
1799,0.92,-0.43,-0.07,1.83,-6.29,-2.14,256,298,241,474,431,1
1800,0.85,-0.44,-0.05,-8.36,-13.73,8.54,255,299,247,482,433,1
1801,0.84,-0.57,-0.15,-7.14,3.91,-0.18,254,298,242,474,430,1
1802,0.91,-0.49,-0.18,4.15,3.23,-6.41,254,298,244,470,435,1
1803,0.78,-0.46,-0.22,8.3,1.28,-1.1,256,301,245,473,430,1
1804,0.86,-0.5,-0.09,-6.65,15.38,-9.46,257,299,242,475,432,1
1805,0.87,-0.48,-0.13,-1.16,-4.27,-0.43,256,301,248,484,433,1
1806,0.83,-0.43,-0.22,15.32,2.44,-12.57,256,304,245,476,434,1
1807,0.91,-0.51,-0.09,12.82,-4.15,-7.57,258,306,244,476,430,1
1808,0.86,-0.51,-0.11,-10.31,-0.43,0.55,257,305,248,473,430,1
1809,0.86,-0.45,-0.11,6.16,-2.08,-7.63,260,305,248,475,432,1
1810,0.9,-0.42,-0.09,10.13,0.43,-16.42,260,309,246,481,433,1
1811,0.93,-0.37,-0.08,-6.71,-3.05,-1.71,260,308,249,481,430,1
1812,0.89,-0.42,-0.08,-2.2,-3.78,-0.61,264,316,252,481,432,1
1813,0.89,-0.41,-0.07,-29.24,2.26,9.77,266,321,250,476,433,1
1814,0.88,-0.45,-0.2,5.62,-6.35,-2.75,271,337,259,482,434,1
1815,0.91,-0.42,-0.29,15.26,-18.13,-2.99,262,412,284,481,427,1
1816,0.87,-0.47,-0.17,5.98,-0.18,-5.49,248,389,258,477,430,1
1817,0.85,-0.43,-0.1,-19.96,1.28,0.24,247,383,255,475,428,1
1818,0.89,-0.44,-0.13,8.36,0.43,-6.71,251,380,246,483,430,1
1819,0.87,-0.41,-0.13,6.65,-4.33,-2.99,243,375,242,476,432,1
1820,0.9,-0.4,-0.06,1.89,-2.62,-6.23,244,370,241,481,429,1
1821,0.91,-0.34,-0.15,-0.67,-6.71,2.99,245,369,242,474,435,1
1822,0.89,-0.38,-0.19,7.39,-4.88,-7.08,244,373,243,473,432,1
1823,0.93,-0.43,-0.27,-36.38,-36.87,-0.98,243,364,241,475,433,1
1824,0.99,-0.31,-0.18,-18.43,-1.89,-11.78,253,354,240,477,435,1
1825,0.94,-0.26,-0.25,-3.6,-13.61,-14.04,245,355,239,472,430,1
1826,0.93,-0.24,-0.26,-0.92,-2.38,-3.66,244,356,237,468,432,1
1827,0.93,-0.23,-0.27,7.32,0.61,-3.42,245,355,238,476,430,1
1828,0.89,-0.28,-0.22,-36.99,-44.25,0.79,243,363,240,469,426,1
1829,0.85,-0.21,-0.46,13.06,4.64,-4.27,251,368,249,473,428,1
1830,0.88,-0.24,-0.38,-9.28,-6.16,4.76,260,360,249,473,429,1
1831,0.89,-0.21,-0.42,-7.45,13.79,1.16,261,337,251,475,425,1
1832,0.89,-0.22,-0.44,4.27,5.92,-5.68,262,377,260,474,426,1
1833,0.98,-0.14,-0.34,-29.66,-0.24,-39.79,256,311,305,474,416,1
1834,0.92,-0.12,-0.34,22.16,3.97,25.76,235,265,267,475,409,1
1835,0.94,-0.26,-0.24,3.54,-6.71,-0.55,236,263,427,475,410,1
1836,0.94,-0.32,-0.18,27.47,8.36,-5.25,240,268,434,479,417,1
1837,0.9,-0.3,-0.2,5.8,5.86,-7.2,240,284,212,472,413,1
1838,0.89,-0.25,-0.01,3.66,20.14,-23.93,235,284,216,467,418,1
1839,0.88,-0.33,-0.21,23.68,10.93,4.33,237,291,195,449,420,1
1840,0.93,-0.3,-0.22,9.89,-36.8,-8.12,237,297,215,474,425,1
1841,0.81,-0.4,-0.32,45.41,12.82,-6.35,241,289,222,473,416,1
1842,0.9,-0.34,-0.13,-6.04,-8.79,1.71,241,296,220,473,421,1
1843,0.91,-0.38,-0.19,6.65,-0.67,-9.28,244,296,227,477,420,1
1844,0.9,-0.42,-0.1,-17.09,-1.4,0.61,241,295,224,475,424,1
1845,0.91,-0.36,-0.24,11.29,-1.34,-7.32,240,297,226,478,423,1
1846,0.93,-0.34,-0.22,12.45,-2.69,-7.69,244,295,225,478,420,1
1847,0.94,-0.38,-0.19,-2.32,-2.5,-2.75,241,297,226,480,418,1
1848,0.89,-0.37,-0.18,-2.08,-1.1,-2.81,242,300,226,478,421,1
1849,0.91,-0.38,-0.19,10.19,0.67,-8.61,239,298,224,480,419,1
1850,0.91,-0.36,-0.18,14.28,-3.72,-5.49,241,295,230,474,420,1
1851,0.93,-0.37,-0.14,14.71,-5.86,-12.15,250,291,228,470,424,1
1852,0.95,-0.35,-0.09,1.89,2.5,-3.85,243,294,228,471,421,1
1853,0.99,-0.3,-0.07,-10.44,6.04,0.12,245,294,232,472,421,1
1854,0.96,-0.32,-0.08,1.34,-5.13,-1.65,244,300,231,474,420,1
1855,0.92,-0.35,-0.08,-4.82,-2.32,-0.06,244,301,234,475,421,1
1856,0.95,-0.32,-0.06,-1.53,-4.58,-1.83,260,302,233,472,423,1
1857,0.93,-0.35,-0.09,-3.36,-4.15,-2.5,244,299,232,473,426,1
1858,0.95,-0.35,-0.08,-8.91,-3.6,-1.59,249,304,234,475,419,1
1859,0.94,-0.33,-0.14,-0.31,-6.9,-1.59,254,301,230,472,423,1
1860,0.95,-0.32,-0.08,-1.53,-1.77,-2.38,243,298,231,474,424,1
1861,0.93,-0.32,-0.13,0.61,-3.48,-3.3,244,301,232,477,424,1
1862,0.93,-0.33,-0.11,1.65,-1.77,-3.42,246,302,230,476,425,1
1863,0.94,-0.33,-0.11,-3.23,-3.6,-1.04,252,302,234,481,423,1
1864,0.92,-0.34,-0.09,-1.22,-4.15,-0.61,247,305,230,477,421,1
1865,0.93,-0.34,-0.12,-0.06,-3.78,-2.08,247,307,234,476,425,1
1866,0.94,-0.34,-0.14,-0.37,-2.01,-1.65,248,303,231,472,424,1
1867,0.95,-0.35,-0.16,4.94,-7.2,-1.34,246,301,232,472,424,1
1868,0.94,-0.35,-0.14,0.73,-2.99,-3.3,246,304,233,479,423,1
1869,0.93,-0.35,-0.13,-2.14,-0.43,-3.11,246,304,232,478,423,1
1870,0.91,-0.35,-0.11,-2.2,-4.09,-0.73,244,305,232,479,423,1
1871,0.93,-0.35,-0.12,2.87,-3.48,-2.56,235,305,234,482,426,1
1872,0.95,-0.33,-0.12,1.46,-2.32,-3.48,250,306,234,477,420,1
1873,0.93,-0.33,-0.12,1.34,-3.72,-2.32,246,305,232,480,425,1
1874,0.93,-0.33,-0.1,-0.06,-3.3,-1.28,247,306,235,482,422,1
1875,0.93,-0.34,-0.12,-2.14,-3.11,-2.75,270,308,234,481,428,1
1876,0.93,-0.34,-0.15,2.14,-2.2,-3.85,246,309,235,472,425,1
1877,0.94,-0.34,-0.12,-2.14,-2.56,-2.26,247,309,237,474,428,1
1878,0.94,-0.33,-0.08,-1.77,-2.26,-2.81,247,311,240,475,424,1
1879,0.94,-0.33,-0.07,0.67,-4.76,-3.17,247,312,236,481,421,1
1880,0.95,-0.33,-0.08,-6.65,-2.2,0.85,247,310,236,476,421,1
1881,0.94,-0.35,-0.1,-2.38,-4.27,-1.59,245,312,237,479,426,1
1882,0.94,-0.34,-0.1,0.12,-2.75,-2.62,245,310,249,478,426,1
1883,0.96,-0.35,-0.08,-4.64,-2.56,-2.08,250,316,236,475,427,1
1884,0.95,-0.34,-0.09,0.37,-2.08,-3.42,250,315,249,477,428,1
1885,0.92,-0.32,-0.12,4.33,-0.92,-3.05,249,316,237,473,425,1
1886,0.94,-0.33,-0.09,0.18,-3.11,-2.08,253,315,237,476,425,1
1887,0.94,-0.32,-0.09,4.09,-2.93,-4.88,248,316,238,476,426,1
1888,0.94,-0.31,-0.12,2.99,-2.75,-4.46,277,327,247,477,421,1
1889,0.95,-0.33,-0.07,1.1,-2.08,-2.93,256,316,238,476,425,1
1890,0.95,-0.32,-0.08,-3.23,-3.91,-1.59,248,318,236,479,428,1
1891,0.93,-0.31,-0.09,-0.31,-2.32,-1.77,249,320,238,478,427,1
1892,0.94,-0.31,-0.09,3.17,-2.38,-3.17,249,314,241,477,427,1
1893,0.98,-0.32,-0.05,-5.43,-3.66,-1.34,249,317,240,477,430,1
1894,0.92,-0.33,-0.08,3.3,-5.43,-2.62,252,322,238,477,423,1
1895,0.94,-0.33,-0.08,-1.4,-2.5,-3.05,249,321,243,483,428,1
1896,0.95,-0.31,-0.07,-0.79,-2.62,-3.11,245,322,239,472,424,1
1897,0.95,-0.31,-0.08,0.61,-2.38,-4.52,249,324,243,477,427,1
1898,0.94,-0.31,-0.1,1.77,-3.42,-2.26,246,322,238,474,426,1
1899,0.95,-0.32,-0.07,-7.32,-3.85,-0.55,249,328,240,477,428,1
1900,0.94,-0.3,-0.09,-14.71,-2.93,1.1,251,329,241,481,425,1
1901,0.95,-0.32,-0.08,-0.73,-3.17,-1.65,251,330,238,486,423,1
1902,0.95,-0.32,-0.09,3.05,-3.48,-2.26,251,333,239,481,428,1
1903,0.95,-0.32,-0.07,1.16,-2.62,-3.54,249,329,240,481,430,1
1904,0.95,-0.33,-0.08,-0.98,-4.27,-2.87,250,330,241,478,428,1
1905,0.95,-0.32,-0.09,0.24,-2.75,-2.99,248,334,238,478,426,1
1906,0.94,-0.32,-0.1,4.88,-3.72,-2.81,248,332,244,473,425,1
1907,0.93,-0.32,-0.11,1.95,-4.27,-2.32,250,333,239,479,427,1
1908,0.95,-0.31,-0.08,-1.46,-1.16,-5.0,249,332,239,478,425,1
1909,0.95,-0.3,-0.08,-2.38,-1.46,-2.62,249,333,241,474,424,1
1910,0.97,-0.29,-0.07,-2.99,-4.76,-0.85,248,334,243,482,425,1
1911,0.95,-0.3,-0.09,7.45,-3.42,-3.54,251,335,243,482,426,1
1912,0.94,-0.31,-0.07,5.68,-2.87,-3.3,249,333,239,477,427,1
1913,0.96,-0.3,-0.04,2.62,1.46,-1.28,247,332,238,477,426,1
1914,0.93,-0.27,-0.08,-3.85,-7.39,1.46,243,330,235,477,425,1
1915,1.0,-0.3,-0.02,-8.42,-1.34,-13.85,243,330,237,478,423,1
1916,0.97,-0.29,-0.12,0.0,-4.21,-2.56,246,332,240,473,428,1
1917,1.0,-0.29,-0.15,-0.49,-8.91,-0.12,246,339,241,478,424,1
1918,0.95,-0.3,-0.15,1.04,-5.98,-4.7,244,334,257,472,426,1
1919,0.93,-0.29,-0.09,-3.42,2.81,-12.15,249,333,246,476,426,1
1920,0.94,-0.27,-0.22,10.56,-7.63,-8.42,246,327,244,483,425,1
1921,0.95,-0.32,-0.18,-0.31,0.79,-1.16,246,320,198,481,426,1
1922,0.93,-0.27,-0.22,-0.67,-5.55,-3.23,248,318,198,474,427,1
1923,0.92,-0.3,-0.25,-11.66,-18.07,0.31,243,328,216,472,428,1
1924,0.9,-0.3,-0.29,7.87,9.4,-10.01,247,340,237,474,425,1
1925,0.91,-0.24,-0.29,2.2,-0.73,-4.88,240,321,223,480,427,1
1926,0.95,-0.21,-0.32,-13.67,3.72,-2.2,243,313,228,473,425,1
1927,0.89,-0.25,-0.28,3.17,2.62,-1.59,244,312,229,477,426,1
1928,0.91,-0.27,-0.27,2.75,-1.53,-1.04,242,318,228,475,424,1
1929,0.91,-0.24,-0.28,3.23,1.34,-3.42,242,323,231,476,424,1
1930,0.94,-0.27,-0.32,0.06,-6.84,-3.66,244,326,234,476,425,1
1931,0.94,-0.22,-0.31,6.84,-11.05,0.79,248,334,231,471,424,1
1932,0.95,-0.27,-0.29,-5.13,3.78,-0.37,245,331,232,476,422,1
1933,0.91,-0.27,-0.29,4.39,-6.59,-3.11,246,329,233,476,424,1
1934,0.91,-0.29,-0.3,1.83,-6.53,1.53,247,331,233,477,424,1
1935,0.93,-0.26,-0.28,0.37,-3.17,-3.05,247,334,230,481,425,1
1936,0.93,-0.26,-0.26,-2.08,-3.6,-3.17,248,333,231,480,427,1
1937,0.93,-0.25,-0.27,0.12,-4.03,-2.14,246,335,230,477,425,1
1938,0.94,-0.25,-0.29,0.31,-2.87,-1.04,244,335,231,477,427,1
1939,0.93,-0.25,-0.26,-0.31,-3.6,-2.56,244,329,231,478,429,1
1940,0.93,-0.26,-0.26,-0.73,-2.5,-1.53,246,334,235,478,426,1
1941,0.93,-0.25,-0.25,1.16,-2.93,-2.93,244,332,231,481,426,1
1942,0.94,-0.25,-0.26,0.73,-3.42,-2.44,244,331,231,479,428,1
1943,0.93,-0.26,-0.25,-1.53,-3.6,-2.26,243,335,233,479,427,1
1944,0.95,-0.26,-0.3,7.63,-26.37,-0.98,244,332,233,475,423,1
1945,0.88,-0.27,-0.35,25.15,-2.38,2.44,248,330,230,476,424,1
1946,0.9,-0.29,-0.39,-4.94,3.17,-9.52,242,328,229,472,422,1
1947,1.0,-0.28,-0.38,-9.16,0.31,-5.25,247,320,226,472,425,1
1948,0.95,-0.22,-0.36,6.35,-8.54,0.61,240,279,226,470,424,1
1949,0.83,-0.28,-0.31,6.35,-0.85,20.51,244,276,233,470,418,1
1950,0.94,-0.25,-0.25,-4.33,-6.23,-8.67,243,270,242,471,411,1
1951,0.89,-0.27,-0.37,31.13,-6.65,4.82,238,281,234,475,421,1
1952,0.92,-0.35,0.03,-12.02,16.85,-0.55,243,284,230,471,420,1
1953,0.92,-0.36,-0.15,-19.17,42.36,-10.25,244,282,218,466,424,1
1954,0.87,-0.31,-0.33,-49.62,-44.13,23.8,245,296,207,472,418,1
1955,0.95,-0.32,-0.2,7.2,-5.55,-4.94,249,303,209,474,413,1
1956,0.92,-0.27,-0.29,5.8,5.49,1.34,245,302,203,471,416,1
1957,0.89,-0.25,-0.25,2.2,-50.72,1.22,243,303,200,477,415,1
1958,0.93,-0.34,-0.38,-1.53,-11.17,1.4,245,284,226,474,418,1
1959,0.86,-0.31,-0.32,1.34,5.07,-6.23,238,274,225,478,411,1
1960,0.89,-0.3,-0.3,-0.37,-0.85,-2.56,241,275,228,480,410,1
1961,0.9,-0.3,-0.32,1.4,-2.32,-3.36,246,275,232,476,409,1
1962,0.9,-0.3,-0.31,0.49,-2.5,-3.42,246,278,232,477,410,1
1963,0.9,-0.3,-0.31,0.55,-3.11,-2.5,242,278,230,479,408,1
1964,0.89,-0.31,-0.32,-2.44,-6.35,-0.92,244,279,228,478,410,1
1965,0.89,-0.3,-0.34,2.75,-2.32,-2.01,244,282,232,472,411,1
1966,0.9,-0.31,-0.32,-0.06,-3.91,-3.3,244,285,230,475,411,1
1967,0.89,-0.29,-0.33,2.5,0.61,-3.3,244,282,233,470,416,1
1968,0.92,-0.3,-0.31,1.95,-1.65,-3.97,244,282,234,473,415,1
1969,0.91,-0.3,-0.31,1.77,-2.38,-3.23,246,284,237,473,417,1
1970,0.9,-0.29,-0.3,0.49,-2.87,-2.44,245,283,235,479,415,1
1971,0.9,-0.28,-0.29,-1.04,0.79,-6.77,245,284,237,478,418,1
1972,0.91,-0.29,-0.28,3.11,-1.22,-2.93,241,285,235,475,418,1
1973,0.91,-0.29,-0.28,0.79,-2.69,-2.32,243,289,240,479,419,1
1974,0.9,-0.29,-0.28,3.3,-2.26,-1.04,247,289,233,480,413,1
1975,0.94,-0.31,-0.28,5.49,3.17,-1.22,245,288,240,476,412,1
1976,0.92,-0.32,-0.24,-2.08,-4.7,-2.2,249,288,234,477,420,1
1977,0.93,-0.31,-0.24,0.12,-4.64,-2.32,246,289,233,477,420,1
1978,0.91,-0.3,-0.24,-0.98,-1.46,-3.66,248,293,237,481,419,1
1979,0.92,-0.29,-0.23,0.12,-2.62,-1.77,244,292,236,479,422,1
1980,0.92,-0.29,-0.24,-0.43,-1.4,-2.38,246,290,235,478,423,1
1981,0.93,-0.29,-0.23,0.79,-2.87,-2.69,245,288,237,480,423,1
1982,0.93,-0.28,-0.22,0.12,-2.93,-2.56,248,288,235,484,421,1
1983,0.93,-0.28,-0.22,1.53,-1.28,-2.62,246,287,236,479,423,1
1984,0.94,-0.27,-0.23,0.0,-3.91,-2.38,244,291,237,480,419,1
1985,0.94,-0.28,-0.21,0.73,-3.66,-2.87,247,293,238,479,420,1
1986,0.95,-0.29,-0.22,0.79,-1.65,-2.14,247,295,238,484,419,1
1987,0.88,-0.31,-0.16,2.26,0.06,-1.22,249,299,234,481,425,1
1988,0.95,-0.31,-0.25,17.94,-2.14,-5.68,249,305,236,477,420,1
1989,1.02,-0.27,-0.13,-0.06,-6.29,-2.14,248,304,235,476,424,1
1990,0.9,-0.31,-0.18,-0.92,-0.55,-0.31,249,300,236,475,428,1
1991,0.92,-0.32,-0.22,3.78,-0.85,-3.78,251,303,237,481,428,1
1992,0.93,-0.32,-0.21,1.1,-3.48,-2.2,249,304,237,479,425,1
1993,0.91,-0.32,-0.23,-0.49,-3.23,0.37,251,307,239,482,422,1
1994,0.92,-0.33,-0.22,3.66,-2.87,-3.17,250,303,237,476,422,1
1995,0.9,-0.33,-0.23,-0.55,-2.81,-2.5,248,303,238,484,426,1
1996,0.91,-0.34,-0.21,-5.13,-1.65,-1.59,253,302,241,481,424,1
1997,0.94,-0.35,-0.19,-4.03,-4.09,-1.71,252,310,238,478,425,1
1998,0.92,-0.33,-0.21,1.77,-2.08,-2.93,253,308,242,483,422,1
1999,0.91,-0.33,-0.23,2.38,-2.5,-3.48,251,305,240,478,426,1
2000,0.9,-0.33,-0.24,-0.18,-3.97,-2.26,252,308,239,478,425,1
