,aX,aY,aZ,gX,gY,gZ,little,ring,middle,index,thumb,number
0,0.93,-0.36,-0.07,0.43,-1.83,-2.2,224,294,398,465,275,2
1,0.92,-0.36,-0.06,5.43,-3.97,-4.46,227,294,397,463,271,2
2,0.93,-0.36,-0.06,1.22,-2.32,-4.64,224,295,396,468,278,2
3,0.93,-0.35,-0.07,2.62,-2.56,-2.75,221,300,398,465,275,2
4,0.93,-0.35,-0.06,1.28,-2.14,-4.03,228,301,404,475,280,2
5,0.93,-0.35,-0.05,2.93,-2.75,-5.19,226,299,407,464,275,2
6,0.97,-0.32,-0.08,-3.11,-3.11,-5.8,215,283,411,457,276,2
7,0.94,-0.32,-0.07,2.44,-1.71,-2.44,214,284,409,466,277,2
8,0.98,-0.29,-0.07,-0.85,-1.53,-1.53,212,283,415,466,277,2
9,0.84,-0.4,-0.07,-5.37,-2.26,-12.51,214,286,415,469,277,2
10,0.85,-0.37,-0.04,0.31,2.5,9.16,214,284,412,461,277,2
11,0.96,-0.33,-0.11,21.48,-23.99,14.04,214,285,411,461,272,2
12,0.95,-0.34,-0.09,6.29,-2.93,-5.25,215,288,408,461,275,2
13,0.92,-0.36,-0.05,2.62,1.28,-2.38,215,289,410,461,272,2
14,0.94,-0.36,0.0,4.03,-2.75,-1.77,222,292,402,461,273,2
15,0.94,-0.37,0.0,-0.73,1.65,-2.01,219,291,400,454,286,2
16,0.95,-0.35,0.01,-9.34,-4.52,-5.55,220,288,402,454,291,2
17,0.94,-0.35,-0.01,2.2,-4.39,-2.08,221,288,402,472,290,2
18,0.96,-0.33,0.02,-2.01,-3.11,-4.03,225,286,408,457,292,2
19,0.96,-0.32,0.02,0.67,-4.82,-1.4,221,286,418,460,289,2
20,0.93,-0.32,0.02,0.49,-4.46,-1.46,219,285,419,464,290,2
21,0.95,-0.32,0.0,0.06,-3.05,-3.11,223,290,413,460,291,2
22,0.94,-0.32,0.01,0.18,-3.78,-2.01,220,284,413,465,293,2
23,0.95,-0.33,-0.0,0.31,-3.72,-2.56,220,285,412,460,294,2
24,0.95,-0.32,0.0,-0.24,-3.85,-3.85,218,288,415,456,288,2
25,0.93,-0.31,-0.01,-1.83,-9.83,-4.03,220,285,415,461,293,2
26,0.97,-0.24,0.02,-9.64,16.05,-12.45,221,285,412,463,288,2
27,0.94,-0.28,-0.03,-6.41,-2.08,2.08,221,284,413,463,293,2
28,0.86,-0.33,-0.06,2.56,1.83,-7.02,220,284,419,458,292,2
29,0.96,-0.28,0.03,-0.49,0.98,-3.78,223,287,410,466,293,2
30,0.92,-0.33,0.02,-9.28,-0.12,-0.31,216,288,410,463,298,2
31,0.93,-0.28,0.0,-13.0,0.0,-2.32,222,288,411,462,295,2
32,0.97,-0.3,-0.01,1.77,0.43,-3.54,221,285,410,463,295,2
33,0.97,-0.29,0.03,2.32,-2.99,-4.09,219,284,412,464,294,2
34,0.96,-0.29,0.03,-4.21,-0.37,-4.88,220,289,409,463,295,2
35,0.98,-0.29,0.01,1.59,-5.0,-3.3,223,284,408,460,291,2
36,0.97,-0.29,-0.0,0.73,-3.3,-2.26,220,287,407,469,296,2
37,0.96,-0.28,0.0,-3.23,-2.38,-4.88,219,287,409,461,297,2
38,1.0,-0.28,-0.03,-1.53,-6.53,-0.55,221,287,407,465,295,2
39,0.95,-0.3,-0.03,5.86,-14.16,-2.56,221,287,407,464,296,2
40,0.96,-0.27,-0.02,0.24,-3.85,-2.81,221,288,410,466,296,2
41,0.94,-0.3,-0.04,-1.22,-3.54,-4.27,219,290,407,459,296,2
42,0.95,-0.32,-0.1,2.75,-3.85,-4.46,221,290,408,463,294,2
43,0.98,-0.28,-0.09,-14.4,-7.08,-4.33,221,289,409,459,296,2
44,0.97,-0.26,-0.06,2.08,-1.28,-4.58,219,290,403,460,293,2
45,0.95,-0.28,-0.05,3.48,-2.32,-1.28,221,286,406,465,295,2
46,0.96,-0.27,-0.08,1.16,-3.17,-3.23,221,288,408,467,296,2
47,0.97,-0.27,-0.08,-0.12,-1.59,-4.15,221,290,406,458,296,2
48,0.95,-0.27,-0.05,0.37,-1.83,-4.94,224,290,406,464,296,2
49,0.94,-0.26,-0.04,4.27,-8.36,-6.1,220,286,402,461,298,2
50,0.97,-0.25,-0.05,0.49,-1.89,-1.71,223,286,405,468,295,2
51,0.95,-0.28,-0.05,3.97,-2.93,-0.61,221,284,406,463,298,2
52,0.98,-0.26,-0.07,-3.17,-1.16,5.07,217,289,406,466,296,2
53,0.96,-0.29,-0.11,4.94,-1.71,-5.74,220,288,403,463,296,2
54,0.98,-0.28,-0.13,-6.96,-7.26,-4.52,220,288,408,462,296,2
55,0.96,-0.28,-0.12,2.99,-2.44,-4.39,224,288,402,467,287,2
56,0.96,-0.3,-0.16,17.94,-30.76,7.32,222,286,403,463,296,2
57,0.97,-0.24,-0.1,6.35,-5.43,0.73,221,285,403,463,299,2
58,0.96,-0.26,-0.13,-1.1,0.73,-4.52,223,287,403,462,300,2
59,0.97,-0.25,-0.11,0.18,-2.93,-1.34,217,288,399,460,293,2
60,0.97,-0.25,-0.11,0.24,-4.58,-1.77,224,289,405,459,295,2
61,0.97,-0.24,-0.11,0.06,-4.82,-3.11,223,286,401,463,295,2
62,0.98,-0.23,-0.1,-0.24,-0.61,-4.52,220,292,398,454,290,2
63,0.96,-0.22,-0.1,0.61,-3.66,-2.93,221,290,400,445,295,2
64,0.97,-0.23,-0.09,0.61,-1.16,-2.44,223,290,405,449,295,2
65,0.98,-0.22,-0.11,2.5,-3.36,-1.77,224,296,403,428,295,2
66,0.97,-0.22,-0.1,0.06,-3.05,-2.62,223,291,405,436,294,2
67,0.97,-0.23,-0.1,0.61,-2.93,-2.69,223,291,405,440,294,2
68,0.98,-0.22,-0.1,1.89,-1.77,-1.16,223,288,404,441,294,2
69,0.97,-0.23,-0.1,-0.24,-3.05,-3.05,224,290,403,438,297,2
70,0.97,-0.23,-0.1,0.0,-2.93,-2.69,222,288,400,447,296,2
71,0.97,-0.24,-0.1,-0.24,-3.17,-2.69,221,292,400,448,295,2
72,0.97,-0.23,-0.11,0.43,-2.44,-3.3,220,290,401,454,296,2
73,0.96,-0.23,-0.11,0.24,-3.97,-3.11,220,291,401,455,296,2
74,0.95,-0.23,-0.1,0.12,-2.69,-2.69,225,296,400,447,296,2
75,0.97,-0.24,-0.1,0.92,-2.87,-2.44,218,291,403,451,294,2
76,0.98,-0.23,-0.11,-1.95,-1.4,-4.15,223,290,401,453,299,2
77,0.97,-0.23,-0.1,0.12,-4.33,-2.14,224,289,402,451,293,2
78,0.96,-0.23,-0.11,-0.06,-2.44,-2.99,222,293,403,458,292,2
79,0.98,-0.22,-0.1,-0.92,-1.4,-3.6,225,288,402,459,295,2
80,0.96,-0.23,-0.09,-4.82,2.32,-1.22,225,288,406,464,296,2
81,0.98,-0.23,-0.12,2.56,1.53,-6.1,222,292,403,461,296,2
82,0.96,-0.21,-0.07,4.33,-10.68,0.18,223,291,405,464,297,2
83,0.93,-0.24,-0.06,-12.39,18.31,-5.62,226,291,402,459,297,2
84,0.84,-0.34,-0.25,-28.2,38.94,-6.77,222,291,402,464,298,2
85,0.96,-0.29,-0.22,0.0,1.04,-7.08,236,291,404,457,297,2
86,0.96,-0.28,-0.19,-2.81,-1.34,-2.38,225,291,403,460,295,2
87,0.94,-0.29,-0.2,4.33,-4.52,-5.13,248,293,403,465,298,2
88,0.93,-0.29,-0.2,1.1,-4.88,-1.83,221,301,404,459,298,2
89,0.94,-0.28,-0.2,-2.01,-3.36,-1.34,219,290,402,461,298,2
90,0.92,-0.29,-0.21,-0.49,-0.06,-4.82,220,290,399,466,298,2
91,0.94,-0.27,-0.16,-0.98,1.89,0.98,223,294,403,462,297,2
92,0.92,-0.3,-0.18,-2.93,-2.2,-2.08,230,294,398,460,295,2
93,0.9,-0.33,-0.24,-5.8,1.59,-8.73,221,293,401,463,298,2
94,0.96,-0.25,-0.16,11.05,-2.2,-8.42,225,290,396,460,298,2
95,0.97,-0.23,-0.16,-0.55,-4.21,2.2,222,292,397,458,301,2
96,0.92,-0.3,-0.15,-4.27,-1.59,-0.06,224,293,399,464,295,2
97,0.95,-0.28,-0.16,-3.78,0.73,-9.16,222,290,399,464,295,2
98,0.98,-0.23,-0.13,2.99,-3.36,-3.17,222,294,398,460,298,2
99,0.94,-0.25,-0.14,1.59,-3.54,1.89,225,292,397,461,299,2
100,0.93,-0.29,-0.17,-6.1,-1.28,-3.78,224,296,399,457,296,2
101,0.96,-0.26,-0.14,0.18,-5.92,-3.48,225,292,398,466,294,2
102,0.93,-0.3,-0.19,-2.75,-3.17,0.43,222,287,399,461,296,2
103,0.94,-0.29,-0.19,-0.79,-1.95,-4.15,227,295,398,462,300,2
104,0.95,-0.29,-0.19,2.26,-2.81,-3.66,223,292,397,473,299,2
105,0.94,-0.29,-0.18,0.49,-2.69,-3.97,223,292,397,465,299,2
106,0.94,-0.28,-0.18,-0.43,-3.3,-3.42,224,292,410,456,299,2
107,0.94,-0.28,-0.18,1.89,-4.39,-3.11,219,292,399,460,299,2
108,0.94,-0.26,-0.19,-0.24,-5.74,-0.37,219,295,398,463,300,2
109,0.93,-0.28,-0.19,6.84,-11.54,1.28,225,294,402,464,299,2
110,0.95,-0.27,-0.18,-3.11,-0.31,-4.27,226,291,398,465,300,2
111,0.93,-0.26,-0.15,11.96,-2.81,-1.34,221,291,396,458,298,2
112,0.95,-0.25,-0.13,-3.97,-3.6,0.67,220,294,398,464,298,2
113,0.95,-0.28,-0.2,-1.59,-3.05,-7.75,225,291,397,464,301,2
114,0.95,-0.25,-0.18,-1.65,-1.83,-3.85,224,294,396,464,297,2
115,0.95,-0.24,-0.13,13.43,-9.77,2.99,224,291,395,463,299,2
116,0.95,-0.26,-0.19,0.43,-1.04,-3.97,222,291,402,457,300,2
117,0.95,-0.26,-0.17,-2.08,-3.36,-1.65,224,291,397,461,298,2
118,0.94,-0.27,-0.18,-1.59,-3.6,-2.01,224,292,399,464,301,2
119,0.99,-0.23,-0.19,-7.51,2.87,-8.79,227,290,398,462,309,2
120,0.97,-0.22,-0.17,-6.41,-0.67,-0.43,223,295,397,462,302,2
121,0.96,-0.23,-0.18,-3.72,-0.79,-5.49,223,291,402,462,295,2
122,0.97,-0.22,-0.17,1.1,-3.97,-0.79,220,291,397,462,297,2
123,0.95,-0.23,-0.15,-2.62,1.95,-0.73,226,291,412,463,300,2
124,0.98,-0.19,-0.1,-11.47,15.32,-19.04,223,294,403,467,299,2
125,0.81,-0.28,-0.11,1.28,-11.41,2.01,223,294,408,464,301,2
126,1.04,-0.13,-0.17,14.65,-21.79,7.93,223,290,407,467,299,2
127,1.09,-0.16,-0.29,-6.96,-3.72,-8.67,225,290,405,463,300,2
128,0.78,-0.31,-0.01,-5.8,21.91,-42.48,225,291,405,464,300,2
129,1.06,-0.22,-0.5,-17.15,60.24,-57.98,224,290,405,464,296,2
130,0.62,-0.41,0.27,49.56,5.8,-22.03,217,287,403,462,297,2
131,1.09,-0.13,-0.33,40.28,2.87,58.59,215,284,404,461,288,2
132,1.3,-0.12,-0.86,-26.86,-12.15,-12.02,215,288,405,457,280,2
133,0.58,-0.09,0.89,1.46,74.77,-60.85,221,289,403,460,294,2
134,0.97,-0.15,-0.03,24.6,-2.26,-3.97,218,303,407,463,302,2
135,0.87,0.06,0.62,-87.16,8.42,-54.44,223,292,408,466,294,2
136,0.93,-0.1,0.22,65.37,26.79,-11.72,220,294,407,466,293,2
137,1.26,0.08,-0.32,4.64,-7.51,-28.56,218,285,407,463,295,2
138,0.84,0.16,0.58,-9.03,-22.52,-26.73,217,287,407,466,297,2
139,0.76,-0.07,0.11,-26.31,-12.15,30.88,222,293,403,468,295,2
140,1.4,0.11,0.13,12.27,-16.42,-14.16,222,291,406,468,297,2
141,0.94,-0.03,0.1,-1.77,-8.97,2.81,221,293,404,470,299,2
142,1.0,0.04,0.08,2.62,-8.42,1.1,221,290,404,466,296,2
143,1.02,0.07,0.06,12.27,-14.16,-6.23,221,294,403,469,299,2
144,1.01,0.06,0.0,3.97,-7.02,-11.66,223,291,402,466,296,2
145,0.97,0.02,-0.1,-21.55,-29.05,0.0,219,291,404,467,298,2
146,0.98,0.01,-0.18,0.24,3.91,-0.85,222,294,403,459,301,2
147,1.01,0.02,-0.16,2.99,-8.18,-0.31,222,290,401,470,301,2
148,1.33,0.07,-0.39,26.31,17.09,29.6,222,307,397,459,300,2
149,0.97,-0.14,-0.16,-1.65,-10.07,9.58,222,293,402,469,302,2
150,0.97,-0.11,-0.34,-7.32,-11.9,-40.89,211,289,398,464,302,2
151,1.19,-0.03,-0.18,0.31,22.16,0.61,220,287,400,464,299,2
152,0.58,-0.14,-0.03,0.61,14.83,30.76,223,287,402,464,306,2
153,1.14,-0.11,-0.23,-15.01,-25.09,25.51,222,292,400,461,304,2
154,1.15,-0.3,-0.66,-25.63,58.53,-40.47,224,291,396,465,301,2
155,1.03,-0.04,-0.13,4.21,-36.25,-18.07,224,293,395,466,303,2
156,0.89,-0.15,-0.31,-8.0,13.85,-1.89,224,292,398,469,305,2
157,0.64,-0.32,-0.15,-32.71,-5.92,70.01,224,295,399,458,297,2
158,0.97,-0.36,-0.16,-22.4,-5.0,-15.99,224,292,396,457,293,2
159,0.93,-0.31,-0.16,-1.65,5.8,0.55,219,293,395,467,297,2
160,0.93,-0.4,-0.27,9.34,-17.76,-3.17,221,294,397,466,300,2
161,0.98,-0.29,-0.15,3.11,-0.18,-13.98,224,293,398,460,294,2
162,0.86,-0.39,-0.24,-11.72,-5.43,2.93,222,309,396,465,298,2
163,0.95,-0.34,-0.18,-11.17,6.29,-8.73,224,297,396,464,295,2
164,0.87,-0.34,-0.11,8.0,2.62,-1.04,223,299,398,466,299,2
165,0.92,-0.29,-0.17,-0.73,5.68,-11.35,224,292,399,458,301,2
166,0.85,-0.32,-0.14,15.44,-18.86,8.91,225,295,395,464,300,2
167,0.91,-0.35,-0.27,1.83,-2.14,1.16,220,294,392,463,299,2
168,0.95,-0.33,-0.25,-5.74,10.93,-5.92,224,296,394,463,299,2
169,0.94,-0.33,-0.23,0.55,-11.72,3.48,223,290,391,467,307,2
170,0.9,-0.34,-0.25,2.81,-2.56,-5.19,225,293,393,468,297,2
171,0.94,-0.34,-0.28,-5.25,-6.41,-5.49,223,292,394,467,299,2
172,0.89,-0.36,-0.27,-2.38,-5.98,-0.85,224,293,390,463,302,2
173,0.89,-0.37,-0.28,1.65,-4.03,-0.43,225,295,390,468,304,2
174,0.9,-0.34,-0.24,-1.16,-0.12,-3.66,225,296,390,465,300,2
175,0.9,-0.34,-0.25,4.15,-5.19,-1.59,223,296,392,460,298,2
176,0.89,-0.36,-0.25,4.15,-5.37,-2.08,237,291,390,467,298,2
177,0.92,-0.34,-0.24,2.14,-2.99,-3.3,224,293,392,467,312,2
178,0.9,-0.35,-0.23,5.37,4.09,-11.54,226,296,392,465,299,2
179,0.91,-0.32,-0.17,0.67,-5.25,-2.69,236,293,390,461,300,2
180,0.92,-0.32,-0.18,5.62,0.18,-4.64,226,305,406,465,299,2
181,0.96,-0.27,-0.17,4.27,-4.21,-4.88,226,295,392,463,300,2
182,0.94,-0.3,-0.23,2.38,-1.59,-3.54,223,294,390,467,300,2
183,0.92,-0.3,-0.2,1.95,-7.87,-0.73,224,293,388,465,293,2
184,0.91,-0.31,-0.16,1.16,-0.98,-5.19,222,296,385,462,301,2
185,0.95,-0.28,-0.17,1.16,-2.44,-2.32,223,295,388,470,306,2
186,0.96,-0.28,-0.19,1.1,-0.24,-5.55,225,295,388,464,304,2
187,0.93,-0.31,-0.2,-0.49,-3.6,-5.55,226,292,385,465,304,2
188,0.92,-0.3,-0.15,4.64,-5.62,0.55,226,293,388,467,302,2
189,0.95,-0.28,-0.17,1.28,-5.68,-4.64,224,293,387,465,301,2
190,0.93,-0.3,-0.23,2.2,-3.85,-2.93,226,294,388,465,303,2
191,0.94,-0.3,-0.22,-0.43,-3.72,-2.08,223,297,387,462,301,2
192,0.93,-0.29,-0.21,0.61,-2.75,-2.62,225,294,391,469,297,2
193,0.93,-0.3,-0.22,0.31,-2.56,-3.6,229,294,387,469,301,2
194,0.93,-0.3,-0.22,2.2,-3.6,-1.95,226,294,389,470,304,2
195,0.93,-0.29,-0.21,0.61,-2.26,-3.42,224,295,386,470,304,2
196,0.93,-0.29,-0.21,1.04,-3.72,-1.83,225,293,394,471,303,2
197,0.93,-0.29,-0.2,0.0,-2.75,-2.81,220,294,389,465,302,2
198,0.94,-0.29,-0.2,-0.85,-2.01,-3.48,221,297,389,470,304,2
199,0.94,-0.29,-0.2,0.06,-3.97,-2.08,224,297,393,463,310,2
200,0.94,-0.29,-0.21,-0.24,-3.23,-2.75,226,303,391,467,302,2
201,0.92,-0.29,-0.21,2.62,-6.1,0.12,224,295,387,469,300,2
202,0.94,-0.29,-0.21,-1.46,-2.44,-3.6,222,295,387,466,301,2
203,0.93,-0.28,-0.21,0.55,-3.97,-3.48,226,294,388,468,301,2
204,0.92,-0.29,-0.21,1.53,-3.6,-1.65,224,295,387,464,301,2
205,0.93,-0.28,-0.21,-0.98,-1.46,-3.6,224,296,385,470,301,2
206,0.93,-0.29,-0.22,1.71,-4.33,-1.34,224,297,385,465,300,2
207,0.93,-0.29,-0.22,-0.61,-3.72,-1.65,228,295,387,464,300,2
208,0.94,-0.28,-0.21,-0.12,-3.36,-2.26,224,295,388,467,301,2
209,0.92,-0.3,-0.23,0.24,-2.93,-3.42,224,294,387,460,302,2
210,0.92,-0.29,-0.22,2.01,-3.17,-2.14,224,296,390,464,300,2
211,0.92,-0.29,-0.23,-2.5,-2.93,-4.46,229,296,390,464,297,2
212,0.93,-0.28,-0.22,0.0,-2.99,-2.93,231,294,389,460,303,2
213,0.93,-0.29,-0.23,0.43,-1.71,-3.3,224,310,389,464,301,2
214,0.92,-0.29,-0.22,1.89,-2.08,-2.5,224,298,388,465,301,2
215,0.93,-0.28,-0.23,0.61,-2.87,-3.11,222,294,386,460,301,2
216,0.92,-0.29,-0.23,0.85,-2.62,-2.44,227,296,387,460,304,2
217,0.93,-0.29,-0.23,-0.92,-2.69,-2.44,225,295,394,461,303,2
218,0.93,-0.29,-0.22,0.31,-2.69,-3.54,223,292,388,465,300,2
219,0.93,-0.28,-0.23,0.31,-3.3,-2.26,254,294,390,465,304,2
220,0.93,-0.28,-0.23,0.12,-2.44,-2.99,225,295,388,468,298,2
221,0.93,-0.29,-0.22,0.31,-3.11,-2.62,222,296,393,466,300,2
222,0.93,-0.28,-0.22,1.22,-2.62,-2.69,230,297,384,460,301,2
223,0.93,-0.28,-0.22,-0.31,-2.56,-3.66,224,297,388,468,304,2
224,0.93,-0.28,-0.22,0.98,-2.99,-3.11,226,293,387,465,303,2
225,0.94,-0.27,-0.23,3.48,-1.46,-5.25,224,292,387,459,303,2
226,0.95,-0.27,-0.22,3.6,-6.41,-1.34,226,296,393,465,301,2
227,0.93,-0.28,-0.22,2.99,-4.09,-1.28,225,296,388,470,300,2
228,0.91,-0.29,-0.22,2.2,-1.16,-4.88,222,295,386,469,301,2
229,0.93,-0.29,-0.23,0.43,-2.32,-3.05,224,294,387,476,303,2
230,0.93,-0.28,-0.22,1.04,-2.99,-3.05,223,295,385,468,302,2
231,0.94,-0.28,-0.22,1.4,-2.81,-2.99,226,294,386,460,303,2
232,0.92,-0.28,-0.21,0.37,-3.23,-2.26,227,295,384,466,303,2
233,0.93,-0.29,-0.23,1.28,-4.46,-2.44,225,295,388,465,300,2
234,0.94,-0.28,-0.23,0.55,-2.81,-2.62,255,296,389,459,298,2
235,0.97,-0.28,-0.22,0.12,-2.81,-3.05,224,295,388,466,300,2
236,0.93,-0.29,-0.24,-0.55,-2.38,-3.11,224,296,390,468,297,2
237,0.91,-0.3,-0.25,-2.38,-1.71,-3.17,223,294,390,469,303,2
238,0.91,-0.3,-0.26,0.37,-2.56,-2.62,229,297,387,470,300,2
239,0.92,-0.3,-0.26,-0.12,-2.56,-3.11,227,294,389,465,299,2
240,0.92,-0.29,-0.25,0.49,-2.26,-3.23,226,294,391,465,303,2
241,0.92,-0.3,-0.25,-0.31,-2.93,-3.05,226,297,386,460,301,2
242,0.93,-0.29,-0.24,0.06,-3.72,-2.32,220,295,388,466,302,2
243,0.92,-0.3,-0.24,-0.73,-2.38,-2.08,225,297,387,460,303,2
244,0.91,-0.31,-0.25,3.97,-3.3,-3.97,224,307,393,466,300,2
245,0.95,-0.26,-0.22,-7.45,4.46,-6.41,223,296,387,466,304,2
246,0.91,-0.32,-0.24,-3.6,4.03,-7.87,224,296,389,465,304,2
247,0.93,-0.29,-0.27,0.12,-0.73,-7.87,226,298,389,465,301,2
248,0.97,-0.26,-0.25,-8.42,-1.89,-5.07,224,297,390,465,298,2
249,0.96,-0.25,-0.21,5.31,-1.59,-9.22,227,298,385,463,306,2
250,0.89,-0.28,-0.18,2.14,-8.24,7.81,225,298,386,459,300,2
251,0.94,-0.24,-0.23,-11.35,-0.49,6.23,224,297,389,465,303,2
252,0.85,-0.37,-0.27,-0.92,6.84,-5.86,227,291,385,463,300,2
253,0.9,-0.32,-0.22,-7.2,-3.85,0.55,223,297,388,465,301,2
254,0.92,-0.3,-0.2,-0.49,-2.2,-2.99,226,299,389,463,302,2
255,0.93,-0.3,-0.23,0.55,-3.11,-2.62,227,297,383,465,302,2
256,0.92,-0.32,-0.23,0.85,-2.69,-2.44,233,294,388,465,303,2
257,0.92,-0.32,-0.22,-0.18,-1.95,-2.75,225,295,386,471,303,2
258,0.92,-0.31,-0.22,0.37,-3.17,-2.2,223,295,389,465,303,2
259,0.92,-0.31,-0.22,0.55,-2.81,-3.17,232,295,385,468,302,2
260,0.93,-0.31,-0.22,-1.4,-0.92,-4.21,226,295,386,461,299,2
261,0.92,-0.31,-0.21,1.59,-2.62,-1.34,224,296,385,469,299,2
262,0.92,-0.31,-0.22,0.61,-3.17,-2.32,226,295,384,469,303,2
263,0.91,-0.31,-0.24,-0.31,-2.81,-4.88,224,295,388,467,312,2
264,0.92,-0.3,-0.22,-0.85,-1.83,-3.54,222,294,387,466,304,2
265,0.94,-0.28,-0.21,-1.28,-2.75,-2.93,221,293,389,468,302,2
266,0.95,-0.29,-0.21,3.54,-0.61,-4.03,224,294,390,468,299,2
267,0.91,-0.3,-0.21,-0.12,-2.2,0.0,224,296,388,464,304,2
268,0.96,-0.29,-0.22,-0.67,0.43,-8.36,224,303,389,460,304,2
269,0.94,-0.29,-0.2,0.37,-4.39,-0.79,225,297,385,465,303,2
270,0.95,-0.28,-0.19,2.26,-3.42,-1.95,227,294,383,469,302,2
271,0.94,-0.29,-0.19,-1.34,-2.81,-1.65,237,294,388,465,302,2
272,0.94,-0.29,-0.18,3.54,-4.39,-1.77,224,295,390,469,304,2
273,0.94,-0.29,-0.18,0.85,-2.44,-2.81,227,294,387,467,303,2
274,0.94,-0.29,-0.18,0.85,-2.93,-2.14,233,295,384,460,305,2
275,0.94,-0.29,-0.18,0.37,-3.48,-2.44,225,297,386,464,306,2
276,0.94,-0.29,-0.17,-0.12,-2.01,-3.54,227,297,386,465,303,2
277,0.95,-0.29,-0.17,-0.43,-1.95,-3.05,226,291,386,468,302,2
278,0.94,-0.28,-0.18,0.79,-3.42,-1.65,228,294,383,466,305,2
279,0.94,-0.29,-0.18,0.61,-3.36,-2.56,228,293,383,466,304,2
280,0.94,-0.29,-0.18,0.43,-3.54,-2.5,225,297,387,462,304,2
281,0.94,-0.29,-0.18,0.98,-3.17,-2.32,227,295,384,465,308,2
282,0.94,-0.29,-0.19,0.73,-4.64,-3.11,225,297,386,460,305,2
283,0.94,-0.28,-0.18,0.92,-3.97,-2.75,227,295,387,463,301,2
284,0.94,-0.29,-0.19,0.67,-2.69,-2.56,228,293,388,466,304,2
285,0.95,-0.29,-0.18,0.85,-2.69,-2.87,228,298,388,465,304,2
286,0.94,-0.29,-0.19,0.18,-2.93,-2.26,228,298,387,468,304,2
287,0.93,-0.3,-0.18,0.61,-3.6,-2.08,227,297,385,469,299,2
288,0.94,-0.29,-0.19,1.46,-3.05,-1.83,226,297,388,470,306,2
289,0.94,-0.29,-0.18,0.37,-2.87,-2.87,234,298,383,466,304,2
290,0.94,-0.29,-0.19,1.83,-3.17,-2.56,224,294,388,466,301,2
291,0.94,-0.29,-0.18,0.67,-3.48,-2.99,225,296,386,465,304,2
292,0.93,-0.29,-0.18,0.06,-3.42,-2.56,227,298,385,461,305,2
293,0.94,-0.29,-0.18,1.46,-3.78,-3.05,226,297,386,466,305,2
294,0.94,-0.29,-0.19,-0.67,-2.08,-2.81,225,297,388,468,303,2
295,0.93,-0.29,-0.18,1.95,-5.68,-1.59,226,294,386,464,304,2
296,0.93,-0.27,-0.18,-1.95,-3.6,-0.31,226,294,394,464,300,2
297,0.93,-0.31,-0.21,1.22,-2.87,-3.17,226,295,385,465,306,2
298,0.94,-0.3,-0.21,-1.46,-4.27,-0.18,223,296,382,467,299,2
299,0.93,-0.3,-0.21,0.61,-2.5,-2.81,226,296,385,461,303,2
300,0.93,-0.3,-0.21,0.12,-2.56,-3.05,226,298,384,460,303,2
301,0.93,-0.3,-0.21,0.0,-2.87,-2.99,228,297,384,469,303,2
302,0.93,-0.28,-0.19,0.61,-2.62,-2.32,227,298,385,476,303,2
303,0.94,-0.29,-0.2,0.18,-2.99,-2.38,224,297,385,463,303,2
304,0.93,-0.3,-0.2,1.16,-3.97,-1.89,226,296,384,465,311,2
305,0.92,-0.31,-0.21,0.98,-3.85,-2.38,227,297,387,466,302,2
306,0.93,-0.31,-0.21,-0.43,-2.08,-3.23,225,295,386,468,305,2
307,0.93,-0.29,-0.2,1.22,-4.03,-1.95,228,298,385,461,305,2
308,0.94,-0.3,-0.22,-1.53,-2.81,-2.93,220,297,383,465,305,2
309,0.92,-0.3,-0.21,0.67,-3.23,-2.26,227,294,385,465,305,2
310,0.92,-0.31,-0.2,0.0,-2.32,-1.77,225,301,386,466,299,2
311,0.93,-0.3,-0.21,0.85,-3.05,-2.87,227,296,386,464,299,2
312,0.94,-0.31,-0.21,0.73,-3.97,-2.01,224,295,389,469,303,2
313,0.92,-0.3,-0.22,-0.98,-3.36,-2.2,226,295,387,466,303,2
314,0.94,-0.3,-0.21,1.16,-4.03,-1.71,232,292,384,465,304,2
315,0.93,-0.31,-0.21,0.49,-3.05,-2.32,223,298,386,466,303,2
316,0.92,-0.3,-0.22,1.77,-3.6,-2.87,225,297,385,471,305,2
317,0.92,-0.3,-0.21,-1.22,-1.1,-3.97,225,308,384,459,304,2
318,0.93,-0.3,-0.21,1.16,-3.17,-2.08,222,295,384,469,303,2
319,0.93,-0.3,-0.21,-0.73,-2.2,-2.69,227,294,384,465,304,2
320,0.92,-0.31,-0.2,-0.12,-3.42,-1.71,226,296,381,469,303,2
321,0.91,-0.31,-0.21,1.77,-4.76,-1.22,227,298,387,469,302,2
322,0.92,-0.31,-0.22,0.12,-2.56,-2.87,227,298,384,468,305,2
323,0.93,-0.31,-0.22,0.43,-2.69,-2.87,264,296,382,463,305,2
324,0.92,-0.31,-0.22,1.22,-3.66,-2.69,227,296,381,467,304,2
325,0.92,-0.3,-0.21,0.61,-2.69,-2.99,226,308,387,464,302,2
326,0.93,-0.29,-0.2,2.08,-4.33,-3.23,226,298,383,460,302,2
327,0.93,-0.27,-0.17,8.12,-2.81,-3.05,225,297,385,466,314,2
328,0.95,-0.27,-0.2,0.98,-0.37,-6.53,228,296,380,464,303,2
329,0.97,-0.25,-0.18,3.66,0.73,-6.29,240,298,384,467,304,2
330,0.91,-0.31,-0.22,-1.89,-1.71,-7.51,225,293,382,466,306,2
331,0.91,-0.31,-0.23,2.44,-2.99,-5.31,227,296,386,463,301,2
332,0.93,-0.29,-0.21,1.16,-2.62,-4.64,225,295,384,470,301,2
333,0.92,-0.28,-0.2,1.83,-4.33,-1.34,226,295,384,475,307,2
334,0.95,-0.28,-0.19,1.16,-2.56,-2.93,224,298,384,469,300,2
335,0.94,-0.26,-0.17,-5.13,-1.28,-4.76,228,295,386,469,305,2
336,0.94,-0.26,-0.18,0.67,-3.66,-1.95,234,296,382,468,304,2
337,0.96,-0.26,-0.21,0.06,-2.32,-2.14,226,296,385,461,306,2
338,0.93,-0.25,-0.15,-3.17,-0.61,-5.31,225,294,385,465,306,2
339,0.95,-0.26,-0.18,0.12,-5.43,-0.79,228,296,384,474,304,2
340,0.96,-0.26,-0.19,1.83,-4.39,-3.05,227,296,382,464,301,2
341,0.95,-0.26,-0.18,-0.85,-2.38,-2.81,227,296,385,461,304,2
342,0.96,-0.26,-0.17,-0.49,-1.65,-3.3,227,298,385,468,306,2
343,0.94,-0.27,-0.18,-5.19,-1.89,-3.66,226,296,384,465,306,2
344,0.99,-0.2,-0.13,2.93,-0.55,-7.26,227,297,388,460,304,2
345,0.96,-0.24,-0.17,0.06,-3.42,-2.99,228,299,387,464,300,2
346,0.95,-0.24,-0.16,0.49,-2.5,-3.17,225,298,384,465,304,2
347,0.96,-0.23,-0.15,0.12,-2.69,-3.23,229,298,382,468,304,2
348,0.96,-0.24,-0.15,2.87,-3.78,-3.17,226,296,382,460,301,2
349,0.88,-0.26,-0.15,-2.56,-7.32,-1.89,226,298,382,468,302,2
350,0.92,-0.27,-0.13,-2.56,-10.25,4.27,225,298,382,465,305,2
351,0.96,-0.28,-0.21,2.44,-12.7,4.76,224,298,385,464,302,2
352,0.98,-0.34,-0.25,-7.63,-9.46,2.26,223,296,385,465,306,2
353,0.92,-0.27,-0.21,-5.8,-3.78,-2.87,229,297,396,468,305,2
354,0.83,-0.35,-0.21,2.01,-1.34,-3.42,226,293,383,464,302,2
355,0.9,-0.35,-0.26,0.98,-4.33,-0.79,227,293,390,466,306,2
356,0.92,-0.34,-0.25,2.08,-0.55,-2.44,265,299,383,465,307,2
357,0.93,-0.33,-0.22,-2.08,-3.85,-6.04,227,297,384,462,305,2
358,0.91,-0.33,-0.22,-1.77,-1.34,-3.85,226,296,381,463,303,2
359,0.92,-0.32,-0.23,0.49,-3.48,-2.32,233,298,385,462,304,2
360,0.91,-0.31,-0.2,1.95,-3.6,-3.42,232,295,383,460,307,2
361,0.93,-0.31,-0.23,0.37,-4.03,-2.44,225,301,386,461,306,2
362,0.94,-0.32,-0.21,-2.69,8.67,-3.54,226,296,382,462,306,2
363,0.94,-0.3,-0.19,-0.43,-0.92,-2.75,221,299,383,458,307,2
364,0.97,-0.28,-0.21,-11.35,-1.22,-11.54,226,294,386,466,304,2
365,0.87,-0.34,-0.2,0.92,-1.04,-3.42,233,296,381,467,306,2
366,0.92,-0.35,-0.19,29.24,-2.5,-5.0,227,296,387,464,308,2
367,0.89,-0.32,-0.17,32.78,-10.38,-8.12,230,296,387,461,306,2
368,0.92,-0.3,-0.02,9.77,1.83,0.92,229,303,382,462,307,2
369,0.93,-0.42,-0.3,-7.93,-17.33,-10.07,225,300,385,460,307,2
370,0.97,-0.37,-0.22,-13.55,-10.8,-8.54,226,297,384,461,304,2
371,1.01,-0.34,-0.19,-8.67,7.63,-17.09,224,300,383,462,308,2
372,0.94,-0.41,-0.14,5.25,-10.31,-5.55,223,305,386,465,307,2
373,0.88,-0.42,-0.21,-1.28,-4.21,-1.28,227,296,386,466,307,2
374,1.11,-0.33,-0.34,27.95,-55.48,-6.59,229,297,383,459,308,2
375,0.89,-0.38,-0.18,-10.74,-13.67,15.5,228,295,383,463,313,2
376,0.92,-0.37,-0.17,-3.6,-2.75,-5.98,226,299,381,466,309,2
377,0.93,-0.37,-0.11,-5.92,4.39,1.46,227,300,385,460,308,2
378,0.92,-0.35,-0.09,-3.78,0.73,-0.79,228,298,383,463,310,2
379,0.94,-0.35,-0.06,5.92,-4.88,-2.99,229,299,383,463,310,2
380,0.94,-0.35,-0.08,-1.65,-0.98,-2.87,226,299,384,464,308,2
381,0.94,-0.35,-0.07,1.46,-4.21,-2.5,227,301,381,462,308,2
382,0.93,-0.36,-0.07,0.31,-2.5,-2.08,218,299,387,461,310,2
383,0.93,-0.36,-0.08,-0.43,-2.2,-3.05,225,300,384,462,310,2
384,0.94,-0.35,-0.07,-2.01,-3.23,-3.05,230,301,383,461,307,2
385,0.9,-0.36,-0.07,-11.9,0.43,-9.09,228,298,379,466,309,2
386,0.92,-0.35,-0.09,0.92,-3.54,-2.26,226,297,379,457,308,2
387,0.94,-0.35,-0.08,1.53,-4.03,-2.69,229,301,381,457,308,2
388,0.94,-0.34,-0.07,0.67,-1.89,-2.44,228,298,384,458,308,2
389,0.93,-0.34,-0.07,0.24,-0.37,-4.09,226,301,383,461,309,2
390,0.94,-0.33,-0.06,0.37,-1.22,-3.11,227,299,384,458,308,2
391,0.95,-0.33,-0.06,0.24,-2.56,-3.3,226,299,381,466,306,2
392,0.94,-0.33,-0.05,2.32,-2.99,-2.44,229,296,378,457,308,2
393,0.94,-0.33,-0.05,-0.61,-0.18,-4.46,230,298,383,463,309,2
394,0.94,-0.32,-0.05,2.62,-1.95,-3.48,224,299,381,462,307,2
395,0.94,-0.33,-0.05,1.1,-2.99,-2.01,227,299,387,462,311,2
396,0.95,-0.33,-0.06,-1.04,-2.75,-2.56,227,298,379,466,308,2
397,0.94,-0.34,-0.04,1.22,-3.36,-2.44,227,299,383,462,308,2
398,0.93,-0.34,-0.05,-0.31,-2.2,-2.69,228,303,383,463,308,2
399,0.94,-0.34,-0.05,1.59,-2.62,-3.72,226,298,378,462,311,2
400,0.94,-0.34,-0.04,0.24,-2.26,-2.81,228,301,380,466,307,2
401,0.94,-0.33,-0.05,0.55,-3.85,-2.2,230,299,384,463,310,2
402,0.95,-0.34,-0.05,0.06,-2.08,-3.91,232,298,381,461,321,2
403,0.94,-0.33,-0.04,-0.55,-3.17,-2.2,228,303,379,463,305,2
404,0.94,-0.33,-0.04,-0.49,-1.59,-2.99,225,300,381,462,304,2
405,0.94,-0.33,-0.04,2.32,-5.19,-1.46,227,300,377,467,309,2
406,0.95,-0.33,-0.04,-0.85,-0.43,-3.23,227,303,381,465,309,2
407,0.94,-0.34,-0.04,1.28,-2.87,-1.77,228,300,382,465,309,2
408,0.94,-0.35,-0.05,2.32,-4.58,-2.62,230,299,380,458,305,2
409,0.95,-0.33,-0.06,-2.2,-2.75,-5.49,234,299,379,462,310,2
410,0.97,-0.32,-0.07,1.22,-3.05,-2.81,230,300,381,462,309,2
411,0.93,-0.34,-0.05,-0.37,-1.46,-2.44,223,298,382,462,309,2
412,0.93,-0.32,-0.05,-2.26,-1.1,-1.34,230,306,381,461,309,2
413,0.93,-0.35,-0.04,2.93,-2.32,-3.23,227,301,379,462,307,2
414,0.95,-0.34,-0.02,3.78,-1.46,-6.1,229,301,383,462,310,2
415,0.96,-0.3,-0.03,1.4,-1.46,-3.05,225,300,381,462,312,2
416,0.95,-0.31,-0.03,0.55,-4.09,-2.01,231,297,381,461,309,2
417,0.97,-0.31,-0.02,-0.12,-2.5,-3.3,228,298,380,467,309,2
418,0.94,-0.32,-0.02,0.85,-3.72,-1.77,228,298,381,461,311,2
419,0.96,-0.31,-0.02,0.12,-2.01,-3.6,227,298,381,461,311,2
420,0.95,-0.32,-0.03,0.43,0.49,-5.37,230,299,379,458,310,2
421,0.85,-0.44,-0.24,30.21,-90.39,-2.44,231,302,381,463,312,2
422,1.03,-0.18,-0.54,-19.17,31.98,-37.05,228,299,370,462,311,2
423,0.99,-0.02,-0.37,-28.69,1.53,-5.8,230,298,382,464,310,2
424,0.87,-0.13,-0.27,-17.03,5.0,-7.81,229,301,382,466,306,2
425,0.9,-0.02,-0.13,-19.04,17.94,8.3,232,301,383,464,307,2
426,1.02,0.06,-0.15,-1.89,-2.32,-8.3,229,295,379,458,311,2
427,0.93,-0.05,-0.16,-9.83,-2.5,9.16,231,303,382,462,306,2
428,0.99,-0.03,-0.17,2.81,-2.56,-6.65,228,301,381,461,311,2
429,1.0,0.0,-0.17,-3.85,-0.92,-2.01,231,299,386,467,308,2
430,0.96,-0.02,-0.16,4.76,-4.27,-5.92,232,301,379,461,312,2
431,0.96,-0.02,-0.21,-3.23,-9.28,-0.24,229,300,382,461,310,2
432,0.96,-0.06,-0.24,12.39,-2.5,-10.62,237,301,384,462,309,2
433,1.06,0.12,-0.34,44.43,-22.46,-16.6,228,299,383,462,311,2
434,0.92,-0.12,-0.36,-5.92,-18.49,17.33,230,299,383,462,311,2
435,1.1,-0.15,-0.46,-52.37,44.19,-14.1,224,300,383,466,308,2
436,0.93,-0.1,-0.13,6.23,2.38,9.22,229,300,384,464,307,2
437,1.06,-0.16,-0.22,-25.57,35.28,11.78,227,297,382,463,310,2
438,0.97,-0.17,-0.13,12.33,-5.43,1.53,228,296,381,462,309,2
439,0.97,-0.18,-0.11,-6.71,0.37,1.89,227,297,385,456,310,2
440,0.97,-0.2,-0.13,-5.0,-1.4,-0.31,229,299,378,457,309,2
441,0.95,-0.19,-0.08,3.48,-6.41,3.97,229,299,382,468,310,2
442,0.95,-0.22,-0.15,-15.56,-1.46,-4.88,226,303,385,461,306,2
443,1.25,-0.15,-0.65,64.7,-156.31,16.97,227,297,384,468,308,2
444,0.92,-0.22,-0.12,12.76,-7.93,1.1,240,302,386,464,315,2
445,1.01,-0.2,-0.19,10.44,-13.06,-3.42,232,313,380,461,310,2
446,0.99,-0.21,-0.2,15.32,-22.28,6.59,229,300,379,462,308,2
447,0.95,-0.23,-0.13,4.88,-3.97,-1.77,231,302,381,457,309,2
448,0.95,-0.23,-0.14,-0.18,-2.69,-1.95,229,303,386,465,307,2
449,0.93,-0.24,-0.16,23.86,-51.94,5.07,233,301,378,461,312,2
450,0.93,-0.24,-0.17,0.18,4.46,-3.97,232,309,381,456,312,2
451,0.97,-0.23,-0.18,0.55,-2.69,-3.42,232,299,383,461,312,2
452,0.95,-0.24,-0.19,-1.1,-0.43,-4.39,226,304,383,461,311,2
453,0.94,-0.24,-0.15,1.1,-0.67,-2.56,232,300,386,463,309,2
454,0.96,-0.23,-0.13,0.61,-3.05,-1.89,232,304,383,458,310,2
455,0.96,-0.23,-0.15,-1.16,-1.65,-4.52,229,312,380,463,311,2
456,0.97,-0.21,-0.15,2.75,-2.2,-2.56,230,299,383,461,309,2
457,0.96,-0.24,-0.16,1.16,-3.48,-4.15,231,302,380,465,308,2
458,0.97,-0.25,-0.11,20.69,-3.05,5.49,216,288,383,468,294,2
459,0.93,-0.38,-0.24,33.51,-19.84,8.24,198,269,372,459,318,2
460,0.95,-0.38,-0.23,-16.54,-14.4,-1.65,188,251,376,460,273,2
461,0.9,-0.39,-0.22,-12.45,13.43,-11.9,182,250,378,461,272,2
462,0.91,-0.36,-0.2,1.71,1.4,-2.62,189,257,387,462,278,2
463,0.9,-0.37,-0.18,0.85,-0.43,-4.33,192,260,392,458,277,2
464,0.91,-0.38,-0.17,4.33,-2.87,-1.59,194,257,391,462,284,2
465,0.9,-0.37,-0.17,6.29,-3.05,-0.85,191,261,393,464,283,2
466,0.95,-0.33,-0.15,-1.77,2.87,-7.63,196,260,390,464,286,2
467,0.95,-0.32,-0.12,-4.21,1.65,-6.65,198,256,391,459,287,2
468,0.96,-0.24,-0.02,6.84,-8.73,3.05,199,262,391,468,283,2
469,0.96,-0.26,-0.06,1.16,-2.93,-2.14,201,263,389,467,286,2
470,0.96,-0.26,-0.05,0.55,-2.44,-2.87,199,265,392,457,287,2
471,0.97,-0.26,-0.07,0.73,-2.62,-3.42,198,265,387,465,285,2
472,0.97,-0.26,-0.06,3.3,-6.23,-0.92,202,268,388,462,287,2
473,0.95,-0.27,-0.05,0.92,-2.87,-0.67,199,264,385,461,289,2
474,0.96,-0.27,-0.06,0.49,-2.5,-2.5,205,266,388,462,287,2
475,0.97,-0.26,-0.06,0.0,-2.2,-2.81,202,264,391,463,284,2
476,0.97,-0.27,-0.07,2.93,-3.11,-2.01,201,265,393,463,287,2
477,0.96,-0.26,-0.06,0.79,-2.75,-4.03,204,268,389,462,278,2
478,0.96,-0.26,-0.05,1.34,-2.69,-2.5,201,269,386,464,287,2
479,0.97,-0.26,-0.05,1.04,-3.11,-2.75,201,268,389,467,288,2
480,0.96,-0.26,-0.06,-0.31,-3.17,-1.77,203,264,390,459,288,2
481,0.97,-0.29,-0.09,-1.59,-4.09,-2.32,198,267,390,467,287,2
482,1.0,-0.26,-0.09,-7.2,-3.97,-2.93,204,265,395,467,287,2
483,0.91,-0.28,-0.02,-15.14,-6.71,2.87,204,271,387,462,288,2
484,0.93,-0.27,-0.06,2.62,-5.43,-5.25,203,265,393,459,289,2
485,0.98,-0.27,-0.11,2.01,0.73,-8.12,200,270,390,468,290,2
486,0.93,-0.29,-0.08,-7.26,2.62,-6.35,203,268,388,469,293,2
487,0.96,-0.28,-0.1,-8.61,0.67,-7.2,205,269,389,466,289,2
488,0.97,-0.23,-0.05,-4.03,-4.15,-0.73,204,270,384,469,291,2
489,1.03,-0.24,-0.12,10.5,-4.46,-5.43,207,268,390,469,294,2
490,0.95,-0.25,-0.09,4.46,0.98,-9.83,203,270,387,465,294,2
491,0.92,-0.24,-0.08,8.85,-54.32,19.96,204,271,390,464,292,2
492,0.99,-0.28,-0.24,5.49,-15.26,5.55,205,268,389,464,293,2
493,0.94,-0.3,-0.23,1.89,2.81,-16.24,205,267,386,464,295,2
494,0.97,-0.21,-0.17,-6.84,-3.11,-5.13,207,269,386,463,293,2
495,0.94,-0.22,-0.17,-3.05,13.43,-11.17,204,267,387,465,291,2
496,0.96,-0.22,-0.17,-0.31,-1.34,-3.05,203,277,390,466,291,2
497,0.96,-0.22,-0.17,2.99,3.42,-9.28,204,265,385,460,295,2
498,0.98,-0.22,-0.16,-0.98,-3.23,-2.5,213,270,384,465,301,2
499,0.97,-0.2,-0.16,1.83,-4.58,-2.14,195,272,385,462,297,2
500,0.93,-0.23,0.3,-0.12,-1.16,-2.26,314,446,411,239,222,2
501,0.94,-0.22,0.3,-0.12,-1.95,-1.46,312,446,409,236,226,2
502,0.94,-0.22,0.3,-0.06,-2.5,-0.06,315,446,411,237,221,2
503,0.93,-0.21,0.31,-1.16,-3.17,-1.71,316,441,411,234,221,2
504,0.96,-0.23,0.3,0.55,-3.85,-2.14,312,449,410,239,220,2
505,0.93,-0.23,0.31,2.5,-2.14,-5.07,313,446,409,237,222,2
506,0.93,-0.24,0.3,-0.12,-2.44,-0.67,310,445,412,238,223,2
507,0.93,-0.26,0.28,-0.49,-3.85,-0.31,316,445,409,236,223,2
508,0.93,-0.27,0.28,-1.83,-1.65,-5.55,312,451,408,237,221,2
509,0.94,-0.24,0.29,-0.73,-1.83,-5.92,312,444,423,236,222,2
510,0.94,-0.22,0.3,-2.14,-2.69,-4.39,316,446,409,238,221,2
511,0.95,-0.22,0.29,-0.18,-3.05,-3.48,315,446,409,241,220,2
512,0.94,-0.23,0.28,1.34,-4.03,-2.5,317,446,411,241,221,2
513,0.93,-0.23,0.28,-3.36,-7.08,4.27,317,445,411,242,223,2
514,0.94,-0.28,0.25,-3.05,-5.68,0.79,316,443,409,240,222,2
515,0.92,-0.28,0.24,-1.65,-2.32,-4.58,319,445,411,241,222,2
516,0.94,-0.31,0.23,6.16,-7.81,8.67,322,449,408,241,223,2
517,0.92,-0.33,0.25,3.97,-1.16,-0.31,316,448,407,241,223,2
518,0.89,-0.33,0.27,-4.64,-3.72,-1.95,317,449,408,242,221,2
519,0.91,-0.32,0.28,-0.61,-3.11,-1.95,318,449,411,239,226,2
520,0.9,-0.33,0.28,0.24,-2.81,-3.05,320,446,407,240,223,2
521,0.91,-0.33,0.28,0.12,-2.99,-4.52,317,462,409,241,222,2
522,0.92,-0.33,0.27,1.16,-3.3,-2.87,319,444,404,246,223,2
523,0.91,-0.34,0.27,0.98,-1.59,-4.27,316,445,407,240,221,2
524,0.91,-0.33,0.27,1.1,-2.99,-1.53,317,443,407,238,226,2
525,0.9,-0.33,0.28,-0.06,-2.81,-2.99,312,447,420,243,224,2
526,0.92,-0.32,0.27,0.12,-3.05,-3.17,316,448,408,243,226,2
527,0.91,-0.33,0.27,1.04,-2.38,-2.26,317,449,406,242,225,2
528,0.91,-0.33,0.28,-0.24,-2.62,-3.6,312,449,409,241,223,2
529,0.91,-0.33,0.27,1.1,-2.44,-3.23,316,450,410,241,221,2
530,0.91,-0.33,0.27,-0.12,-3.42,-2.93,315,445,403,243,224,2
531,0.9,-0.33,0.28,0.06,-3.36,-2.38,317,445,403,240,215,2
532,0.91,-0.32,0.28,0.67,-2.81,-2.99,317,445,406,244,224,2
533,0.92,-0.32,0.28,0.12,-3.11,-3.91,317,446,406,242,224,2
534,0.92,-0.32,0.28,1.28,-3.05,-2.44,321,454,406,244,223,2
535,0.91,-0.31,0.28,1.59,-3.97,-0.98,319,440,407,242,224,2
536,0.91,-0.32,0.28,-0.79,-3.05,-2.99,318,450,405,243,224,2
537,0.91,-0.32,0.28,-0.12,-2.87,-3.78,318,443,401,241,224,2
538,0.92,-0.31,0.27,0.12,-2.44,-3.17,318,449,406,245,224,2
539,0.93,-0.31,0.28,0.55,-2.81,-3.6,318,450,405,243,227,2
540,0.91,-0.32,0.28,0.98,-3.48,-0.98,314,445,406,241,244,2
541,0.91,-0.31,0.29,0.43,-2.32,-1.89,316,447,404,255,222,2
542,0.91,-0.32,0.29,0.67,-2.87,-2.5,318,440,404,242,226,2
543,0.9,-0.34,0.28,-0.37,-3.11,-0.31,318,449,404,245,225,2
544,0.89,-0.33,0.29,-1.28,-3.54,1.4,317,446,405,243,226,2
545,0.89,-0.33,0.3,-4.82,-3.97,1.95,322,446,404,242,223,2
546,0.89,-0.35,0.28,0.55,-4.46,-1.65,317,449,405,246,224,2
547,0.9,-0.34,0.29,0.49,-3.6,-3.48,320,444,403,244,228,2
548,0.91,-0.33,0.28,-0.43,-3.11,-3.85,319,446,404,244,225,2
549,0.9,-0.32,0.3,-1.89,-0.37,-7.08,318,448,404,245,225,2
550,0.9,-0.33,0.3,0.92,-1.65,-4.09,318,447,404,246,226,2
551,0.91,-0.32,0.3,1.22,-2.75,-3.23,320,452,407,245,226,2
552,0.92,-0.32,0.3,2.93,-2.26,-3.3,318,444,406,251,226,2
553,0.91,-0.32,0.3,-0.43,-2.81,-3.17,322,451,405,246,232,2
554,0.91,-0.32,0.3,0.31,-2.81,-2.14,321,443,403,246,225,2
555,0.91,-0.32,0.3,0.37,-2.93,-2.56,323,447,405,248,229,2
556,0.91,-0.32,0.3,0.0,-2.69,-3.78,320,452,405,245,226,2
557,0.91,-0.31,0.31,-0.61,-2.93,-2.75,321,446,405,246,226,2
558,0.91,-0.31,0.31,1.22,-1.89,-3.23,320,448,404,244,227,2
559,0.9,-0.31,0.31,0.98,-2.87,-2.93,325,452,401,246,225,2
560,0.91,-0.31,0.31,0.67,-3.3,-2.99,321,451,405,247,229,2
561,0.91,-0.31,0.31,2.01,-2.62,-1.16,332,448,402,246,228,2
562,0.9,-0.3,0.31,0.0,-2.56,-2.32,321,452,404,244,226,2
563,0.9,-0.31,0.31,-0.85,-2.56,-3.78,320,449,401,248,228,2
564,0.91,-0.32,0.3,-0.06,-3.23,-2.62,323,449,403,244,227,2
565,0.91,-0.31,0.3,0.24,-3.17,-2.56,317,450,406,245,226,2
566,0.9,-0.31,0.31,-0.12,-2.69,-2.38,321,445,404,245,229,2
567,0.9,-0.31,0.31,1.59,-3.05,-3.11,326,451,404,246,226,2
568,0.92,-0.3,0.31,-0.55,-3.78,-2.56,322,453,406,247,227,2
569,0.9,-0.32,0.29,0.0,-2.99,-3.3,323,447,400,244,221,2
570,0.92,-0.29,0.31,0.31,-2.44,-4.15,323,453,404,248,228,2
571,0.91,-0.27,0.32,0.55,-3.05,-1.77,319,449,404,246,229,2
572,0.91,-0.31,0.3,-0.12,-3.42,-1.89,320,445,405,248,254,2
573,0.91,-0.29,0.31,2.14,-1.89,-1.59,323,452,402,248,226,2
574,0.91,-0.29,0.31,-0.18,-2.44,-2.62,319,452,405,246,228,2
575,0.91,-0.29,0.31,-0.18,-2.38,-2.14,318,447,405,243,231,2
576,0.9,-0.31,0.31,-0.43,-3.66,-1.59,318,452,403,245,229,2
577,0.9,-0.31,0.31,-0.37,-3.36,-1.95,320,452,401,249,226,2
578,0.91,-0.31,0.31,-0.67,-2.75,-2.93,322,445,406,249,227,2
579,0.91,-0.29,0.31,0.55,-3.05,-2.81,333,452,402,249,227,2
580,0.91,-0.31,0.31,-0.73,-2.99,-2.56,321,451,406,259,224,2
581,0.91,-0.3,0.31,0.92,-2.75,-4.27,320,446,402,246,226,2
582,0.91,-0.3,0.3,1.53,-2.93,-1.59,321,448,403,249,227,2
583,0.91,-0.31,0.31,0.18,-2.87,-2.26,319,452,408,247,228,2
584,0.91,-0.3,0.31,-0.61,-2.93,-3.11,323,448,402,249,226,2
585,0.91,-0.3,0.31,-0.37,-3.91,-1.34,318,448,405,248,228,2
586,0.9,-0.31,0.31,0.98,-1.77,-2.38,321,449,404,246,227,2
587,0.9,-0.31,0.31,-0.31,-2.87,-2.56,323,444,401,247,229,2
588,0.91,-0.31,0.31,0.37,-2.99,-2.62,322,457,404,245,229,2
589,0.91,-0.31,0.3,1.65,-3.23,-2.32,322,448,401,247,229,2
590,0.91,-0.3,0.31,0.85,-2.2,-3.54,324,449,402,246,227,2
591,0.91,-0.3,0.31,-0.24,-2.5,-4.15,322,443,402,248,229,2
592,0.91,-0.31,0.3,0.61,-3.17,-3.23,320,451,405,248,227,2
593,0.92,-0.3,0.31,2.26,-1.53,-4.15,318,450,401,246,227,2
594,0.91,-0.3,0.31,-0.98,-3.11,-3.54,320,449,404,250,227,2
595,0.91,-0.31,0.31,-0.37,-3.17,-1.46,318,445,402,252,226,2
596,0.91,-0.32,0.3,2.32,-1.71,-2.69,326,454,400,246,228,2
597,0.91,-0.32,0.3,0.98,-2.69,-3.6,325,453,400,248,227,2
598,0.91,-0.3,0.31,-0.67,-3.36,-3.11,319,449,406,246,230,2
599,0.9,-0.3,0.31,-0.61,-2.44,-3.48,322,450,398,247,228,2
600,0.9,-0.31,0.31,0.18,-4.15,-1.95,322,450,398,246,226,2
601,0.91,-0.3,0.31,-0.18,-2.99,-2.75,325,450,402,251,228,2
602,0.92,-0.3,0.31,0.61,-1.89,-4.03,324,452,400,247,217,2
603,0.9,-0.3,0.32,0.67,-3.05,-2.01,318,450,399,248,228,2
604,0.91,-0.3,0.31,-0.12,-2.93,-2.26,325,454,399,247,225,2
605,0.91,-0.3,0.31,0.79,-3.48,-1.22,322,451,401,250,228,2
606,0.92,-0.3,0.31,0.85,-2.87,-3.54,325,448,399,247,223,2
607,0.92,-0.3,0.3,1.16,-2.2,-1.77,322,453,395,250,223,2
608,0.91,-0.3,0.31,0.55,-3.05,-2.56,321,446,400,247,230,2
609,0.91,-0.3,0.31,-0.37,-3.36,-3.17,324,450,406,244,237,2
610,0.89,-0.34,0.3,4.58,-4.94,-0.79,323,450,400,257,229,2
611,0.91,-0.26,0.34,-30.7,6.35,2.08,325,454,396,249,229,2
612,0.86,-0.4,0.33,0.37,9.52,-2.69,323,450,399,250,227,2
613,0.85,-0.41,0.37,2.08,-1.28,5.31,322,451,401,247,223,2
614,0.82,-0.5,0.32,3.97,-4.64,4.64,322,451,400,245,225,2
615,0.82,-0.47,0.35,2.2,-7.08,4.88,323,444,396,252,229,2
616,0.82,-0.44,0.35,6.29,-7.69,-7.39,321,449,405,248,227,2
617,0.89,-0.44,0.31,3.54,0.49,-5.19,318,450,408,250,233,2
618,0.83,-0.39,0.34,-7.2,10.8,-35.28,320,457,410,250,226,2
619,0.92,-0.31,0.33,-10.25,-0.43,-17.52,320,453,410,248,229,2
620,0.85,-0.28,0.26,-5.74,-16.85,-1.83,321,456,411,250,229,2
621,0.87,-0.03,0.5,20.87,13.92,-16.78,319,451,407,252,225,2
622,0.76,0.03,0.28,-32.29,8.42,3.42,321,453,422,256,228,2
623,0.88,-0.29,0.32,4.03,-2.56,1.83,320,452,406,249,229,2
624,0.9,-0.14,0.42,16.42,4.52,-12.7,320,453,408,249,227,2
625,1.02,-0.01,0.36,8.3,-43.09,-2.5,323,456,405,248,228,2
626,0.97,-0.04,0.3,-4.33,11.72,-15.38,320,456,405,249,225,2
627,0.94,-0.0,0.35,2.93,-3.23,-1.1,320,453,408,249,226,2
628,0.96,-0.02,0.32,0.73,-3.05,-1.16,321,450,403,247,227,2
629,0.96,-0.01,0.34,2.75,-3.72,-1.59,323,453,407,251,227,2
630,0.95,-0.01,0.34,1.28,-2.75,-2.56,319,456,415,248,223,2
631,0.95,-0.01,0.35,1.89,-1.77,-3.48,316,456,402,250,225,2
632,0.94,-0.01,0.35,-0.12,-2.99,-1.59,323,452,406,250,225,2
633,0.94,0.0,0.35,0.49,-2.62,-3.78,322,452,405,249,225,2
634,0.94,0.0,0.35,0.98,-2.44,-0.98,322,456,404,253,228,2
635,0.94,0.0,0.35,0.24,-2.93,-2.62,321,452,401,251,228,2
636,0.94,0.0,0.35,-0.61,-2.32,-1.95,322,456,403,252,223,2
637,0.95,0.01,0.36,0.98,-3.36,-1.71,329,452,402,250,226,2
638,0.95,-0.0,0.35,0.98,-1.59,-2.87,321,455,404,250,221,2
639,0.95,-0.01,0.35,1.65,-3.91,-2.01,319,454,402,249,223,2
640,0.95,0.0,0.35,1.34,-2.62,-2.26,322,446,400,251,225,2
641,0.95,-0.01,0.35,0.43,-3.72,-1.95,324,452,399,250,270,2
642,0.95,-0.01,0.35,-0.79,-4.52,-1.22,318,459,404,249,228,2
643,0.95,-0.01,0.34,0.37,-2.69,-1.77,323,449,400,250,226,2
644,0.94,-0.01,0.35,1.59,-2.87,-2.75,323,452,403,252,225,2
645,0.95,-0.01,0.35,0.98,-3.11,-1.95,323,449,402,250,226,2
646,0.94,-0.01,0.35,-0.18,-2.5,-3.05,325,453,400,247,228,2
647,0.94,-0.01,0.35,0.24,-2.32,-3.3,324,452,398,252,229,2
648,0.95,-0.01,0.35,0.98,-2.69,-2.44,326,452,400,250,227,2
649,0.94,-0.01,0.35,1.16,-2.56,-3.3,326,452,403,250,228,2
650,0.94,-0.01,0.35,0.73,-2.75,-3.05,321,446,400,253,228,2
651,0.94,-0.01,0.35,0.31,-3.11,-1.77,318,450,397,248,226,2
652,0.94,-0.01,0.35,0.06,-3.6,-0.55,324,452,402,251,229,2
653,0.96,-0.02,0.35,1.1,-3.54,-0.55,321,457,401,253,228,2
654,0.94,-0.03,0.35,0.24,-3.48,-1.83,322,451,398,252,228,2
655,0.95,-0.03,0.35,-0.18,-2.14,-2.99,318,453,402,251,227,2
656,0.94,-0.02,0.35,-0.85,-3.05,-2.87,324,455,400,252,230,2
657,0.95,-0.02,0.35,0.49,-2.93,-2.81,322,451,401,254,223,2
658,0.95,-0.02,0.34,0.85,-2.38,-2.87,320,451,399,248,229,2
659,0.94,-0.02,0.35,0.61,-2.44,-2.81,325,446,412,248,228,2
660,0.95,-0.02,0.35,0.98,-3.48,-1.83,323,445,400,253,227,2
661,0.95,-0.02,0.35,0.24,-3.17,-2.32,320,453,400,253,229,2
662,0.95,-0.02,0.35,-0.06,-3.05,-2.62,318,454,401,251,228,2
663,0.95,-0.02,0.35,0.24,-2.2,-3.36,322,455,398,249,226,2
664,0.94,-0.02,0.35,0.67,-2.44,-2.5,323,454,398,253,228,2
665,0.95,-0.02,0.35,1.04,-3.17,-1.53,323,450,398,253,225,2
666,0.95,-0.02,0.35,0.61,-2.87,-2.62,322,447,402,251,225,2
667,0.95,-0.02,0.35,0.49,-2.87,-3.05,320,449,399,253,229,2
668,0.95,-0.02,0.35,0.37,-2.93,-3.05,320,451,403,250,230,2
669,0.94,-0.01,0.35,0.73,-3.23,-2.93,322,455,398,251,227,2
670,0.95,-0.01,0.35,-0.73,-2.81,-2.75,323,451,403,254,225,2
671,0.94,-0.02,0.35,0.0,-3.05,-1.59,322,452,397,253,227,2
672,0.94,-0.02,0.35,-0.92,-2.87,-2.01,322,450,399,253,228,2
673,0.95,-0.02,0.35,-0.12,-3.17,-1.65,321,446,396,253,225,2
674,0.94,-0.03,0.35,1.28,-1.34,-0.31,321,454,399,253,229,2
675,0.94,-0.04,0.36,0.61,-2.5,-2.62,323,445,397,248,225,2
676,0.95,-0.04,0.36,1.16,-1.89,-1.04,322,451,402,254,226,2
677,0.94,-0.05,0.37,0.18,-2.26,-2.01,322,451,395,246,228,2
678,0.92,-0.06,0.37,-0.73,-3.17,-1.53,324,455,395,249,225,2
679,0.93,-0.06,0.37,-0.06,-3.36,-1.34,323,451,399,249,224,2
680,0.94,-0.07,0.37,-2.2,-5.25,1.22,321,452,399,256,226,2
681,0.94,-0.08,0.37,-0.18,-2.32,-1.46,322,455,401,249,233,2
682,0.93,-0.09,0.37,0.61,-2.87,-2.69,322,454,397,250,225,2
683,0.95,-0.08,0.37,1.34,-2.93,-1.53,320,450,397,249,229,2
684,0.96,-0.1,0.35,-2.69,-6.47,-0.73,322,450,403,252,229,2
685,0.96,-0.14,0.33,-0.98,-3.85,-2.2,321,450,404,253,224,2
686,0.94,-0.14,0.32,-0.43,-4.33,-2.44,323,450,403,252,228,2
687,0.93,-0.14,0.33,-2.01,-4.21,-0.79,323,451,401,251,229,2
688,0.94,-0.15,0.32,0.61,-2.14,-3.36,321,452,401,253,228,2
689,0.94,-0.12,0.34,2.14,3.66,-3.85,322,450,401,254,224,2
690,0.95,-0.17,0.32,0.49,-6.96,6.96,325,452,402,249,227,2
691,0.94,-0.16,0.33,-7.02,0.37,-1.95,324,451,401,252,233,2
692,0.94,-0.15,0.33,2.08,-3.6,-0.92,325,455,402,252,225,2
693,0.96,-0.2,0.3,-1.77,-5.43,4.21,324,454,399,249,228,2
694,0.91,-0.22,0.3,-0.31,-2.5,-2.26,324,448,411,251,223,2
695,0.95,-0.21,0.3,0.12,-3.11,-5.25,325,451,400,253,263,2
696,0.95,-0.21,0.3,1.71,-2.14,-5.62,323,450,399,253,228,2
697,0.95,-0.2,0.31,1.46,-1.89,-4.33,323,455,398,248,226,2
698,0.95,-0.2,0.31,2.01,-2.32,-2.32,323,451,398,248,222,2
699,0.91,-0.21,0.31,0.06,-2.75,-1.28,319,451,399,249,229,2
700,0.94,-0.21,0.31,0.24,-2.69,-1.71,323,451,399,251,230,2
701,0.9,-0.21,0.32,0.43,-2.81,-0.79,325,451,399,251,229,2
702,0.93,-0.21,0.31,0.79,-4.27,-5.49,325,447,401,256,227,2
703,0.97,-0.18,0.32,-2.44,-3.78,1.1,324,449,397,254,238,2
704,0.92,-0.2,0.33,3.42,0.31,-0.55,324,450,401,248,228,2
705,0.92,-0.19,0.35,4.33,-2.93,-0.98,324,454,398,248,229,2
706,0.93,-0.22,0.33,-5.07,-3.42,3.6,323,452,400,249,225,2
707,0.94,-0.24,0.31,0.49,-2.32,-2.2,325,454,398,251,226,2
708,0.93,-0.22,0.32,-1.53,-3.23,-3.23,323,448,395,251,227,2
709,0.93,-0.21,0.34,-0.85,-0.73,-4.7,324,453,398,251,227,2
710,0.94,-0.23,0.31,2.93,-1.77,-5.31,322,455,397,252,229,2
711,0.94,-0.22,0.31,-0.98,-7.02,-0.18,322,459,400,250,229,2
712,0.93,-0.23,0.3,1.95,-2.14,-0.49,326,456,401,255,232,2
713,0.94,-0.25,0.29,0.98,-3.3,-1.65,322,455,395,251,227,2
714,0.92,-0.25,0.29,1.77,-2.87,-2.75,322,450,404,252,224,2
715,0.94,-0.25,0.29,0.67,-2.2,-3.97,325,455,401,249,225,2
716,0.93,-0.25,0.29,0.61,-2.32,-2.69,322,457,398,251,228,2
717,0.93,-0.24,0.3,0.61,-3.05,-3.23,323,455,399,253,229,2
718,0.93,-0.24,0.3,0.0,-2.38,-2.87,323,448,400,251,225,2
719,0.94,-0.23,0.3,2.38,-2.32,-2.99,328,447,396,254,225,2
720,0.92,-0.24,0.31,0.85,-2.62,-2.26,324,451,396,251,230,2
721,0.94,-0.24,0.3,0.31,-2.81,-2.87,324,452,400,252,229,2
722,0.93,-0.24,0.3,-0.06,-2.87,-2.38,320,456,400,253,231,2
723,0.93,-0.24,0.31,0.37,-2.69,-2.99,329,455,398,252,227,2
724,0.92,-0.23,0.3,1.71,-4.27,-0.12,322,451,397,254,229,2
725,0.93,-0.23,0.3,-0.24,-2.81,-2.08,325,455,396,250,227,2
726,0.93,-0.24,0.3,-0.06,-2.5,-6.1,323,449,406,254,226,2
727,0.92,-0.23,0.31,0.0,-4.82,-2.32,324,445,400,251,229,2
728,0.94,-0.22,0.31,0.18,-2.32,-1.71,323,446,406,254,230,2
729,0.93,-0.22,0.32,-0.18,-2.01,0.43,324,452,397,251,229,2
730,0.94,-0.21,0.31,2.75,-2.75,-3.66,322,451,396,251,227,2
731,0.93,-0.21,0.31,-0.49,-2.56,-3.6,319,451,396,253,226,2
732,0.91,-0.22,0.32,-0.55,-2.62,-1.16,323,453,397,254,225,2
733,0.94,-0.22,0.31,0.06,-2.69,-3.66,323,454,398,252,225,2
734,0.94,-0.23,0.3,1.34,-3.42,-3.54,324,455,396,253,228,2
735,0.92,-0.22,0.32,0.85,-2.93,-1.89,325,450,399,251,228,2
736,0.94,-0.21,0.31,-0.24,-3.05,-2.14,323,456,396,250,227,2
737,0.93,-0.21,0.32,0.06,-2.38,-2.81,325,451,396,253,226,2
738,0.93,-0.21,0.31,-0.92,-2.81,-2.87,322,451,397,256,229,2
739,0.93,-0.21,0.31,0.0,-2.75,-2.01,325,452,398,254,227,2
740,0.93,-0.21,0.32,0.79,-2.32,-2.75,323,450,398,253,229,2
741,0.98,-0.13,0.37,4.33,-1.46,-3.72,323,454,394,251,250,2
742,0.93,-0.19,0.32,3.17,-0.55,-2.87,323,452,399,256,227,2
743,0.93,-0.22,0.31,7.14,-0.18,-7.69,323,454,398,253,225,2
744,0.93,-0.21,0.32,-0.31,-1.34,-1.59,324,451,397,252,225,2
745,0.92,-0.19,0.33,-1.89,-7.2,6.16,324,448,397,249,227,2
746,0.92,-0.19,0.35,0.67,-1.4,-3.78,324,454,396,252,227,2
747,0.95,-0.17,0.34,2.87,-0.67,-4.09,323,451,397,252,230,2
748,0.94,-0.16,0.36,-0.61,-1.04,-2.69,322,452,395,254,254,2
749,0.91,-0.18,0.35,-2.14,-5.62,2.87,325,447,394,255,223,2
750,0.94,-0.18,0.33,-1.28,-2.38,-4.94,323,449,395,255,229,2
751,0.93,-0.17,0.33,-0.55,-2.26,-3.97,323,447,394,258,227,2
752,0.92,-0.16,0.34,0.0,-3.3,-2.08,321,450,396,253,244,2
753,0.95,-0.15,0.34,-1.22,-3.05,0.0,324,451,395,249,228,2
754,0.94,-0.14,0.36,-0.43,-2.01,-2.99,334,449,396,254,230,2
755,0.94,-0.17,0.34,-5.0,-4.58,-2.26,324,452,400,252,229,2
756,0.93,-0.18,0.33,0.0,-3.36,-3.78,324,450,394,256,261,2
757,0.94,-0.19,0.32,0.61,-3.54,-4.09,324,448,390,252,227,2
758,0.94,-0.18,0.34,1.16,-2.5,-3.17,320,454,393,251,226,2
759,0.94,-0.18,0.34,0.06,-2.99,-2.56,322,448,392,252,228,2
760,0.93,-0.17,0.33,0.61,-2.75,-4.7,322,454,393,250,226,2
761,0.93,-0.15,0.35,0.73,-2.44,-2.44,320,448,392,252,229,2
762,0.94,-0.16,0.34,0.92,-1.95,-3.3,325,457,391,250,229,2
763,0.95,-0.15,0.35,2.75,-1.95,1.22,323,448,405,255,228,2
764,0.91,-0.15,0.36,1.4,-2.69,0.79,323,453,395,253,267,2
765,0.93,-0.16,0.35,1.1,-2.26,-4.76,325,451,392,250,233,2
766,0.93,-0.15,0.35,2.5,-2.2,-3.6,323,452,392,253,229,2
767,0.94,-0.14,0.35,0.67,-2.81,-3.78,321,454,392,255,227,2
768,0.93,-0.14,0.36,0.43,-2.99,-1.46,322,447,395,254,228,2
769,0.93,-0.14,0.36,0.73,-2.81,-2.38,324,454,392,256,229,2
770,0.93,-0.14,0.35,0.37,-3.05,-1.95,321,450,391,255,230,2
771,0.93,-0.14,0.35,0.55,-2.81,-3.05,324,454,392,252,230,2
772,0.93,-0.14,0.36,1.04,-2.93,-1.65,324,452,392,255,227,2
773,0.94,-0.14,0.35,0.06,-3.05,-3.23,324,446,395,256,229,2
774,0.93,-0.13,0.36,0.37,-2.87,-1.77,324,450,393,255,230,2
775,0.93,-0.14,0.36,0.67,-2.93,-2.5,325,451,392,255,229,2
776,0.94,-0.13,0.36,2.01,-2.38,-2.01,320,453,393,253,230,2
777,0.93,-0.15,0.36,1.53,-3.48,-0.73,321,453,390,255,229,2
778,0.93,-0.16,0.35,5.98,-4.46,1.34,322,452,395,252,227,2
779,0.92,-0.17,0.36,1.77,-2.69,-2.44,327,450,401,252,227,2
780,0.92,-0.16,0.36,0.12,-2.08,-3.85,324,449,399,253,228,2
781,0.92,-0.15,0.36,1.46,-2.5,-2.14,324,449,402,252,226,2
782,0.93,-0.16,0.36,1.95,-3.05,-2.26,323,451,401,249,234,2
783,0.92,-0.16,0.37,1.83,-3.42,-3.11,323,452,401,253,228,2
784,0.93,-0.15,0.36,1.04,-2.93,-2.93,321,445,404,255,229,2
785,0.93,-0.15,0.37,0.18,-2.44,-2.75,321,452,400,252,229,2
786,0.93,-0.14,0.38,0.24,-2.26,-1.65,324,447,405,252,227,2
787,0.93,-0.15,0.37,0.79,-2.69,-3.3,323,452,401,253,229,2
788,0.93,-0.14,0.37,0.67,-3.72,-2.69,325,455,406,253,229,2
789,0.93,-0.14,0.37,0.79,-3.17,-2.62,324,453,404,250,225,2
790,0.93,-0.14,0.37,-0.24,-3.05,-2.2,327,456,403,251,230,2
791,0.92,-0.14,0.37,-0.55,-2.99,-1.71,320,452,401,252,225,2
792,0.93,-0.14,0.37,0.31,-2.93,-2.62,325,452,405,252,229,2
793,0.93,-0.13,0.37,0.43,-3.3,-3.78,323,452,401,253,229,2
794,0.93,-0.14,0.37,-0.85,-3.11,-3.23,327,451,404,253,240,2
795,0.93,-0.14,0.37,-0.06,-3.36,-3.78,324,451,403,254,227,2
796,0.92,-0.14,0.37,0.79,-3.11,-1.46,322,453,402,253,231,2
797,0.92,-0.15,0.37,0.0,-3.91,-1.71,321,452,398,251,225,2
798,0.93,-0.14,0.37,-0.18,-2.93,-2.38,325,453,402,253,232,2
799,0.92,-0.16,0.36,-0.73,-2.5,-6.59,323,453,404,254,230,2
800,0.93,-0.13,0.37,-0.37,-2.44,-3.97,326,455,402,255,226,2
801,0.92,-0.1,0.38,0.67,-3.66,2.44,325,452,402,256,231,2
802,0.95,-0.1,0.42,0.12,-3.72,0.12,321,451,405,253,226,2
803,0.91,-0.16,0.36,4.94,-2.2,-2.93,325,453,405,256,227,2
804,0.96,-0.11,0.38,2.99,7.45,-7.26,324,452,402,254,230,2
805,0.9,-0.11,0.41,1.83,-18.92,18.62,325,456,404,254,227,2
806,1.07,-0.12,0.32,7.39,3.6,-15.01,325,453,406,254,227,2
807,0.83,-0.07,0.39,11.72,2.01,-20.51,326,447,404,258,229,2
808,0.93,0.03,0.42,10.44,-1.34,-0.98,323,454,404,270,229,2
809,0.91,-0.08,0.38,9.4,-10.25,3.36,333,453,402,256,229,2
810,0.93,-0.11,0.35,-4.52,-0.85,7.69,323,450,403,254,229,2
811,0.94,-0.09,0.38,1.16,1.16,-5.68,320,457,404,254,226,2
812,0.91,-0.08,0.4,-0.98,2.14,-11.66,324,454,401,255,227,2
813,0.92,-0.08,0.39,2.44,-4.7,-2.14,326,447,403,265,229,2
814,0.92,-0.07,0.39,0.18,-2.38,-3.42,325,453,403,256,228,2
815,0.93,-0.07,0.39,-2.93,-3.42,-3.42,328,456,398,252,229,2
816,0.93,-0.08,0.38,0.24,-4.27,-2.69,329,456,399,253,229,2
817,0.92,-0.06,0.39,-0.61,-3.11,-1.4,327,449,402,246,227,2
818,0.93,-0.06,0.39,0.49,-1.95,-3.11,322,453,400,256,227,2
819,0.95,-0.04,0.38,-0.18,-4.46,-0.24,321,456,399,257,230,2
820,0.93,-0.04,0.39,0.43,-3.23,-1.77,325,452,399,254,228,2
821,0.93,-0.05,0.38,1.04,-3.05,-2.01,325,451,398,257,229,2
822,0.93,-0.04,0.39,0.67,-1.16,-2.14,321,450,397,252,228,2
823,0.95,-0.04,0.38,0.18,-3.23,-2.5,328,461,400,256,229,2
824,0.94,-0.05,0.38,1.65,-3.17,-4.09,326,448,401,254,228,2
825,0.93,-0.03,0.39,-0.24,-1.83,-3.66,324,449,398,254,230,2
826,0.93,-0.04,0.38,0.12,-2.81,-0.37,324,455,395,253,230,2
827,0.94,-0.03,0.4,0.43,-3.66,-2.93,326,453,399,255,228,2
828,0.93,-0.04,0.39,0.61,-3.42,-2.32,326,454,401,251,227,2
829,0.93,-0.03,0.39,-0.06,-2.81,-2.93,325,454,401,263,233,2
830,0.94,-0.03,0.39,0.55,-3.23,-3.05,323,457,396,251,228,2
831,0.93,-0.02,0.39,0.79,-2.62,-3.36,326,452,399,252,228,2
832,0.93,-0.02,0.39,0.24,-3.36,-2.87,324,448,397,255,228,2
833,0.9,-0.06,0.4,0.73,-4.7,-0.61,321,454,396,253,230,2
834,0.91,-0.02,0.38,-0.55,-2.38,2.56,322,456,398,254,230,2
835,0.95,0.01,0.38,-1.65,-2.75,-1.53,324,458,396,255,225,2
836,0.92,0.01,0.41,-2.01,5.62,-0.24,326,457,396,258,227,2
837,0.98,0.01,0.37,-0.49,-4.39,-4.58,326,457,396,254,233,2
838,0.95,0.07,0.42,-5.19,-3.23,-2.32,324,451,392,255,227,2
839,0.97,0.05,0.4,-8.36,-3.48,-12.27,325,453,398,259,228,2
840,0.94,0.01,0.38,-0.67,-5.8,-5.31,320,452,394,254,229,2
841,0.91,0.08,0.43,6.77,5.37,-2.99,321,456,394,259,230,2
842,0.91,0.1,0.43,-2.87,-11.41,-7.93,326,457,399,258,223,2
843,0.89,0.06,0.38,2.62,-4.82,11.54,326,449,397,269,227,2
844,0.93,0.08,0.38,-1.22,-4.76,2.08,322,452,397,255,225,2
845,0.93,-0.02,0.35,0.12,10.56,6.47,325,451,392,252,228,2
846,0.98,0.03,0.39,3.6,-6.47,-6.59,321,457,393,253,230,2
847,0.86,-0.08,0.4,-4.94,2.08,5.37,325,453,395,253,224,2
848,0.94,-0.06,0.4,2.75,-7.51,-1.46,325,457,395,250,225,2
849,0.93,-0.04,0.4,-9.03,-4.46,1.83,321,453,393,254,227,2
850,0.92,-0.1,0.41,8.12,-6.9,5.37,322,457,393,257,229,2
851,0.92,-0.07,0.38,3.91,-3.54,-0.49,323,453,393,254,226,2
852,0.95,-0.06,0.44,1.83,-5.8,-4.64,325,456,395,256,224,2
853,0.93,-0.04,0.42,1.04,-1.77,-4.64,322,453,393,257,223,2
854,0.92,-0.01,0.43,2.56,-3.36,-4.52,325,447,395,254,228,2
855,0.93,0.01,0.43,0.49,-4.03,-3.91,325,453,392,256,226,2
856,0.92,0.0,0.43,0.55,-3.11,-2.32,323,447,397,257,226,2
857,0.92,-0.01,0.43,0.61,-2.87,-2.32,324,453,395,256,226,2
858,0.93,0.01,0.43,0.12,-2.87,-3.6,323,448,398,253,227,2
859,0.91,0.01,0.43,0.92,-2.56,-2.62,324,452,394,260,227,2
860,0.91,0.01,0.43,0.49,-2.81,-3.6,324,454,393,258,230,2
861,0.91,0.03,0.44,1.59,-3.17,-3.97,324,453,395,257,234,2
862,0.91,0.04,0.44,1.04,-2.2,-4.03,324,456,398,251,231,2
863,0.91,0.03,0.44,-0.06,-2.87,-0.61,322,455,391,261,227,2
864,0.9,-0.03,0.43,-2.01,-0.61,2.38,324,449,395,260,228,2
865,0.9,-0.01,0.45,-2.26,-0.79,3.3,322,457,392,254,229,2
866,0.9,-0.02,0.46,-0.79,-1.46,-1.1,324,453,395,255,234,2
867,0.91,-0.01,0.45,-1.04,-3.48,-3.42,324,456,399,258,226,2
868,0.9,-0.01,0.46,0.67,-3.11,-3.11,325,456,396,256,229,2
869,0.89,-0.01,0.46,0.67,-3.23,-3.23,324,452,393,256,227,2
870,0.9,-0.0,0.45,0.67,-2.87,-3.54,325,452,394,252,226,2
871,0.91,0.0,0.46,-0.18,-3.3,-2.62,326,452,393,253,228,2
872,0.9,0.0,0.46,0.67,-2.99,-2.5,324,453,392,264,227,2
873,0.9,0.01,0.46,1.04,-3.48,-2.69,326,453,395,256,229,2
874,0.91,0.01,0.45,0.85,-3.17,-1.89,325,456,391,254,227,2
875,0.91,0.01,0.46,-0.73,-4.21,-1.04,326,453,394,257,229,2
876,0.9,-0.0,0.45,-0.43,-2.5,-2.32,324,453,395,256,231,2
877,0.9,0.0,0.47,-1.22,-0.24,2.56,324,451,393,256,227,2
878,0.89,-0.02,0.47,-0.12,-1.16,0.55,324,456,390,256,227,2
879,0.88,-0.02,0.47,0.55,-2.87,-2.75,325,451,394,255,229,2
880,0.89,-0.02,0.48,0.92,-3.3,-3.36,324,452,393,255,239,2
881,0.89,-0.01,0.48,-0.18,-2.32,-2.56,325,449,395,252,228,2
882,0.87,-0.03,0.49,0.61,-1.22,-5.13,325,453,395,255,229,2
883,0.87,-0.02,0.5,1.16,-3.3,-2.81,321,452,400,258,231,2
884,0.88,-0.01,0.48,0.73,-4.33,-2.01,321,455,392,260,227,2
885,0.9,-0.03,0.48,-3.17,-3.6,-2.5,325,447,393,258,227,2
886,0.89,-0.04,0.48,-6.04,-3.36,0.49,325,456,394,256,231,2
887,0.91,-0.04,0.47,1.65,-3.72,-2.69,325,455,390,256,223,2
888,0.9,-0.04,0.47,0.06,-2.93,-4.03,325,455,390,258,228,2
889,0.9,-0.04,0.48,-1.16,-3.54,0.67,320,452,391,255,227,2
890,0.89,-0.03,0.48,1.28,-3.78,-2.93,324,454,395,255,225,2
891,0.89,-0.03,0.48,0.73,-3.42,-2.75,325,455,396,254,227,2
892,0.89,-0.02,0.48,0.61,-3.6,-2.93,322,452,393,254,229,2
893,0.88,-0.02,0.48,0.12,-3.91,-2.2,325,453,393,255,226,2
894,0.89,-0.02,0.48,-1.28,-2.44,-5.0,324,456,393,257,229,2
895,0.89,-0.01,0.5,1.34,-2.75,-3.36,325,456,393,254,225,2
896,0.9,-0.06,0.46,3.23,-8.79,5.74,326,453,392,253,232,2
897,0.9,-0.05,0.47,2.44,-10.38,10.25,320,450,399,250,227,2
898,0.94,-0.08,0.45,2.69,-14.22,7.75,326,452,393,252,225,2
899,0.92,-0.09,0.46,7.14,0.61,-4.82,325,452,393,255,229,2
900,0.91,-0.09,0.47,5.25,4.76,-8.3,325,454,389,255,230,2
901,0.89,-0.1,0.48,1.95,-2.56,-4.82,320,450,393,257,229,2
902,0.89,-0.08,0.48,-1.16,-3.85,-1.53,327,446,392,257,231,2
903,0.9,-0.1,0.46,2.08,-5.49,-3.72,322,456,392,265,227,2
904,0.89,-0.09,0.47,1.04,-4.39,-2.93,320,451,391,254,226,2
905,0.9,-0.08,0.47,-0.18,-3.48,-3.3,324,456,393,255,229,2
906,0.89,-0.08,0.47,-0.24,-3.85,-3.17,322,452,394,258,228,2
907,0.89,-0.07,0.47,-1.46,-3.05,-3.17,322,452,391,258,229,2
908,0.9,-0.07,0.47,0.61,-2.99,-3.17,324,455,392,256,229,2
909,0.9,-0.07,0.46,0.49,-3.23,-2.56,327,456,392,256,228,2
910,0.89,-0.06,0.47,1.46,-3.17,-3.36,324,449,392,257,227,2
911,0.89,-0.06,0.46,0.31,-3.3,-2.26,325,452,391,257,228,2
912,0.89,-0.06,0.46,-0.24,-3.91,-2.38,326,452,393,255,229,2
913,0.89,-0.07,0.46,0.06,-2.62,-3.54,324,456,395,255,227,2
914,0.9,-0.05,0.47,0.55,-3.11,-2.99,324,452,397,254,225,2
915,0.9,-0.06,0.45,-0.18,-3.05,-1.59,325,456,393,258,229,2
916,0.9,-0.06,0.46,-0.18,-3.17,-3.17,322,453,395,255,229,2
917,0.9,-0.06,0.46,0.79,-2.93,-3.54,324,456,396,258,230,2
918,0.89,-0.06,0.46,0.24,-1.65,-2.44,319,452,395,254,230,2
919,0.9,-0.06,0.46,0.49,-3.36,-2.69,324,449,394,257,229,2
920,0.9,-0.06,0.46,0.73,-2.56,-3.05,325,460,392,253,227,2
921,0.9,-0.05,0.46,1.1,-2.99,-2.01,325,450,395,253,236,2
922,0.9,-0.06,0.46,0.06,-2.5,-2.08,324,452,394,255,227,2
923,0.91,-0.05,0.46,0.18,-3.48,-2.93,325,452,396,258,229,2
924,0.9,-0.06,0.46,0.24,-2.99,-2.44,323,455,394,255,227,2
925,0.9,-0.06,0.45,0.12,-3.48,-2.93,324,449,396,258,227,2
926,0.9,-0.05,0.46,-0.18,-3.36,-2.08,326,448,391,258,256,2
927,0.92,-0.04,0.45,0.55,-3.91,-3.05,325,457,395,257,225,2
928,0.9,-0.05,0.46,0.31,-2.08,-2.75,324,453,395,256,225,2
929,0.9,-0.05,0.45,0.49,-2.56,-2.26,325,452,393,256,225,2
930,0.91,-0.05,0.46,0.79,-3.11,-1.95,325,452,389,258,230,2
931,0.9,-0.04,0.46,-0.18,-2.99,-2.14,323,457,393,253,229,2
932,0.9,-0.05,0.45,0.92,-2.75,-2.75,327,452,392,255,227,2
933,0.9,-0.04,0.46,0.31,-3.05,-2.56,324,456,393,255,224,2
934,0.9,-0.05,0.45,-0.43,-3.48,-2.56,326,451,392,252,227,2
935,0.91,-0.04,0.45,0.85,-3.3,-2.62,327,451,394,257,229,2
936,0.9,-0.04,0.45,-0.55,-2.81,-3.17,327,452,396,253,230,2
937,0.9,-0.04,0.45,1.22,-3.05,-2.93,324,459,392,257,227,2
938,0.91,-0.04,0.45,-0.31,-3.36,-3.48,325,454,391,257,230,2
939,0.9,-0.04,0.45,0.73,-3.17,-3.23,322,456,390,256,228,2
940,0.9,-0.04,0.45,0.18,-3.05,-2.81,325,448,395,255,228,2
941,0.91,-0.04,0.44,1.04,-3.72,-2.5,324,453,393,258,227,2
942,0.91,-0.04,0.44,0.31,-3.78,-3.66,324,453,394,255,227,2
943,0.92,-0.03,0.44,0.12,-2.99,-3.48,331,453,392,253,229,2
944,0.91,-0.03,0.44,-0.49,-2.87,-4.52,323,452,392,258,229,2
945,0.9,-0.03,0.44,0.43,-2.87,-3.11,325,448,390,256,229,2
946,0.9,-0.02,0.44,0.0,-2.75,-3.66,326,456,388,258,226,2
947,0.91,-0.02,0.44,0.73,-2.5,-3.17,325,455,389,257,226,2
948,0.91,-0.01,0.45,0.18,-3.6,-2.93,323,454,388,256,228,2
949,0.9,-0.01,0.45,1.1,-2.99,-3.17,323,448,385,258,228,2
950,0.91,-0.01,0.45,1.04,-2.93,-2.32,324,453,388,256,227,2
951,0.91,-0.01,0.45,0.79,-2.56,-2.08,321,456,385,259,229,2
952,0.89,-0.02,0.44,-0.31,-2.69,-2.14,325,448,386,257,227,2
953,0.9,-0.01,0.45,0.24,-2.44,-2.56,324,456,385,258,227,2
954,0.89,-0.01,0.45,0.06,-0.73,-4.21,323,452,386,259,229,2
955,0.9,0.0,0.45,1.34,-2.32,-4.15,325,456,388,253,227,2
956,0.9,0.0,0.46,0.12,-2.38,-2.44,324,456,391,254,227,2
957,0.9,-0.0,0.46,0.18,-2.62,-2.99,324,452,388,256,229,2
958,0.9,0.01,0.46,0.24,-2.56,-3.3,325,455,387,255,228,2
959,0.9,0.01,0.46,0.0,-3.11,-2.5,331,455,387,259,230,2
960,0.91,0.01,0.46,0.79,-2.81,-1.77,325,451,390,256,230,2
961,0.9,0.03,0.47,1.71,-2.5,-4.33,324,455,394,254,229,2
962,0.91,0.01,0.46,0.43,-3.36,-1.77,324,454,386,256,230,2
963,0.89,0.01,0.46,1.22,-2.56,-2.75,325,452,389,256,225,2
964,0.9,0.01,0.46,1.1,-3.48,-2.99,325,453,390,256,225,2
965,0.9,0.01,0.45,1.65,-3.17,-2.01,327,452,385,256,231,2
966,0.91,0.0,0.45,-1.95,-2.56,-1.65,324,451,387,255,227,2
967,0.9,-0.01,0.46,-2.56,-1.28,-2.56,324,454,387,254,228,2
968,0.86,-0.04,0.48,0.18,-0.92,1.71,326,452,391,258,227,2
969,0.85,-0.04,0.49,0.61,-1.71,-3.11,326,451,385,256,230,2
970,0.87,-0.02,0.49,1.95,-4.33,-4.7,325,457,392,255,228,2
971,0.89,-0.01,0.5,0.37,-2.5,-4.7,327,451,386,257,227,2
972,0.88,-0.0,0.5,0.67,-3.11,-3.6,317,453,389,259,241,2
973,0.88,0.0,0.5,1.46,-3.85,-2.81,327,465,388,255,230,2
974,0.88,-0.0,0.49,1.04,-2.99,-2.87,326,453,392,254,230,2
975,0.89,0.01,0.49,1.65,-3.72,-2.44,320,453,390,257,228,2
976,0.88,0.0,0.49,0.43,-3.54,-2.81,324,453,390,259,227,2
977,0.88,0.0,0.49,0.0,-2.26,-2.32,325,452,388,256,226,2
978,0.88,0.0,0.49,-0.06,-3.05,-1.34,325,455,402,258,255,2
979,0.89,0.01,0.49,0.67,-2.2,-3.85,325,457,385,253,229,2
980,0.87,0.01,0.49,1.34,-3.72,-3.05,326,453,393,258,229,2
981,0.89,0.01,0.49,0.79,-3.36,-4.03,325,452,390,256,235,2
982,0.89,0.02,0.49,0.24,-2.81,-2.99,322,457,389,256,228,2
983,0.88,0.02,0.49,0.18,-2.99,-2.2,325,454,392,255,224,2
984,0.89,0.02,0.49,0.06,-2.87,-3.42,325,457,392,251,231,2
985,0.89,0.02,0.48,1.04,-3.48,-2.44,323,451,390,257,230,2
986,0.89,0.02,0.48,0.49,-3.11,-2.62,326,452,389,257,236,2
987,0.9,0.02,0.49,0.24,-2.93,-3.11,323,451,392,256,228,2
988,0.89,0.03,0.49,0.0,-2.56,-2.2,325,454,388,259,227,2
989,0.87,0.01,0.48,1.04,-0.43,1.1,327,453,389,256,229,2
990,0.87,0.0,0.49,-0.31,-2.56,-2.87,325,452,398,256,217,2
991,0.87,0.01,0.49,0.12,-3.05,-1.59,325,457,391,258,229,2
992,0.89,0.01,0.49,0.98,-3.23,-3.17,325,453,389,255,227,2
993,0.89,0.02,0.49,-1.1,-2.69,-2.38,325,453,388,259,227,2
994,0.83,-0.01,0.48,-0.12,-7.02,3.85,325,453,389,257,225,2
995,0.89,-0.01,0.48,0.0,-1.4,-4.46,326,452,391,256,228,2
996,0.86,-0.03,0.5,2.75,-4.52,-2.2,324,448,392,257,227,2
997,0.87,-0.0,0.48,2.32,-3.42,9.52,328,450,386,257,229,2
998,0.87,-0.0,0.49,2.56,-3.54,0.79,324,447,389,254,231,2
999,0.88,-0.03,0.48,-1.71,-6.41,-0.98,325,453,391,253,256,2
1000,0.88,-0.02,0.48,-0.18,-2.08,2.32,326,451,389,256,228,2
1001,0.84,-0.08,0.47,3.85,-8.54,6.96,325,451,388,255,228,2
1002,0.88,-0.14,0.46,-8.79,-5.31,8.91,324,451,390,256,225,2
1003,0.91,-0.1,0.47,0.12,-1.83,-5.55,325,455,389,255,229,2
1004,0.94,-0.08,0.42,-0.73,-4.39,-5.43,326,451,393,256,229,2
1005,0.93,-0.16,0.34,-41.56,-43.03,-1.28,325,448,385,261,235,2
1006,1.0,-0.18,0.03,-12.88,20.39,-25.09,353,457,387,463,373,2
1007,0.91,-0.16,0.07,-39.06,-14.28,-3.78,352,456,389,468,380,2
1008,0.97,-0.23,0.17,-2.62,-5.98,-2.62,327,445,442,281,248,2
1009,0.98,-0.22,0.14,0.67,-4.46,-2.56,327,456,441,285,248,2
1010,0.97,-0.22,0.15,-0.92,-2.08,-2.38,328,451,446,283,247,2
1011,0.97,-0.23,0.15,0.73,-2.87,-1.65,328,459,444,286,245,2
1012,0.96,-0.22,0.16,0.0,-2.38,-2.38,328,447,442,299,247,2
1013,0.97,-0.23,0.16,1.1,-3.3,-2.26,333,455,439,283,246,2
1014,0.97,-0.23,0.16,1.34,-3.48,-1.1,327,455,445,283,247,2
1015,0.96,-0.22,0.16,-1.83,-5.49,-3.72,330,452,440,283,246,2
1016,0.97,-0.22,0.15,-0.49,-3.11,-4.52,330,449,439,284,245,2
1017,0.98,-0.23,0.15,-3.23,-5.8,-2.56,329,451,438,283,248,2
1018,0.97,-0.22,0.15,0.61,-3.66,-1.59,327,452,439,280,247,2
1019,0.97,-0.22,0.15,2.08,-2.93,-1.59,330,454,438,286,248,2
1020,0.97,-0.22,0.17,0.18,-2.69,-1.1,329,451,444,281,246,2
1021,0.97,-0.23,0.16,0.61,-2.56,-1.83,330,452,437,290,245,2
1022,0.98,-0.22,0.16,0.24,-2.01,-1.89,331,452,433,284,247,2
1023,0.96,-0.24,0.16,-1.46,-4.15,-0.24,331,455,436,284,248,2
1024,0.96,-0.24,0.17,0.24,-3.23,-1.65,328,452,437,288,245,2
1025,0.96,-0.24,0.16,-0.98,-3.3,-3.23,330,453,438,286,245,2
1026,0.95,-0.25,0.17,-2.87,-2.44,-2.87,333,453,436,280,246,2
1027,0.96,-0.23,0.18,1.04,-3.85,-2.14,330,452,436,282,244,2
1028,0.96,-0.25,0.17,2.26,-2.5,-1.71,333,448,434,282,247,2
1029,0.97,-0.25,0.16,1.4,-3.48,-4.03,331,452,430,286,247,2
1030,0.95,-0.26,0.16,0.31,-3.48,-2.32,332,455,434,283,243,2
1031,0.96,-0.26,0.16,0.61,-3.17,-1.77,331,456,438,284,245,2
1032,0.96,-0.25,0.17,0.98,-2.75,-1.89,331,452,435,290,245,2
1033,0.95,-0.26,0.16,1.04,-2.5,-2.62,333,452,433,280,246,2
1034,0.95,-0.26,0.17,0.85,-1.16,-2.26,330,456,433,289,243,2
1035,0.94,-0.25,0.18,-0.31,-0.98,-2.14,330,455,433,283,265,2
1036,0.97,-0.25,0.17,0.92,-2.69,-1.34,327,453,433,286,245,2
1037,0.95,-0.25,0.18,-0.06,-3.66,-2.2,334,453,435,286,245,2
1038,0.95,-0.25,0.18,0.55,-2.44,-2.08,333,455,432,283,245,2
1039,0.95,-0.26,0.18,1.28,-2.08,-2.5,332,454,433,286,245,2
1040,0.96,-0.25,0.19,-0.06,-3.97,-1.89,330,453,432,290,245,2
1041,0.96,-0.25,0.19,1.1,-2.56,-3.05,329,461,429,291,247,2
1042,0.95,-0.25,0.19,-0.67,-2.87,-2.99,331,453,433,282,247,2
1043,0.95,-0.25,0.19,0.79,-3.05,-2.81,334,453,443,281,247,2
1044,0.96,-0.25,0.18,0.98,-3.78,-2.81,328,449,433,287,247,2
1045,0.96,-0.26,0.18,0.0,-2.26,-4.09,333,455,430,287,248,2
1046,0.95,-0.25,0.18,0.24,-2.08,-2.75,330,455,431,284,244,2
1047,0.97,-0.26,0.18,2.99,-3.17,-2.26,332,450,431,286,245,2
1048,0.95,-0.25,0.2,-1.04,-2.87,-3.42,330,456,433,291,245,2
1049,0.95,-0.25,0.19,-1.34,-3.66,-2.26,331,458,434,287,248,2
1050,0.96,-0.25,0.19,1.04,-3.72,-3.54,331,452,427,284,248,2
1051,0.97,-0.25,0.19,2.26,-3.17,-3.6,332,459,432,283,248,2
1052,0.96,-0.25,0.19,0.79,-2.87,-2.01,329,456,428,285,247,2
1053,0.95,-0.25,0.19,1.1,-3.17,-2.32,330,457,428,285,247,2
1054,0.95,-0.25,0.2,0.85,-2.93,-2.56,332,456,428,285,245,2
1055,0.95,-0.27,0.19,-2.44,0.06,-4.39,331,456,434,287,250,2
1056,0.96,-0.24,0.21,0.06,-3.36,-4.33,331,457,428,286,249,2
1057,0.97,-0.26,0.18,0.31,-3.17,-4.88,331,453,427,282,248,2
1058,0.97,-0.25,0.18,1.46,-1.28,-1.59,333,454,431,285,247,2
1059,0.95,-0.26,0.19,-0.43,-2.87,-2.26,329,450,428,285,245,2
1060,0.95,-0.26,0.19,-1.83,-5.43,0.79,327,454,429,282,248,2
1061,0.95,-0.26,0.19,0.98,-2.14,-3.6,332,453,429,286,247,2
1062,0.97,-0.27,0.17,3.91,-3.17,-3.97,331,453,427,285,243,2
1063,0.96,-0.27,0.17,1.34,-2.99,-2.56,332,453,429,283,247,2
1064,0.94,-0.26,0.19,1.65,-3.3,-1.71,328,455,428,286,253,2
1065,0.94,-0.27,0.19,1.46,-2.14,-1.95,331,457,427,285,247,2
1066,0.94,-0.25,0.2,0.31,-2.26,-1.89,329,454,429,286,246,2
1067,0.96,-0.25,0.18,-0.79,-2.2,-0.79,327,460,424,282,245,2
1068,0.95,-0.25,0.19,-2.01,-2.69,-0.12,333,455,428,288,247,2
1069,0.95,-0.26,0.18,0.18,-2.99,-2.81,331,449,428,285,246,2
1070,0.95,-0.26,0.18,0.49,-2.5,-3.97,329,454,425,284,244,2
1071,0.95,-0.27,0.17,0.49,-3.42,-2.44,333,457,426,285,246,2
1072,0.94,-0.27,0.18,-0.98,-1.46,-0.98,329,455,426,286,246,2
1073,0.94,-0.27,0.18,-0.92,-2.32,-0.37,328,454,426,284,247,2
1074,0.94,-0.26,0.19,-1.28,-2.62,-1.71,332,454,428,286,247,2
1075,0.97,-0.27,0.17,-1.53,-1.71,-4.09,333,455,431,286,243,2
1076,0.95,-0.25,0.2,1.04,-3.48,-2.08,331,457,425,287,246,2
1077,0.96,-0.26,0.18,-1.53,-1.4,-6.53,332,456,425,285,244,2
1078,0.93,-0.26,0.19,-0.73,-0.31,-5.13,332,457,425,282,246,2
1079,0.96,-0.25,0.19,-0.55,-2.99,-2.08,333,454,426,284,247,2
1080,0.94,-0.25,0.2,-0.92,-2.87,-2.38,333,453,425,284,242,2
1081,0.95,-0.24,0.22,1.04,-1.53,-2.32,331,454,426,285,246,2
1082,0.94,-0.26,0.21,1.04,-2.87,-4.82,332,454,427,287,248,2
1083,0.95,-0.25,0.2,-0.73,-2.44,-2.08,332,453,425,285,247,2
1084,0.96,-0.25,0.2,0.55,-3.42,-3.11,335,451,421,293,245,2
1085,0.95,-0.25,0.21,-1.04,-2.08,-2.01,332,458,424,283,245,2
1086,0.94,-0.24,0.22,-0.73,-2.81,-1.16,332,453,424,287,248,2
1087,0.95,-0.24,0.22,-0.12,-3.3,-0.43,333,459,424,285,244,2
1088,0.97,-0.24,0.21,0.98,-4.39,-3.11,331,452,424,286,244,2
1089,0.94,-0.24,0.22,1.46,-2.93,-2.32,334,456,424,286,248,2
1090,0.96,-0.23,0.22,2.14,-1.83,-1.89,334,457,421,288,247,2
1091,0.96,-0.26,0.19,1.34,-4.03,-3.23,333,458,422,283,244,2
1092,0.95,-0.25,0.21,1.1,-5.31,-1.28,330,450,423,287,246,2
1093,0.94,-0.25,0.22,0.37,-4.09,-4.15,334,454,426,287,245,2
1094,0.97,-0.23,0.22,-1.53,-1.95,-4.21,332,455,422,284,246,2
1095,0.96,-0.24,0.2,2.87,-2.5,-3.42,332,454,420,294,245,2
1096,0.96,-0.24,0.21,-1.04,-2.32,-3.05,330,455,427,287,242,2
1097,0.95,-0.24,0.22,-1.83,-2.93,-3.3,329,458,423,286,246,2
1098,0.94,-0.24,0.23,1.77,-3.11,-1.65,332,454,425,292,246,2
1099,0.96,-0.27,0.19,0.43,-1.53,-1.04,333,455,425,286,243,2
1100,0.96,-0.24,0.22,1.1,-2.38,-2.38,333,455,423,282,249,2
1101,0.94,-0.25,0.22,1.28,-1.95,-2.93,335,455,421,283,246,2
1102,0.98,-0.25,0.21,1.53,-3.72,0.06,332,455,424,285,249,2
1103,0.97,-0.27,0.21,-2.08,-0.67,-1.46,333,455,422,286,244,2
1104,0.94,-0.3,0.23,-0.61,-1.77,-1.89,328,455,424,285,247,2
1105,0.92,-0.31,0.21,-3.48,-2.5,-1.22,334,459,424,287,247,2
1106,0.93,-0.31,0.21,-1.04,-4.52,-3.97,332,454,426,289,245,2
1107,0.95,-0.29,0.22,1.89,-2.44,-5.68,331,454,437,289,247,2
1108,0.94,-0.28,0.23,0.24,-2.2,-4.94,329,451,422,293,243,2
1109,0.94,-0.28,0.22,-1.46,-3.72,-2.14,336,454,416,285,248,2
1110,0.94,-0.29,0.22,-1.04,-1.89,-2.5,334,459,420,287,248,2
1111,0.95,-0.28,0.23,-0.06,-2.5,-3.48,333,454,421,285,248,2
1112,0.93,-0.29,0.23,1.28,-2.62,-3.11,333,456,419,285,247,2
1113,0.93,-0.29,0.24,1.28,-4.64,-3.85,329,456,426,286,245,2
1114,0.95,-0.29,0.22,1.59,-3.11,-3.17,335,450,424,286,246,2
1115,0.91,-0.29,0.24,-0.31,-1.95,-2.14,333,455,423,286,247,2
1116,0.93,-0.29,0.24,3.85,-3.78,-0.79,333,455,420,289,247,2
1117,0.92,-0.3,0.24,1.4,-2.26,1.04,333,455,422,284,245,2
1118,0.92,-0.3,0.24,-0.79,-3.72,-0.98,332,455,419,284,245,2
1119,0.92,-0.3,0.23,2.08,-4.09,-3.17,334,459,433,287,249,2
1120,0.92,-0.29,0.22,0.92,-2.5,-2.44,332,459,421,286,245,2
1121,0.93,-0.3,0.22,-0.55,-2.87,-0.98,333,455,421,286,245,2
1122,0.92,-0.3,0.22,1.04,-3.17,-1.46,329,456,433,287,274,2
1123,0.95,-0.28,0.23,1.34,-2.62,-3.11,332,455,421,287,246,2
1124,0.92,-0.29,0.23,-1.28,-1.71,-2.38,332,460,423,286,245,2
1125,0.94,-0.3,0.23,-0.37,-2.32,-2.81,332,455,418,289,249,2
1126,0.95,-0.29,0.24,0.37,-4.58,0.12,329,459,420,288,256,2
1127,0.97,-0.3,0.2,5.74,-1.65,-2.32,333,455,420,286,244,2
1128,0.92,-0.3,0.22,0.43,-2.75,-5.92,336,453,420,286,270,2
1129,0.93,-0.29,0.23,5.8,-0.43,1.77,332,453,420,287,235,2
1130,0.92,-0.3,0.25,1.71,-3.91,-2.08,336,455,420,285,245,2
1131,0.9,-0.3,0.25,-1.4,-3.42,-2.26,331,455,417,284,241,2
1132,0.93,-0.28,0.24,-0.12,-2.2,-0.61,333,455,419,288,244,2
1133,0.94,-0.29,0.24,-0.85,-3.3,-1.83,332,458,421,290,245,2
1134,0.94,-0.29,0.24,0.92,-3.23,-1.59,333,451,419,285,247,2
1135,0.94,-0.28,0.25,1.65,-3.23,-1.83,332,460,415,292,246,2
1136,0.93,-0.3,0.24,0.61,-2.44,-3.05,328,460,420,288,248,2
1137,0.91,-0.29,0.27,-0.12,-3.17,-1.71,337,456,421,294,245,2
1138,0.93,-0.28,0.27,0.61,-2.93,-1.89,329,450,419,289,248,2
1139,0.96,-0.3,0.24,2.81,-2.62,-2.2,333,450,418,287,244,2
1140,0.92,-0.3,0.25,1.59,-2.81,-3.54,340,459,418,288,245,2
1141,0.95,-0.29,0.26,0.98,-2.32,-2.99,333,454,419,286,246,2
1142,0.96,-0.27,0.27,4.15,-3.72,-4.88,331,459,418,287,247,2
1143,0.93,-0.29,0.25,0.43,-2.93,-2.99,330,456,419,290,245,2
1144,0.93,-0.29,0.25,0.85,-3.23,-2.69,334,458,417,287,244,2
1145,0.93,-0.3,0.25,0.0,-2.75,-2.75,332,456,418,289,247,2
1146,0.94,-0.29,0.25,1.4,-2.32,-2.01,332,459,418,287,268,2
1147,0.94,-0.29,0.25,-0.55,-3.11,-1.89,333,461,418,286,245,2
1148,0.96,-0.28,0.25,1.46,-2.69,-1.53,335,454,419,295,248,2
1149,0.95,-0.29,0.25,2.75,-3.91,-3.3,334,455,416,285,246,2
1150,0.93,-0.3,0.24,-0.06,-2.01,-2.99,333,457,418,286,245,2
1151,0.93,-0.29,0.25,0.06,-2.99,-3.11,330,458,418,289,248,2
1152,0.92,-0.29,0.25,-0.12,-3.97,-2.81,334,459,424,288,245,2
1153,0.93,-0.29,0.25,-0.55,-3.11,-2.99,333,456,417,288,247,2
1154,0.93,-0.28,0.26,0.12,-1.83,-2.93,336,457,417,285,245,2
1155,0.92,-0.29,0.26,-0.61,-2.26,-3.05,335,454,417,286,245,2
1156,0.94,-0.28,0.26,1.71,-2.38,-2.14,327,459,417,286,247,2
1157,0.94,-0.28,0.26,2.32,-2.69,-3.66,333,459,416,283,244,2
1158,0.93,-0.29,0.25,0.49,-2.81,-2.08,333,458,416,285,248,2
1159,0.93,-0.29,0.26,0.43,-3.05,-2.08,330,455,415,286,246,2
1160,0.93,-0.29,0.26,-1.22,-2.62,-2.5,334,457,418,292,244,2
1161,0.93,-0.29,0.25,0.0,-2.75,-2.56,329,454,411,286,245,2
1162,0.92,-0.31,0.24,-0.06,-3.72,-2.93,334,450,417,286,245,2
1163,0.93,-0.3,0.24,-0.61,-2.32,-2.93,334,457,414,288,244,2
1164,0.94,-0.29,0.24,-0.24,-3.17,-2.81,334,460,414,287,247,2
1165,0.93,-0.29,0.25,1.04,-3.17,-3.36,333,457,415,291,245,2
1166,0.93,-0.29,0.25,0.73,-3.85,-2.44,333,459,413,286,243,2
1167,0.93,-0.28,0.26,0.06,-3.05,-1.95,334,456,412,286,272,2
1168,0.94,-0.29,0.25,0.18,-2.62,-2.44,333,456,411,283,244,2
1169,0.93,-0.29,0.26,0.85,-3.23,-1.95,334,457,415,286,244,2
1170,0.93,-0.28,0.25,-0.43,-3.85,-2.14,331,457,412,286,248,2
1171,0.94,-0.29,0.25,2.62,-2.56,-2.32,334,459,418,287,248,2
1172,0.93,-0.29,0.25,0.55,-3.6,-2.38,333,456,413,284,247,2
1173,0.94,-0.3,0.24,1.1,-2.01,-2.26,333,451,415,296,247,2
1174,0.93,-0.28,0.26,0.79,-2.99,-3.72,334,455,415,285,245,2
1175,0.93,-0.28,0.26,-0.61,-2.38,-2.62,332,462,418,288,245,2
1176,0.94,-0.28,0.25,-0.85,-2.81,-3.23,333,453,428,292,247,2
1177,0.94,-0.29,0.24,1.28,-4.15,-1.95,329,455,414,287,245,2
1178,0.93,-0.28,0.25,0.73,-2.81,-2.87,336,451,415,287,245,2
1179,0.94,-0.27,0.26,0.12,-2.93,-3.23,333,458,415,290,242,2
1180,0.93,-0.28,0.26,-0.24,-2.5,-2.75,322,450,414,287,249,2
1181,0.94,-0.27,0.26,1.04,-2.14,-3.72,333,458,417,287,245,2
1182,0.93,-0.27,0.26,1.04,-3.11,-3.3,333,460,417,288,246,2
1183,0.94,-0.27,0.26,-0.18,-3.48,-2.62,332,460,415,288,245,2
1184,0.94,-0.27,0.25,0.06,-2.38,-2.26,331,458,412,288,246,2
1185,0.93,-0.27,0.26,-0.31,-2.93,-2.56,333,450,410,290,249,2
1186,0.92,-0.28,0.25,-1.4,-2.75,-2.56,335,459,415,287,248,2
1187,0.93,-0.28,0.25,-0.12,-3.11,-2.56,331,459,415,290,245,2
1188,0.93,-0.27,0.26,-0.12,-2.38,-2.38,330,455,413,289,247,2
1189,0.94,-0.27,0.25,-0.06,-1.83,-2.5,332,459,417,285,247,2
1190,0.94,-0.27,0.25,0.49,-3.91,-1.65,332,455,413,289,247,2
1191,0.93,-0.27,0.25,0.18,-2.93,-2.32,335,460,411,287,245,2
1192,0.94,-0.27,0.25,1.16,-3.36,-3.17,333,455,411,290,247,2
1193,0.93,-0.27,0.25,0.67,-2.62,-2.75,335,459,411,290,247,2
1194,0.93,-0.27,0.25,-0.55,-2.32,-2.99,335,453,414,287,243,2
1195,0.94,-0.27,0.25,0.79,-2.99,-2.62,336,450,416,288,248,2
1196,0.94,-0.27,0.25,0.98,-2.32,-1.71,332,457,409,287,248,2
1197,0.94,-0.25,0.27,-2.32,-3.85,-3.11,336,463,415,291,247,2
1198,0.95,-0.25,0.26,-1.4,-2.38,-4.64,334,456,410,289,247,2
1199,0.92,-0.25,0.28,-0.37,-3.17,-0.31,334,458,411,287,243,2
1200,0.94,-0.27,0.25,0.98,-3.3,-1.1,332,453,411,290,245,2
1201,0.92,-0.26,0.26,0.49,-2.75,-2.32,332,458,415,288,245,2
1202,0.94,-0.26,0.25,0.79,-1.34,-4.21,333,457,414,291,247,2
1203,0.94,-0.26,0.26,1.53,-3.05,-2.14,333,454,411,285,248,2
1204,0.95,-0.25,0.26,2.2,-3.23,-2.93,333,458,413,288,246,2
1205,0.93,-0.26,0.26,0.18,-3.05,-3.23,332,454,412,286,243,2
1206,0.94,-0.28,0.25,-0.43,-4.15,-1.95,331,452,408,287,245,2
1207,0.94,-0.28,0.25,-0.85,-3.66,-2.5,336,458,416,288,246,2
1208,0.93,-0.26,0.26,1.34,-2.93,-3.42,333,456,412,288,246,2
1209,0.93,-0.27,0.25,0.85,-3.97,-2.01,335,455,414,288,246,2
1210,0.94,-0.27,0.25,1.28,-3.6,-2.5,333,455,414,288,246,2
1211,0.94,-0.27,0.25,-0.61,-2.26,-2.32,335,451,414,286,247,2
1212,0.94,-0.27,0.25,-0.12,-2.2,-2.69,331,459,412,290,243,2
1213,0.95,-0.28,0.24,-0.31,-3.48,-0.24,330,450,408,291,246,2
1214,0.94,-0.27,0.25,-1.04,-5.25,-4.39,334,455,413,290,249,2
1215,0.91,-0.26,0.28,-5.98,-4.76,-5.07,335,458,416,287,244,2
1216,0.94,-0.27,0.23,1.16,-2.69,-2.56,331,459,411,287,246,2
1217,0.96,-0.28,0.22,1.4,-2.62,-0.85,330,456,414,291,246,2
1218,0.95,-0.29,0.22,1.59,-3.6,-3.23,332,456,411,286,249,2
1219,0.94,-0.28,0.23,-1.77,-3.05,0.67,329,454,413,288,245,2
1220,0.93,-0.27,0.25,-2.75,-3.05,-1.83,327,453,416,289,248,2
1221,0.94,-0.29,0.22,-0.98,-3.91,-0.98,334,455,413,288,246,2
1222,0.92,-0.32,0.22,1.22,-3.6,-5.43,335,451,408,285,244,2
1223,0.95,-0.31,0.21,4.58,-5.74,-4.58,333,454,410,289,248,2
1224,0.92,-0.29,0.23,0.18,-2.99,-4.52,338,458,414,291,246,2
1225,0.92,-0.29,0.21,-1.59,-3.42,-2.08,332,455,412,285,247,2
1226,0.93,-0.28,0.23,-1.04,-2.08,-0.73,334,455,409,291,246,2
1227,0.93,-0.29,0.22,0.0,-1.77,-1.34,333,451,413,291,249,2
1228,0.93,-0.27,0.24,0.98,-2.2,-2.87,333,450,411,291,247,2
1229,0.93,-0.29,0.23,-0.31,-2.62,-2.62,333,459,414,291,248,2
1230,0.95,-0.27,0.24,0.55,-2.01,-3.17,330,458,414,285,248,2
1231,0.96,-0.27,0.23,0.92,-4.46,-2.62,335,454,411,287,249,2
1232,0.94,-0.28,0.23,0.49,-5.0,-1.95,333,458,410,287,247,2
1233,0.94,-0.27,0.23,1.95,-2.56,-2.56,332,458,411,287,245,2
1234,0.94,-0.26,0.24,0.49,-2.01,-2.69,335,454,410,290,243,2
1235,0.93,-0.27,0.24,1.4,-3.78,-2.81,334,450,411,288,246,2
1236,0.94,-0.28,0.22,0.85,-2.87,-2.56,334,455,411,291,250,2
1237,0.94,-0.27,0.23,0.31,-3.6,-2.08,333,453,414,289,246,2
1238,0.94,-0.27,0.23,0.61,-3.36,-2.44,334,455,411,289,249,2
1239,0.95,-0.27,0.23,1.04,-3.17,-1.46,334,450,407,289,246,2
1240,0.94,-0.26,0.24,0.55,-3.36,-3.23,335,458,413,288,244,2
1241,0.94,-0.27,0.24,1.77,-2.56,-3.11,334,454,410,290,248,2
1242,0.94,-0.27,0.24,0.31,-2.87,-2.14,336,452,408,295,246,2
1243,0.94,-0.26,0.25,1.28,-2.99,-2.69,330,452,411,289,248,2
1244,0.93,-0.27,0.24,0.73,-3.48,-2.81,334,457,410,287,244,2
1245,0.93,-0.25,0.26,0.67,-2.62,-2.14,335,454,411,294,246,2
1246,0.93,-0.26,0.25,0.61,-2.69,-3.11,334,460,409,289,250,2
1247,0.94,-0.26,0.25,1.59,-1.89,-2.26,334,455,409,289,247,2
1248,0.94,-0.27,0.24,0.06,-3.54,-1.83,330,453,406,291,246,2
1249,0.94,-0.26,0.24,0.61,-2.08,-3.66,333,455,411,291,246,2
1250,0.94,-0.26,0.25,-0.12,-2.69,-1.77,336,459,411,288,247,2
1251,0.94,-0.26,0.25,-0.06,-4.15,-1.34,334,455,408,288,248,2
1252,0.94,-0.25,0.26,0.12,-3.11,-1.65,334,450,411,288,246,2
1253,0.94,-0.27,0.25,0.24,-2.87,-2.26,337,454,411,289,273,2
1254,0.93,-0.26,0.25,0.85,-2.75,-2.44,331,452,406,290,254,2
1255,0.94,-0.28,0.24,0.92,-2.75,-2.69,333,450,409,291,246,2
1256,0.93,-0.27,0.25,-0.67,-3.85,-3.85,334,451,409,289,248,2
1257,0.94,-0.26,0.25,-0.12,-2.08,-3.91,334,456,409,291,249,2
1258,0.94,-0.27,0.24,0.43,-2.75,-2.2,334,455,410,290,247,2
1259,0.94,-0.27,0.25,-0.67,-2.93,-1.46,332,452,409,291,246,2
1260,0.94,-0.27,0.24,1.46,-4.03,-3.42,331,453,410,291,247,2
1261,0.94,-0.27,0.24,0.85,-4.33,-4.52,336,456,409,288,247,2
1262,0.94,-0.25,0.26,0.98,-2.62,-2.93,334,450,411,289,246,2
1263,0.93,-0.26,0.25,0.24,-3.05,-2.87,334,455,406,293,247,2
1264,0.95,-0.26,0.25,1.04,-2.14,-3.48,333,451,411,290,246,2
1265,0.93,-0.27,0.24,-0.12,-2.93,-2.01,336,455,409,288,249,2
1266,0.93,-0.27,0.25,0.37,-2.81,-3.36,335,457,408,288,244,2
1267,0.94,-0.26,0.25,1.1,-2.75,-2.87,332,455,407,288,248,2
1268,0.95,-0.25,0.25,0.85,-3.48,-2.56,334,459,408,291,246,2
1269,0.94,-0.26,0.25,0.37,-1.89,-2.44,336,455,412,291,248,2
1270,0.96,-0.26,0.25,1.28,-4.64,-3.11,329,452,408,288,249,2
1271,0.94,-0.26,0.25,0.31,-2.5,-2.87,334,456,411,288,247,2
1272,0.94,-0.27,0.24,-0.18,-2.99,-4.03,334,453,409,291,244,2
1273,0.93,-0.27,0.24,-0.98,-2.44,-2.69,333,455,407,290,254,2
1274,0.93,-0.27,0.24,-1.77,-4.33,-2.26,331,456,406,287,248,2
1275,0.94,-0.26,0.24,-0.37,-4.09,-2.2,332,458,408,289,250,2
1276,0.94,-0.28,0.23,0.06,-3.72,-1.4,335,459,406,288,237,2
1277,0.92,-0.26,0.25,0.24,-4.94,1.04,334,455,412,288,247,2
1278,0.93,-0.3,0.2,-1.04,-2.32,-4.64,335,458,408,294,256,2
1279,0.94,-0.28,0.22,0.31,-1.53,-1.71,333,457,410,291,245,2
1280,0.94,-0.28,0.22,-1.65,-1.53,-3.3,334,455,408,290,248,2
1281,0.94,-0.28,0.23,0.31,-3.97,-3.85,331,456,408,288,247,2
1282,0.95,-0.28,0.22,-1.59,-2.14,-2.62,335,459,408,288,247,2
1283,0.95,-0.27,0.22,-0.67,-2.81,-0.73,334,453,408,289,246,2
1284,0.94,-0.28,0.23,0.37,-2.01,0.0,336,458,410,292,249,2
1285,0.94,-0.28,0.23,-0.31,-2.5,-2.56,333,454,406,292,247,2
1286,0.91,-0.3,0.22,0.12,-4.03,-1.22,336,458,407,290,248,2
1287,0.92,-0.3,0.2,-2.26,-1.71,-0.55,332,451,409,294,248,2
1288,0.94,-0.29,0.21,2.01,-3.6,-4.64,340,461,409,290,246,2
1289,0.94,-0.27,0.23,1.04,-3.23,-2.26,334,454,407,289,250,2
1290,0.93,-0.32,0.19,-4.33,-4.27,-2.87,336,450,408,290,246,2
1291,0.96,-0.29,0.21,-1.28,-4.52,1.46,334,451,401,288,249,2
1292,0.94,-0.3,0.22,4.88,-5.37,-3.05,334,455,405,287,247,2
1293,0.93,-0.33,0.2,1.46,-1.65,-3.36,331,459,407,286,263,2
1294,0.94,-0.32,0.2,1.89,-1.1,-3.85,337,454,404,287,246,2
1295,0.94,-0.3,0.22,4.58,-4.03,-6.53,334,456,407,288,247,2
1296,0.97,-0.32,0.16,0.43,-6.77,-10.01,335,458,404,285,249,2
1297,0.96,-0.25,0.2,3.54,4.15,-9.16,342,453,405,289,247,2
1298,0.97,-0.25,0.2,3.42,-2.99,-4.03,337,459,405,290,248,2
1299,0.94,-0.25,0.21,-0.49,-0.67,-1.77,337,454,406,289,249,2
1300,0.95,-0.24,0.22,0.37,-1.53,0.06,341,460,404,291,248,2
1301,0.96,-0.25,0.21,1.46,-2.26,-3.23,334,458,406,289,249,2
1302,0.95,-0.26,0.21,0.92,-3.11,-1.59,334,455,418,286,250,2
1303,0.95,-0.25,0.21,-0.18,-3.11,-2.87,336,457,410,287,249,2
1304,0.95,-0.25,0.23,0.61,-3.36,-2.2,332,459,408,291,250,2
1305,0.95,-0.26,0.21,2.93,-1.89,-2.81,334,455,405,288,255,2
1306,0.95,-0.27,0.21,1.04,-3.05,-2.62,336,460,407,292,250,2
1307,0.95,-0.26,0.22,0.92,-1.4,-2.62,335,459,407,293,248,2
1308,0.95,-0.26,0.22,-0.73,-2.81,-1.46,337,456,408,292,248,2
1309,0.95,-0.25,0.24,-0.61,-2.38,-1.34,335,460,409,293,249,2
1310,0.94,-0.26,0.23,-0.73,-3.11,-1.89,336,455,405,292,249,2
1311,0.94,-0.26,0.24,1.89,-2.38,-2.01,339,465,406,292,250,2
1312,0.93,-0.26,0.23,0.37,-2.32,-2.32,335,455,407,290,250,2
1313,0.94,-0.26,0.23,1.22,-3.05,-1.65,334,459,408,291,248,2
1314,0.93,-0.27,0.23,1.59,-2.75,-1.22,335,466,405,290,248,2
1315,0.95,-0.26,0.22,0.55,-3.97,-2.75,345,450,408,289,245,2
1316,0.93,-0.26,0.24,-1.89,-2.26,-2.62,333,460,410,289,247,2
1317,0.93,-0.27,0.23,0.18,-3.17,-2.75,335,455,405,288,250,2
1318,0.95,-0.27,0.23,-1.77,-1.77,-4.03,335,457,405,293,263,2
1319,0.96,-0.26,0.22,0.73,-4.58,-2.44,334,453,407,288,243,2
1320,0.95,-0.27,0.22,1.22,-2.69,-2.87,336,455,405,290,250,2
1321,0.95,-0.27,0.23,1.77,-2.81,-2.87,336,456,404,292,249,2
1322,0.95,-0.26,0.23,0.92,-2.2,-3.05,333,459,407,296,249,2
1323,0.94,-0.26,0.24,1.22,-2.81,-2.26,337,455,404,289,253,2
1324,0.94,-0.26,0.24,1.16,-2.93,-2.81,331,458,406,290,256,2
1325,0.95,-0.26,0.24,-0.79,-2.69,-2.93,330,457,402,292,248,2
1326,0.94,-0.26,0.24,0.24,-2.87,-3.3,337,455,404,289,247,2
1327,0.94,-0.26,0.23,0.18,-3.05,-3.66,336,451,404,289,249,2
1328,0.93,-0.27,0.23,2.01,-3.42,-3.05,335,456,403,288,250,2
1329,0.94,-0.26,0.23,1.22,-3.3,-2.5,336,459,404,286,249,2
1330,0.95,-0.26,0.23,-0.24,-1.77,-2.2,335,449,400,293,248,2
1331,0.95,-0.26,0.23,1.53,-2.56,-2.62,331,457,398,293,248,2
1332,0.95,-0.27,0.23,0.43,-2.69,-2.08,337,454,397,292,248,2
1333,0.95,-0.27,0.23,0.43,-3.42,-1.65,330,456,400,287,249,2
1334,0.94,-0.26,0.23,-0.61,-2.93,-2.75,335,455,402,291,250,2
1335,0.94,-0.26,0.23,0.31,-3.91,-1.83,339,459,405,292,251,2
1336,0.95,-0.26,0.23,0.49,-3.54,-2.38,335,455,398,291,250,2
1337,0.95,-0.25,0.24,-0.85,-2.69,-2.38,330,459,398,285,248,2
1338,0.94,-0.26,0.24,0.12,-2.93,-1.83,334,459,402,289,250,2
1339,0.94,-0.26,0.24,0.79,-2.14,-3.42,332,458,403,289,249,2
1340,0.95,-0.26,0.24,-1.04,-3.42,-1.65,332,450,401,292,262,2
1341,0.94,-0.26,0.25,0.61,-2.38,-2.26,335,456,403,289,249,2
1342,0.94,-0.26,0.24,0.43,-3.78,-1.59,337,450,397,291,254,2
1343,0.94,-0.26,0.23,-0.49,-3.42,-2.69,336,457,405,286,251,2
1344,0.94,-0.26,0.24,0.98,-2.38,-2.56,343,459,402,286,250,2
1345,0.93,-0.27,0.24,0.0,-2.2,-3.23,337,458,396,292,248,2
1346,0.94,-0.28,0.23,-1.04,-2.99,-2.38,337,453,402,290,250,2
1347,0.94,-0.27,0.23,1.34,-3.23,-2.26,331,456,402,286,250,2
1348,0.95,-0.27,0.24,1.04,-3.3,-2.69,330,450,402,292,250,2
1349,0.95,-0.26,0.24,0.43,-4.03,-2.26,333,455,399,289,250,2
1350,0.94,-0.27,0.24,1.22,-3.54,-2.69,334,454,400,289,247,2
1351,0.95,-0.27,0.24,0.18,-3.23,-1.34,336,457,400,285,247,2
1352,0.93,-0.27,0.23,-0.55,-3.48,-1.34,339,450,402,290,248,2
1353,0.94,-0.27,0.24,1.4,-3.05,-1.65,335,456,397,286,246,2
1354,0.93,-0.26,0.25,0.67,-3.17,-2.44,337,457,400,290,247,2
1355,0.94,-0.26,0.25,0.31,-2.69,-2.99,334,456,398,292,247,2
1356,0.94,-0.27,0.25,-0.43,-4.46,-1.59,334,450,402,289,250,2
1357,0.93,-0.27,0.24,1.1,-3.11,-2.14,334,459,403,289,250,2
1358,0.94,-0.27,0.24,-0.85,-3.42,-1.89,328,455,402,293,247,2
1359,0.94,-0.28,0.23,0.24,-3.23,-3.11,338,456,398,291,248,2
1360,0.94,-0.27,0.24,1.59,-2.56,-2.81,334,456,400,289,275,2
1361,0.94,-0.27,0.25,-0.12,-2.62,-2.44,336,456,400,290,249,2
1362,0.93,-0.27,0.25,0.49,-3.42,-1.46,331,459,400,290,247,2
1363,0.93,-0.27,0.25,0.73,-2.56,-2.44,334,456,399,289,249,2
1364,0.94,-0.27,0.24,0.43,-2.75,-3.05,333,451,405,292,277,2
1365,0.95,-0.27,0.24,0.92,-2.75,-2.75,335,457,400,292,248,2
1366,0.94,-0.27,0.24,0.98,-2.87,-2.69,334,457,401,292,247,2
1367,0.94,-0.29,0.23,2.08,-3.36,-3.36,337,459,400,290,245,2
1368,0.92,-0.29,0.23,-0.18,-3.97,-4.58,337,454,403,288,249,2
1369,0.93,-0.27,0.25,-0.73,-2.81,-2.56,333,453,402,290,247,2
1370,0.93,-0.28,0.24,0.49,-3.05,-2.75,335,456,400,293,247,2
1371,0.93,-0.28,0.24,1.16,-3.78,-2.87,342,451,400,287,250,2
1372,0.94,-0.26,0.25,2.69,-4.58,-2.32,333,455,403,289,247,2
1373,0.96,-0.26,0.23,2.32,-2.26,-1.95,333,453,401,292,248,2
1374,0.94,-0.29,0.23,0.55,-2.75,-2.56,334,457,401,292,248,2
1375,0.94,-0.27,0.25,1.34,-2.87,-2.56,335,456,399,289,250,2
1376,0.94,-0.27,0.24,2.38,-2.75,-4.15,332,460,396,290,247,2
1377,0.93,-0.27,0.23,2.2,-4.58,-2.01,333,455,398,290,252,2
1378,0.91,-0.27,0.24,-1.34,-4.46,-4.21,338,452,399,286,250,2
1379,0.93,-0.25,0.25,-3.17,-0.49,-0.43,331,457,404,290,248,2
1380,0.94,-0.26,0.24,0.49,-3.66,-0.73,336,459,403,291,247,2
1381,0.94,-0.26,0.24,1.16,-2.75,-3.48,337,452,398,287,244,2
1382,0.94,-0.26,0.24,-0.06,-3.05,-2.56,334,459,399,289,247,2
1383,0.93,-0.26,0.24,-2.38,-2.99,-3.05,334,456,400,293,250,2
1384,0.94,-0.25,0.25,-0.12,-2.93,-0.61,335,460,400,287,250,2
1385,0.95,-0.26,0.23,-2.5,-2.26,-4.64,335,456,400,289,248,2
1386,0.94,-0.25,0.24,-1.95,-1.71,-2.56,334,456,398,291,247,2
1387,0.93,-0.25,0.25,-0.31,-2.5,-1.65,334,455,402,293,247,2
1388,0.94,-0.24,0.25,0.12,-2.08,-2.2,334,460,399,292,250,2
1389,0.95,-0.25,0.25,0.37,-2.14,-3.6,334,462,401,291,253,2
1390,0.94,-0.26,0.24,0.98,-2.14,-2.75,331,459,402,292,259,2
1391,0.94,-0.25,0.25,1.22,-3.91,-2.75,335,451,397,293,248,2
1392,0.95,-0.26,0.24,1.28,-2.62,-2.69,334,455,396,286,248,2
1393,0.94,-0.24,0.25,2.44,-3.72,-2.75,334,459,398,292,249,2
1394,0.96,-0.25,0.24,2.01,-4.46,-2.87,334,458,399,290,246,2
1395,0.94,-0.24,0.25,1.16,-3.23,-2.44,334,457,399,290,247,2
1396,0.94,-0.24,0.24,-0.31,-2.93,-2.32,336,456,400,289,249,2
1397,0.94,-0.25,0.24,-0.67,-2.44,-2.26,330,452,400,292,244,2
1398,0.95,-0.24,0.25,0.98,-2.01,-2.14,331,459,401,291,248,2
1399,0.96,-0.23,0.24,-3.17,-6.53,-1.77,333,456,395,287,247,2
1400,0.91,-0.27,0.24,2.5,-5.25,-0.61,333,455,401,291,245,2
1401,0.93,-0.28,0.21,-0.12,-2.69,-2.5,334,457,399,290,248,2
1402,0.94,-0.29,0.2,-0.06,-2.81,-1.71,337,457,401,291,249,2
1403,0.94,-0.26,0.22,-0.61,-1.34,-4.27,335,457,397,289,249,2
1404,0.96,-0.26,0.2,-1.16,-1.83,-1.65,334,451,398,290,244,2
1405,0.94,-0.26,0.21,1.65,-2.5,-3.17,334,450,400,294,248,2
1406,0.95,-0.25,0.22,-0.06,-4.33,-1.71,335,456,400,290,249,2
1407,0.94,-0.25,0.22,0.49,-2.44,-1.71,335,451,396,288,257,2
1408,0.94,-0.26,0.21,-1.1,-2.26,-2.62,332,455,398,292,247,2
1409,0.96,-0.26,0.2,-0.18,-1.4,-2.2,332,453,397,292,248,2
1410,0.95,-0.25,0.22,-0.37,-2.01,-3.11,335,455,398,290,247,2
1411,0.94,-0.26,0.23,0.31,-3.11,-1.22,335,455,398,292,247,2
1412,0.94,-0.27,0.22,-0.31,-2.01,-2.01,332,458,402,292,248,2
1413,0.95,-0.27,0.22,0.55,-3.54,-2.38,334,454,398,289,248,2
1414,0.94,-0.27,0.22,-0.49,-2.62,-2.81,331,457,398,290,250,2
1415,0.94,-0.26,0.23,0.43,-1.89,-2.01,335,451,398,291,244,2
1416,0.96,-0.27,0.22,-0.55,-1.83,-1.65,336,461,401,291,271,2
1417,0.96,-0.26,0.23,1.04,-3.48,-2.5,332,455,398,289,252,2
1418,0.95,-0.27,0.23,0.79,-3.05,-1.22,331,450,399,292,247,2
1419,0.94,-0.27,0.23,-0.06,-2.38,-1.4,335,455,396,291,250,2
1420,0.95,-0.27,0.23,-0.79,-3.23,-1.34,335,462,396,291,249,2
1421,0.91,-0.28,0.24,-1.16,-2.26,-0.79,333,449,398,291,249,2
1422,0.94,-0.29,0.22,2.32,-3.78,-3.23,334,465,400,292,250,2
1423,0.94,-0.28,0.23,-0.31,-2.69,-2.2,334,455,397,294,248,2
1424,0.95,-0.27,0.24,1.53,-2.93,-1.28,333,455,394,291,249,2
1425,0.94,-0.27,0.24,0.43,-2.75,-1.59,334,457,396,292,249,2
1426,0.94,-0.27,0.24,-0.92,-2.56,-1.89,336,459,397,293,247,2
1427,0.93,-0.28,0.23,0.67,-2.62,-3.36,337,458,399,290,249,2
1428,0.94,-0.27,0.24,1.71,-2.99,-3.17,336,463,400,292,276,2
1429,0.94,-0.27,0.23,0.79,-3.42,-2.81,335,458,400,292,250,2
1430,0.95,-0.27,0.23,1.34,-3.36,-2.69,338,456,397,292,250,2
1431,0.94,-0.27,0.24,0.43,-3.54,-2.32,331,459,397,289,247,2
1432,0.94,-0.28,0.23,1.65,-2.99,-2.93,331,451,399,290,248,2
1433,0.94,-0.27,0.24,0.0,-2.56,-3.54,335,455,394,292,251,2
1434,0.93,-0.27,0.23,0.18,-2.5,-2.5,333,454,397,290,248,2
1435,0.94,-0.26,0.24,0.31,-2.81,-3.6,335,458,400,291,248,2
1436,0.94,-0.27,0.23,0.79,-2.69,-2.62,333,455,400,293,246,2
1437,0.94,-0.26,0.25,1.1,-2.99,-1.95,333,458,399,297,249,2
1438,0.95,-0.27,0.23,-2.69,-3.05,-4.15,338,453,396,290,247,2
1439,0.94,-0.27,0.23,1.4,-2.87,-3.11,334,458,399,288,244,2
1440,0.94,-0.27,0.23,1.34,-3.05,-3.17,338,451,397,292,247,2
1441,0.94,-0.26,0.24,-0.37,-1.65,-2.81,337,456,396,291,249,2
1442,0.94,-0.27,0.23,0.79,-2.14,-3.11,337,455,397,292,249,2
1443,0.94,-0.26,0.24,0.24,-2.5,-1.77,333,455,397,289,248,2
1444,0.95,-0.27,0.24,0.43,-3.11,-2.69,332,456,395,292,247,2
1445,0.95,-0.27,0.23,0.49,-3.54,-2.87,336,455,396,291,250,2
1446,0.95,-0.26,0.23,0.31,-3.78,-2.38,337,459,397,290,248,2
1447,0.94,-0.26,0.24,1.22,-4.03,-2.5,335,456,397,292,248,2
1448,0.94,-0.27,0.23,-0.18,-1.83,-2.5,335,456,396,291,250,2
1449,0.95,-0.28,0.22,0.31,-2.2,-1.89,331,456,393,289,248,2
1450,0.95,-0.28,0.23,0.12,-2.44,-2.2,336,451,393,292,249,2
1451,0.93,-0.28,0.23,2.75,-3.42,-3.97,332,456,396,290,243,2
1452,0.92,-0.27,0.25,0.43,-3.3,-2.01,334,454,395,291,247,2
1453,0.93,-0.27,0.24,0.73,-2.99,-3.85,333,456,397,287,245,2
1454,0.94,-0.27,0.25,1.1,-3.97,-2.75,334,454,393,293,247,2
1455,0.94,-0.27,0.24,2.38,-3.78,-2.93,336,455,395,286,247,2
1456,0.96,-0.26,0.24,1.83,-4.52,-4.03,337,456,395,292,250,2
1457,0.94,-0.28,0.23,1.89,-2.81,-3.17,336,456,397,292,243,2
1458,0.94,-0.28,0.23,-0.49,-2.99,-2.38,332,456,397,287,249,2
1459,0.95,-0.27,0.23,2.56,-3.05,-2.2,335,455,403,291,245,2
1460,0.94,-0.28,0.23,-0.06,-2.69,-2.26,330,464,396,288,250,2
1461,0.94,-0.27,0.24,-0.49,-2.44,-2.44,335,455,400,289,250,2
1462,0.94,-0.28,0.24,1.1,-3.36,-1.77,332,458,399,288,248,2
1463,0.93,-0.28,0.23,-0.06,-3.85,-3.54,335,455,397,292,250,2
1464,0.94,-0.27,0.23,0.37,-2.99,-2.14,335,455,397,290,248,2
1465,0.93,-0.27,0.24,1.34,-3.72,-2.87,334,457,396,292,249,2
1466,0.95,-0.26,0.24,1.34,-2.2,-1.22,334,460,401,287,249,2
1467,0.95,-0.26,0.24,0.24,-3.05,-3.36,334,459,397,291,251,2
1468,0.92,-0.29,0.23,3.42,-3.91,-5.07,332,455,401,292,247,2
1469,0.92,-0.28,0.23,-1.16,-3.23,-2.5,334,459,396,291,251,2
1470,0.94,-0.26,0.25,-1.22,-1.83,-2.62,336,455,397,290,248,2
1471,0.95,-0.26,0.23,-1.04,-3.42,-2.99,335,455,396,293,248,2
1472,0.97,-0.23,0.27,5.68,-8.48,-3.48,336,455,396,291,247,2
1473,0.95,-0.22,0.26,1.77,-2.87,-2.5,337,455,398,293,245,2
1474,0.95,-0.23,0.26,1.77,-3.23,-3.42,335,451,396,289,262,2
1475,0.95,-0.22,0.27,0.0,-2.56,-2.44,336,455,393,290,247,2
1476,0.94,-0.24,0.25,-0.98,-3.42,-0.98,335,455,395,293,248,2
1477,0.93,-0.24,0.26,0.67,-3.91,-1.53,334,458,395,290,249,2
1478,0.95,-0.23,0.26,0.24,-2.99,-2.56,333,456,396,287,248,2
1479,0.95,-0.24,0.25,-0.18,-1.77,-3.17,334,460,395,293,246,2
1480,0.94,-0.25,0.25,-0.73,-2.38,-2.26,337,459,396,292,249,2
1481,0.95,-0.24,0.26,-0.73,-2.99,-2.01,336,452,397,293,249,2
1482,0.95,-0.23,0.27,1.04,-2.99,-1.71,334,458,394,296,250,2
1483,0.94,-0.24,0.26,0.24,-2.81,-2.26,334,455,395,291,249,2
1484,0.95,-0.24,0.26,1.22,-3.23,-2.87,331,452,396,289,247,2
1485,0.95,-0.25,0.25,1.1,-2.62,-2.75,335,452,398,296,250,2
1486,0.95,-0.24,0.26,2.44,-2.75,-3.11,335,451,391,291,247,2
1487,0.95,-0.23,0.26,0.92,-3.48,-2.2,335,450,398,290,247,2
1488,0.94,-0.24,0.26,0.37,-2.32,-2.5,335,454,400,293,249,2
1489,0.94,-0.24,0.26,0.49,-2.44,-2.69,334,450,395,290,248,2
1490,0.94,-0.24,0.26,-0.61,-3.85,-2.08,334,454,393,291,247,2
1491,0.94,-0.25,0.25,0.85,-4.15,-2.87,334,457,397,294,249,2
1492,0.94,-0.25,0.25,-0.73,-1.77,-2.56,334,457,396,291,249,2
1493,0.95,-0.25,0.25,-0.37,-2.87,-2.75,334,455,395,288,250,2
1494,0.93,-0.25,0.26,-0.55,-1.95,-3.6,338,458,392,290,247,2
1495,0.93,-0.25,0.25,-0.73,-2.62,-3.05,335,459,396,290,250,2
1496,0.94,-0.25,0.25,1.1,-2.93,-1.95,333,454,396,290,248,2
1497,0.97,-0.25,0.26,1.34,-3.78,-2.32,337,455,393,293,247,2
1498,0.94,-0.24,0.27,0.92,-3.36,-3.85,336,458,396,292,249,2
1499,0.94,-0.25,0.26,-0.49,-2.56,-3.23,332,458,393,293,250,2
1500,0.94,-0.24,0.26,-0.06,-2.2,-3.17,333,455,397,290,248,2
1501,0.95,-0.25,0.25,0.73,-2.14,-2.56,332,459,398,290,249,2
1502,0.95,-0.24,0.26,1.65,-3.54,-2.2,333,456,395,291,256,2
1503,0.94,-0.24,0.27,0.49,-2.2,-2.81,337,450,393,292,250,2
1504,0.94,-0.24,0.26,0.55,-3.17,-2.38,337,454,395,291,251,2
1505,0.94,-0.25,0.25,0.49,-3.66,-3.66,335,460,395,291,248,2
1506,0.94,-0.24,0.26,1.04,-3.48,-2.2,334,453,394,294,246,2
1507,0.95,-0.24,0.26,-1.1,-1.34,-3.17,335,455,395,291,251,2
1508,0.94,-0.24,0.26,-0.55,-2.01,-2.08,337,450,394,294,251,2
1509,1.04,-0.15,-0.0,10.56,-0.24,-4.52,259,350,427,464,331,2
1510,1.01,-0.19,0.1,10.44,2.75,-16.78,256,348,430,468,326,2
1511,0.98,-0.23,0.03,-7.87,3.42,-7.87,257,349,434,471,330,2
1512,0.93,-0.25,0.11,6.96,-2.99,1.16,253,348,432,470,325,2
1513,0.97,-0.24,0.11,-5.55,-0.37,-2.08,258,353,433,468,325,2
1514,0.98,-0.21,0.11,2.32,-5.49,-4.58,258,355,435,466,328,2
1515,0.98,-0.22,0.08,4.33,-3.05,-1.22,258,351,439,466,328,2
1516,0.96,-0.24,0.12,-1.77,-2.01,-3.11,258,353,443,470,331,2
1517,0.98,-0.22,0.1,3.72,-3.11,-1.95,259,354,429,467,329,2
1518,0.98,-0.23,0.1,-3.36,-1.77,-1.95,259,354,430,463,330,2
1519,0.97,-0.24,0.13,1.89,-3.3,-1.83,256,355,432,472,330,2
1520,0.96,-0.22,0.11,1.71,-3.42,-2.69,259,356,434,473,330,2
1521,1.01,-0.22,0.04,-10.07,-11.66,3.17,254,344,430,466,295,2
1522,0.96,-0.26,0.03,-5.0,-7.26,-3.23,251,343,432,462,289,2
1523,0.98,-0.23,-0.0,11.05,-3.97,-3.23,249,344,435,465,297,2
1524,0.98,-0.24,0.05,-1.28,-2.14,0.12,256,347,436,460,297,2
1525,0.97,-0.24,0.02,-0.55,-0.31,-3.42,253,348,433,467,300,2
1526,0.98,-0.23,0.03,2.93,-3.72,-4.76,257,350,432,463,302,2
1527,1.0,-0.2,0.04,-1.04,-1.65,-1.65,252,340,431,460,301,2
1528,0.97,-0.23,0.08,-7.32,-7.14,-6.59,253,342,434,471,300,2
1529,1.0,-0.19,0.09,-3.11,-3.11,-4.21,258,350,433,465,307,2
1530,0.98,-0.2,0.07,4.82,-0.61,1.1,258,344,436,465,307,2
1531,1.0,-0.23,0.07,-0.67,-5.49,-1.1,258,349,438,465,303,2
1532,0.99,-0.22,0.06,1.71,-9.58,-1.28,259,349,435,470,306,2
1533,1.0,-0.21,-0.01,-18.31,-16.11,-10.99,254,349,436,469,312,2
1534,0.93,-0.18,-0.03,1.59,-1.46,-19.65,263,344,435,462,338,2
1535,0.93,-0.23,0.09,3.97,11.29,1.71,266,340,434,463,362,2
1536,0.97,-0.22,-0.07,13.85,-7.69,-1.16,248,303,428,465,310,2
1537,0.81,-0.25,0.19,13.85,23.07,6.96,245,306,430,470,319,2
1538,0.92,-0.26,0.13,27.04,2.81,-14.71,253,310,434,469,311,2
1539,0.88,-0.33,0.16,-10.62,-1.1,28.87,259,316,441,484,310,2
1540,0.92,-0.44,0.24,23.38,2.5,-3.54,255,316,439,473,313,2
1541,0.95,-0.32,0.11,18.55,-5.8,9.77,253,315,443,472,320,2
1542,0.77,-0.43,0.19,-15.99,-10.5,7.45,252,315,439,472,318,2
1543,1.04,-0.25,0.1,27.71,-8.06,-24.41,260,317,441,478,319,2
1544,0.81,-0.45,0.12,-48.03,-11.47,-4.76,253,318,440,469,321,2
1545,0.86,-0.35,-0.11,-24.41,-56.88,18.74,254,315,440,473,321,2
1546,0.98,-0.27,-0.13,-9.28,0.79,14.65,246,305,438,468,296,2
1547,0.93,-0.35,-0.17,3.85,-8.18,-3.17,249,323,438,469,298,2
1548,0.9,-0.34,-0.19,15.75,-0.24,-3.17,255,321,436,467,297,2
1549,1.13,-0.13,0.21,-53.04,-22.03,11.35,260,318,440,464,300,2
1550,0.87,-0.28,-0.1,8.61,13.67,-2.08,254,319,437,468,307,2
1551,0.95,-0.38,-0.01,7.51,-14.04,9.22,242,280,426,470,328,2
1552,1.28,-0.19,-0.46,-0.43,-47.91,5.07,252,280,435,459,320,2
1553,0.9,-0.4,-0.11,23.5,-0.31,2.93,256,289,431,464,321,2
1554,0.9,-0.41,-0.14,-1.28,-2.2,-6.04,284,298,436,466,322,2
1555,0.9,-0.4,-0.04,6.41,-2.01,-1.59,254,293,435,461,327,2
1556,0.91,-0.4,-0.09,5.07,-3.17,-1.1,260,297,439,464,325,2
1557,0.93,-0.4,-0.07,-1.95,-5.55,-4.03,259,299,437,463,332,2
1558,0.93,-0.4,-0.03,-5.92,-1.34,-6.29,255,298,439,457,324,2
1559,0.91,-0.4,-0.06,1.71,-4.33,-1.95,258,298,437,464,327,2
1560,0.95,-0.33,-0.06,15.01,-3.11,-6.41,258,293,438,465,317,2
1561,0.91,-0.38,-0.02,-4.15,-0.98,-2.32,259,297,434,466,319,2
1562,0.93,-0.38,-0.09,-2.01,-1.46,-2.56,259,297,437,463,321,2
1563,0.88,-0.38,0.01,-3.72,4.64,-3.6,262,299,437,463,322,2
1564,0.92,-0.4,-0.07,-8.12,-2.5,4.52,252,297,437,464,323,2
1565,0.88,-0.44,0.0,-15.63,-3.54,5.74,262,302,435,468,321,2
1566,0.89,-0.43,-0.06,4.03,-4.09,-1.65,261,305,437,471,327,2
1567,0.91,-0.41,-0.06,0.79,-0.61,-2.62,260,306,439,462,324,2
1568,0.89,-0.44,-0.03,20.39,5.68,-20.63,264,307,440,463,325,2
1569,0.95,-0.38,0.04,-8.36,-1.95,-2.14,264,307,434,466,326,2
1570,0.87,-0.45,-0.01,-2.56,0.18,2.56,265,308,438,471,325,2
1571,0.93,-0.4,0.04,-1.53,-7.87,-3.97,261,311,438,468,330,2
1572,0.92,-0.39,0.03,-13.18,-3.6,-2.08,269,327,437,467,345,2
1573,0.94,-0.38,-0.03,2.69,-5.68,-1.16,270,329,433,462,354,2
1574,0.93,-0.39,0.02,-1.34,-1.71,-2.56,273,330,438,467,351,2
1575,0.94,-0.39,-0.01,5.25,-4.52,-0.67,265,331,440,469,354,2
1576,0.93,-0.41,0.07,-14.4,-4.03,-0.49,272,330,440,470,352,2
1577,0.91,-0.39,-0.01,6.84,-1.53,-1.89,269,329,434,466,351,2
1578,0.92,-0.39,-0.01,1.1,-1.95,-1.83,270,329,437,464,352,2
1579,0.94,-0.39,-0.0,-11.54,-7.57,-4.21,267,328,433,457,316,2
1580,0.97,-0.39,-0.13,7.39,0.98,3.17,270,319,437,462,345,2
1581,1.0,-0.41,-0.06,-13.06,-9.52,-0.85,265,310,436,462,300,2
1582,0.89,-0.41,-0.04,0.49,4.46,-2.99,271,313,434,454,310,2
1583,0.55,-0.46,0.26,-73.55,157.41,-42.11,269,321,436,467,316,2
1584,0.92,-0.37,0.01,11.29,-6.53,1.95,275,324,432,471,316,2
1585,0.9,-0.39,0.06,-5.25,15.08,-4.64,272,328,435,469,318,2
1586,0.91,-0.41,0.07,3.05,-5.19,-0.98,281,326,438,467,320,2
1587,0.99,-0.34,0.07,1.28,-5.37,1.95,274,330,437,470,309,2
1588,0.9,-0.38,-0.03,-49.68,-33.26,-26.55,275,328,437,470,315,2
1589,0.91,-0.4,-0.04,-0.79,-0.12,-0.06,274,334,434,476,318,2
1590,0.9,-0.38,-0.06,1.34,3.66,-2.81,270,333,433,461,315,2
1591,0.92,-0.39,-0.06,5.55,-7.26,0.98,278,335,441,464,316,2
1592,0.94,-0.38,-0.06,-4.76,-2.99,-4.82,275,334,442,460,317,2
1593,0.93,-0.37,-0.1,4.09,-3.6,-4.64,274,335,441,469,316,2
1594,0.91,-0.36,-0.06,4.39,-1.4,-1.95,275,336,437,463,314,2
1595,0.92,-0.38,-0.05,0.55,-2.44,0.49,270,327,437,465,322,2
1596,0.9,-0.37,-0.05,-17.15,10.56,-12.82,269,329,435,460,314,2
1597,0.95,-0.33,-0.09,0.98,-6.47,-0.31,270,333,438,464,308,2
1598,0.93,-0.34,-0.08,1.16,-3.05,-1.77,269,330,440,459,312,2
1599,0.93,-0.34,-0.09,5.31,-2.62,-5.13,271,333,439,460,309,2
1600,0.89,-0.34,-0.07,5.74,-9.52,2.44,272,330,438,462,303,2
1601,0.9,-0.36,-0.04,-6.53,-1.59,-0.06,276,330,437,468,301,2
1602,0.88,-0.35,-0.04,-1.65,3.85,-5.55,278,332,431,468,295,2
1603,0.93,-0.36,-0.11,-2.14,1.71,-5.07,277,332,437,468,291,2
1604,0.95,-0.36,-0.12,-2.14,-4.21,-2.56,278,337,437,466,301,2
1605,0.91,-0.36,-0.04,-6.47,6.77,-8.67,284,341,433,469,305,2
1606,0.92,-0.35,-0.05,4.21,-1.53,-1.95,289,344,432,465,305,2
1607,0.95,-0.34,-0.07,1.16,-2.93,-2.14,283,344,438,463,305,2
1608,0.95,-0.35,-0.04,3.85,-3.42,-1.1,282,342,437,466,310,2
1609,0.93,-0.35,-0.05,1.53,-3.91,-2.44,281,347,434,462,308,2
1610,0.95,-0.36,-0.03,-4.15,0.0,-3.6,282,347,445,463,308,2
1611,0.93,-0.35,-0.04,3.05,-2.81,-2.01,282,349,434,461,311,2
1612,0.95,-0.34,-0.07,1.1,-2.99,-2.44,284,347,435,464,308,2
1613,0.95,-0.34,-0.06,1.04,-3.48,-2.62,281,348,436,466,309,2
1614,0.94,-0.35,-0.03,0.24,-2.99,-1.83,281,348,436,461,309,2
1615,0.92,-0.34,-0.02,-0.55,-2.08,-1.83,287,350,432,464,309,2
1616,0.95,-0.34,-0.03,-2.14,-2.14,-3.48,288,349,437,470,314,2
1617,0.9,-0.34,-0.03,13.43,-2.2,0.06,283,347,437,471,313,2
1618,0.94,-0.4,-0.06,2.2,-6.16,-3.97,285,347,436,473,305,2
1619,1.12,-0.12,0.08,4.15,-0.31,-23.07,284,349,438,478,310,2
1620,1.0,-0.22,0.05,-5.68,-8.73,4.46,287,349,433,470,311,2
1621,0.9,-0.4,-0.03,-9.03,-9.7,6.84,288,347,435,471,314,2
1622,0.94,-0.35,-0.01,-1.59,-3.91,-1.71,286,348,434,468,316,2
1623,0.96,-0.37,-0.06,4.09,-6.29,-1.46,278,351,436,467,315,2
1624,0.93,-0.38,-0.06,0.12,-6.29,-0.73,288,348,437,466,316,2
1625,0.91,-0.39,-0.04,-3.72,0.92,-4.52,290,348,437,469,312,2
1626,0.9,-0.36,0.0,-2.32,1.46,-4.94,288,351,438,472,312,2
1627,0.91,-0.37,-0.05,9.83,-19.04,6.53,284,349,443,468,316,2
1628,0.93,-0.38,-0.06,-10.13,-4.46,-4.64,287,349,439,468,316,2
1629,0.9,-0.38,-0.03,-2.62,-0.98,-3.6,288,353,437,468,316,2
1630,0.93,-0.37,-0.07,3.48,-4.39,-0.55,283,349,435,471,316,2
1631,0.98,-0.34,-0.08,-2.2,-5.92,-5.25,278,347,437,466,316,2
1632,0.94,-0.37,-0.02,-7.45,-1.59,-4.7,278,346,432,457,312,2
1633,0.91,-0.36,-0.03,0.49,-4.46,-1.83,279,344,435,463,315,2
1634,0.95,-0.36,-0.07,1.4,-4.82,-2.32,280,348,437,466,314,2
1635,0.95,-0.36,-0.07,-2.38,-4.09,-2.62,280,344,425,466,317,2
1636,0.96,-0.37,-0.08,2.93,-6.29,-1.04,284,346,436,465,314,2
1637,0.93,-0.36,-0.04,-3.11,-3.85,-4.82,282,347,435,461,321,2
1638,0.94,-0.35,-0.1,-0.18,-5.92,-4.58,284,346,436,465,319,2
1639,0.9,-0.36,-0.06,-7.69,-4.58,-4.03,278,347,434,461,318,2
1640,0.96,-0.34,-0.12,-4.46,-5.43,-2.01,269,345,434,464,318,2
1641,0.92,-0.34,-0.09,-15.08,-10.01,-4.09,278,348,435,466,317,2
1642,0.95,-0.27,-0.03,0.55,0.98,-4.7,274,325,435,473,315,2
1643,0.96,-0.34,-0.17,-17.88,-7.45,-10.99,279,330,436,467,323,2
1644,0.98,-0.31,-0.12,4.88,1.16,-4.7,260,306,426,471,328,2
1645,0.95,-0.28,-0.07,-1.59,-4.76,-5.37,258,293,437,468,328,2
1646,0.95,-0.31,-0.08,-14.34,-1.28,-8.54,255,285,428,467,350,2
1647,0.94,-0.28,-0.08,-7.32,-8.12,-5.98,256,288,429,461,333,2
1648,0.97,-0.25,-0.1,-1.04,-5.25,-2.56,258,288,427,464,331,2
1649,0.93,-0.27,-0.13,10.01,-4.15,5.98,259,289,430,467,333,2
1650,0.96,-0.29,-0.16,14.28,-2.38,1.89,266,295,432,465,329,2
1651,0.95,-0.32,-0.13,-1.95,-4.21,-1.83,266,296,431,464,331,2
1652,0.96,-0.32,-0.12,-6.35,-6.59,-2.81,268,298,433,464,331,2
1653,0.92,-0.34,-0.1,6.41,1.71,-3.11,269,301,431,462,331,2
1654,0.86,-0.38,-0.03,13.31,7.08,10.25,265,300,431,460,335,2
1655,0.94,-0.33,-0.07,-3.91,-0.24,0.67,266,300,435,468,333,2
1656,0.95,-0.34,-0.1,10.19,-9.03,-2.2,271,302,431,462,333,2
1657,0.97,-0.34,-0.1,3.23,-4.39,-7.81,272,300,430,464,336,2
1658,0.85,-0.36,0.02,5.92,2.5,-3.97,269,304,431,464,333,2
1659,0.92,-0.36,-0.11,2.99,1.04,2.2,269,300,430,459,327,2
1660,0.95,-0.34,-0.1,-0.85,-4.94,-3.54,269,293,432,461,330,2
1661,0.93,-0.3,-0.08,-8.06,-0.85,-2.93,268,282,431,462,333,2
1662,0.88,-0.34,-0.11,7.08,-8.12,-4.27,290,292,432,470,335,2
1663,0.92,-0.3,-0.12,1.65,0.37,-3.05,269,294,432,463,332,2
1664,0.95,-0.29,-0.12,-0.06,-3.6,-4.52,272,311,432,460,336,2
1665,0.94,-0.3,-0.1,0.73,-4.03,-1.95,270,299,428,466,333,2
1666,0.94,-0.3,-0.13,2.69,-6.04,-3.42,270,295,433,464,329,2
1667,0.95,-0.29,-0.12,0.73,-3.54,-2.69,273,296,430,467,333,2
1668,0.98,-0.29,-0.07,3.54,-13.43,-1.34,272,299,433,465,329,2
1669,0.92,-0.33,-0.05,-7.08,-4.58,-6.35,268,298,430,463,336,2
1670,0.94,-0.32,-0.14,3.3,-2.75,-2.62,272,305,427,462,333,2
1671,0.96,-0.31,-0.17,-1.71,-3.97,-6.71,269,297,426,464,337,2
1672,0.93,-0.29,-0.17,1.95,-3.91,-1.65,272,304,431,467,333,2
1673,0.95,-0.32,-0.19,5.37,-13.18,4.46,274,311,431,464,337,2
1674,0.92,-0.33,-0.2,-3.42,-3.3,-4.46,294,317,432,467,337,2
1675,0.95,-0.33,-0.24,6.23,-11.72,2.38,272,328,434,459,339,2
1676,0.92,-0.34,-0.22,-0.61,-2.93,-2.38,273,321,430,465,338,2
1677,0.9,-0.36,-0.23,3.36,-10.86,0.67,273,317,434,463,341,2
1678,0.9,-0.33,-0.18,6.23,-5.49,-1.59,271,318,427,464,337,2
1679,0.91,-0.36,-0.21,-0.55,-1.65,-0.92,272,322,426,462,333,2
1680,0.83,-0.37,-0.14,-1.46,4.58,-5.74,273,324,428,462,336,2
1681,0.91,-0.37,-0.26,12.63,-26.31,0.55,276,327,431,467,338,2
1682,0.83,-0.35,-0.13,-15.63,-4.15,-8.18,270,324,427,462,336,2
1683,0.95,-0.31,-0.24,0.49,1.28,-7.57,277,310,429,464,338,2
1684,0.9,-0.32,-0.13,-1.59,5.8,-5.98,275,318,444,466,337,2
1685,0.94,-0.31,-0.19,6.41,-8.12,-2.01,280,316,442,467,341,2
1686,0.99,-0.28,-0.22,-2.69,4.39,-4.82,276,318,434,465,334,2
1687,0.92,-0.32,-0.18,-6.04,0.31,-4.46,279,317,433,468,338,2
1688,0.92,-0.3,-0.16,1.77,-1.46,-2.01,281,317,434,466,341,2
1689,0.91,-0.35,-0.13,2.32,-5.62,-1.16,275,315,432,464,338,2
1690,0.91,-0.31,-0.15,-0.37,8.18,-5.68,274,324,431,464,342,2
1691,0.93,-0.33,-0.18,-4.7,-2.5,-6.77,279,325,430,457,338,2
1692,0.93,-0.31,-0.15,-5.62,-2.62,-7.08,279,324,429,460,334,2
1693,0.94,-0.32,-0.13,2.62,2.14,-5.19,276,317,430,465,339,2
1694,0.94,-0.3,-0.14,1.77,-4.88,-6.1,276,323,428,467,337,2
1695,0.94,-0.3,-0.11,14.1,3.17,-0.85,277,324,433,464,337,2
1696,0.95,-0.3,-0.09,-1.46,-7.02,-1.28,277,327,430,466,340,2
1697,0.95,-0.29,-0.07,-0.12,-1.46,-2.93,279,324,429,467,335,2
1698,0.95,-0.28,-0.1,-4.64,-6.35,-1.95,272,320,428,466,320,2
1699,0.95,-0.27,-0.1,3.48,-9.83,3.54,269,319,433,458,300,2
1700,0.98,-0.21,-0.17,-23.5,-14.65,-3.23,298,317,427,460,303,2
1701,1.01,-0.24,-0.22,6.84,-10.99,2.62,265,317,429,455,303,2
1702,0.94,-0.25,-0.24,-4.52,-5.37,-5.37,267,304,430,461,299,2
1703,0.89,-0.36,-0.17,6.53,2.75,1.16,263,294,425,456,312,2
1704,0.86,-0.37,-0.15,36.44,-12.21,16.05,263,284,422,451,329,2
1705,0.88,-0.4,-0.14,-9.64,-11.84,-0.79,269,289,423,452,328,2
1706,0.9,-0.37,-0.22,22.22,-3.97,-11.17,268,295,422,459,325,2
1707,0.94,-0.34,-0.19,8.73,-1.89,-3.66,274,300,428,462,323,2
1708,0.97,-0.36,-0.15,0.31,-0.61,-2.08,266,299,428,468,330,2
1709,0.92,-0.35,-0.14,4.88,1.4,-4.52,274,303,428,466,331,2
1710,0.93,-0.35,-0.12,-2.81,-5.07,-2.75,272,299,429,465,329,2
1711,0.92,-0.35,-0.12,2.26,-1.1,-2.75,273,300,434,468,330,2
1712,0.96,-0.35,-0.15,-1.65,-4.21,-2.87,276,301,431,469,328,2
1713,0.95,-0.34,-0.12,4.46,-0.67,-1.77,272,297,429,466,330,2
1714,0.92,-0.34,-0.1,1.77,-0.55,-2.81,280,298,431,469,330,2
1715,0.91,-0.34,-0.08,-4.21,-0.18,-3.3,279,300,433,472,336,2
1716,0.93,-0.34,-0.1,1.59,-2.93,-2.14,276,299,433,468,336,2
1717,0.95,-0.34,-0.11,1.65,-4.52,-1.4,277,302,429,463,335,2
1718,0.94,-0.35,-0.09,2.69,-2.56,-2.56,274,304,433,469,333,2
1719,0.92,-0.36,-0.07,2.69,-1.1,-2.62,278,302,433,473,336,2
1720,0.94,-0.35,-0.07,1.53,-2.93,-2.08,275,304,434,471,337,2
1721,0.94,-0.35,-0.08,-0.79,-0.79,-3.78,276,301,434,470,337,2
1722,0.95,-0.34,-0.09,-1.1,-1.28,-3.11,278,300,431,469,335,2
1723,0.92,-0.35,-0.07,0.98,-2.5,-2.14,277,304,436,469,334,2
1724,0.92,-0.36,-0.07,-1.83,-3.91,-2.62,276,305,433,474,333,2
1725,0.93,-0.35,-0.06,-2.32,-2.56,-3.36,277,305,435,474,333,2
1726,0.94,-0.35,-0.08,0.18,-3.54,-2.87,278,307,435,471,337,2
1727,0.93,-0.35,-0.1,2.14,-2.62,-1.95,280,302,434,473,345,2
1728,0.93,-0.36,-0.09,0.73,-2.81,-1.83,279,303,434,473,337,2
1729,0.94,-0.35,-0.08,3.91,-3.66,-1.4,277,303,436,473,339,2
1730,1.0,-0.35,-0.13,12.51,11.23,-8.61,278,304,431,470,338,2
1731,0.93,-0.33,-0.06,2.38,-2.93,-2.81,278,305,434,465,339,2
1732,0.94,-0.35,-0.07,0.92,-1.95,-2.38,281,308,431,475,339,2
1733,0.95,-0.34,-0.07,0.18,-3.23,-2.87,280,309,432,477,339,2
1734,0.96,-0.34,-0.08,2.01,-4.03,-1.65,279,307,427,472,342,2
1735,0.92,-0.35,-0.06,0.79,-2.81,-1.59,281,307,432,471,339,2
1736,0.94,-0.35,-0.07,2.2,-4.94,-2.87,281,307,432,473,335,2
1737,0.94,-0.34,-0.07,-0.61,-2.14,-2.69,282,311,433,468,339,2
1738,0.94,-0.37,-0.06,3.36,-1.89,1.28,282,311,430,479,339,2
1739,0.93,-0.35,-0.05,-1.04,-2.56,-3.11,284,312,430,466,336,2
1740,0.94,-0.35,-0.08,0.12,-3.3,-2.99,277,309,426,474,341,2
1741,0.93,-0.34,-0.06,2.62,-2.62,-3.05,284,318,425,471,340,2
1742,1.0,-0.33,-0.12,23.44,-10.38,5.98,284,318,427,469,338,2
1743,0.89,-0.33,0.12,3.23,-46.69,4.52,284,322,430,468,338,2
1744,0.96,-0.33,-0.0,1.4,-7.93,-2.08,280,317,428,463,333,2
1745,0.92,-0.33,0.03,-4.09,0.85,-4.82,279,316,430,459,330,2
1746,0.95,-0.3,-0.06,4.33,-6.59,-2.62,279,317,425,464,334,2
1747,0.94,-0.3,-0.03,-4.39,-1.65,-2.69,275,312,431,465,331,2
1748,0.93,-0.31,-0.03,3.66,-0.85,-2.14,276,315,433,455,335,2
1749,0.95,-0.32,-0.04,-2.99,-4.94,-2.44,278,316,429,465,332,2
1750,0.93,-0.33,-0.03,0.67,-0.85,-2.87,279,315,429,459,335,2
1751,0.95,-0.32,-0.06,3.78,-4.76,-2.2,282,315,429,459,336,2
1752,0.95,-0.32,-0.02,-0.85,-2.5,-2.87,277,317,432,462,334,2
1753,0.96,-0.33,-0.04,-0.98,-4.7,-2.08,279,313,430,459,342,2
1754,0.94,-0.33,-0.04,4.15,-0.49,-4.15,280,317,432,458,338,2
1755,0.94,-0.28,-0.03,-2.32,-4.76,-3.23,281,310,434,462,337,2
1756,0.93,-0.32,-0.05,-1.34,-1.89,-2.14,282,312,436,465,338,2
1757,0.95,-0.32,-0.05,0.18,-2.87,-2.69,282,313,431,463,332,2
1758,0.95,-0.32,-0.04,-1.53,-2.99,-2.44,282,316,432,465,337,2
1759,0.96,-0.32,-0.04,0.43,-3.85,-2.44,282,314,437,468,336,2
1760,0.96,-0.32,-0.05,-14.53,-3.6,-2.5,280,314,431,466,337,2
1761,0.94,-0.32,-0.05,2.14,-4.09,-2.44,279,313,434,468,336,2
1762,0.95,-0.32,-0.05,0.12,-2.2,-2.75,279,315,432,468,336,2
1763,0.93,-0.32,-0.04,1.1,-0.61,-2.56,282,322,428,482,337,2
1764,0.95,-0.33,-0.05,0.31,-4.88,-3.3,280,315,435,464,334,2
1765,0.95,-0.32,-0.05,7.39,-1.95,-0.85,275,306,431,471,339,2
1766,0.94,-0.33,-0.02,-3.36,-2.99,-2.32,282,305,435,467,340,2
1767,0.93,-0.33,-0.03,0.12,-2.5,-2.93,283,308,431,463,342,2
1768,0.95,-0.33,-0.05,0.12,-1.95,-2.99,280,306,436,465,343,2
1769,0.95,-0.34,-0.05,-4.33,-3.23,-3.54,282,312,434,462,341,2
1770,0.93,-0.32,-0.04,1.46,-3.78,-1.95,280,313,432,470,342,2
1771,0.96,-0.32,-0.05,-1.71,-4.33,-2.2,282,313,430,471,339,2
1772,0.94,-0.32,-0.05,2.2,-4.33,-2.44,281,311,428,461,340,2
1773,0.94,-0.32,-0.03,-3.05,-1.95,-3.91,281,312,430,470,340,2
1774,0.95,-0.32,-0.05,2.08,-2.62,-2.62,284,314,431,461,339,2
1775,0.95,-0.32,-0.03,-1.22,-3.66,-2.38,284,313,431,463,339,2
1776,0.94,-0.33,-0.04,-1.46,-3.23,-3.36,284,319,431,468,339,2
1777,0.96,-0.3,-0.04,-7.02,-3.85,-5.98,284,317,433,466,335,2
1778,0.99,-0.29,-0.06,5.98,-3.17,0.73,284,315,433,467,339,2
1779,0.96,-0.3,-0.05,-1.04,-2.14,-2.75,282,317,434,465,341,2
1780,0.96,-0.3,-0.08,0.92,-2.75,-2.81,302,317,436,470,339,2
1781,0.93,-0.3,-0.04,-0.06,-3.05,-1.53,292,317,430,468,339,2
1782,0.96,-0.3,-0.06,-0.06,-5.74,-2.2,284,319,429,471,340,2
1783,0.93,-0.3,-0.05,-2.44,-3.66,-3.42,286,318,427,470,341,2
1784,0.94,-0.31,-0.05,0.24,-4.64,-1.34,282,317,432,468,340,2
1785,0.94,-0.32,-0.06,0.24,-3.05,-2.2,287,317,436,469,343,2
1786,0.95,-0.31,-0.06,-1.28,1.95,-5.07,285,317,427,462,341,2
1787,0.94,-0.31,-0.04,-0.37,-1.34,-2.56,288,317,430,460,338,2
1788,0.94,-0.31,-0.06,0.06,-2.44,-3.36,285,316,431,465,341,2
1789,0.94,-0.32,-0.05,1.34,-2.38,-2.32,285,319,428,465,338,2
1790,0.95,-0.31,-0.05,0.06,-3.48,-0.73,286,319,435,465,340,2
1791,0.94,-0.33,-0.05,0.61,-3.85,-0.18,281,317,430,467,348,2
1792,0.93,-0.34,-0.04,-1.34,-1.53,-2.56,284,326,431,468,341,2
1793,0.94,-0.33,-0.06,0.98,-2.26,-2.44,282,313,432,460,341,2
1794,0.95,-0.34,-0.06,0.49,-3.42,-2.2,308,319,431,470,337,2
1795,0.95,-0.33,-0.04,0.67,-2.81,-1.59,286,319,435,466,337,2
1796,0.94,-0.34,-0.06,0.37,-2.56,-3.72,282,318,431,470,342,2
1797,0.95,-0.34,-0.05,0.24,-2.93,-4.82,283,316,430,473,344,2
1798,0.96,-0.32,-0.07,1.04,-2.26,-3.3,283,314,438,471,343,2
1799,0.94,-0.32,-0.05,0.67,-3.3,-1.71,284,316,428,468,338,2
1800,0.95,-0.32,-0.08,1.53,-3.78,-1.65,284,318,432,466,342,2
1801,0.95,-0.32,-0.06,1.28,-3.23,-2.81,283,317,434,466,341,2
1802,0.94,-0.33,-0.06,0.85,-3.05,-0.73,286,315,430,466,344,2
1803,0.94,-0.33,-0.05,0.24,-1.59,-2.62,285,315,432,470,340,2
1804,0.93,-0.33,-0.03,1.53,-1.77,-0.92,285,316,430,460,341,2
1805,0.95,-0.34,-0.04,-1.71,-2.62,-2.99,286,314,432,465,346,2
1806,0.95,-0.33,-0.04,-0.24,-2.56,-3.17,286,321,431,467,343,2
1807,0.95,-0.34,-0.05,-0.37,-4.21,-1.22,282,318,432,466,340,2
1808,0.94,-0.34,-0.06,2.2,-2.26,-3.6,284,317,436,470,343,2
1809,0.96,-0.33,-0.08,-1.1,-3.97,-3.6,287,320,429,480,343,2
1810,0.92,-0.33,-0.05,-4.82,-0.67,-4.76,288,330,432,468,343,2
1811,0.95,-0.32,-0.06,-0.55,-2.99,-2.87,284,321,433,469,344,2
1812,0.95,-0.33,-0.06,0.24,-2.69,-2.69,305,321,433,471,342,2
1813,0.95,-0.32,-0.06,-2.2,-2.2,-3.66,287,321,430,469,344,2
1814,0.94,-0.33,-0.06,0.61,-3.05,-1.83,306,317,434,473,342,2
1815,0.95,-0.33,-0.06,1.59,-4.09,-1.71,286,318,428,468,343,2
1816,0.94,-0.33,-0.06,1.65,-2.26,-2.93,288,320,430,468,342,2
1817,0.94,-0.34,-0.06,-0.31,-2.32,-2.75,287,319,430,472,340,2
1818,0.94,-0.33,-0.06,0.92,-3.54,-2.5,290,322,429,473,342,2
1819,0.96,-0.34,-0.06,1.53,-4.82,-1.22,287,316,430,468,342,2
1820,0.94,-0.33,-0.06,-0.43,-3.54,-3.72,286,322,429,470,340,2
1821,0.95,-0.33,-0.07,0.31,-3.48,-3.42,288,319,430,462,343,2
1822,0.95,-0.33,-0.07,2.01,-3.36,-2.26,287,318,430,464,343,2
1823,0.94,-0.34,-0.07,-0.98,-2.14,-3.05,290,324,429,467,344,2
1824,0.94,-0.33,-0.07,0.55,-2.56,-3.11,285,322,436,462,342,2
1825,0.94,-0.34,-0.05,-0.37,-2.26,-2.62,289,324,428,468,344,2
1826,0.94,-0.33,-0.06,1.65,-2.93,-2.08,289,318,429,462,343,2
1827,0.94,-0.34,-0.06,-1.22,-2.62,-2.75,287,320,431,472,343,2
1828,0.94,-0.34,-0.07,-0.92,-2.87,-2.56,289,318,433,467,340,2
1829,0.95,-0.33,-0.06,0.31,-3.42,-2.44,288,321,441,466,343,2
1830,0.94,-0.33,-0.06,-0.12,-2.75,-2.56,289,321,436,469,344,2
1831,0.93,-0.33,-0.06,-0.49,-3.66,-2.99,286,316,432,478,344,2
1832,0.94,-0.33,-0.05,-0.61,-4.03,-3.36,286,322,429,467,342,2
1833,0.96,-0.33,-0.08,-0.24,-4.15,-3.97,289,323,431,468,343,2
1834,0.95,-0.32,-0.07,-0.85,-2.26,-3.3,278,322,430,470,345,2
1835,0.94,-0.32,-0.07,1.77,-3.11,-1.28,289,322,433,468,344,2
1836,0.94,-0.32,-0.05,-0.92,-1.89,-3.6,286,319,430,469,345,2
1837,0.96,-0.32,-0.06,0.67,-3.48,-1.59,292,322,433,471,339,2
1838,0.94,-0.32,-0.06,-0.55,-2.2,-3.05,285,325,433,469,342,2
1839,0.96,-0.32,-0.07,1.65,-3.66,-2.01,290,320,434,468,344,2
1840,0.94,-0.33,-0.06,-0.31,-2.69,-2.87,287,325,431,470,344,2
1841,0.95,-0.32,-0.06,1.4,-3.3,-2.08,288,319,431,470,342,2
1842,0.94,-0.32,-0.07,0.0,-2.93,-2.44,285,320,431,466,341,2
1843,0.94,-0.33,-0.06,1.1,-1.89,-2.56,289,319,434,474,344,2
1844,0.95,-0.33,-0.08,1.89,-5.31,-0.98,290,316,430,472,341,2
1845,0.94,-0.33,-0.06,-0.24,-2.81,-2.62,289,320,429,473,340,2
1846,0.95,-0.32,-0.05,-0.18,-3.11,-3.72,287,320,432,470,341,2
1847,0.94,-0.32,-0.06,-0.73,-2.32,-3.78,285,318,427,471,344,2
1848,0.95,-0.32,-0.06,1.46,-2.5,-2.26,287,332,429,465,340,2
1849,0.95,-0.32,-0.06,-0.92,-1.71,-2.32,285,323,436,475,341,2
1850,0.94,-0.32,-0.06,0.24,-1.65,-3.11,285,327,431,473,340,2
1851,0.96,-0.32,-0.08,1.77,-3.3,-1.89,288,328,432,468,343,2
1852,0.95,-0.32,-0.07,-0.24,-2.99,-2.75,289,321,433,471,344,2
1853,0.96,-0.32,-0.06,2.26,-3.42,-1.77,292,320,431,476,344,2
1854,0.95,-0.32,-0.07,-0.43,-2.62,-2.69,290,321,440,470,344,2
1855,0.95,-0.32,-0.07,8.54,-0.61,-0.06,285,316,432,471,339,2
1856,0.94,-0.32,-0.07,2.2,-3.11,-2.75,282,316,427,467,332,2
1857,0.97,-0.33,-0.06,1.34,-2.14,-2.75,280,311,426,472,341,2
1858,1.0,-0.34,-0.15,15.44,-30.4,13.73,273,313,426,469,370,2
1859,0.89,-0.39,-0.07,1.28,0.24,-11.17,246,293,431,474,344,2
1860,0.87,-0.37,-0.13,10.56,-4.03,-27.04,258,303,432,469,348,2
1861,1.01,-0.21,-0.02,15.26,-0.85,3.48,272,301,429,472,350,2
1862,0.99,-0.19,0.0,3.85,-11.23,-14.65,259,304,429,470,349,2
1863,1.03,-0.11,-0.12,10.44,-7.75,-16.11,257,301,429,474,347,2
1864,0.91,-0.26,-0.11,13.55,0.67,-1.83,256,297,429,471,317,2
1865,1.03,-0.21,-0.21,3.11,7.63,-0.55,257,282,425,469,277,2
1866,0.93,-0.23,-0.07,-11.72,-9.77,-8.73,255,284,424,471,266,2
1867,0.97,-0.21,-0.07,-10.19,8.97,-8.85,259,291,426,473,267,2
1868,0.96,-0.21,0.04,-4.33,-3.97,-6.9,260,292,431,468,268,2
1869,0.99,-0.19,-0.02,0.79,-2.01,-2.44,261,291,425,468,267,2
1870,0.99,-0.18,-0.01,5.86,0.43,-0.12,280,292,423,467,263,2
1871,0.98,-0.17,-0.02,2.81,-2.75,-1.65,260,295,419,472,265,2
1872,0.99,-0.18,-0.01,0.85,-3.11,-2.01,262,295,424,469,266,2
1873,0.99,-0.17,-0.02,-1.53,-2.08,-2.38,263,294,423,473,270,2
1874,0.98,-0.17,0.02,-6.84,-7.08,-1.59,257,288,428,464,288,2
1875,0.93,-0.28,-0.13,-2.75,-5.62,4.7,250,296,435,466,311,2
1876,0.98,-0.29,-0.12,-6.59,-1.46,-1.04,259,295,428,470,312,2
1877,0.99,-0.29,-0.14,17.7,0.92,10.38,261,298,432,474,317,2
1878,0.89,-0.32,-0.04,-13.67,-6.1,-16.72,267,304,427,471,331,2
1879,0.9,-0.29,-0.08,23.74,1.95,10.56,271,302,429,470,330,2
1880,0.92,-0.31,-0.18,5.13,-2.01,0.43,273,307,431,468,331,2
1881,0.93,-0.33,-0.11,-4.52,0.24,-4.58,276,306,430,472,327,2
1882,0.94,-0.3,-0.14,1.95,-3.3,-1.95,273,308,431,470,332,2
1883,0.93,-0.31,-0.1,0.37,-0.55,-3.05,271,308,433,471,331,2
1884,0.95,-0.3,-0.13,0.31,-4.03,-3.66,273,308,429,466,329,2
1885,0.92,-0.31,-0.1,0.55,-2.44,-2.87,271,303,435,471,334,2
1886,0.97,-0.29,-0.13,-0.06,-4.52,-3.05,275,301,433,480,331,2
1887,0.95,-0.3,-0.12,0.85,-3.48,-2.75,272,306,433,467,332,2
1888,0.94,-0.3,-0.11,-0.24,-3.17,-2.08,271,306,429,470,332,2
1889,0.95,-0.29,-0.11,0.31,-1.71,-1.77,270,302,434,466,332,2
1890,0.94,-0.3,-0.12,0.31,-2.38,-2.26,271,308,429,475,331,2
1891,0.95,-0.3,-0.12,1.1,-3.85,-2.38,272,306,427,470,332,2
1892,0.95,-0.3,-0.13,1.46,-3.54,-3.11,292,305,430,468,328,2
1893,0.95,-0.3,-0.12,2.14,-6.16,-0.73,274,304,429,472,330,2
1894,0.95,-0.3,-0.12,1.28,-2.32,-2.62,272,306,429,474,334,2
1895,0.92,-0.32,-0.12,2.01,-5.25,-0.37,274,305,431,472,335,2
1896,0.94,-0.31,-0.12,-0.18,-3.05,-3.6,274,303,428,473,331,2
1897,0.97,-0.28,-0.13,1.95,-3.54,-5.31,270,302,431,466,334,2
1898,0.96,-0.29,-0.13,0.49,-2.93,-3.11,269,304,428,470,339,2
1899,0.95,-0.29,-0.13,1.83,-2.38,-1.83,269,297,431,481,329,2
1900,0.94,-0.3,-0.12,2.32,-2.75,-2.14,265,302,431,469,325,2
1901,0.95,-0.3,-0.12,0.12,-2.14,-1.71,269,299,430,471,328,2
1902,0.86,-0.32,-0.01,-11.66,26.06,-10.62,265,299,431,465,327,2
1903,0.96,-0.28,-0.09,2.93,-5.74,-2.26,268,302,429,474,326,2
1904,0.96,-0.29,-0.07,-0.85,-1.46,-2.32,268,303,431,471,329,2
1905,0.96,-0.29,-0.08,0.73,-3.54,-2.81,267,301,434,472,322,2
1906,0.94,-0.29,-0.06,-0.06,-2.93,-2.08,267,299,431,469,330,2
1907,0.99,-0.29,-0.11,13.18,-1.95,0.73,268,302,428,474,331,2
1908,0.96,-0.29,-0.01,-0.37,-2.5,-4.94,269,302,429,469,325,2
1909,0.95,-0.3,-0.03,2.32,-2.14,-2.62,268,306,429,467,329,2
1910,0.95,-0.29,-0.04,0.24,-2.32,-2.62,269,301,431,475,327,2
1911,0.95,-0.3,-0.05,-1.4,-1.65,-2.32,269,302,433,467,327,2
1912,0.96,-0.3,-0.05,1.53,-2.93,-1.28,269,306,433,475,328,2
1913,0.95,-0.33,-0.06,0.67,-2.38,-10.44,270,305,427,468,328,2
1914,0.94,-0.31,-0.02,-0.79,-0.79,-3.05,269,305,432,471,332,2
1915,0.92,-0.35,-0.03,-9.03,-1.34,-2.5,273,304,432,469,331,2
1916,0.95,-0.33,-0.04,1.59,-4.03,-0.18,273,306,433,471,334,2
1917,0.92,-0.38,-0.06,2.93,-4.64,-0.67,270,307,430,464,330,2
1918,0.92,-0.35,-0.04,0.24,-3.3,-2.5,272,304,427,473,335,2
1919,0.95,-0.35,-0.06,-1.46,-4.27,-3.6,272,304,433,471,331,2
1920,0.92,-0.36,-0.05,1.77,-2.56,-1.1,272,303,430,466,322,2
1921,0.94,-0.37,-0.06,2.87,-2.75,-1.4,278,301,430,474,333,2
1922,0.93,-0.37,-0.06,-0.43,-2.2,-3.6,276,307,434,469,331,2
1923,0.93,-0.37,-0.06,0.49,-2.99,-2.26,271,304,433,473,330,2
1924,0.93,-0.37,-0.05,1.59,-4.09,-1.83,271,304,435,468,331,2
1925,0.95,-0.36,-0.06,-1.4,-3.05,-3.54,274,306,433,470,328,2
1926,0.91,-0.37,-0.04,-0.61,-1.22,-2.62,273,304,431,470,330,2
1927,0.93,-0.37,-0.05,0.85,-3.11,-2.44,274,304,432,476,326,2
1928,0.94,-0.37,-0.05,-2.01,-4.33,-2.93,270,304,428,472,328,2
1929,0.94,-0.36,-0.06,1.1,-3.05,-2.44,272,306,436,469,331,2
1930,0.93,-0.36,-0.06,-0.67,-2.93,-2.32,273,304,431,476,333,2
1931,0.93,-0.37,-0.05,1.83,-2.56,-1.22,272,307,430,471,327,2
1932,0.93,-0.38,-0.07,1.16,-3.36,-2.32,273,307,430,468,330,2
1933,0.94,-0.37,-0.05,-0.12,-3.23,-2.87,272,302,431,471,331,2
1934,0.93,-0.37,-0.06,2.75,-4.09,-3.3,273,306,432,472,330,2
1935,0.93,-0.37,-0.06,0.98,-2.62,-3.91,272,302,429,475,329,2
1936,0.99,-0.38,-0.1,0.73,-6.1,-2.08,259,288,427,474,322,2
1937,0.93,-0.33,-0.07,-8.0,-8.18,-2.99,255,287,424,466,306,2
1938,1.0,-0.29,-0.18,7.02,-19.35,1.95,255,283,416,462,302,2
1939,0.93,-0.33,-0.07,14.95,-3.17,-5.25,247,280,425,472,312,2
1940,0.92,-0.33,-0.1,18.13,0.79,-0.98,258,282,425,473,316,2
1941,0.94,-0.35,-0.03,-1.95,-3.85,-1.46,262,288,429,472,319,2
1942,0.94,-0.37,-0.05,13.24,-6.04,1.65,266,286,428,473,320,2
1943,0.95,-0.35,-0.08,-5.86,-6.9,-3.66,262,289,428,476,320,2
1944,0.95,-0.36,-0.09,1.04,-2.93,-3.42,267,294,430,475,323,2
1945,0.93,-0.37,-0.03,6.1,-0.49,10.56,262,292,428,460,329,2
1946,0.93,-0.32,-0.17,-7.2,-14.28,-6.77,270,300,426,464,328,2
1947,0.9,-0.36,-0.12,-0.06,0.31,-2.75,273,306,430,471,334,2
1948,0.91,-0.36,-0.07,4.15,1.71,-3.54,275,303,432,469,334,2
1949,0.95,-0.35,-0.13,2.99,-3.54,-1.65,279,305,429,473,335,2
1950,0.94,-0.37,-0.09,2.5,-3.85,-0.24,275,303,430,474,336,2
1951,0.95,-0.36,-0.07,-0.98,-4.46,-2.38,275,307,435,474,337,2
1952,0.92,-0.37,-0.07,-1.1,-3.72,-1.28,278,308,430,470,336,2
1953,0.94,-0.36,-0.09,4.21,-3.23,-1.28,274,307,431,466,336,2
1954,0.93,-0.37,-0.08,-0.85,-2.01,-2.62,278,307,430,466,339,2
1955,0.93,-0.36,-0.08,0.06,-2.08,-3.11,280,316,429,473,336,2
1956,0.93,-0.36,-0.09,-0.43,-3.17,-2.87,277,307,431,476,341,2
1957,0.92,-0.37,-0.06,-2.62,-2.32,-2.5,276,311,434,468,336,2
1958,0.92,-0.37,-0.07,2.56,-2.01,-2.62,279,309,432,471,338,2
1959,0.92,-0.37,-0.07,0.43,-3.11,-2.26,278,307,431,476,336,2
1960,0.9,-0.38,-0.08,-3.23,0.85,-5.13,278,309,432,472,336,2
1961,0.92,-0.35,-0.07,0.31,-2.69,-1.59,280,308,430,471,337,2
1962,0.93,-0.38,-0.1,0.98,-3.91,-2.01,278,308,432,466,335,2
1963,0.93,-0.37,-0.1,-3.66,-4.21,-3.48,275,308,432,474,334,2
1964,0.92,-0.37,-0.09,0.43,-4.21,-2.81,281,312,431,471,337,2
1965,0.92,-0.37,-0.1,1.46,-2.44,-2.87,280,311,432,471,336,2
1966,0.93,-0.37,-0.1,-1.16,-3.11,-2.2,281,315,434,472,340,2
1967,0.93,-0.37,-0.09,0.55,-2.5,-1.1,284,313,430,472,340,2
1968,0.93,-0.36,-0.1,-0.92,-2.32,-3.42,282,311,433,478,341,2
1969,0.92,-0.36,-0.08,0.98,-2.69,-2.01,279,311,434,469,341,2
1970,0.92,-0.38,-0.09,0.31,-3.05,-2.69,279,314,431,474,342,2
1971,0.93,-0.37,-0.1,1.53,-3.66,-3.05,284,308,430,473,342,2
1972,0.91,-0.37,-0.09,-0.24,-2.14,-2.99,283,313,433,472,339,2
1973,0.93,-0.36,-0.09,0.79,-3.23,-2.62,284,312,432,472,340,2
1974,0.93,-0.37,-0.09,3.66,-3.97,-2.38,285,313,432,468,340,2
1975,0.93,-0.37,-0.1,-0.61,-3.48,-2.87,284,320,438,473,340,2
1976,0.92,-0.37,-0.09,14.77,-2.44,-2.75,281,312,428,475,340,2
1977,0.93,-0.36,-0.1,0.18,-3.17,-2.62,286,315,434,472,341,2
1978,0.94,-0.37,-0.09,0.12,-3.36,-1.16,285,315,432,474,343,2
1979,0.93,-0.37,-0.09,0.24,-3.36,-2.81,283,323,430,473,337,2
1980,0.94,-0.36,-0.09,1.83,-2.75,-2.5,285,312,432,475,338,2
1981,0.93,-0.37,-0.08,2.81,-1.4,-2.08,283,311,435,472,345,2
1982,0.94,-0.37,-0.14,-2.01,-2.81,-4.15,308,300,429,480,338,2
1983,0.94,-0.34,-0.08,-5.43,-10.93,-8.12,275,294,430,463,332,2
1984,0.9,-0.38,-0.02,5.55,-4.58,-5.07,260,296,434,472,327,2
1985,0.93,-0.35,-0.11,2.14,-4.76,5.55,262,292,430,471,326,2
1986,0.93,-0.35,-0.03,-2.38,-3.11,-9.22,264,294,427,466,320,2
1987,0.98,-0.33,-0.09,-2.87,-7.2,-3.11,265,297,432,473,316,2
1988,0.96,-0.34,-0.11,-18.25,-6.35,-4.88,264,294,430,475,324,2
1989,0.92,-0.32,-0.12,3.05,-4.52,-0.98,266,297,432,474,326,2
1990,0.94,-0.33,-0.13,2.01,-2.44,-2.01,266,299,429,472,326,2
1991,0.95,-0.32,-0.13,0.43,-3.23,-3.36,266,298,431,465,324,2
1992,0.94,-0.32,-0.11,-0.85,-2.2,-2.75,266,301,432,471,328,2
1993,0.95,-0.32,-0.11,1.59,-3.42,-2.56,266,301,434,470,329,2
1994,0.94,-0.32,-0.11,0.92,-2.38,-2.08,267,303,430,470,328,2
1995,0.94,-0.32,-0.1,1.1,-2.62,-2.26,264,303,430,472,328,2
1996,0.93,-0.32,-0.11,1.34,-2.08,-2.32,267,303,429,467,328,2
1997,0.95,-0.32,-0.09,-0.55,-3.3,-2.26,264,303,430,469,331,2
1998,0.94,-0.31,-0.11,3.23,-5.13,-1.22,270,301,431,470,332,2
1999,0.94,-0.3,-0.1,2.08,-1.4,-0.49,271,301,431,470,330,2
2000,0.95,-0.31,-0.1,1.16,-3.23,-3.42,278,303,433,465,334,2
2001,0.95,-0.31,-0.12,2.2,-3.05,-3.17,262,302,438,473,333,2
2002,0.96,-0.32,-0.08,-3.54,2.01,-4.58,267,302,434,472,333,2
2003,0.98,-0.26,-0.08,7.75,10.8,-2.5,269,318,427,472,370,2
2004,0.99,-0.35,-0.13,9.46,-13.79,0.67,240,302,433,471,323,2
2005,0.95,-0.35,-0.06,9.22,-4.88,1.71,246,294,428,469,318,2
2006,0.97,-0.32,-0.11,-3.48,-7.81,-6.29,237,293,432,470,321,2
2007,0.91,-0.37,-0.0,-3.42,-1.16,-0.49,235,289,429,479,321,2
