,aX,aY,aZ,gX,gY,gZ,little,ring,middle,index,thumb,number
0,0.95,-0.29,0.02,17.4,0.55,1.89,190,471,414,471,284,3
1,0.96,-0.29,0.01,1.34,-2.2,-2.2,194,471,411,469,285,3
2,0.98,-0.3,0.01,-3.17,1.22,-6.04,195,475,415,476,284,3
3,0.96,-0.28,0.05,2.75,-8.36,1.46,199,477,412,481,285,3
4,0.95,-0.28,0.05,-1.34,-0.55,-6.1,200,477,411,479,288,3
5,0.96,-0.29,0.04,1.71,-3.72,-2.2,204,476,411,477,288,3
6,0.96,-0.28,0.02,-2.01,-0.85,-4.94,202,475,412,477,290,3
7,0.98,-0.26,0.04,-4.76,-2.08,-8.67,201,478,413,476,290,3
8,0.95,-0.28,0.02,0.85,-8.24,0.61,203,482,411,478,289,3
9,0.95,-0.3,-0.01,4.03,-6.59,-1.65,201,476,413,476,293,3
10,0.76,-0.29,0.13,37.11,3.54,-6.53,200,479,409,479,288,3
11,1.04,-0.22,-0.3,70.5,-61.4,53.53,198,479,406,474,288,3
12,0.94,-0.3,-0.05,3.66,-10.38,-7.08,201,480,404,473,289,3
13,1.0,-0.27,-0.12,3.42,-7.87,1.28,199,482,404,473,290,3
14,0.95,-0.28,-0.04,6.47,5.8,-5.92,200,484,408,471,289,3
15,0.95,-0.26,-0.01,-0.24,2.2,-6.35,201,480,404,474,290,3
16,0.95,-0.26,-0.01,-0.49,-3.91,-2.99,203,478,407,478,290,3
17,0.95,-0.27,-0.01,-4.03,0.61,-5.49,201,482,406,474,291,3
18,0.97,-0.25,-0.02,-1.89,0.85,-4.15,200,481,405,473,289,3
19,0.96,-0.25,-0.02,5.37,-4.09,-2.5,203,480,406,469,293,3
20,0.97,-0.26,-0.01,0.79,-3.17,-2.87,199,479,407,477,292,3
21,0.96,-0.24,-0.0,-1.16,-0.49,-3.91,228,477,408,471,290,3
22,0.98,-0.24,-0.01,-0.55,-3.72,-4.7,203,479,405,472,293,3
23,0.95,-0.24,-0.02,-0.12,-5.13,-6.41,203,480,406,473,291,3
24,0.98,-0.2,-0.02,-0.79,-2.5,0.79,212,480,405,473,295,3
25,0.87,-0.21,0.0,4.64,-20.51,1.28,202,480,411,472,295,3
26,1.05,-0.23,-0.16,-8.91,-1.34,-9.83,206,476,405,472,292,3
27,0.9,-0.17,-0.04,6.35,-23.07,2.14,204,477,405,466,293,3
28,0.98,-0.05,-0.2,-0.85,-15.63,16.54,205,478,402,472,290,3
29,0.93,-0.2,-0.02,3.85,-2.32,13.92,200,487,403,477,290,3
30,0.97,-0.22,-0.06,-10.5,-6.16,-13.79,226,481,404,471,293,3
31,0.97,-0.19,-0.04,-2.44,-1.4,4.15,203,479,403,471,293,3
32,0.97,-0.19,-0.05,-1.28,-5.31,-4.21,203,476,403,470,296,3
33,0.97,-0.18,-0.04,-3.85,-4.21,-0.73,199,479,405,467,293,3
34,1.0,-0.17,-0.05,-1.1,-3.54,-2.01,202,481,403,470,296,3
35,0.99,-0.17,-0.06,2.99,-5.68,-1.04,204,479,402,466,296,3
36,0.99,-0.2,-0.07,-0.18,-4.7,-1.53,202,480,400,472,293,3
37,1.0,-0.18,-0.07,0.06,-5.74,-0.73,203,479,404,468,294,3
38,0.98,-0.18,-0.07,1.59,-3.17,-1.95,204,479,403,468,292,3
39,0.99,-0.17,-0.08,-0.18,-2.38,-3.85,205,478,402,473,294,3
40,0.98,-0.15,-0.06,-1.34,0.0,-4.39,201,478,405,470,293,3
41,0.98,-0.17,-0.07,-0.73,-1.83,-4.15,204,477,403,468,295,3
42,0.99,-0.18,-0.06,-0.73,-0.06,-2.62,204,476,404,472,290,3
43,0.99,-0.15,-0.04,1.4,-3.36,-3.78,206,478,403,469,304,3
44,0.98,-0.18,-0.07,-0.18,-3.48,-5.86,205,480,405,467,292,3
45,0.99,-0.17,-0.07,-0.49,-1.71,-5.25,203,480,404,468,295,3
46,0.99,-0.15,-0.06,0.31,-3.48,-4.46,216,480,403,469,296,3
47,0.99,-0.15,-0.06,-0.12,-2.62,-4.52,205,475,403,471,293,3
48,0.99,-0.14,-0.05,1.83,-1.65,-1.46,214,479,404,470,295,3
49,0.98,-0.13,-0.04,0.12,-2.75,-2.32,204,480,402,469,296,3
50,1.0,-0.14,-0.05,0.73,-4.58,-3.54,214,479,406,484,298,3
51,0.99,-0.15,-0.04,0.43,-5.0,-4.27,206,478,403,464,295,3
52,0.99,-0.12,-0.05,-3.05,-2.62,-5.8,207,480,403,464,299,3
53,1.0,-0.11,-0.04,-4.39,-1.89,-7.14,207,478,402,469,294,3
54,0.98,-0.09,-0.03,-0.85,-2.32,-3.85,210,480,402,471,296,3
55,1.0,-0.12,-0.07,2.62,0.24,-4.09,205,475,407,468,294,3
56,0.99,-0.13,-0.03,1.77,-8.24,3.54,208,479,399,466,299,3
57,0.98,-0.15,-0.03,0.92,-3.36,-2.32,209,478,404,468,294,3
58,0.99,-0.14,-0.05,0.06,-3.23,-4.7,209,479,402,472,296,3
59,0.99,-0.12,-0.04,-1.95,-2.2,-2.99,210,477,402,467,295,3
60,1.0,-0.13,-0.05,-2.32,-3.3,-4.88,207,476,402,468,293,3
61,0.98,-0.13,-0.04,0.49,-3.72,-2.99,205,478,401,466,294,3
62,0.99,-0.13,-0.05,0.79,-4.64,-1.28,212,480,403,472,298,3
63,0.99,-0.12,-0.04,-0.98,-1.22,-3.91,209,479,399,467,294,3
64,1.0,-0.12,-0.05,-0.24,-3.11,-2.93,208,478,395,472,297,3
65,1.01,-0.12,-0.07,2.44,-6.04,0.49,207,477,395,471,303,3
66,0.97,-0.11,-0.03,-2.75,-2.38,-6.53,207,474,401,468,297,3
67,0.99,-0.11,-0.05,0.31,-1.4,-2.87,211,477,401,465,297,3
68,0.98,-0.12,-0.06,0.79,-2.62,0.06,210,479,400,471,296,3
69,1.0,-0.12,-0.05,3.78,-2.93,-1.71,209,477,399,465,294,3
70,1.0,-0.11,-0.04,4.58,-1.59,-7.75,209,476,399,471,299,3
71,0.99,-0.12,-0.05,-1.16,-1.53,-3.23,211,478,398,469,296,3
72,0.98,-0.11,-0.05,-0.43,-2.56,-2.87,211,474,399,469,299,3
73,0.99,-0.12,-0.05,-0.43,-2.75,-2.01,211,476,400,470,297,3
74,1.0,-0.12,-0.05,0.85,-3.6,-1.46,208,478,398,468,298,3
75,0.99,-0.12,-0.04,1.22,-3.6,-2.01,208,477,401,467,293,3
76,0.99,-0.13,-0.06,0.37,-2.81,-2.08,210,475,404,468,296,3
77,0.99,-0.13,-0.05,-0.06,-3.54,0.67,209,479,398,468,301,3
78,1.0,-0.14,-0.06,-1.16,-3.3,-2.01,198,480,415,469,298,3
79,0.99,-0.13,-0.06,-1.1,-4.27,-2.32,209,476,402,467,295,3
80,1.0,-0.12,-0.06,0.43,-2.56,-3.48,212,476,398,469,297,3
81,0.99,-0.13,-0.05,2.5,-2.01,-1.89,208,477,398,472,296,3
82,0.99,-0.14,-0.05,-1.71,-3.97,0.98,210,476,400,471,298,3
83,0.99,-0.15,-0.05,0.49,-2.93,-1.89,213,477,401,472,297,3
84,0.99,-0.16,-0.08,-2.26,-4.64,0.37,210,476,400,472,300,3
85,1.03,-0.12,-0.02,-8.0,-1.77,2.01,209,475,399,469,294,3
86,0.96,-0.23,-0.08,-4.7,1.16,-3.11,209,477,402,466,293,3
87,0.94,-0.32,-0.08,-13.31,3.72,20.75,209,480,398,467,295,3
88,0.89,-0.4,-0.09,-2.44,-8.67,-5.31,210,479,399,464,294,3
89,1.0,-0.29,-0.03,19.47,-1.28,-7.69,206,476,401,469,300,3
90,0.96,-0.34,-0.09,20.51,-20.57,-7.14,208,476,397,463,297,3
91,0.9,-0.22,0.07,21.42,12.33,-15.08,208,476,398,471,294,3
92,1.07,-0.13,-0.03,5.55,1.04,-3.6,206,472,399,469,298,3
93,1.0,-0.17,0.12,1.1,-21.73,9.22,207,472,399,469,298,3
94,0.98,-0.21,0.05,1.28,-5.37,-2.75,210,476,398,464,299,3
95,0.98,-0.2,0.06,-3.05,-5.86,-2.08,207,475,400,469,294,3
96,0.99,-0.17,0.07,0.49,-3.85,-2.56,210,478,406,463,299,3
97,1.0,-0.18,0.01,-4.27,-8.24,-3.23,208,473,399,465,298,3
98,0.99,-0.14,0.04,-0.49,-3.23,-2.56,207,475,401,466,298,3
99,0.98,-0.17,0.03,-2.75,-7.39,1.34,204,477,398,464,297,3
100,1.02,-0.15,0.01,2.38,-3.97,-2.38,209,472,396,470,295,3
101,1.01,-0.16,0.01,-0.73,-3.42,-3.11,206,474,399,464,296,3
102,1.0,-0.15,0.01,1.34,-7.26,1.4,207,473,397,474,300,3
103,0.97,-0.16,0.02,1.89,-8.3,0.49,207,477,405,473,295,3
104,0.98,-0.21,0.01,11.84,-8.0,5.62,197,476,415,464,291,3
105,0.98,-0.23,-0.03,7.63,-1.95,-5.98,205,473,407,473,290,3
106,0.99,-0.22,-0.04,3.6,-5.19,-4.58,207,470,409,469,289,3
107,0.99,-0.21,-0.04,1.65,-7.93,1.22,208,473,412,473,294,3
108,0.96,-0.23,-0.03,-0.67,-0.31,-6.71,207,470,411,472,292,3
109,0.97,-0.23,-0.05,-0.73,-2.75,-2.81,204,473,412,472,290,3
110,0.98,-0.21,-0.03,0.85,-2.87,-2.5,206,477,410,474,291,3
111,0.98,-0.2,-0.03,0.85,-3.23,-3.54,205,474,412,473,293,3
112,0.99,-0.21,-0.05,1.65,-2.14,-3.17,208,474,413,477,290,3
113,0.98,-0.19,-0.03,0.55,-1.95,-3.42,209,472,413,474,289,3
114,0.99,-0.2,-0.04,-1.71,2.99,-6.71,206,474,411,473,292,3
115,0.97,-0.21,-0.02,1.16,-2.75,-1.46,205,475,412,477,294,3
116,0.97,-0.2,-0.02,0.43,-2.44,-2.5,205,474,407,468,289,3
117,0.98,-0.19,-0.02,-0.24,-1.71,-3.6,208,471,413,468,291,3
118,0.98,-0.2,-0.03,1.4,-2.87,-2.81,205,473,410,473,294,3
119,0.99,-0.19,-0.03,-0.55,-3.6,-2.08,206,474,412,472,292,3
120,0.97,-0.18,-0.03,-0.31,-3.85,-2.56,206,477,408,477,295,3
121,0.99,-0.2,-0.02,-1.28,-3.05,-2.62,206,471,415,473,293,3
122,0.98,-0.19,-0.03,0.0,-3.6,-1.95,205,476,410,472,293,3
123,0.98,-0.2,-0.03,2.08,-3.66,-1.89,213,475,413,473,294,3
124,0.98,-0.19,-0.04,0.0,-3.91,-2.75,206,470,412,468,296,3
125,0.99,-0.19,-0.03,-0.37,-2.62,-3.48,205,476,413,482,292,3
126,0.99,-0.19,-0.03,0.24,-2.56,-3.05,209,477,410,472,294,3
127,0.99,-0.19,-0.04,-0.37,-1.71,-3.66,209,473,408,473,292,3
128,0.98,-0.19,-0.03,0.49,-3.78,-2.26,206,474,407,472,284,3
129,0.98,-0.19,-0.03,0.37,-3.3,-2.5,218,474,412,477,291,3
130,0.99,-0.19,-0.03,-0.12,-2.81,-2.93,209,470,410,468,297,3
131,0.98,-0.18,-0.03,0.24,-2.62,-2.08,204,472,413,473,292,3
132,0.97,-0.19,-0.01,1.89,-2.75,-2.26,206,471,413,474,295,3
133,0.98,-0.19,-0.04,-1.77,-3.97,-3.42,214,474,410,474,291,3
134,0.99,-0.19,-0.03,0.55,-4.33,-2.56,207,476,412,476,293,3
135,0.99,-0.2,-0.04,2.69,-3.66,-4.82,208,477,409,472,294,3
136,0.99,-0.19,-0.04,-0.12,-2.69,-2.62,206,473,407,477,295,3
137,0.99,-0.17,-0.03,0.55,-3.36,-2.14,203,472,408,472,294,3
138,0.98,-0.18,-0.03,2.99,-3.91,-1.4,207,480,414,473,293,3
139,0.99,-0.17,-0.02,0.55,-7.26,-0.37,205,471,410,476,294,3
140,0.99,-0.17,-0.04,0.92,-2.99,-2.32,210,474,410,474,295,3
141,0.99,-0.19,-0.04,1.34,-3.66,-1.71,207,476,410,473,295,3
142,0.96,-0.18,-0.04,0.92,-4.58,-1.46,209,472,414,474,293,3
143,0.98,-0.19,-0.03,-1.46,-2.93,-1.95,208,475,411,473,294,3
144,0.99,-0.19,-0.04,2.26,-2.69,-2.75,210,470,412,468,292,3
145,0.98,-0.17,-0.02,-1.83,-3.42,-3.72,208,476,410,471,297,3
146,0.98,-0.18,-0.04,0.79,-1.95,-2.5,210,480,414,473,295,3
147,0.99,-0.18,-0.03,-0.37,-2.56,-3.72,208,471,406,475,294,3
148,0.99,-0.18,-0.03,0.85,-2.99,-3.36,208,476,410,474,295,3
149,0.99,-0.18,-0.04,-0.55,-2.56,-2.62,210,473,412,472,296,3
150,0.98,-0.18,-0.03,-0.79,-3.05,-3.54,211,473,411,474,294,3
151,0.98,-0.19,-0.03,0.73,-2.14,-2.38,209,474,409,473,295,3
152,0.98,-0.19,-0.04,-0.61,-2.56,-3.17,221,472,409,474,293,3
153,0.98,-0.18,-0.03,-1.46,-2.93,-3.3,210,476,410,477,294,3
154,0.98,-0.18,-0.03,0.18,-2.75,-2.32,208,473,411,478,293,3
155,0.98,-0.17,-0.03,-0.18,-2.93,-2.32,209,476,409,475,296,3
156,0.99,-0.17,-0.03,-0.61,-2.99,-3.3,210,469,406,476,297,3
157,1.0,-0.17,-0.04,-2.62,-5.37,-2.93,205,475,413,468,295,3
158,0.98,-0.17,-0.04,-4.03,-5.37,-1.16,209,470,411,478,295,3
159,0.93,-0.2,-0.06,-12.88,-15.93,8.91,235,480,412,475,297,3
160,0.96,-0.3,-0.22,-5.8,-11.47,6.1,211,471,407,467,291,3
161,0.91,-0.31,-0.18,-11.96,1.4,-12.57,210,475,411,473,295,3
162,0.97,-0.22,-0.24,-2.75,-2.99,-5.98,211,473,410,471,295,3
163,0.94,-0.17,-0.24,-12.7,-12.63,-11.66,209,474,410,474,295,3
164,0.9,-0.25,-0.22,2.99,-6.23,-1.22,208,475,408,470,297,3
165,0.96,-0.16,-0.21,4.58,-2.14,-5.86,208,473,408,468,291,3
166,0.98,-0.2,-0.22,10.56,-23.86,11.05,208,474,405,470,294,3
167,0.93,-0.19,-0.25,0.43,-3.42,-1.53,211,472,405,472,296,3
168,0.96,-0.2,-0.21,2.99,-4.21,-1.22,208,476,404,470,295,3
169,0.95,-0.22,-0.25,1.59,-1.65,-2.14,211,474,404,473,296,3
170,0.95,-0.2,-0.2,0.24,-1.53,-2.75,210,476,404,466,294,3
171,0.97,-0.18,-0.23,-1.1,-2.69,-4.58,208,474,406,461,295,3
172,0.95,-0.19,-0.2,1.16,-2.44,-0.79,200,472,404,464,296,3
173,0.97,-0.17,-0.18,-4.33,-0.98,-7.39,210,473,401,473,293,3
174,0.96,-0.16,-0.22,2.87,-1.65,-3.05,208,475,403,471,297,3
175,0.96,-0.16,-0.18,0.43,-0.06,-1.83,208,472,406,464,293,3
176,0.96,-0.18,-0.19,-0.18,-4.03,-1.22,209,480,403,464,296,3
177,0.96,-0.17,-0.21,2.62,-6.71,1.16,209,473,403,469,306,3
178,0.96,-0.16,-0.19,5.25,-4.88,0.73,205,475,405,464,297,3
179,0.95,-0.18,-0.21,-2.69,-2.62,-4.09,208,473,400,469,292,3
180,0.95,-0.18,-0.22,2.08,-3.91,-1.46,208,474,404,465,290,3
181,0.97,-0.19,-0.23,-0.79,-6.16,1.34,212,470,404,470,293,3
182,0.96,-0.2,-0.23,0.73,-3.54,-0.98,208,473,405,473,293,3
183,0.96,-0.18,-0.19,-1.46,-1.83,-1.16,207,474,401,470,294,3
184,0.93,-0.19,-0.18,5.19,4.15,-7.87,209,474,402,463,290,3
185,0.96,-0.18,-0.2,1.28,-1.28,-4.7,212,474,404,465,302,3
186,0.95,-0.2,-0.19,-0.12,-5.49,-1.1,212,473,404,472,293,3
187,0.96,-0.2,-0.22,6.04,4.09,-2.99,237,472,404,471,284,3
188,0.95,-0.21,-0.18,3.72,-4.7,0.0,207,473,406,471,287,3
189,0.93,-0.24,-0.19,-3.36,-2.62,0.61,209,469,402,470,290,3
190,0.96,-0.23,-0.23,-5.86,-7.81,5.31,210,470,403,473,289,3
191,0.99,-0.2,-0.18,-13.85,-9.83,-1.71,211,476,399,468,290,3
192,0.93,-0.24,-0.22,3.11,1.16,-4.03,210,476,403,469,292,3
193,0.99,-0.22,-0.23,1.95,8.3,-7.87,210,474,399,468,293,3
194,0.99,-0.2,-0.17,-1.53,-15.08,-4.58,212,473,404,463,291,3
195,0.84,-0.28,-0.09,-2.69,17.58,6.47,213,473,402,467,291,3
196,1.06,-0.12,-0.05,-6.16,10.93,9.28,209,473,402,469,275,3
197,1.01,-0.36,-0.13,-12.08,-11.17,-13.61,208,474,402,473,286,3
198,0.9,-0.36,-0.2,-3.23,-0.24,9.77,210,471,402,468,289,3
199,0.94,-0.33,-0.11,0.18,2.14,0.55,210,472,403,473,288,3
200,0.93,-0.37,-0.15,3.72,-1.1,-4.7,212,473,404,463,291,3
201,0.96,-0.29,-0.12,-5.74,-9.4,0.79,210,472,401,473,291,3
202,1.04,-0.44,-0.28,5.43,36.44,-34.48,213,475,402,472,288,3
203,0.92,-0.4,-0.13,-5.55,-3.97,4.58,207,472,402,467,288,3
204,0.93,-0.28,-0.16,-12.82,26.67,-5.86,210,471,401,464,286,3
205,0.84,-0.46,-0.26,-29.05,12.88,-12.76,208,475,404,465,289,3
206,0.93,-0.31,-0.09,9.46,-3.6,-5.19,213,469,402,456,289,3
207,0.9,-0.38,-0.1,-3.42,-0.24,-8.54,212,473,400,464,290,3
208,0.92,-0.39,-0.14,-4.76,-2.5,-6.16,205,472,403,464,288,3
209,0.92,-0.37,-0.15,-3.66,-1.46,-4.52,211,475,402,465,291,3
210,0.92,-0.37,-0.16,6.9,-11.54,-0.06,208,473,403,469,292,3
211,0.92,-0.42,-0.27,-21.06,-6.77,0.12,211,475,399,467,289,3
212,0.91,-0.32,-0.14,-3.78,1.71,-3.3,210,473,400,457,291,3
213,0.94,-0.41,-0.19,5.07,-11.29,10.31,211,470,398,466,300,3
214,0.89,-0.42,-0.12,-1.46,-4.76,4.03,223,475,406,462,290,3
215,0.87,-0.49,-0.19,-3.42,-7.2,-3.78,208,473,399,467,292,3
216,0.96,-0.33,-0.12,6.53,5.92,-8.85,213,471,402,462,290,3
217,0.86,-0.45,-0.13,4.82,6.29,-10.44,214,474,402,462,292,3
218,0.95,-0.38,-0.13,-3.42,-8.73,-13.31,209,473,401,459,292,3
219,0.92,-0.41,-0.14,-1.22,2.01,2.62,213,475,403,460,294,3
220,0.86,-0.45,-0.13,2.01,-8.06,3.3,214,473,401,463,294,3
221,0.9,-0.36,-0.03,4.88,8.12,-10.07,202,470,404,466,291,3
222,0.87,-0.36,-0.04,2.75,-2.75,-1.16,212,473,404,467,288,3
223,0.97,-0.33,-0.06,2.99,-9.77,7.51,211,471,403,464,291,3
224,0.92,-0.36,-0.07,-2.26,-1.4,-1.89,215,470,401,465,292,3
225,0.95,-0.35,-0.06,2.26,-4.82,-1.83,213,468,403,463,292,3
226,0.95,-0.33,-0.04,3.85,-11.41,3.36,213,472,399,467,293,3
227,0.93,-0.35,-0.05,1.95,-1.95,-4.39,214,469,398,468,292,3
228,0.94,-0.34,-0.06,-3.17,-0.79,-6.29,214,473,402,464,292,3
229,0.93,-0.33,-0.05,1.22,-4.46,-1.34,215,473,402,459,293,3
230,0.94,-0.35,-0.07,-0.12,-2.32,-3.36,214,471,400,459,295,3
231,0.94,-0.36,-0.06,0.73,-3.6,-1.53,214,475,402,467,292,3
232,0.93,-0.35,-0.06,-1.65,-2.87,-3.91,214,482,402,464,293,3
233,0.94,-0.34,-0.05,0.0,-3.23,-3.05,212,474,402,469,292,3
234,0.94,-0.34,-0.05,0.06,-1.77,-2.99,212,474,399,464,292,3
235,0.93,-0.34,-0.04,0.61,-3.42,-2.81,217,475,401,464,293,3
236,0.94,-0.34,-0.05,2.14,-3.17,-2.01,214,471,402,468,292,3
237,0.94,-0.34,-0.05,-0.12,-1.83,-3.66,214,469,401,468,294,3
238,0.93,-0.34,-0.04,1.65,-2.87,-2.08,214,471,401,464,294,3
239,0.94,-0.34,-0.04,0.55,-3.23,-2.69,217,481,404,461,292,3
240,0.95,-0.34,-0.05,0.79,-2.14,-3.3,214,472,400,459,294,3
241,0.95,-0.34,-0.05,2.5,-0.31,-5.31,216,469,400,465,292,3
242,0.95,-0.33,-0.03,0.06,-2.26,-2.32,214,475,397,463,290,3
243,0.95,-0.34,-0.03,-0.55,-2.38,-4.03,214,473,399,464,293,3
244,0.96,-0.34,-0.04,0.31,-1.46,-6.23,227,472,400,465,293,3
245,0.94,-0.33,-0.02,3.54,-7.08,1.04,214,472,404,464,293,3
246,0.94,-0.34,-0.03,6.29,-3.3,-1.83,226,472,400,464,292,3
247,0.93,-0.33,-0.01,-2.01,-2.26,-6.29,216,469,401,469,291,3
248,0.97,-0.31,0.03,-3.11,0.18,-6.16,214,469,402,470,292,3
249,0.96,-0.31,0.01,-0.18,-2.81,-5.19,216,474,401,473,292,3
250,0.98,-0.28,-0.02,-2.5,-2.93,-4.64,212,476,410,477,291,3
251,0.96,-0.27,-0.0,-0.61,-1.83,-2.93,213,473,417,474,289,3
252,0.96,-0.28,-0.01,5.13,-4.64,-1.1,213,475,418,471,293,3
253,0.96,-0.28,-0.01,1.89,-2.26,-3.11,211,472,403,468,290,3
254,0.97,-0.28,-0.01,1.53,-3.97,-2.01,214,473,402,476,292,3
255,0.94,-0.28,-0.0,1.83,-3.91,-2.26,213,472,398,473,290,3
256,0.95,-0.28,0.0,0.24,-1.71,-3.36,214,473,403,476,291,3
257,0.96,-0.28,-0.0,0.55,-3.23,-2.62,213,473,405,469,293,3
258,0.96,-0.28,-0.0,-1.71,-3.85,-2.99,213,472,402,474,292,3
259,0.97,-0.27,-0.01,-1.1,-2.44,-2.93,214,471,402,474,292,3
260,0.96,-0.27,-0.01,0.49,-1.95,-2.56,216,472,405,474,291,3
261,0.96,-0.27,-0.01,-0.12,-2.38,-3.11,215,474,405,473,293,3
262,0.97,-0.26,0.0,0.49,-3.11,-1.89,216,470,404,476,291,3
263,0.97,-0.28,-0.02,-0.24,-2.87,-2.81,215,471,403,467,295,3
264,0.96,-0.3,-0.02,0.61,-2.99,-2.14,214,473,402,467,290,3
265,0.96,-0.29,-0.02,0.61,-4.52,-1.71,213,472,405,474,290,3
266,0.96,-0.29,-0.02,-0.43,-2.56,-3.85,216,473,403,468,300,3
267,0.96,-0.29,-0.02,1.28,-2.08,-2.5,214,472,405,471,292,3
268,0.97,-0.28,-0.02,1.46,-3.3,-2.56,215,473,403,475,294,3
269,0.96,-0.29,-0.01,0.92,-2.69,-2.93,217,474,401,468,289,3
270,0.96,-0.28,-0.01,0.67,-3.11,-2.08,214,479,402,471,292,3
271,0.96,-0.28,-0.0,1.22,-2.38,-3.23,215,470,404,472,293,3
272,0.96,-0.28,-0.0,0.73,-2.87,-2.56,216,473,402,472,292,3
273,0.96,-0.28,-0.01,1.28,-3.3,-2.62,224,472,404,476,292,3
274,0.96,-0.28,-0.01,0.49,-3.11,-2.81,253,472,406,473,294,3
275,0.96,-0.28,-0.01,-0.55,-2.62,-3.72,213,469,406,472,291,3
276,0.96,-0.28,-0.01,0.12,-3.6,-2.08,216,473,406,471,292,3
277,0.96,-0.28,-0.01,-4.94,-2.99,-2.62,214,474,399,476,292,3
278,0.95,-0.29,-0.01,3.48,-1.46,-4.39,217,473,405,475,290,3
279,0.95,-0.3,-0.01,1.71,-4.82,-3.05,215,472,402,470,295,3
280,0.98,-0.25,-0.0,-0.73,-3.85,-3.54,216,471,399,472,293,3
281,0.96,-0.29,-0.01,0.12,-3.17,-2.32,214,472,404,471,298,3
282,0.97,-0.28,-0.01,2.93,-2.93,-2.99,211,472,401,475,292,3
283,0.96,-0.27,0.01,1.71,-2.99,-2.01,233,475,402,473,293,3
284,0.95,-0.29,-0.01,1.77,-1.95,-4.09,218,478,406,481,293,3
285,0.97,-0.28,-0.02,-0.49,-3.36,-2.14,215,472,402,467,293,3
286,0.97,-0.27,0.0,0.67,-4.09,-2.08,214,475,402,471,292,3
287,0.94,-0.29,0.0,-0.31,-4.76,0.49,217,474,419,473,292,3
288,0.96,-0.28,-0.02,-1.89,-2.93,-2.62,206,474,406,470,293,3
289,0.97,-0.29,-0.04,-1.04,-1.71,-3.3,223,476,405,472,296,3
290,0.96,-0.26,-0.02,1.59,-3.91,-2.81,215,473,401,476,290,3
291,0.97,-0.28,-0.03,1.65,-3.72,-3.54,212,476,404,472,291,3
292,0.97,-0.27,-0.02,1.16,-4.39,-2.01,214,476,404,471,293,3
293,0.96,-0.27,-0.01,1.22,-1.95,-2.14,215,470,403,471,289,3
294,0.96,-0.28,-0.03,0.06,-2.38,-3.91,216,471,402,469,293,3
295,0.96,-0.25,0.0,1.59,0.0,-3.48,213,471,409,466,293,3
296,0.98,-0.24,-0.02,2.5,-0.31,-3.66,215,473,400,471,291,3
297,1.06,-0.16,-0.15,-2.87,-52.8,-20.51,215,490,401,474,295,3
298,0.99,-0.08,-0.34,-5.49,2.08,-33.2,217,472,403,469,292,3
299,1.01,-0.05,-0.12,-0.55,6.53,-10.62,214,474,402,466,292,3
300,1.16,0.12,-0.16,2.32,33.45,-19.9,217,469,401,470,296,3
301,0.94,0.01,0.04,-12.7,-17.64,10.68,214,472,401,470,296,3
302,1.13,-0.16,-0.1,-31.74,-10.86,7.32,214,471,405,465,293,3
303,0.93,-0.17,-0.04,-0.73,-6.1,-5.55,215,467,401,476,293,3
304,0.92,-0.13,-0.12,-17.09,-13.43,9.7,214,472,402,469,290,3
305,0.89,-0.16,-0.22,9.52,3.48,-11.17,214,470,401,470,295,3
306,0.93,-0.18,-0.25,-3.23,-10.25,1.28,216,474,404,472,293,3
307,0.97,-0.12,-0.17,9.95,-2.87,-3.97,217,470,400,471,294,3
308,0.96,-0.14,-0.2,2.38,-3.97,-1.89,216,471,402,466,294,3
309,0.97,-0.14,-0.17,1.77,2.01,-2.14,215,470,400,467,294,3
310,0.96,-0.23,-0.13,-3.17,-5.31,-2.62,216,472,400,466,296,3
311,0.96,-0.24,-0.14,-1.95,-3.48,-5.68,214,471,401,469,298,3
312,0.97,-0.18,-0.12,-2.75,-3.3,-6.35,212,468,402,468,298,3
313,0.98,-0.19,-0.13,1.89,-1.89,-4.15,217,468,400,466,298,3
314,0.98,-0.17,-0.11,-0.85,-4.21,-2.93,214,472,402,472,297,3
315,0.98,-0.16,-0.11,1.59,-3.91,-1.77,217,475,399,472,297,3
316,1.01,-0.13,-0.1,0.31,-2.01,-3.6,215,472,398,472,297,3
317,0.96,-0.16,-0.1,1.16,-4.15,-3.23,214,482,403,467,297,3
318,0.96,-0.19,-0.14,-2.69,-4.15,-0.18,215,471,405,469,298,3
319,0.97,-0.17,-0.11,-0.85,-2.99,-2.5,217,471,402,472,296,3
320,0.95,-0.18,-0.12,-0.55,-5.68,-1.28,214,473,400,466,298,3
321,0.98,-0.19,-0.15,2.08,-0.18,-5.43,215,471,402,468,298,3
322,0.98,-0.17,-0.12,0.79,-3.66,1.53,212,471,399,466,298,3
323,0.96,-0.17,-0.12,-1.89,-3.23,-2.56,217,469,399,465,293,3
324,0.97,-0.18,-0.14,1.59,-3.97,-1.83,211,469,400,466,295,3
325,0.98,-0.19,-0.14,3.05,-4.33,-1.77,216,474,399,467,295,3
326,0.98,-0.2,-0.12,5.92,-1.65,0.31,216,470,398,470,297,3
327,0.98,-0.19,-0.12,-1.04,-2.99,-5.13,215,474,396,471,294,3
328,0.99,-0.21,-0.11,8.85,10.74,-1.46,214,470,400,470,299,3
329,0.94,-0.23,0.04,20.87,1.04,9.58,212,468,403,471,293,3
330,0.96,-0.28,0.05,2.2,-2.93,-0.67,214,471,404,470,293,3
331,0.96,-0.29,0.05,2.69,-7.39,-0.67,214,471,402,471,291,3
332,0.95,-0.28,0.04,1.1,-5.0,0.61,212,470,406,471,293,3
333,0.96,-0.28,0.02,-0.49,-2.44,-2.5,214,470,404,474,292,3
334,0.96,-0.28,0.01,0.24,-2.69,-4.46,216,471,404,472,294,3
335,0.98,-0.26,-0.01,-1.1,-3.91,-4.09,216,471,405,467,293,3
336,0.97,-0.27,0.0,-0.92,-2.26,-2.38,216,471,406,473,293,3
337,0.96,-0.27,0.0,-0.12,-3.48,-2.38,213,472,415,474,295,3
338,0.98,-0.27,0.0,0.37,-1.83,-3.97,214,471,405,472,293,3
339,0.98,-0.28,-0.01,-0.18,-4.7,-4.15,214,468,404,475,295,3
340,0.98,-0.25,-0.0,-0.67,-4.39,-1.1,214,468,405,475,293,3
341,0.96,-0.26,-0.01,0.0,-3.54,-1.53,213,472,407,473,295,3
342,0.97,-0.26,-0.01,0.06,-2.75,-2.08,214,474,413,473,293,3
343,0.97,-0.26,-0.01,0.92,-2.26,-3.72,217,469,404,473,290,3
344,0.97,-0.27,-0.01,-0.18,-2.38,-4.76,217,475,404,475,291,3
345,0.98,-0.26,-0.02,-0.98,-8.61,-1.53,214,469,404,473,294,3
346,0.96,-0.27,-0.02,0.0,-2.99,-2.32,215,475,407,474,290,3
347,0.96,-0.28,-0.04,-0.67,-2.01,-3.78,217,476,407,473,291,3
348,0.96,-0.27,-0.03,1.1,-4.46,-1.1,217,473,404,476,294,3
349,0.97,-0.26,-0.03,0.12,-1.46,-3.72,215,472,405,474,292,3
350,0.97,-0.27,-0.03,1.16,-2.62,-2.5,217,472,403,469,293,3
351,0.97,-0.26,-0.04,-1.28,-2.26,-3.42,222,472,401,475,290,3
352,0.96,-0.27,-0.03,-0.24,-2.87,-3.48,214,473,402,473,295,3
353,0.96,-0.27,-0.03,0.92,-3.42,-1.95,216,473,407,477,292,3
354,0.98,-0.27,-0.04,-0.24,-3.66,-2.81,219,471,404,477,290,3
355,0.96,-0.26,-0.03,0.31,-1.95,-3.66,215,476,406,470,301,3
356,0.96,-0.26,-0.03,0.24,-2.14,-3.48,215,474,401,473,292,3
357,0.96,-0.26,-0.04,-0.85,-1.95,-3.3,215,488,404,472,297,3
358,0.96,-0.26,-0.03,-0.31,-2.38,-2.32,218,468,404,471,293,3
359,0.97,-0.26,-0.03,0.73,-2.26,-2.38,217,471,403,469,292,3
360,0.97,-0.26,-0.03,0.73,-2.62,-2.56,216,473,405,475,294,3
361,0.96,-0.26,-0.03,0.55,-2.32,-2.75,217,476,404,476,292,3
362,0.97,-0.27,-0.03,0.06,-3.72,-1.95,216,478,404,473,294,3
363,0.97,-0.27,-0.04,-0.24,-2.93,-2.44,218,474,405,474,294,3
364,0.96,-0.27,-0.03,0.06,-2.5,-2.99,217,472,407,473,296,3
365,0.96,-0.27,-0.03,0.55,-2.99,-2.32,215,471,405,473,297,3
366,0.96,-0.27,-0.03,0.37,-2.56,-2.87,215,472,406,477,294,3
367,0.96,-0.27,-0.03,0.67,-3.6,-1.83,218,473,409,468,293,3
368,0.96,-0.27,-0.03,0.12,-2.93,-2.62,216,471,405,473,295,3
369,0.96,-0.27,-0.03,1.89,-4.21,-2.26,217,472,403,472,294,3
370,0.96,-0.27,-0.03,0.37,-3.05,-3.05,215,470,406,473,295,3
371,0.97,-0.27,-0.03,-0.79,-2.5,-3.42,213,474,403,477,296,3
372,0.96,-0.26,-0.03,-0.24,-2.26,-2.56,216,474,405,475,296,3
373,0.97,-0.27,-0.03,0.37,-2.81,-2.69,216,475,404,478,293,3
374,0.96,-0.27,-0.03,1.89,-3.72,-2.87,215,469,403,472,298,3
375,0.96,-0.27,-0.04,0.18,-2.93,-2.81,218,475,404,467,297,3
376,0.94,-0.29,-0.03,1.46,-10.5,-0.79,218,473,401,476,288,3
377,0.98,-0.25,-0.05,0.73,-2.99,-3.05,217,473,401,473,292,3
378,0.96,-0.26,-0.06,1.83,-2.69,-2.69,217,472,404,472,295,3
379,0.97,-0.26,-0.06,2.26,-1.71,-2.01,217,472,408,474,296,3
380,0.96,-0.27,-0.05,0.55,-3.23,-2.87,222,475,404,473,295,3
381,0.95,-0.27,-0.06,-0.24,-2.26,-4.33,217,469,412,472,296,3
382,0.96,-0.27,-0.05,0.24,-2.62,-3.17,216,474,407,474,296,3
383,0.97,-0.27,-0.06,1.1,-3.85,-2.32,219,468,405,474,293,3
384,0.96,-0.26,-0.05,0.12,-2.14,-2.99,217,472,406,473,297,3
385,0.96,-0.25,-0.04,1.77,-3.78,-2.5,224,472,406,468,296,3
386,0.95,-0.26,-0.04,2.99,-3.78,-1.53,216,471,405,474,297,3
387,0.97,-0.25,-0.05,1.59,-2.14,-4.39,219,473,401,472,296,3
388,0.97,-0.25,-0.04,-0.85,0.73,-3.72,217,470,403,473,298,3
389,0.97,-0.24,-0.02,0.37,-2.08,-4.15,216,476,403,475,298,3
390,0.98,-0.24,-0.02,0.73,-3.36,-1.65,240,475,404,472,297,3
391,0.96,-0.26,-0.02,1.1,-3.6,-1.28,218,471,404,477,294,3
392,0.96,-0.26,-0.02,1.16,-2.75,-2.38,219,477,406,476,297,3
393,0.97,-0.26,-0.02,0.18,-2.56,-3.3,218,470,403,478,296,3
394,0.96,-0.26,-0.02,1.53,-2.69,-2.56,218,474,404,474,295,3
395,0.96,-0.25,-0.02,0.12,-2.44,-3.42,219,472,405,473,296,3
396,0.97,-0.25,-0.02,1.65,-2.87,-3.6,226,474,405,471,298,3
397,0.97,-0.25,-0.02,0.67,-2.81,-3.05,214,471,400,469,295,3
398,0.97,-0.25,-0.02,0.06,-3.42,-2.81,219,479,404,468,297,3
399,0.97,-0.25,-0.02,0.18,-3.3,-2.75,218,468,405,474,295,3
400,0.97,-0.24,-0.02,-0.43,-3.11,-3.23,220,474,404,473,296,3
401,0.97,-0.23,-0.01,1.95,-3.23,-1.46,217,472,403,474,295,3
402,0.98,-0.23,-0.01,0.61,-3.3,-1.59,219,475,414,475,296,3
403,0.97,-0.25,-0.04,-1.89,-2.99,-8.24,219,475,407,471,294,3
404,0.98,-0.21,-0.01,1.4,-3.78,-3.85,219,469,403,474,299,3
405,0.97,-0.22,-0.03,1.1,-2.14,-2.62,216,474,406,473,296,3
406,1.0,-0.21,-0.01,1.34,-2.38,-3.11,219,469,404,472,296,3
407,0.97,-0.21,-0.02,0.49,-2.69,-3.6,215,469,409,472,296,3
408,0.96,-0.21,-0.02,0.18,-3.97,-0.73,219,473,405,473,298,3
409,0.99,-0.2,-0.01,3.66,-1.65,-5.98,217,469,404,472,296,3
410,0.99,-0.2,-0.01,-0.06,-3.3,-1.83,219,474,401,473,296,3
411,0.99,-0.21,-0.02,1.46,-4.09,-2.26,219,481,406,471,296,3
412,0.97,-0.21,-0.01,1.83,-2.81,-3.17,217,472,404,476,295,3
413,0.98,-0.22,-0.0,2.44,-1.89,-1.83,220,471,404,472,298,3
414,0.97,-0.2,0.02,1.59,-2.81,-3.05,221,471,403,471,298,3
415,1.0,-0.17,0.0,3.85,-8.0,5.13,217,474,406,476,293,3
416,0.99,-0.2,-0.0,-19.59,3.91,0.24,217,475,403,468,293,3
417,1.01,-0.2,0.05,-16.05,-6.71,2.32,219,474,406,473,295,3
418,0.95,-0.29,-0.04,0.49,1.34,-10.56,217,471,404,477,297,3
419,0.96,-0.25,-0.01,2.62,-2.44,-7.45,222,470,401,477,293,3
420,1.0,-0.23,-0.04,-7.69,-5.19,-1.71,219,470,401,472,296,3
421,0.99,-0.21,-0.01,-1.34,-2.56,-4.27,218,475,404,469,296,3
422,0.97,-0.22,-0.02,-1.53,-3.66,-7.02,217,472,406,475,294,3
423,0.97,-0.22,-0.03,1.1,-3.11,-0.85,219,468,403,475,296,3
424,0.97,-0.22,-0.01,0.12,-2.32,-3.23,217,472,400,476,295,3
425,0.97,-0.22,-0.02,-0.61,-2.56,-2.93,218,478,404,473,297,3
426,0.99,-0.22,-0.03,-0.18,-3.23,-3.42,220,475,401,477,297,3
427,0.98,-0.21,-0.02,1.4,-2.56,-2.69,218,471,409,469,293,3
428,0.98,-0.22,-0.02,0.31,-2.69,-3.3,215,473,404,471,293,3
429,0.96,-0.23,-0.02,0.55,-2.32,-2.14,217,475,405,474,296,3
430,0.98,-0.22,-0.01,1.4,-2.99,-2.69,217,469,403,476,292,3
431,0.97,-0.22,-0.01,2.01,-2.93,-2.38,214,477,405,476,298,3
432,0.97,-0.23,-0.01,0.49,-2.5,-3.23,216,475,404,474,296,3
433,0.96,-0.22,-0.01,0.37,-2.56,-3.05,218,473,405,467,299,3
434,0.97,-0.22,-0.01,-0.43,-3.78,-3.05,218,472,400,474,293,3
435,0.97,-0.21,-0.01,-0.18,-1.53,-3.91,219,472,400,474,296,3
436,0.97,-0.22,-0.0,2.62,-2.14,-0.79,219,472,406,477,298,3
437,0.98,-0.23,-0.01,-0.73,-2.38,-1.34,216,472,409,473,293,3
438,0.98,-0.23,-0.01,-0.37,-2.99,-2.75,217,472,405,473,292,3
439,0.98,-0.22,-0.01,1.1,-3.78,-2.32,218,471,404,473,297,3
440,0.99,-0.21,-0.01,-0.06,-2.81,-2.56,219,473,405,473,297,3
441,0.98,-0.22,-0.01,1.16,-2.69,-3.97,219,469,405,477,302,3
442,0.84,-0.24,0.05,1.53,-11.35,-0.73,219,474,405,477,300,3
443,1.0,-0.2,-0.03,0.98,5.49,-11.41,217,474,400,473,294,3
444,0.98,-0.18,-0.01,-1.34,-4.52,-0.79,216,472,402,476,297,3
445,0.98,-0.19,-0.02,0.79,-3.05,-2.99,219,472,402,477,297,3
446,1.02,-0.2,-0.06,0.37,-5.92,3.91,219,473,403,474,295,3
447,0.98,-0.22,-0.03,-0.43,-2.2,-2.5,220,472,403,473,297,3
448,0.99,-0.21,-0.02,1.1,-1.95,-3.91,218,472,404,473,297,3
449,0.98,-0.21,-0.03,-0.31,-2.99,-2.93,218,474,403,476,297,3
450,0.99,-0.21,-0.03,2.14,-3.05,-2.38,220,472,415,477,296,3
451,0.98,-0.2,-0.02,0.85,-3.17,-3.23,220,472,404,473,297,3
452,0.97,-0.19,-0.01,-2.08,-0.67,-4.88,228,473,403,476,296,3
453,0.98,-0.2,-0.0,1.34,-3.91,-2.26,221,472,405,475,300,3
454,0.98,-0.2,-0.01,-0.98,-3.66,-1.65,219,475,403,477,298,3
455,0.97,-0.2,-0.01,0.61,-2.87,-2.69,217,471,402,473,298,3
456,0.97,-0.2,-0.01,-0.31,-2.08,-3.3,221,473,403,474,298,3
457,0.99,-0.2,-0.02,-0.92,-1.59,-3.42,218,472,408,471,301,3
458,0.97,-0.2,-0.01,1.46,-3.97,-1.89,231,469,402,474,297,3
459,0.98,-0.2,-0.01,0.85,-1.89,-3.72,218,470,406,474,297,3
460,0.98,-0.2,-0.01,-0.18,-2.44,-3.05,219,471,404,474,296,3
461,0.98,-0.2,-0.01,-0.12,-2.56,-2.69,219,472,403,473,298,3
462,0.98,-0.2,-0.0,0.06,-1.77,-3.48,220,473,404,478,300,3
463,0.97,-0.22,-0.01,-2.14,-1.16,-6.29,218,473,400,477,296,3
464,0.99,-0.2,-0.02,0.12,-2.32,-1.34,219,472,403,469,298,3
465,0.98,-0.19,-0.01,-0.31,-2.62,-1.22,223,471,405,470,297,3
466,0.99,-0.18,0.0,1.89,-5.74,0.73,225,472,406,473,300,3
467,0.98,-0.19,0.0,2.81,-1.04,-1.65,218,468,403,472,297,3
468,0.98,-0.19,-0.01,0.24,-2.14,-6.29,216,471,404,473,297,3
469,0.98,-0.2,-0.02,1.34,-2.5,-3.48,221,467,403,474,298,3
470,0.96,-0.21,-0.01,2.01,-5.43,-1.16,221,473,403,475,298,3
471,1.0,-0.18,-0.02,0.0,-2.93,-2.44,217,471,400,475,298,3
472,0.99,-0.17,0.02,1.71,-2.44,-1.34,221,472,403,476,299,3
473,0.98,-0.19,-0.01,0.67,-1.89,-3.72,219,471,400,476,296,3
474,0.96,-0.12,0.05,-4.82,-21.36,-2.01,221,472,401,472,299,3
475,0.94,-0.25,-0.15,4.15,9.03,-4.82,219,470,396,472,298,3
476,0.9,-0.27,-0.01,-4.52,-48.22,27.16,220,478,400,473,296,3
477,0.86,-0.36,-0.27,-10.86,-9.16,5.25,224,474,400,473,298,3
478,1.03,-0.41,-0.43,-7.08,20.45,-16.36,220,471,404,472,297,3
479,0.95,-0.21,0.02,-5.37,-9.52,-2.62,218,470,404,475,299,3
480,0.98,-0.25,-0.07,6.29,2.87,-2.87,217,473,400,476,298,3
481,1.0,-0.28,-0.06,-13.92,-3.91,-4.09,219,469,405,473,301,3
482,0.94,-0.29,-0.06,-2.26,-4.52,-2.44,218,471,407,490,299,3
483,0.96,-0.25,-0.01,-6.23,0.55,-1.71,217,476,402,468,300,3
484,0.95,-0.26,-0.05,-8.42,-5.49,-5.62,215,472,403,470,300,3
485,1.0,-0.22,-0.07,-1.4,-7.51,-5.0,220,473,403,473,299,3
486,0.95,-0.25,-0.06,9.83,-4.58,1.89,220,471,403,472,297,3
487,0.99,-0.2,-0.02,1.46,1.77,-4.64,215,468,401,474,299,3
488,1.0,-0.18,-0.05,11.96,-3.66,2.56,217,471,404,474,300,3
489,1.01,-0.19,-0.04,-2.32,-4.09,-3.11,220,470,401,473,298,3
490,0.99,-0.2,-0.04,0.49,-4.09,-2.32,214,471,402,474,294,3
491,1.0,-0.21,-0.05,0.06,-3.05,-2.81,220,471,400,474,297,3
492,1.0,-0.17,-0.0,-3.78,-1.71,-4.39,221,473,401,468,296,3
493,0.94,-0.24,-0.07,-0.31,-4.94,-2.32,219,471,401,467,305,3
494,1.0,-0.22,-0.04,-2.2,7.02,-8.61,217,471,401,469,299,3
495,0.98,-0.24,-0.05,-0.06,-4.64,-2.32,214,472,395,470,299,3
496,1.0,-0.22,-0.05,-3.42,-1.46,-4.39,215,473,396,474,297,3
497,0.99,-0.21,-0.04,2.69,-3.72,-3.23,211,471,401,471,298,3
498,0.97,-0.2,-0.02,3.23,-6.1,0.79,215,470,398,467,299,3
499,0.96,-0.23,-0.06,-4.27,-1.04,-2.99,217,470,401,475,300,3
500,0.98,-0.23,-0.07,-1.28,-2.99,-7.2,218,473,401,471,300,3
501,1.0,-0.22,-0.06,-0.85,-2.44,-2.08,219,471,395,469,298,3
502,0.99,-0.23,-0.07,1.22,-4.15,-3.48,206,473,398,467,296,3
503,0.97,-0.22,-0.06,2.44,-5.0,-2.38,218,471,398,470,301,3
504,0.97,-0.21,-0.04,0.24,-1.4,-1.22,222,476,401,469,300,3
505,0.96,-0.21,-0.03,-1.16,-3.17,-2.01,216,470,403,469,299,3
506,0.99,-0.22,-0.04,3.3,-3.17,-3.72,218,471,398,471,299,3
507,0.97,-0.21,-0.04,1.4,-3.97,-1.83,215,483,401,471,300,3
508,0.99,-0.22,-0.03,-2.01,-3.66,1.22,217,473,399,469,301,3
509,0.97,-0.21,-0.02,4.94,-4.03,0.0,213,469,404,469,300,3
510,0.98,-0.21,-0.03,-1.59,-1.83,-1.59,220,476,400,467,296,3
511,0.98,-0.25,-0.05,-0.55,-2.56,-0.43,217,470,398,469,301,3
512,0.95,-0.22,0.01,-3.91,2.32,-11.96,226,471,413,468,300,3
513,1.0,-0.21,-0.04,-2.2,-3.05,-6.77,218,471,395,472,302,3
514,0.99,-0.21,-0.03,2.14,-3.42,-4.58,217,467,398,465,299,3
515,0.98,-0.2,-0.01,4.27,-3.11,4.94,219,468,396,474,300,3
516,1.0,-0.24,-0.01,-1.83,-4.15,7.87,217,470,398,474,301,3
517,0.97,-0.31,-0.06,6.41,-3.3,-3.17,219,466,398,468,299,3
518,0.96,-0.28,0.01,-2.2,-5.8,0.92,215,471,400,474,300,3
519,0.92,-0.35,-0.04,3.6,-2.56,-2.08,214,470,404,464,302,3
520,0.96,-0.28,0.01,-0.43,-2.69,-7.51,217,469,401,469,300,3
521,0.95,-0.31,-0.05,1.34,1.46,-7.51,218,469,399,469,300,3
522,0.97,-0.25,-0.01,0.49,-1.4,-8.54,223,469,397,468,301,3
523,0.98,-0.27,-0.04,-3.6,-6.53,-2.26,220,473,398,473,303,3
524,0.94,-0.27,0.03,2.99,-5.0,5.07,218,470,400,469,299,3
525,0.94,-0.26,-0.01,0.43,-2.2,-2.69,230,469,395,463,302,3
526,0.97,-0.27,-0.02,-1.65,-3.42,0.73,219,469,393,469,301,3
527,0.95,-0.26,-0.06,4.46,-3.42,-5.98,232,470,398,470,301,3
528,0.99,-0.26,-0.03,8.12,-10.01,8.48,226,470,397,474,298,3
529,0.96,-0.28,-0.04,-2.87,0.73,2.26,217,466,396,466,302,3
530,0.95,-0.28,-0.07,-3.05,-3.3,-12.7,214,466,398,469,302,3
531,0.96,-0.26,-0.04,2.81,-4.15,2.08,215,465,395,472,306,3
532,0.91,-0.29,-0.06,-2.56,-4.64,1.59,216,467,399,468,300,3
533,0.97,-0.25,-0.03,-5.55,-0.92,-0.49,215,471,398,478,304,3
534,0.94,-0.36,-0.09,30.52,-56.4,36.74,216,466,395,469,305,3
535,1.02,-0.31,-0.17,-6.04,10.31,-15.01,219,470,396,464,295,3
536,0.91,-0.35,-0.13,-7.93,9.03,-6.77,209,471,396,472,302,3
537,0.94,-0.32,-0.1,2.14,-2.26,-5.55,217,471,396,467,304,3
538,0.93,-0.32,-0.11,-1.46,-1.53,-2.14,219,469,396,471,307,3
539,0.96,-0.31,-0.1,1.59,0.73,-5.98,220,471,396,470,304,3
540,0.95,-0.31,-0.1,0.67,-4.46,-1.28,214,471,395,462,307,3
541,0.94,-0.32,-0.09,-1.34,-2.5,-2.81,217,486,392,467,302,3
542,0.94,-0.32,-0.1,-0.49,-2.38,-2.75,216,470,396,468,298,3
543,0.95,-0.33,-0.1,4.15,-5.62,0.61,217,474,395,461,301,3
544,0.95,-0.33,-0.1,-0.24,-2.32,-4.76,219,469,397,467,303,3
545,0.95,-0.32,-0.09,0.55,-1.28,-4.33,217,470,392,467,300,3
546,0.94,-0.32,-0.08,1.1,-3.6,-2.14,218,469,394,466,300,3
547,0.95,-0.32,-0.08,1.46,-2.14,-2.5,218,468,401,464,303,3
548,0.94,-0.32,-0.08,0.0,-2.38,-3.42,219,470,396,467,300,3
549,0.95,-0.32,-0.06,3.78,-5.0,-1.16,220,469,398,467,304,3
550,0.94,-0.31,-0.06,1.22,-3.72,-0.98,217,470,396,461,305,3
551,0.94,-0.31,-0.06,1.22,-2.81,-2.14,217,470,398,470,303,3
552,0.98,-0.3,-0.08,0.79,-4.94,2.87,219,470,395,470,299,3
553,0.94,-0.33,-0.09,-1.22,-1.16,-1.4,217,482,397,465,304,3
554,0.94,-0.35,-0.08,6.29,4.52,-15.87,220,466,396,469,300,3
555,0.96,-0.32,-0.09,-3.05,-3.42,-3.78,219,467,391,467,303,3
556,0.95,-0.31,-0.05,4.46,-3.3,-3.42,217,469,398,466,303,3
557,0.96,-0.3,-0.06,-1.71,-1.59,-2.87,218,470,396,471,304,3
558,0.96,-0.3,-0.06,0.43,-0.92,-4.7,215,476,397,467,302,3
559,0.95,-0.31,-0.07,-0.31,-3.54,-1.34,220,470,393,471,305,3
560,0.94,-0.3,-0.06,-1.83,-3.17,-2.38,217,472,396,466,305,3
561,0.95,-0.3,-0.06,-0.18,-1.95,-4.88,217,478,395,471,300,3
562,0.96,-0.28,-0.06,0.98,-2.38,-3.6,220,471,393,478,305,3
563,0.96,-0.29,-0.05,0.92,-4.52,0.18,216,474,394,465,304,3
564,0.97,-0.29,-0.09,0.24,-2.93,0.0,218,472,395,462,304,3
565,0.94,-0.32,-0.03,0.12,2.01,0.31,219,469,394,467,301,3
566,0.91,-0.35,-0.03,-1.4,-10.68,-0.12,215,470,396,480,304,3
567,0.97,-0.29,0.0,4.21,-0.73,-2.99,220,466,397,467,306,3
568,0.96,-0.31,-0.03,2.32,-1.77,-4.03,217,470,396,461,304,3
569,0.94,-0.3,-0.01,2.75,-3.36,-1.28,216,468,395,461,305,3
570,0.95,-0.32,-0.04,-4.52,-2.5,-4.21,221,469,397,467,304,3
571,0.96,-0.32,-0.06,0.73,-3.23,-2.93,219,470,395,470,305,3
572,0.96,-0.3,-0.04,-2.69,-1.53,-4.21,219,469,397,465,302,3
573,0.95,-0.31,-0.08,-14.16,-5.86,1.46,220,469,395,466,304,3
574,0.96,-0.31,-0.07,2.38,-1.34,-7.08,208,469,400,461,305,3
575,0.96,-0.28,-0.07,3.97,-3.42,-3.36,220,469,395,470,306,3
576,0.9,-0.31,-0.06,-0.67,-0.24,-8.36,216,472,396,468,304,3
577,0.96,-0.25,-0.05,-5.37,-0.18,-6.23,220,471,395,462,304,3
578,0.97,-0.25,-0.07,2.81,-4.21,0.06,220,470,395,467,306,3
579,1.0,-0.23,-0.08,4.7,-7.51,1.04,220,470,397,461,300,3
580,0.97,-0.23,-0.04,2.38,-4.27,-2.32,220,472,395,471,305,3
581,0.97,-0.23,-0.04,0.37,-2.56,-3.54,217,469,395,462,300,3
582,0.84,-0.23,0.43,-22.52,-31.19,15.44,326,450,404,464,200,3
583,0.92,-0.2,0.38,0.0,4.46,2.75,328,453,405,464,203,3
584,0.91,-0.18,0.44,-2.56,1.53,-0.24,326,451,406,465,200,3
585,0.89,-0.19,0.44,1.95,-3.23,-0.31,323,449,402,463,199,3
586,0.89,-0.18,0.45,0.92,-2.08,-2.26,327,465,406,463,198,3
587,0.89,-0.17,0.46,-0.24,-3.17,-2.14,322,455,404,466,222,3
588,0.89,-0.18,0.45,-0.67,-4.15,-3.05,326,453,407,463,202,3
589,0.89,-0.17,0.46,1.46,-1.22,-2.2,326,451,400,461,214,3
590,0.88,-0.18,0.45,2.2,-2.81,-3.11,325,450,404,461,201,3
591,0.89,-0.18,0.45,-0.24,-2.44,-3.17,334,451,403,458,201,3
592,0.89,-0.18,0.44,1.04,-2.62,-3.17,326,446,402,457,198,3
593,0.89,-0.17,0.45,0.49,-2.81,-3.05,326,453,401,460,202,3
594,0.89,-0.17,0.45,0.12,-3.3,-2.44,326,451,402,460,204,3
595,0.9,-0.16,0.45,1.28,-2.69,-3.23,324,455,399,458,202,3
596,0.88,-0.16,0.46,0.31,-2.56,-2.5,327,453,403,455,197,3
597,0.89,-0.17,0.45,0.18,-3.6,-2.81,326,451,402,459,203,3
598,0.89,-0.16,0.45,-0.24,-3.66,-2.75,328,451,404,454,205,3
599,0.89,-0.16,0.45,0.73,-3.05,-3.23,326,448,404,454,203,3
600,0.89,-0.16,0.45,0.06,-2.14,-3.3,326,452,402,454,209,3
601,0.89,-0.16,0.45,0.37,-4.21,-2.08,329,452,404,457,204,3
602,0.89,-0.16,0.44,1.59,-3.54,-0.85,325,446,403,456,204,3
603,0.91,-0.15,0.43,1.53,-5.13,-2.81,326,451,402,459,205,3
604,0.85,-0.19,0.42,-5.07,-1.65,-9.09,325,451,403,457,205,3
605,0.92,-0.19,0.42,0.18,-1.65,-5.49,325,447,404,454,202,3
606,0.89,-0.19,0.42,-4.46,-0.18,-4.7,327,445,404,459,205,3
607,0.87,-0.21,0.42,-10.25,-0.24,-1.34,324,450,405,459,206,3
608,0.9,-0.22,0.42,1.04,-3.36,-5.74,325,444,400,461,206,3
609,0.9,-0.21,0.43,1.4,-3.05,-2.93,325,452,403,458,205,3
610,0.89,-0.21,0.43,2.87,-3.6,-3.6,328,450,407,458,206,3
611,0.9,-0.19,0.43,2.81,-1.89,-3.91,327,455,405,457,210,3
612,0.91,-0.17,0.44,0.79,-3.23,-2.99,326,451,402,457,209,3
613,0.89,-0.18,0.43,0.79,-2.99,-2.32,325,450,403,454,209,3
614,0.89,-0.18,0.44,-0.79,-2.99,-2.99,328,449,399,458,208,3
615,0.89,-0.18,0.44,1.53,-3.85,-2.62,326,453,402,453,206,3
616,0.9,-0.17,0.44,-0.37,-3.78,-3.17,329,451,405,468,213,3
617,0.9,-0.17,0.44,-0.98,-3.54,-3.11,327,451,406,457,205,3
618,0.89,-0.17,0.44,0.92,-2.44,-2.14,324,452,415,458,207,3
619,0.9,-0.17,0.45,0.12,-2.69,-1.59,326,447,398,451,206,3
620,0.89,-0.18,0.42,2.26,-4.09,-0.43,327,447,403,454,209,3
621,0.92,-0.18,0.42,-0.49,-1.1,-3.78,327,451,401,454,210,3
622,0.9,-0.18,0.43,2.2,-2.99,-3.36,326,465,400,453,208,3
623,0.9,-0.18,0.42,0.43,-3.6,-3.05,328,451,399,452,207,3
624,0.9,-0.18,0.42,1.1,-3.17,-2.62,327,446,400,453,204,3
625,0.9,-0.18,0.42,1.1,-2.87,-2.69,327,450,402,453,208,3
626,0.9,-0.18,0.42,0.79,-2.75,-2.99,328,455,397,457,207,3
627,0.9,-0.18,0.42,1.34,-2.87,-1.95,326,456,401,455,209,3
628,0.91,-0.19,0.41,-1.28,-3.91,-2.08,327,450,398,450,209,3
629,0.9,-0.2,0.4,-0.24,-3.54,-1.59,325,452,400,456,208,3
630,0.9,-0.2,0.42,1.22,-3.05,-1.04,323,456,414,457,210,3
631,0.89,-0.21,0.42,1.71,-4.15,-1.1,324,453,410,462,209,3
632,0.87,-0.21,0.43,3.36,-7.02,1.83,320,446,414,466,208,3
633,0.88,-0.21,0.43,-1.59,-1.46,-3.91,318,453,410,473,208,3
634,0.9,-0.21,0.41,1.1,-2.87,-3.42,311,454,417,473,210,3
635,0.89,-0.2,0.43,1.89,-2.87,-2.93,321,449,418,470,208,3
636,0.9,-0.2,0.43,0.85,-2.99,-2.93,321,450,416,470,211,3
637,0.89,-0.21,0.43,-0.73,-2.26,-2.93,319,447,418,472,217,3
638,0.89,-0.2,0.42,-0.37,-3.11,-3.23,321,451,415,477,208,3
639,0.9,-0.2,0.43,-1.89,-3.11,-2.5,322,454,419,475,209,3
640,0.89,-0.19,0.44,1.22,-3.05,-2.99,323,455,415,471,209,3
641,0.89,-0.19,0.43,0.06,-2.75,-2.69,323,453,420,469,209,3
642,0.89,-0.19,0.43,-0.24,-3.05,-2.99,323,451,418,469,210,3
643,0.9,-0.19,0.43,0.61,-3.11,-2.5,324,447,416,469,206,3
644,0.89,-0.19,0.43,1.46,-2.69,-2.14,322,455,416,472,209,3
645,0.9,-0.19,0.43,0.79,-3.05,-2.32,326,451,417,472,209,3
646,0.89,-0.19,0.43,1.4,-2.81,-2.81,324,452,411,471,209,3
647,0.9,-0.19,0.43,1.1,-4.21,-2.5,323,452,416,472,210,3
648,0.91,-0.18,0.43,0.73,-2.2,-1.59,323,452,419,472,207,3
649,0.88,-0.2,0.44,0.31,-2.69,-0.98,328,454,414,472,208,3
650,0.88,-0.2,0.43,-0.92,-2.93,-3.85,321,451,416,469,209,3
651,0.9,-0.19,0.43,-1.22,-2.2,-4.82,324,452,415,471,210,3
652,0.9,-0.19,0.43,-1.46,-2.01,-3.85,324,456,414,471,210,3
653,0.89,-0.19,0.43,-0.43,-2.75,-1.16,324,457,416,473,212,3
654,0.9,-0.19,0.43,-1.28,-2.81,-3.17,323,450,413,471,210,3
655,0.89,-0.19,0.43,-0.06,-2.81,-3.3,323,457,413,472,211,3
656,0.89,-0.19,0.43,0.18,-2.32,-1.89,325,450,420,477,209,3
657,0.89,-0.19,0.42,1.22,-2.99,-1.65,323,451,417,468,211,3
658,0.89,-0.19,0.42,1.04,-3.05,-2.69,322,448,417,471,211,3
659,0.89,-0.19,0.43,-0.12,-3.42,-3.3,324,454,413,474,211,3
660,0.89,-0.19,0.43,0.85,-2.99,-1.89,324,455,417,472,211,3
661,0.91,-0.19,0.42,-0.37,-2.81,-2.87,326,452,415,469,210,3
662,0.89,-0.19,0.43,0.79,-2.75,-3.11,324,452,420,468,209,3
663,0.89,-0.18,0.43,1.46,-2.62,-2.08,325,446,412,471,213,3
664,0.87,-0.19,0.43,2.01,-8.24,0.55,327,451,416,473,211,3
665,0.88,-0.2,0.42,-0.24,-3.54,-1.77,325,452,422,472,208,3
666,0.88,-0.21,0.42,0.06,-2.01,-2.5,325,446,412,471,209,3
667,0.89,-0.19,0.43,-0.18,-3.11,-2.2,325,449,414,470,225,3
668,0.9,-0.19,0.42,0.49,-3.6,-2.62,327,451,414,472,212,3
669,0.89,-0.18,0.44,-0.61,-3.11,-2.56,325,456,416,472,213,3
670,0.9,-0.19,0.43,0.85,-2.69,-2.75,323,453,418,469,207,3
671,0.89,-0.18,0.43,0.43,-2.32,-2.32,326,453,412,466,210,3
672,0.89,-0.18,0.43,-0.85,-3.6,-2.5,325,452,416,471,213,3
673,0.9,-0.19,0.43,0.85,-2.81,-2.2,325,456,418,469,211,3
674,0.89,-0.19,0.43,-0.67,-3.3,-2.93,327,447,416,470,210,3
675,0.9,-0.18,0.43,0.61,-2.81,-2.93,322,446,410,469,211,3
676,0.89,-0.19,0.43,0.73,-2.81,-2.75,326,450,411,470,217,3
677,0.89,-0.18,0.43,0.92,-2.81,-2.62,327,449,417,470,211,3
678,0.89,-0.18,0.43,-0.85,-3.3,-2.56,325,452,415,471,213,3
679,0.89,-0.19,0.43,-0.12,-2.99,-2.69,322,456,413,471,210,3
680,0.89,-0.19,0.43,0.12,-2.93,-2.75,326,448,417,466,213,3
681,0.89,-0.19,0.43,1.22,-3.11,-2.32,322,450,415,468,209,3
682,0.9,-0.18,0.43,0.06,-3.17,-2.69,326,453,412,469,205,3
683,0.89,-0.19,0.42,0.73,-2.62,-2.81,326,469,416,469,210,3
684,0.9,-0.19,0.43,0.49,-1.89,-3.11,326,456,414,471,211,3
685,0.9,-0.18,0.43,-0.43,-2.56,-2.81,326,455,415,470,215,3
686,0.89,-0.18,0.43,0.0,-2.99,-2.5,325,455,414,466,212,3
687,0.91,-0.19,0.43,0.18,-2.56,-1.4,325,455,415,472,208,3
688,0.89,-0.2,0.43,-4.94,-3.48,-2.08,328,449,417,469,210,3
689,0.89,-0.2,0.43,0.24,-2.5,-0.37,325,454,416,470,210,3
690,0.9,-0.21,0.42,-0.12,-2.69,-1.95,326,456,412,472,210,3
691,0.88,-0.21,0.43,0.18,-2.93,-2.56,326,453,417,470,213,3
692,0.89,-0.21,0.43,0.06,-2.99,-2.62,322,447,419,471,212,3
693,0.9,-0.21,0.42,0.12,-3.05,-2.81,326,451,418,471,211,3
694,0.9,-0.2,0.42,0.92,-2.93,-4.03,335,454,413,471,212,3
695,0.89,-0.2,0.43,-0.49,-2.81,-2.87,328,450,415,470,214,3
696,0.9,-0.19,0.44,0.24,-3.66,-1.59,324,453,415,470,214,3
697,0.89,-0.18,0.45,0.49,-5.43,-4.27,326,455,413,465,209,3
698,0.9,-0.2,0.34,-0.67,-16.17,2.08,326,450,413,470,212,3
699,0.98,-0.08,0.36,14.83,-15.87,-4.27,325,455,414,471,213,3
700,0.95,-0.08,0.29,-10.19,-0.79,-13.79,327,456,414,468,212,3
701,0.97,-0.05,0.27,6.9,0.0,-6.59,322,456,415,471,211,3
702,0.96,-0.06,0.26,-0.73,-2.32,-7.57,327,448,413,473,210,3
703,0.97,-0.03,0.28,4.33,-2.69,-2.44,328,457,418,469,210,3
704,0.97,-0.04,0.24,-4.7,-4.39,-8.73,325,452,415,472,208,3
705,0.98,-0.01,0.27,-3.23,3.36,-7.26,326,456,416,466,213,3
706,0.98,-0.01,0.31,-2.87,2.62,-3.3,322,452,412,469,213,3
707,0.97,-0.07,0.35,-0.85,2.56,1.71,324,452,413,469,212,3
708,0.92,-0.09,0.35,-0.49,0.49,0.24,326,446,417,467,211,3
709,0.93,-0.1,0.36,-2.56,-1.53,-3.42,325,452,410,466,210,3
710,0.95,-0.07,0.38,-0.85,-2.81,-1.77,327,454,409,464,212,3
711,0.94,-0.07,0.41,-1.46,-3.17,-1.53,328,454,409,465,213,3
712,0.93,-0.08,0.38,-2.08,-3.97,-2.56,323,447,411,464,211,3
713,0.93,-0.09,0.36,-1.16,-2.01,-2.08,328,454,411,464,211,3
714,0.97,-0.08,0.38,6.53,-2.26,5.31,325,444,409,464,210,3
715,0.89,-0.17,0.38,-0.61,0.92,7.63,324,449,412,470,214,3
716,0.91,-0.16,0.41,-4.33,-3.36,0.18,322,451,413,470,215,3
717,0.89,-0.17,0.43,2.75,1.34,-2.5,321,449,416,468,217,3
718,0.88,-0.17,0.45,-2.5,-0.98,-2.14,323,453,415,469,217,3
719,0.89,-0.17,0.44,-2.26,-3.72,-2.38,324,454,413,469,217,3
720,0.89,-0.16,0.45,1.83,-2.56,-2.5,323,453,415,469,213,3
721,0.89,-0.17,0.45,-0.49,-2.69,-3.3,326,456,415,467,217,3
722,0.87,-0.17,0.46,1.34,-1.77,-2.08,320,453,423,466,216,3
723,0.89,-0.17,0.44,0.61,-4.64,0.37,321,453,416,470,222,3
724,0.89,-0.18,0.46,-8.18,-2.14,0.24,324,450,417,465,227,3
725,0.86,-0.19,0.48,2.87,-1.16,-0.92,324,457,417,468,218,3
726,0.87,-0.19,0.48,1.28,-2.32,-2.5,322,447,417,464,218,3
727,0.86,-0.19,0.48,0.92,-3.48,-2.38,325,452,419,469,218,3
728,0.87,-0.19,0.47,-0.06,-2.69,-2.99,325,452,420,465,218,3
729,0.87,-0.19,0.48,1.22,-2.38,-2.75,325,453,414,465,218,3
730,0.87,-0.17,0.49,1.53,-2.81,-2.2,326,452,418,467,216,3
731,0.88,-0.18,0.48,0.24,-3.3,-3.36,328,452,412,466,216,3
732,0.87,-0.18,0.48,0.61,-3.23,-2.32,328,453,418,469,215,3
733,0.88,-0.18,0.48,0.92,-2.93,-2.32,328,452,417,466,217,3
734,0.87,-0.18,0.48,1.71,-2.93,-2.75,328,452,416,462,221,3
735,0.88,-0.19,0.44,-3.66,-5.98,-5.43,329,461,417,467,220,3
736,0.9,-0.18,0.46,-1.34,-2.75,-2.5,326,449,418,467,217,3
737,0.88,-0.2,0.48,1.53,-1.59,-3.11,327,452,415,466,220,3
738,0.87,-0.2,0.48,0.55,-2.26,-1.46,328,456,410,466,222,3
739,0.86,-0.2,0.48,-0.37,-4.27,-1.59,327,450,414,472,218,3
740,0.87,-0.2,0.47,-0.73,-2.93,-2.2,328,463,410,462,219,3
741,0.88,-0.2,0.47,-0.24,-1.95,-3.17,328,447,417,464,216,3
742,0.86,-0.2,0.48,-0.24,-3.11,-2.56,328,456,414,459,218,3
743,0.88,-0.2,0.48,1.59,-2.5,-3.66,328,457,413,464,219,3
744,0.88,-0.2,0.47,1.95,-2.26,-2.08,328,448,414,460,221,3
745,0.87,-0.2,0.47,0.98,-2.75,-3.05,328,453,411,462,231,3
746,0.87,-0.2,0.47,0.98,-3.05,-3.6,327,456,413,464,221,3
747,0.88,-0.19,0.48,-0.31,-2.56,-1.95,323,453,412,471,217,3
748,0.87,-0.19,0.45,1.53,-2.14,-4.88,324,453,416,463,223,3
749,0.87,-0.17,0.49,-0.73,-2.32,-2.44,325,457,411,470,219,3
750,0.84,-0.21,0.5,3.36,-3.91,2.2,326,455,412,457,236,3
751,0.82,-0.19,0.51,7.32,-0.85,-1.1,324,447,409,456,221,3
752,0.95,-0.2,0.45,-16.3,0.55,-6.47,327,457,411,463,222,3
753,0.89,-0.24,0.44,4.21,0.73,-2.44,322,453,416,466,222,3
754,0.84,-0.24,0.55,-3.85,3.85,-0.12,328,452,415,466,219,3
755,0.91,-0.22,0.46,30.82,-55.05,24.11,325,454,417,466,222,3
756,0.8,-0.25,0.52,-25.33,15.2,3.17,325,469,417,465,220,3
757,0.87,-0.27,0.49,10.62,-1.4,-3.97,328,461,414,467,222,3
758,0.83,-0.28,0.51,7.08,-1.95,-0.37,322,457,415,462,223,3
759,0.82,-0.27,0.53,1.16,-2.32,-2.14,328,453,417,463,222,3
760,0.82,-0.27,0.52,0.43,-2.69,-2.08,326,458,418,463,223,3
761,0.82,-0.27,0.53,1.71,-2.01,-1.83,326,450,416,459,220,3
762,0.82,-0.27,0.53,2.26,-3.05,-4.15,329,456,414,464,221,3
763,0.84,-0.25,0.53,3.36,-3.23,-3.05,326,452,415,462,220,3
764,0.82,-0.25,0.53,2.01,-3.3,-2.62,326,457,412,463,258,3
765,0.83,-0.24,0.54,3.17,-2.5,-2.56,328,452,413,462,221,3
766,0.82,-0.24,0.54,1.77,-2.32,-3.05,328,452,414,466,222,3
767,0.83,-0.23,0.55,1.22,-2.75,-2.32,323,451,409,462,221,3
768,0.82,-0.23,0.55,0.43,-3.3,-2.62,329,454,416,458,219,3
769,0.83,-0.23,0.54,0.67,-3.23,-3.17,327,449,409,461,222,3
770,0.81,-0.23,0.54,0.43,-2.81,-3.05,326,452,412,459,224,3
771,0.83,-0.23,0.54,0.24,-3.36,-2.81,323,448,419,458,219,3
772,0.82,-0.24,0.54,-0.06,-3.23,-2.32,328,456,405,459,223,3
773,0.82,-0.23,0.54,0.31,-3.11,-3.11,327,452,410,460,223,3
774,0.82,-0.24,0.54,0.98,-2.75,-2.32,334,455,412,465,223,3
775,0.82,-0.24,0.54,-0.18,-3.91,-1.71,327,449,413,463,225,3
776,0.82,-0.24,0.54,0.49,-2.56,-2.26,325,451,411,461,223,3
777,0.82,-0.24,0.54,0.12,-3.3,-2.75,329,447,408,460,223,3
778,0.82,-0.24,0.54,0.67,-3.48,-1.83,329,449,405,460,222,3
779,0.82,-0.24,0.54,0.0,-2.99,-2.2,330,452,409,460,224,3
780,0.83,-0.24,0.53,-1.59,-3.36,-1.95,326,451,411,460,225,3
781,0.84,-0.23,0.53,-0.43,-3.48,-3.42,325,449,414,457,225,3
782,0.83,-0.24,0.53,0.24,-3.48,-3.6,324,458,408,460,223,3
783,0.83,-0.25,0.53,0.31,-2.38,-1.16,327,449,407,460,225,3
784,0.82,-0.25,0.53,-0.67,-2.44,-1.28,327,447,412,460,224,3
785,0.82,-0.25,0.54,2.93,-2.69,-1.77,328,449,409,456,222,3
786,0.82,-0.24,0.55,1.65,-2.38,-3.05,327,448,410,461,221,3
787,0.81,-0.25,0.54,1.4,-2.62,-2.5,326,455,413,464,224,3
788,0.82,-0.24,0.55,0.67,-2.44,-3.11,328,452,407,458,222,3
789,0.82,-0.24,0.55,0.43,-2.99,-2.87,327,454,413,455,225,3
790,0.82,-0.24,0.55,0.73,-3.3,-3.23,328,457,408,459,222,3
791,0.83,-0.23,0.54,1.95,-2.93,-3.42,323,452,412,463,223,3
792,0.82,-0.24,0.54,0.79,-2.62,-3.05,327,455,412,460,223,3
793,0.82,-0.24,0.54,0.37,-3.42,-2.99,327,460,414,463,225,3
794,0.82,-0.24,0.54,0.92,-2.93,-2.38,327,458,413,463,222,3
795,0.82,-0.24,0.54,1.04,-3.17,-2.69,327,457,410,459,222,3
796,0.82,-0.24,0.54,0.06,-2.75,-2.5,328,455,411,457,222,3
797,0.83,-0.24,0.55,0.24,-1.53,-3.54,328,453,419,462,222,3
798,0.82,-0.23,0.54,-0.43,-2.32,-2.99,328,454,414,463,215,3
799,0.82,-0.24,0.54,0.49,-3.36,-2.5,325,451,413,458,225,3
800,0.82,-0.24,0.54,-0.61,-3.23,-2.99,328,453,412,459,221,3
801,0.83,-0.23,0.54,0.79,-2.93,-4.15,330,458,411,462,224,3
802,0.83,-0.23,0.54,1.16,-3.05,-2.75,330,449,413,461,222,3
803,0.82,-0.23,0.54,0.92,-2.5,-3.11,330,454,411,460,222,3
804,0.83,-0.22,0.55,-0.43,-3.48,-3.11,329,453,412,464,221,3
805,0.82,-0.22,0.54,0.61,-2.99,-3.48,328,457,413,463,224,3
806,0.84,-0.21,0.53,1.28,-2.81,-3.11,330,456,412,461,223,3
807,0.82,-0.22,0.54,1.53,-3.23,-2.56,327,457,410,462,224,3
808,0.83,-0.21,0.54,1.04,-3.17,-3.48,327,450,407,460,221,3
809,0.84,-0.2,0.54,0.06,-2.5,-2.75,327,453,411,459,224,3
810,0.83,-0.2,0.55,0.24,-3.48,-2.14,328,450,411,462,221,3
811,0.83,-0.2,0.54,0.43,-2.81,-2.38,331,457,414,467,221,3
812,0.83,-0.2,0.55,0.61,-1.89,-2.99,328,457,412,466,217,3
813,0.83,-0.2,0.54,-0.06,-2.81,-2.93,328,452,410,463,221,3
814,0.82,-0.2,0.54,-0.06,-3.42,-2.56,328,454,409,458,222,3
815,0.83,-0.2,0.54,0.61,-4.09,-2.56,327,458,411,460,222,3
816,0.83,-0.21,0.55,-1.16,-3.42,-1.65,329,454,413,463,248,3
817,0.83,-0.2,0.55,1.28,-2.81,-2.01,327,452,407,461,223,3
818,0.82,-0.21,0.54,1.71,-2.69,-1.89,327,452,414,462,219,3
819,0.83,-0.21,0.55,0.73,-3.3,-3.72,330,457,411,458,225,3
820,0.83,-0.21,0.55,1.16,-2.99,-2.2,328,449,411,461,224,3
821,0.82,-0.21,0.55,0.0,-3.85,-1.4,331,459,407,461,225,3
822,0.82,-0.21,0.55,-0.85,-2.69,-2.93,326,455,414,462,224,3
823,0.82,-0.21,0.55,0.06,-3.72,-3.11,327,454,411,460,225,3
824,0.82,-0.2,0.55,0.24,-2.5,-2.56,331,454,411,472,223,3
825,0.82,-0.21,0.55,-1.1,-2.32,-3.48,328,449,413,458,223,3
826,0.82,-0.21,0.56,0.55,-2.99,-1.89,328,458,413,461,219,3
827,0.82,-0.21,0.55,0.79,-3.05,-2.93,329,458,411,460,224,3
828,0.83,-0.21,0.55,1.4,-2.2,-2.81,330,457,411,457,225,3
829,0.82,-0.21,0.55,0.61,-3.48,-2.56,330,458,411,460,221,3
830,0.82,-0.2,0.55,0.0,-3.66,-3.11,332,453,412,465,222,3
831,0.82,-0.2,0.56,0.61,-2.87,-2.26,328,449,410,465,224,3
832,0.82,-0.21,0.54,0.43,-4.15,-2.14,330,455,408,463,223,3
833,0.83,-0.2,0.56,0.92,-3.11,-2.38,327,458,414,461,221,3
834,0.83,-0.2,0.56,-1.04,-1.53,-3.23,325,454,412,460,222,3
835,0.81,-0.21,0.55,-0.73,-2.38,-1.34,331,455,411,459,224,3
836,0.81,-0.22,0.55,-0.06,-2.75,-2.01,325,448,423,459,223,3
837,0.81,-0.22,0.56,1.65,-2.69,-0.55,328,455,410,460,226,3
838,0.81,-0.23,0.55,-0.37,-3.48,-1.34,325,453,410,465,220,3
839,0.82,-0.23,0.55,0.37,-3.66,-2.26,329,454,413,463,243,3
840,0.82,-0.22,0.56,1.28,-3.85,-1.77,327,457,411,460,226,3
841,0.82,-0.23,0.55,0.12,-2.81,-2.93,331,454,410,461,224,3
842,0.82,-0.23,0.55,0.37,-3.05,-3.36,328,449,409,461,226,3
843,0.82,-0.23,0.55,0.18,-3.36,-1.89,328,454,425,461,224,3
844,0.82,-0.23,0.55,0.79,-2.75,-2.5,330,459,411,460,224,3
845,0.81,-0.23,0.56,0.79,-3.85,-1.89,328,454,411,476,218,3
846,0.82,-0.23,0.55,0.49,-3.17,-3.48,327,458,410,461,225,3
847,0.82,-0.22,0.56,0.12,-2.81,-3.48,329,458,414,463,224,3
848,0.81,-0.22,0.56,-0.79,-3.05,-2.87,329,452,408,462,223,3
849,0.82,-0.22,0.56,0.49,-2.62,-2.62,328,449,410,464,222,3
850,0.81,-0.23,0.56,0.85,-2.38,-2.62,330,451,410,456,223,3
851,0.82,-0.22,0.56,-0.12,-3.42,-2.5,331,451,414,462,224,3
852,0.83,-0.21,0.56,2.87,-1.89,-5.8,328,450,408,458,225,3
853,0.82,-0.21,0.56,2.26,-3.36,-1.89,329,455,413,464,222,3
854,0.82,-0.2,0.57,0.18,-2.69,-2.69,329,457,413,463,225,3
855,0.82,-0.21,0.55,0.73,-2.2,-2.69,326,455,415,460,227,3
856,0.81,-0.21,0.56,0.24,-3.17,-1.59,329,450,411,461,225,3
857,0.82,-0.21,0.56,0.37,-2.75,-2.69,329,457,411,457,225,3
858,0.81,-0.21,0.56,0.06,-3.36,-2.5,331,454,409,457,223,3
859,0.81,-0.21,0.56,0.12,-3.05,-2.75,329,458,409,461,224,3
860,0.82,-0.2,0.56,0.37,-2.93,-2.5,328,458,410,470,226,3
861,0.82,-0.21,0.57,-0.18,-2.62,-1.4,326,455,410,462,224,3
862,0.8,-0.22,0.56,-2.5,-1.83,-7.39,326,453,412,461,223,3
863,0.84,-0.22,0.57,-5.55,4.64,-5.55,330,455,411,462,224,3
864,0.79,-0.28,0.56,-4.33,4.39,-3.6,330,454,410,460,222,3
865,0.78,-0.26,0.59,-2.87,-5.98,-4.46,328,459,416,460,225,3
866,0.77,-0.26,0.57,-1.22,-12.88,-7.87,330,454,409,462,225,3
867,0.95,-0.24,0.38,-14.77,-36.87,-14.53,324,458,408,464,221,3
868,0.88,-0.25,0.43,-3.42,5.25,11.72,323,450,412,461,222,3
869,0.9,-0.14,0.53,5.92,3.72,-6.96,325,453,414,459,221,3
870,0.81,-0.19,0.53,2.38,-7.08,-7.81,327,450,414,457,223,3
871,0.9,-0.13,0.53,0.61,-0.31,-1.77,323,456,414,458,223,3
872,0.81,-0.3,0.5,-31.56,-22.71,30.15,326,449,414,459,225,3
873,0.74,-0.45,0.45,2.75,0.37,6.71,324,454,406,457,227,3
874,0.84,-0.31,0.53,16.78,3.11,-7.26,327,455,411,459,226,3
875,0.83,-0.36,0.51,6.96,7.14,-13.79,326,451,410,458,224,3
876,0.8,-0.35,0.52,7.32,-0.67,-0.43,336,454,409,456,224,3
877,0.79,-0.32,0.55,1.28,-1.28,-2.87,324,465,410,458,227,3
878,0.81,-0.33,0.53,1.04,-4.94,-5.0,328,454,412,458,226,3
879,0.84,-0.34,0.51,-9.52,-5.43,-9.22,328,454,409,458,228,3
880,0.81,-0.33,0.51,6.41,-4.21,-0.92,329,454,411,459,225,3
881,0.77,-0.32,0.55,-1.77,-4.15,2.2,329,454,413,462,234,3
882,0.8,-0.32,0.55,0.85,-7.08,4.27,332,458,410,456,227,3
883,0.78,-0.34,0.54,1.4,-2.62,-2.56,330,455,413,463,226,3
884,0.78,-0.34,0.53,1.53,-3.11,-1.34,329,455,411,460,227,3
885,0.79,-0.33,0.53,1.59,-3.85,-0.85,329,449,412,459,223,3
886,0.78,-0.34,0.53,1.1,-3.11,-2.44,328,454,411,459,225,3
887,0.79,-0.34,0.52,2.14,-4.09,-1.95,330,454,410,457,227,3
888,0.8,-0.34,0.52,0.06,-1.95,-2.93,326,455,410,458,225,3
889,0.8,-0.34,0.52,3.54,-3.54,-0.98,330,457,410,456,223,3
890,0.8,-0.34,0.53,-0.98,-2.81,-4.03,327,456,409,457,224,3
891,0.8,-0.34,0.52,-0.37,-4.15,-2.69,331,455,414,461,225,3
892,0.8,-0.35,0.51,-2.75,-4.7,-4.03,325,449,414,467,222,3
893,0.81,-0.34,0.5,-3.42,-3.66,-3.54,331,453,416,465,225,3
894,0.81,-0.35,0.49,1.04,-2.38,-2.56,330,453,411,466,245,3
895,0.81,-0.35,0.49,-0.67,-2.5,-2.75,326,458,417,463,221,3
896,0.82,-0.36,0.49,0.0,-2.26,-2.44,330,454,420,470,223,3
897,0.81,-0.35,0.49,0.98,-2.38,-2.87,331,457,417,467,225,3
898,0.8,-0.35,0.49,-0.85,-3.23,-2.81,329,454,417,469,222,3
899,0.81,-0.35,0.48,-0.85,-3.78,-1.77,327,449,413,466,225,3
900,0.82,-0.36,0.48,-0.55,-3.3,-2.56,333,455,430,474,224,3
901,0.81,-0.36,0.49,-0.61,-2.56,-2.5,328,453,419,469,227,3
902,0.82,-0.36,0.48,0.06,-2.87,-2.93,330,452,417,470,219,3
903,0.82,-0.35,0.48,-1.71,-3.42,-2.87,326,454,416,467,226,3
904,0.82,-0.36,0.47,-0.73,-3.23,-3.66,329,456,418,467,224,3
905,0.82,-0.36,0.47,0.0,-3.17,-3.66,330,456,420,467,227,3
906,0.82,-0.36,0.46,0.0,-3.6,-2.62,332,458,418,467,226,3
907,0.82,-0.36,0.47,0.85,-2.44,-2.99,325,454,415,468,225,3
908,0.81,-0.36,0.47,0.24,-3.23,-3.3,332,455,417,468,223,3
909,0.82,-0.36,0.47,-0.73,-3.48,-2.69,332,454,417,471,226,3
910,0.82,-0.36,0.46,0.43,-3.11,-2.26,330,459,419,471,227,3
911,0.83,-0.36,0.46,-0.98,-3.54,-3.85,331,455,417,469,227,3
912,0.82,-0.35,0.47,-0.37,-3.72,-3.36,331,454,413,470,224,3
913,0.83,-0.36,0.46,-1.4,-2.87,-2.69,326,458,415,470,222,3
914,0.83,-0.36,0.46,-1.22,-3.3,-2.5,328,459,420,471,227,3
915,0.82,-0.36,0.46,-0.43,-3.3,-1.71,330,452,415,471,226,3
916,0.82,-0.36,0.46,0.85,-3.23,-2.5,326,451,416,472,222,3
917,0.82,-0.36,0.46,1.65,-2.81,-2.01,329,455,415,469,227,3
918,0.82,-0.36,0.46,-0.37,-2.38,-3.05,330,461,414,469,226,3
919,0.83,-0.36,0.46,0.67,-2.93,-3.17,333,450,417,466,227,3
920,0.82,-0.37,0.46,1.34,-2.69,-2.62,331,455,417,469,238,3
921,0.81,-0.36,0.46,-0.43,-3.3,-2.26,331,459,417,470,227,3
922,0.82,-0.36,0.47,0.06,-2.81,-2.81,329,454,416,469,224,3
923,0.82,-0.36,0.46,0.0,-2.99,-3.05,331,454,416,472,225,3
924,0.82,-0.36,0.46,0.55,-2.69,-2.56,329,455,417,469,229,3
925,0.83,-0.36,0.46,0.98,-3.42,-2.26,331,454,413,468,224,3
926,0.82,-0.35,0.47,0.18,-2.93,-3.23,331,455,418,468,226,3
927,0.82,-0.36,0.46,-0.24,-2.93,-2.32,334,453,419,467,225,3
928,0.8,-0.38,0.43,4.27,-4.94,-2.08,332,455,416,470,227,3
929,0.82,-0.36,0.47,3.3,-0.18,-3.72,334,456,416,467,225,3
930,0.82,-0.33,0.49,1.53,-2.26,-1.53,334,457,413,475,222,3
931,0.81,-0.35,0.48,2.5,-2.5,-1.71,332,455,414,468,225,3
932,0.82,-0.34,0.49,2.5,-2.38,-4.46,331,457,413,465,223,3
933,0.82,-0.34,0.49,-0.61,-2.75,-3.6,333,455,417,470,226,3
934,0.82,-0.34,0.49,1.34,-2.99,-2.08,332,454,414,466,265,3
935,0.81,-0.34,0.5,-0.06,-2.69,-2.5,332,455,413,468,224,3
936,0.81,-0.34,0.5,0.85,-2.32,-2.87,327,458,411,465,225,3
937,0.81,-0.34,0.5,0.06,-4.15,-1.46,329,450,410,466,224,3
938,0.81,-0.34,0.5,-0.61,-3.05,-2.2,333,460,424,467,226,3
939,0.8,-0.34,0.5,0.61,-1.77,-2.99,331,456,417,467,226,3
940,0.81,-0.34,0.5,-1.16,-3.42,-2.81,333,461,424,468,226,3
941,0.81,-0.34,0.5,0.55,-2.75,-2.75,329,459,414,481,221,3
942,0.81,-0.34,0.5,1.04,-2.38,-2.01,334,460,413,465,224,3
943,0.82,-0.34,0.5,-0.06,-2.87,-2.69,332,456,414,466,225,3
944,0.82,-0.34,0.5,0.24,-2.75,-1.89,332,456,416,469,223,3
945,0.81,-0.34,0.5,0.85,-2.75,-2.75,329,453,415,465,224,3
946,0.81,-0.34,0.5,-0.06,-4.21,-1.53,332,451,413,468,226,3
947,0.82,-0.34,0.49,-0.12,-3.72,-2.08,334,456,413,468,227,3
948,0.8,-0.34,0.5,0.0,-2.62,-3.97,332,459,417,464,224,3
949,0.81,-0.34,0.5,0.49,-3.42,-1.04,331,459,414,468,225,3
950,0.81,-0.34,0.5,0.67,-2.38,-2.75,334,453,416,466,225,3
951,0.81,-0.34,0.5,-0.18,-2.81,-4.09,331,460,418,464,223,3
952,0.81,-0.34,0.5,-0.61,-2.14,-2.44,335,460,412,468,224,3
953,0.8,-0.34,0.49,0.49,-2.5,-2.62,334,452,414,465,227,3
954,0.8,-0.34,0.5,0.06,-3.17,-2.38,334,455,414,465,224,3
955,0.8,-0.34,0.5,-0.49,-4.03,-2.14,335,457,415,469,224,3
956,0.81,-0.34,0.5,-0.49,-3.54,-2.5,333,455,410,465,262,3
957,0.81,-0.35,0.49,-0.06,-2.75,-2.75,332,452,414,465,224,3
958,0.82,-0.34,0.5,0.92,-2.14,-2.99,334,456,417,464,223,3
959,0.81,-0.34,0.5,1.22,-3.11,-2.2,335,460,415,466,227,3
960,0.86,-0.3,0.53,0.0,-0.24,-6.53,334,454,417,465,225,3
961,0.79,-0.36,0.49,0.98,-3.85,-0.55,339,460,414,465,225,3
962,0.81,-0.38,0.47,-6.53,-5.55,-0.43,332,455,415,467,227,3
963,0.75,-0.39,0.48,0.73,-2.99,3.85,335,453,414,464,228,3
964,0.87,-0.34,0.48,-0.06,-5.25,6.53,328,455,418,468,228,3
965,0.85,-0.49,0.37,8.48,-3.78,-2.99,333,456,416,464,224,3
966,0.71,-0.47,0.49,-8.0,-4.64,-2.5,334,458,415,464,226,3
967,0.83,-0.4,0.45,-0.73,-7.51,-7.93,332,455,416,462,228,3
968,0.81,-0.36,0.48,1.83,-1.83,-1.83,333,456,428,465,226,3
969,0.81,-0.39,0.43,3.17,-5.86,-0.49,331,452,412,465,226,3
970,0.79,-0.41,0.46,-0.98,-0.18,-6.1,331,454,414,455,227,3
971,0.79,-0.44,0.46,3.54,5.19,-12.02,329,448,410,463,225,3
972,0.78,-0.44,0.46,1.77,3.05,-1.53,330,457,416,464,224,3
973,0.8,-0.27,0.52,-5.25,-3.97,-1.1,331,453,413,465,225,3
974,0.79,-0.33,0.52,11.84,-2.69,-1.65,332,458,411,465,229,3
975,0.81,-0.33,0.51,6.23,-2.2,-5.19,332,459,412,466,229,3
976,0.81,-0.32,0.53,3.85,-4.52,-2.26,332,455,413,459,224,3
977,0.79,-0.3,0.55,3.54,-2.08,-3.78,333,456,413,461,228,3
978,0.79,-0.3,0.55,0.92,-4.27,-2.87,333,454,412,462,226,3
979,0.8,-0.29,0.55,1.59,-1.95,-3.05,334,462,413,464,229,3
980,0.79,-0.28,0.57,0.61,-3.54,-0.73,333,458,412,459,229,3
981,0.8,-0.28,0.56,1.4,-3.54,-2.32,331,458,412,463,234,3
982,0.79,-0.29,0.56,0.24,-2.81,-2.08,335,463,410,463,230,3
983,0.79,-0.29,0.56,1.71,-2.81,-2.56,330,458,411,461,231,3
984,0.79,-0.29,0.56,3.78,-3.36,-2.69,335,455,411,463,226,3
985,0.78,-0.29,0.56,-0.67,-2.2,-1.71,331,456,413,462,228,3
986,0.79,-0.28,0.56,0.98,-1.53,-2.26,332,449,413,461,231,3
987,0.79,-0.27,0.57,0.79,-2.99,-2.87,333,453,415,462,231,3
988,0.8,-0.26,0.57,0.67,-3.42,-2.08,335,455,414,458,230,3
989,0.79,-0.27,0.57,0.43,-3.11,-2.81,333,456,421,465,231,3
990,0.79,-0.27,0.57,-0.31,-4.03,-1.53,334,459,412,464,229,3
991,0.79,-0.27,0.57,0.43,-2.5,-2.56,334,458,417,461,230,3
992,0.79,-0.27,0.57,0.98,-2.93,-2.5,334,455,417,463,232,3
993,0.78,-0.26,0.58,0.43,-3.05,-2.56,332,460,423,474,231,3
994,0.79,-0.27,0.58,0.49,-2.81,-2.26,335,455,411,462,229,3
995,0.79,-0.26,0.58,1.22,-2.56,-1.71,333,450,413,460,229,3
996,0.79,-0.26,0.59,-0.73,-2.93,-1.4,333,458,411,463,219,3
997,0.79,-0.28,0.57,-1.46,-3.72,0.37,336,459,411,462,225,3
998,0.78,-0.28,0.56,-0.06,-3.11,-2.32,331,456,411,462,228,3
999,0.78,-0.28,0.58,1.77,-4.82,-3.85,333,455,413,462,229,3
1000,0.8,-0.3,0.55,-3.17,-3.42,-6.1,329,459,411,466,222,3
1001,0.78,-0.3,0.5,-1.77,-18.25,4.09,333,451,409,465,228,3
1002,0.81,-0.27,0.54,-1.28,-4.76,-1.22,334,455,413,463,251,3
1003,0.84,-0.29,0.54,6.16,-1.28,-5.86,335,458,411,461,226,3
1004,0.81,-0.34,0.54,-2.62,-4.27,-2.2,335,459,412,463,225,3
1005,0.76,-0.35,0.55,-1.1,-0.98,-5.98,327,455,412,462,228,3
1006,0.78,-0.28,0.58,-1.71,-2.01,-7.39,330,455,420,465,229,3
1007,0.8,-0.25,0.58,-2.38,-2.81,-7.32,329,455,410,459,228,3
1008,0.8,-0.27,0.57,2.08,-2.01,-2.26,333,456,415,461,225,3
1009,0.78,-0.28,0.56,-5.0,-2.69,-2.01,333,454,411,459,236,3
1010,0.78,-0.25,0.59,1.59,-1.04,-0.92,339,455,412,461,230,3
1011,0.81,-0.25,0.57,3.48,0.31,-2.26,333,456,410,469,227,3
1012,0.81,-0.28,0.58,-2.14,-2.69,5.62,334,454,409,462,227,3
1013,0.76,-0.3,0.59,-0.31,0.43,-5.31,333,454,410,460,227,3
1014,0.77,-0.33,0.57,1.53,-4.33,0.49,330,455,413,462,226,3
1015,0.76,-0.34,0.57,-0.92,-0.55,-5.31,333,456,414,464,227,3
1016,0.78,-0.37,0.54,-4.21,-5.13,-1.46,336,456,413,461,227,3
1017,0.76,-0.28,0.62,-4.58,-5.31,-3.3,334,456,414,461,230,3
1018,0.78,-0.31,0.56,11.35,-2.87,-8.91,333,453,410,464,227,3
1019,0.79,-0.31,0.55,3.42,-3.3,-6.65,333,450,411,464,230,3
1020,0.8,-0.24,0.58,-0.67,-3.97,-5.55,328,458,415,465,230,3
1021,0.82,-0.24,0.55,-3.3,-8.54,0.0,336,455,414,465,230,3
1022,0.83,-0.25,0.53,1.77,-1.22,-5.43,334,459,413,464,231,3
1023,0.79,-0.25,0.55,1.22,-2.75,-1.4,332,455,409,461,229,3
1024,0.82,-0.23,0.55,3.48,-2.2,-2.01,336,462,411,461,229,3
1025,0.81,-0.23,0.57,3.72,-1.83,0.24,332,457,408,459,240,3
1026,0.79,-0.23,0.56,0.85,-3.91,-1.59,329,469,413,458,230,3
1027,0.81,-0.22,0.57,-4.64,-3.66,-1.65,333,456,414,460,229,3
1028,0.81,-0.23,0.56,-2.93,-2.5,-3.54,333,454,420,457,229,3
1029,0.81,-0.25,0.55,-1.28,-3.17,-3.42,332,455,415,458,231,3
1030,0.8,-0.24,0.56,-0.85,-3.85,-2.44,331,456,415,462,228,3
1031,0.8,-0.23,0.58,0.37,-2.32,-3.66,330,459,418,467,225,3
1032,0.79,-0.22,0.58,2.08,-3.11,-2.75,332,452,415,462,228,3
1033,0.81,-0.23,0.57,0.12,-3.36,-1.53,333,455,415,462,228,3
1034,0.79,-0.25,0.57,-0.18,-3.48,-2.99,332,455,416,462,228,3
1035,0.81,-0.23,0.58,2.99,-1.59,-3.72,332,457,420,462,231,3
1036,0.79,-0.23,0.58,1.34,-2.14,-2.38,329,451,413,468,231,3
1037,0.8,-0.23,0.58,-2.44,-2.99,-2.08,333,458,415,462,231,3
1038,0.81,-0.25,0.57,-0.24,-2.75,-1.46,335,459,414,468,228,3
1039,0.8,-0.25,0.57,1.22,-2.93,-2.56,331,451,417,463,226,3
1040,0.8,-0.24,0.57,1.89,-3.36,-2.08,331,459,418,460,230,3
1041,0.8,-0.25,0.57,0.37,-2.87,-2.87,333,459,415,462,227,3
1042,0.79,-0.25,0.58,-0.24,-3.36,-2.44,333,456,418,452,228,3
1043,0.8,-0.25,0.57,2.01,-2.5,-2.08,333,450,416,465,228,3
1044,0.8,-0.28,0.57,1.04,-3.17,-2.44,332,453,414,459,225,3
1045,0.81,-0.25,0.57,1.46,-3.05,-2.56,335,461,416,461,227,3
1046,0.8,-0.25,0.57,0.37,-2.99,-3.05,336,453,420,471,227,3
1047,0.79,-0.24,0.58,1.34,-2.5,-2.62,332,466,412,464,224,3
1048,0.79,-0.25,0.57,0.0,-2.99,-0.79,334,449,410,458,225,3
1049,0.78,-0.26,0.57,0.0,-1.83,-2.75,335,452,414,461,229,3
1050,0.8,-0.25,0.58,1.22,-2.93,-3.66,333,456,416,462,224,3
1051,0.8,-0.25,0.57,-0.43,-3.11,-2.87,334,459,411,465,227,3
1052,0.79,-0.25,0.57,0.67,-7.81,-0.24,333,455,414,460,230,3
1053,0.8,-0.26,0.55,2.99,-7.26,0.55,337,455,414,461,226,3
1054,0.83,-0.28,0.52,0.37,-5.74,-1.28,333,459,422,461,225,3
1055,0.82,-0.29,0.51,-0.55,-2.81,-2.56,330,450,415,464,224,3
1056,0.81,-0.31,0.5,-8.36,-12.51,7.87,329,454,413,464,226,3
1057,0.85,-0.34,0.48,-8.06,-2.81,1.4,331,454,420,464,226,3
1058,0.84,-0.37,0.47,0.06,-3.11,-2.38,329,454,417,465,229,3
1059,0.82,-0.38,0.47,-1.46,-1.28,-3.05,330,452,417,465,226,3
1060,0.78,-0.42,0.46,-1.53,-3.3,-3.97,331,458,419,469,226,3
1061,0.8,-0.38,0.49,-1.04,-2.81,-3.72,333,455,418,461,224,3
1062,0.78,-0.4,0.48,0.98,-3.23,-4.21,333,461,416,465,223,3
1063,0.78,-0.42,0.47,0.0,-3.91,1.16,332,454,418,466,227,3
1064,0.78,-0.44,0.46,-0.73,-3.23,-1.71,334,454,417,464,227,3
1065,0.8,-0.43,0.46,2.56,-1.83,-3.85,331,457,418,464,225,3
1066,0.79,-0.42,0.46,2.01,-2.38,-3.23,334,455,415,466,238,3
1067,0.79,-0.42,0.46,0.24,-4.39,-2.5,331,456,417,465,230,3
1068,0.79,-0.43,0.46,0.85,-3.6,-1.16,331,455,417,466,226,3
1069,0.75,-0.42,0.49,1.59,-0.61,-2.01,334,453,417,464,227,3
1070,0.8,-0.41,0.48,-0.24,-2.56,-4.09,332,456,414,467,225,3
1071,0.77,-0.41,0.49,1.04,-2.75,-2.81,335,451,411,463,224,3
1072,0.77,-0.39,0.5,3.78,-4.94,1.34,332,459,414,460,223,3
1073,0.81,-0.39,0.49,0.18,0.61,-1.46,331,455,412,459,223,3
1074,0.79,-0.39,0.52,2.99,-1.89,-2.14,334,459,415,461,225,3
1075,0.75,-0.46,0.47,-2.32,-0.85,-6.71,330,459,411,462,227,3
1076,0.78,-0.42,0.49,1.46,-4.39,-4.76,333,457,410,461,230,3
1077,0.77,-0.39,0.51,-4.94,4.39,-3.42,333,456,413,463,225,3
1078,0.81,-0.43,0.47,8.06,-4.64,3.72,332,454,408,458,225,3
1079,0.71,-0.44,0.49,-4.33,-6.1,-3.97,329,456,413,464,224,3
1080,0.75,-0.42,0.48,-5.98,-0.43,1.46,332,456,409,465,250,3
1081,0.73,-0.45,0.5,0.18,-7.69,2.69,335,456,407,458,227,3
1082,0.75,-0.4,0.55,-4.21,-3.72,1.16,335,457,408,459,222,3
1083,0.76,-0.39,0.54,4.58,-11.41,-2.62,330,452,407,460,224,3
1084,0.77,-0.39,0.52,0.61,-2.81,-4.46,336,456,413,465,228,3
1085,0.72,-0.39,0.51,-2.69,-7.2,-4.94,331,455,409,462,225,3
1086,0.85,-0.3,0.28,-150.09,-12.57,-75.32,335,436,344,406,325,3
1087,0.94,-0.16,0.12,4.64,47.67,-7.08,345,418,310,377,333,3
1088,0.7,-0.26,0.65,5.0,19.41,4.21,340,431,321,391,348,3
1089,0.54,-0.21,0.84,10.25,23.56,6.35,338,437,326,405,354,3
1090,0.93,-0.28,0.28,0.67,-2.81,-1.95,340,454,415,493,223,3
1091,0.93,-0.29,0.28,0.73,-2.32,-2.08,336,450,414,502,226,3
1092,0.91,-0.3,0.28,1.28,-2.56,-2.44,350,452,414,493,223,3
1093,0.93,-0.29,0.28,0.92,-2.69,-3.23,336,449,413,493,223,3
1094,0.92,-0.3,0.28,0.0,-1.89,-2.99,338,448,418,491,223,3
1095,0.92,-0.29,0.29,0.85,-3.36,-2.69,335,452,415,490,225,3
1096,0.92,-0.28,0.29,0.06,-2.99,-2.99,341,455,416,490,224,3
1097,0.92,-0.29,0.29,1.34,-3.97,-2.56,339,449,416,493,227,3
1098,0.93,-0.28,0.29,1.65,-2.99,-1.71,337,447,412,493,225,3
1099,0.92,-0.29,0.28,1.04,-2.44,-2.32,339,450,419,490,226,3
1100,0.94,-0.28,0.28,-0.98,-2.56,0.49,338,443,414,488,226,3
1101,0.95,-0.28,0.28,3.97,-3.6,-5.8,339,451,412,497,216,3
1102,0.9,-0.28,0.29,1.77,-4.94,-4.88,338,448,413,492,228,3
1103,0.91,-0.28,0.29,-4.64,-3.23,-1.71,340,457,414,492,229,3
1104,0.93,-0.26,0.29,0.55,-2.08,-1.04,340,447,414,495,229,3
1105,0.91,-0.28,0.29,-0.92,-3.36,-1.95,338,452,413,488,231,3
1106,0.94,-0.27,0.28,-0.85,-5.07,-2.26,338,460,414,490,224,3
1107,0.94,-0.25,0.29,0.79,-2.08,-0.85,341,450,413,488,229,3
1108,0.93,-0.26,0.3,2.93,-6.16,-3.42,340,452,412,487,226,3
1109,0.92,-0.27,0.29,-2.75,-3.66,-2.5,336,448,412,488,230,3
1110,0.91,-0.26,0.3,-0.49,-1.46,-2.99,340,448,412,488,228,3
1111,0.92,-0.28,0.25,3.66,1.53,-6.47,336,445,414,487,228,3
1112,0.89,-0.29,0.27,-2.62,-1.1,2.26,340,448,409,487,230,3
1113,0.94,-0.27,0.28,-3.54,-3.72,-4.21,338,448,412,483,226,3
1114,0.96,-0.23,0.3,-0.24,-0.73,-0.73,341,442,415,486,233,3
1115,0.94,-0.25,0.28,0.55,-1.71,0.0,335,447,413,483,232,3
1116,0.92,-0.28,0.29,-1.77,-1.65,-1.53,338,444,412,494,255,3
1117,0.92,-0.27,0.29,0.06,-2.14,-2.08,339,448,412,488,227,3
1118,0.92,-0.27,0.3,1.46,-3.48,-2.26,341,449,414,486,233,3
1119,0.92,-0.27,0.3,0.24,-2.87,-2.69,338,452,412,485,232,3
1120,0.91,-0.29,0.28,-0.12,-2.75,-1.95,339,449,412,488,234,3
1121,0.92,-0.29,0.29,2.08,-1.65,-2.99,342,448,415,489,233,3
1122,0.93,-0.28,0.3,1.71,-2.56,-3.91,337,447,414,486,229,3
1123,0.92,-0.29,0.3,0.24,-1.89,-2.99,340,452,409,489,239,3
1124,0.92,-0.28,0.32,0.0,-1.22,-2.44,340,451,412,480,234,3
1125,0.91,-0.28,0.33,0.43,-0.92,-0.79,340,457,410,486,230,3
1126,0.89,-0.32,0.32,2.69,-2.38,-1.65,340,452,411,486,233,3
1127,0.89,-0.32,0.32,-3.42,-2.69,1.71,340,452,411,482,235,3
1128,0.91,-0.3,0.33,2.2,-2.62,-2.62,339,448,411,486,235,3
1129,0.9,-0.3,0.35,-0.06,-1.53,-1.59,340,449,413,486,230,3
1130,0.91,-0.29,0.35,5.07,-2.32,-3.6,343,448,410,487,236,3
1131,0.9,-0.28,0.36,0.0,-3.48,-2.38,337,452,413,484,231,3
1132,0.9,-0.28,0.36,1.28,-3.72,-3.05,340,445,410,484,230,3
1133,0.91,-0.28,0.36,1.28,-3.05,-3.54,342,450,413,486,235,3
1134,0.9,-0.29,0.35,1.34,-2.93,-0.79,341,450,410,482,234,3
1135,0.89,-0.3,0.34,0.31,-3.23,-1.95,341,454,413,485,224,3
1136,0.9,-0.3,0.35,0.73,-1.65,-1.46,336,449,415,486,237,3
1137,0.9,-0.29,0.35,0.31,-1.65,-1.59,339,454,412,484,231,3
1138,0.91,-0.29,0.35,-0.24,-3.23,-2.87,336,453,413,486,235,3
1139,0.89,-0.3,0.35,1.28,-3.78,-2.81,339,448,409,483,229,3
1140,0.9,-0.29,0.35,1.46,-3.11,-2.99,343,455,413,484,234,3
1141,0.9,-0.29,0.35,0.18,-3.54,-2.56,336,446,412,485,236,3
1142,0.9,-0.29,0.35,1.77,-2.5,-2.38,340,449,415,483,237,3
1143,0.9,-0.29,0.35,3.3,-2.5,-2.75,340,446,413,483,234,3
1144,0.89,-0.3,0.35,-1.22,-1.28,-0.24,339,451,416,482,235,3
1145,0.89,-0.3,0.36,-0.73,-2.81,-3.11,340,450,411,482,238,3
1146,0.89,-0.3,0.35,0.37,-3.36,-1.77,341,451,415,486,238,3
1147,0.9,-0.3,0.36,1.77,-2.81,-1.83,341,450,411,485,239,3
1148,0.91,-0.28,0.36,0.73,-2.5,-2.93,342,448,413,484,235,3
1149,0.9,-0.29,0.36,0.18,-3.11,-2.32,341,449,423,490,258,3
1150,0.89,-0.29,0.36,2.44,-4.33,-3.36,339,450,413,485,236,3
1151,0.89,-0.31,0.35,-1.83,-2.81,-1.28,338,451,409,483,235,3
1152,0.89,-0.3,0.36,-0.24,-2.99,-1.59,342,445,409,489,233,3
1153,0.9,-0.3,0.36,-1.83,-2.75,-3.05,347,451,411,484,239,3
1154,0.9,-0.29,0.36,-0.24,-2.75,-3.42,340,450,410,484,236,3
1155,0.89,-0.29,0.36,-0.18,-2.56,-2.75,338,450,409,483,237,3
1156,0.89,-0.3,0.36,0.49,-3.3,-2.56,341,455,411,482,236,3
1157,0.94,-0.29,0.36,0.67,-3.42,-2.08,336,454,412,484,237,3
1158,0.91,-0.29,0.36,-0.37,-2.87,-2.32,340,449,412,480,239,3
1159,0.89,-0.29,0.37,1.4,-3.78,-2.14,339,453,409,485,238,3
1160,0.88,-0.29,0.38,-0.61,-0.31,-3.17,340,446,412,492,236,3
1161,0.88,-0.31,0.36,1.46,-2.62,-2.5,342,450,412,484,236,3
1162,0.9,-0.3,0.36,-0.24,-2.75,-3.17,340,457,409,482,236,3
1163,0.89,-0.3,0.36,0.43,-3.3,-2.99,340,451,410,486,240,3
1164,0.9,-0.3,0.36,-0.31,-4.52,-1.89,344,451,411,483,238,3
1165,0.91,-0.3,0.35,0.24,-3.17,-2.93,341,454,410,488,238,3
1166,0.89,-0.3,0.36,0.55,-2.99,-3.11,339,450,413,481,239,3
1167,0.88,-0.29,0.38,-0.12,-3.05,-2.99,341,452,407,483,230,3
1168,0.89,-0.29,0.37,-2.5,-3.78,-5.19,340,454,408,486,242,3
1169,0.89,-0.29,0.37,0.31,-2.62,-3.91,342,454,412,486,234,3
1170,0.88,-0.29,0.36,-2.01,-2.93,-2.93,341,452,412,481,238,3
1171,0.9,-0.28,0.38,2.87,-0.18,-2.2,342,457,410,483,274,3
1172,0.87,-0.31,0.37,1.71,-1.46,-1.34,338,445,409,479,237,3
1173,0.92,-0.3,0.36,2.08,-0.85,-1.59,340,445,406,480,237,3
1174,0.91,-0.28,0.39,-0.61,-0.79,-3.85,341,446,409,484,236,3
1175,0.9,-0.31,0.37,2.99,-1.4,-2.75,340,450,408,482,234,3
1176,0.9,-0.31,0.37,2.62,-1.46,-2.44,341,445,407,486,234,3
1177,0.87,-0.31,0.37,-0.37,-3.05,-1.22,340,449,410,485,231,3
1178,0.88,-0.3,0.37,0.0,-2.87,-2.69,336,450,409,482,233,3
1179,0.88,-0.31,0.37,0.37,-3.85,-2.99,337,451,407,484,233,3
1180,0.89,-0.3,0.38,3.66,-2.26,-0.61,336,450,412,484,224,3
1181,0.88,-0.31,0.38,-0.37,-3.54,-2.93,340,452,413,483,235,3
1182,0.87,-0.31,0.37,-0.06,-2.69,-2.5,339,443,412,481,232,3
1183,0.86,-0.32,0.38,-0.43,-2.93,-3.11,342,453,408,484,235,3
1184,0.89,-0.31,0.37,0.06,-3.54,-3.17,341,453,411,484,234,3
1185,0.88,-0.3,0.37,0.43,-2.01,-3.3,341,448,409,482,233,3
1186,0.89,-0.3,0.38,1.4,-3.23,-2.2,342,449,413,486,232,3
1187,0.89,-0.3,0.38,0.0,-2.75,-2.93,340,453,409,484,236,3
1188,0.88,-0.31,0.37,0.92,-2.87,-2.99,341,449,411,483,239,3
1189,0.88,-0.3,0.38,1.53,-2.38,-2.75,339,450,413,478,233,3
1190,0.89,-0.3,0.38,0.31,-2.87,-2.5,347,445,412,484,235,3
1191,0.89,-0.29,0.39,0.67,-3.17,-2.87,343,445,418,478,234,3
1192,0.88,-0.29,0.38,0.67,-3.23,-1.65,342,451,405,485,240,3
1193,0.88,-0.3,0.37,1.53,-2.5,-1.1,338,446,407,485,236,3
1194,0.89,-0.29,0.38,-0.12,-2.75,-2.32,342,449,408,482,236,3
1195,0.88,-0.3,0.37,0.73,-3.3,-2.14,340,450,412,480,224,3
1196,0.9,-0.29,0.38,0.49,-2.62,-2.69,351,449,412,479,235,3
1197,0.9,-0.28,0.38,0.98,-2.87,-3.23,341,449,409,483,234,3
1198,0.89,-0.28,0.39,-1.53,-2.99,-3.11,342,450,421,479,234,3
1199,0.89,-0.28,0.38,0.79,-2.87,-2.38,340,450,405,480,234,3
1200,0.89,-0.28,0.38,1.22,-2.62,-2.26,340,444,405,476,237,3
1201,0.89,-0.28,0.38,0.12,-3.3,-2.99,340,449,409,481,234,3
1202,0.9,-0.27,0.38,1.59,-3.78,-2.14,340,451,410,481,234,3
1203,0.9,-0.28,0.37,0.73,-3.42,-2.32,341,453,411,481,229,3
1204,0.9,-0.27,0.38,1.16,-3.05,-3.23,338,450,409,478,238,3
1205,0.9,-0.27,0.38,0.43,-2.32,-2.69,340,455,407,483,237,3
1206,0.88,-0.27,0.38,-0.12,-3.05,-2.69,347,445,411,481,235,3
1207,0.9,-0.27,0.38,0.98,-2.5,-2.87,341,452,409,481,238,3
1208,0.89,-0.27,0.39,-1.4,-3.17,-2.01,341,461,409,482,235,3
1209,0.89,-0.28,0.38,0.98,-2.69,-1.83,341,450,412,480,237,3
1210,0.89,-0.27,0.38,-0.67,-2.81,-1.65,347,450,409,480,235,3
1211,0.89,-0.28,0.38,-0.79,-3.11,-2.2,340,451,408,480,237,3
1212,0.9,-0.27,0.38,0.55,-3.17,-2.75,340,456,411,480,236,3
1213,0.9,-0.26,0.38,-1.04,-3.11,-2.56,344,444,410,483,233,3
1214,0.9,-0.26,0.39,1.1,-3.72,-3.54,341,447,411,482,235,3
1215,0.91,-0.26,0.38,0.43,-3.05,-2.32,342,454,412,479,235,3
1216,0.89,-0.27,0.38,-0.43,-2.93,-1.89,341,451,410,477,233,3
1217,0.89,-0.27,0.38,-0.24,-2.99,-1.89,341,454,413,479,238,3
1218,0.89,-0.27,0.38,1.71,-3.48,-2.75,340,451,408,480,236,3
1219,0.9,-0.26,0.39,0.31,-3.72,-2.62,340,450,408,482,236,3
1220,0.89,-0.27,0.38,0.24,-2.56,-2.87,342,450,411,482,247,3
1221,0.88,-0.28,0.38,-1.1,-3.54,-2.75,340,454,410,476,239,3
1222,0.89,-0.26,0.38,0.55,-2.44,-3.48,341,448,407,479,236,3
1223,0.89,-0.27,0.38,0.24,-2.14,-2.56,339,450,411,477,236,3
1224,0.9,-0.26,0.38,0.61,-3.97,-3.6,340,444,409,480,236,3
1225,0.9,-0.26,0.37,0.49,-5.74,-1.95,340,449,405,478,240,3
1226,0.9,-0.26,0.37,0.61,-3.54,-2.81,339,453,404,480,234,3
1227,0.89,-0.26,0.37,0.61,-2.81,-3.42,340,449,408,480,244,3
1228,0.91,-0.26,0.38,-0.79,-2.2,-2.14,340,455,409,482,238,3
1229,0.9,-0.27,0.37,1.28,-2.62,-2.87,341,455,408,480,238,3
1230,0.91,-0.26,0.38,1.04,-1.28,-2.14,341,445,411,482,238,3
1231,0.89,-0.28,0.37,-2.38,-2.69,-3.05,341,450,408,478,242,3
1232,0.9,-0.26,0.37,0.12,-2.38,-2.2,338,450,411,479,234,3
1233,0.9,-0.26,0.38,1.46,-2.69,-2.62,341,451,409,480,235,3
1234,0.9,-0.26,0.38,0.06,-2.93,-2.14,339,450,405,477,235,3
1235,0.9,-0.26,0.38,1.1,-3.05,-3.11,340,452,408,481,236,3
1236,0.9,-0.26,0.38,-0.06,-2.26,-3.23,339,450,408,479,236,3
1237,0.9,-0.25,0.39,1.22,-2.81,-2.32,337,455,409,479,238,3
1238,0.9,-0.27,0.37,1.16,-3.66,-2.26,351,445,410,478,233,3
1239,0.9,-0.26,0.38,-0.55,-3.66,-2.75,342,451,408,480,233,3
1240,0.91,-0.25,0.39,0.55,-2.81,-3.17,334,453,412,478,238,3
1241,0.9,-0.26,0.38,-0.37,-3.54,-2.75,343,450,410,477,237,3
1242,0.91,-0.25,0.38,1.46,-2.01,-3.11,342,452,408,482,236,3
1243,0.9,-0.26,0.39,0.55,-1.89,-1.83,341,452,408,480,238,3
1244,0.89,-0.26,0.4,1.53,-3.91,-3.23,342,448,402,475,236,3
1245,0.9,-0.24,0.4,0.12,-3.36,-0.73,340,452,406,478,236,3
1246,0.88,-0.26,0.41,1.34,-3.3,-2.26,341,456,410,473,237,3
1247,0.9,-0.27,0.38,0.61,-2.62,-2.69,338,451,407,481,234,3
1248,0.86,-0.29,0.39,-0.55,-3.42,-3.36,341,451,409,482,240,3
1249,0.88,-0.27,0.39,1.22,-4.33,-2.75,341,454,414,479,245,3
1250,0.92,-0.26,0.37,2.62,-2.69,-1.28,341,451,405,478,237,3
1251,0.89,-0.28,0.39,-0.12,-1.83,-2.38,341,447,407,476,236,3
1252,0.88,-0.28,0.39,-1.22,-3.23,-3.78,341,453,407,478,237,3
1253,0.88,-0.28,0.38,0.79,-2.2,-1.16,342,451,408,480,237,3
1254,0.88,-0.29,0.39,0.0,-2.69,-2.14,343,452,409,479,234,3
1255,0.88,-0.27,0.4,0.06,-2.14,-2.01,344,451,408,476,237,3
1256,0.9,-0.27,0.4,1.1,-3.54,-1.1,337,452,409,476,240,3
1257,0.9,-0.27,0.39,1.59,-4.39,-0.92,344,452,420,483,235,3
1258,0.87,-0.29,0.39,0.18,-1.34,-2.2,340,451,408,478,236,3
1259,0.87,-0.29,0.39,0.37,-3.17,-1.77,338,454,410,495,237,3
1260,0.85,-0.31,0.38,2.01,-2.81,-3.54,342,451,410,477,236,3
1261,0.86,-0.29,0.39,-0.18,-2.62,-2.2,340,452,411,474,240,3
1262,0.9,-0.28,0.4,0.98,-2.62,-3.66,338,446,407,480,236,3
1263,0.91,-0.27,0.38,4.09,-3.72,-5.86,342,451,407,481,241,3
1264,0.9,-0.24,0.41,-0.06,-3.54,-1.1,341,455,411,477,238,3
1265,0.9,-0.28,0.37,-0.79,-1.89,-1.59,339,450,407,475,237,3
1266,0.9,-0.28,0.38,-7.32,-2.08,-0.43,342,455,409,478,241,3
1267,0.87,-0.3,0.38,-1.4,-2.93,-2.01,342,455,408,475,239,3
1268,0.87,-0.3,0.38,-0.31,-2.32,-3.42,339,467,406,478,260,3
1269,0.89,-0.29,0.38,0.06,-2.81,-2.62,339,454,410,477,240,3
1270,0.9,-0.28,0.38,-0.43,-1.95,-2.08,344,456,407,480,241,3
1271,0.89,-0.29,0.38,0.79,-4.15,-4.15,341,454,406,476,238,3
1272,0.86,-0.3,0.37,0.37,-3.3,-2.32,343,454,409,478,238,3
1273,0.89,-0.3,0.37,-0.92,-2.2,-2.32,340,452,408,478,236,3
1274,0.91,-0.26,0.41,0.73,-1.89,-2.93,342,453,407,479,238,3
1275,0.89,-0.28,0.39,1.65,-4.09,-3.66,344,453,408,478,241,3
1276,0.89,-0.29,0.38,0.0,-3.85,-2.69,341,450,410,478,238,3
1277,0.9,-0.28,0.38,1.59,-2.75,-2.62,339,454,410,477,240,3
1278,0.89,-0.29,0.38,-0.31,-2.62,-2.56,338,447,407,476,242,3
1279,0.87,-0.3,0.38,0.55,-2.93,-1.77,342,453,407,477,242,3
1280,0.89,-0.29,0.38,2.69,-1.89,-2.62,342,452,411,478,239,3
1281,0.89,-0.28,0.4,4.58,-2.99,-3.6,338,453,408,479,239,3
1282,0.89,-0.28,0.4,-1.16,-3.11,-2.99,343,457,409,479,241,3
1283,0.87,-0.3,0.38,0.24,-2.69,-2.75,341,454,412,478,240,3
1284,0.88,-0.28,0.39,0.79,-3.91,-1.34,343,451,403,476,243,3
1285,0.89,-0.29,0.39,0.12,-2.93,-2.62,339,455,409,478,241,3
1286,0.88,-0.28,0.4,-1.1,-2.08,-2.87,342,452,407,480,242,3
1287,0.89,-0.27,0.4,-0.06,-2.56,-2.62,342,454,408,476,238,3
1288,0.88,-0.28,0.39,1.59,-2.32,-3.17,344,451,411,478,242,3
1289,0.88,-0.29,0.39,-0.06,-3.05,-3.6,339,453,412,477,238,3
1290,0.88,-0.29,0.39,0.85,-2.93,-2.5,339,447,404,480,241,3
1291,0.89,-0.28,0.39,0.98,-3.05,-2.81,342,452,408,475,245,3
1292,0.9,-0.27,0.4,1.46,-2.81,-3.85,342,451,408,477,243,3
1293,0.88,-0.28,0.4,0.61,-2.99,-2.56,343,452,407,480,244,3
1294,0.89,-0.27,0.39,1.1,-2.99,-3.6,342,452,405,474,244,3
1295,0.88,-0.27,0.4,1.28,-1.59,-2.56,343,451,406,477,240,3
1296,0.89,-0.27,0.39,0.55,-2.93,-2.26,342,448,412,485,243,3
1297,0.9,-0.27,0.38,1.77,-2.56,-2.87,345,452,409,477,242,3
1298,0.89,-0.27,0.4,0.61,-3.11,-2.01,338,456,406,474,242,3
1299,0.89,-0.27,0.39,0.73,-3.11,-2.44,343,448,411,482,242,3
1300,0.89,-0.26,0.4,1.04,-2.32,-3.11,342,452,409,477,241,3
1301,0.89,-0.26,0.4,1.53,-3.36,-3.3,341,456,410,475,244,3
1302,0.89,-0.26,0.4,-0.55,-3.3,-3.05,343,453,409,477,244,3
1303,0.89,-0.26,0.41,-0.06,-2.69,-2.2,342,452,410,475,241,3
1304,0.89,-0.27,0.39,0.06,-2.75,-2.08,341,452,409,477,244,3
1305,0.89,-0.26,0.4,-0.18,-2.69,-2.93,341,452,413,478,242,3
1306,0.89,-0.28,0.39,-0.31,-2.75,-1.89,343,451,409,477,243,3
1307,0.89,-0.28,0.38,1.59,-2.08,-4.39,341,447,407,476,242,3
1308,0.89,-0.26,0.4,0.0,-2.87,-3.36,342,456,411,475,242,3
1309,0.87,-0.27,0.41,0.49,-2.99,-2.38,341,447,411,476,242,3
1310,0.87,-0.27,0.41,0.92,-3.05,-2.87,342,456,405,479,245,3
1311,0.91,-0.26,0.4,0.73,-3.66,-1.59,343,447,411,479,254,3
1312,0.89,-0.26,0.41,0.92,-2.81,-2.32,334,454,407,479,244,3
1313,0.88,-0.27,0.39,1.65,-3.36,-2.56,342,464,411,473,242,3
1314,0.87,-0.28,0.39,2.14,-2.62,-2.62,342,453,411,479,244,3
1315,0.89,-0.26,0.41,-4.39,-1.53,2.01,342,452,406,477,243,3
1316,0.87,-0.28,0.41,-2.01,-4.64,-0.67,338,453,408,477,243,3
1317,0.87,-0.28,0.41,0.37,-2.93,-2.38,341,452,411,476,244,3
1318,0.87,-0.29,0.4,-0.24,-3.23,-2.26,342,451,407,476,242,3
1319,0.88,-0.28,0.4,-0.37,-3.48,-1.1,344,454,408,476,242,3
1320,0.88,-0.27,0.41,1.1,-2.87,-1.83,345,457,412,480,241,3
1321,0.88,-0.28,0.41,-0.67,-1.77,-1.59,345,453,409,475,244,3
1322,0.87,-0.29,0.4,-0.06,-3.23,-3.36,343,449,409,475,240,3
1323,0.89,-0.28,0.4,2.01,-3.42,-3.66,342,449,412,477,242,3
1324,0.86,-0.29,0.42,1.53,-3.66,-1.46,339,447,411,475,246,3
1325,0.87,-0.28,0.41,-1.28,-3.11,-1.89,342,455,408,476,242,3
1326,0.88,-0.28,0.41,0.12,-2.62,-1.46,343,453,411,477,242,3
1327,0.86,-0.28,0.42,0.18,-3.42,-1.28,345,453,408,475,240,3
1328,0.87,-0.28,0.41,1.04,-2.81,-2.38,345,451,404,472,243,3
1329,0.87,-0.29,0.41,1.22,-3.54,-2.87,341,453,410,475,243,3
1330,0.88,-0.29,0.4,-0.18,-2.69,-2.93,341,452,407,474,244,3
1331,0.87,-0.28,0.41,0.06,-2.99,-3.23,342,452,409,475,245,3
1332,0.89,-0.27,0.41,2.5,-3.3,-2.56,339,454,404,476,240,3
1333,0.89,-0.28,0.4,-4.03,-2.56,-1.04,342,447,408,472,245,3
1334,0.88,-0.3,0.39,0.24,-4.94,-2.44,343,453,408,479,243,3
1335,0.85,-0.29,0.42,-2.01,-2.81,-1.89,341,451,404,479,245,3
1336,0.86,-0.29,0.4,-0.37,-3.54,-3.85,343,454,408,476,238,3
1337,0.89,-0.26,0.42,-0.37,-3.17,-2.08,344,456,409,475,244,3
1338,0.9,-0.27,0.41,-0.67,-3.11,-2.5,343,453,406,477,244,3
1339,0.88,-0.28,0.41,-0.06,-3.36,-1.77,340,449,411,472,245,3
1340,0.89,-0.28,0.4,1.16,-3.36,-2.2,340,452,411,478,242,3
1341,0.88,-0.3,0.38,-1.28,-2.08,-3.11,342,452,407,475,244,3
1342,0.88,-0.28,0.41,-0.61,-3.3,-1.95,340,447,410,476,244,3
1343,0.88,-0.27,0.41,-1.95,-4.46,-4.88,342,451,407,477,242,3
1344,0.89,-0.27,0.4,-0.31,-4.21,-4.58,344,451,404,475,244,3
1345,0.9,-0.27,0.39,0.98,-3.97,-2.93,342,450,409,478,243,3
1346,0.88,-0.27,0.39,0.61,-3.54,-2.99,342,453,410,477,243,3
1347,0.9,-0.27,0.39,-0.67,-2.26,-3.72,342,455,407,475,238,3
1348,0.89,-0.25,0.4,1.16,-3.23,-2.62,343,452,410,477,242,3
1349,0.88,-0.27,0.39,0.79,-3.11,-3.23,344,454,409,475,242,3
1350,0.92,-0.26,0.38,0.92,-2.81,-1.46,342,452,413,474,242,3
1351,0.9,-0.26,0.39,0.79,-2.69,-2.5,339,448,411,477,242,3
1352,0.9,-0.26,0.39,-0.67,-3.17,-3.97,338,458,410,477,240,3
1353,0.9,-0.25,0.4,2.81,-3.42,-2.32,342,448,409,474,237,3
1354,0.92,-0.23,0.41,0.61,-3.48,-3.78,344,454,408,476,243,3
1355,0.89,-0.25,0.39,-0.85,-2.5,-2.44,342,453,413,477,241,3
1356,0.89,-0.25,0.4,1.1,-2.93,-2.44,344,453,410,478,254,3
1357,0.9,-0.25,0.39,0.85,-2.75,-2.5,345,454,404,476,243,3
1358,0.89,-0.25,0.39,1.1,-2.75,-3.66,354,453,413,476,242,3
1359,0.9,-0.25,0.4,0.92,-3.36,-3.05,344,455,411,474,239,3
1360,0.89,-0.25,0.39,1.59,-2.81,-2.75,342,457,411,473,246,3
1361,0.9,-0.25,0.39,-0.06,-3.6,-3.3,342,453,420,474,243,3
1362,0.88,-0.27,0.38,-0.37,-2.56,-1.59,342,453,408,471,242,3
1363,0.89,-0.25,0.39,0.37,-3.17,-2.62,342,449,421,476,244,3
1364,0.89,-0.25,0.4,0.85,-3.11,-2.38,340,449,404,471,241,3
1365,0.89,-0.25,0.39,-0.61,-3.36,-2.14,344,452,417,477,245,3
1366,0.9,-0.25,0.4,-1.04,-2.75,-2.32,340,453,409,474,245,3
1367,0.88,-0.25,0.39,0.0,-3.05,-2.81,342,457,411,474,244,3
1368,0.89,-0.25,0.39,1.04,-2.99,-2.26,341,453,410,474,244,3
1369,0.9,-0.24,0.4,1.16,-3.42,-2.75,346,448,409,475,243,3
1370,0.91,-0.24,0.4,0.55,-2.99,-2.14,348,449,409,485,245,3
1371,0.9,-0.24,0.39,0.18,-2.93,-2.93,343,448,409,474,246,3
1372,0.9,-0.24,0.4,0.98,-3.36,-2.69,342,449,412,473,235,3
1373,0.9,-0.24,0.4,0.67,-3.66,-1.83,343,453,409,475,244,3
1374,0.9,-0.24,0.4,0.67,-3.23,-1.89,342,449,411,477,237,3
1375,0.88,-0.25,0.4,-0.12,-2.75,-2.32,342,454,412,473,242,3
1376,0.93,-0.23,0.41,-2.14,-1.34,-1.53,342,449,411,474,245,3
1377,0.91,-0.25,0.4,0.98,-2.99,-2.44,340,453,409,476,244,3
1378,0.9,-0.26,0.38,2.38,-3.05,-3.6,342,453,410,476,243,3
1379,0.87,-0.26,0.4,-1.04,-2.87,-1.71,345,449,408,477,243,3
1380,0.88,-0.26,0.37,-0.92,-7.45,-6.84,343,453,411,474,241,3
1381,0.94,-0.24,0.32,7.02,-0.24,-7.32,342,449,409,474,244,3
1382,0.92,-0.21,0.36,0.67,-2.62,-2.56,342,453,410,477,245,3
1383,0.94,-0.22,0.34,0.67,-3.23,-4.33,338,455,407,476,240,3
1384,0.92,-0.21,0.34,2.38,-2.32,-3.72,342,455,412,473,241,3
1385,0.94,-0.19,0.36,-1.34,-0.31,1.04,344,452,409,474,240,3
1386,0.91,-0.25,0.34,-4.88,-3.97,1.77,341,453,408,475,241,3
1387,0.96,-0.23,0.35,-1.65,-10.25,-2.69,344,455,406,474,239,3
1388,0.9,-0.32,0.27,-4.52,-7.32,-2.08,342,446,406,475,240,3
1389,0.87,-0.32,0.26,1.1,-10.44,-1.89,341,451,404,471,237,3
1390,0.97,-0.25,0.26,-1.4,-4.33,-4.33,339,455,406,470,253,3
1391,0.95,-0.25,0.28,3.11,-7.2,-2.14,340,453,410,474,235,3
1392,0.92,-0.29,0.26,1.77,-1.34,-5.62,344,452,409,491,234,3
1393,0.96,-0.22,0.29,-4.21,-1.89,-5.49,342,449,405,472,245,3
1394,0.95,-0.19,0.31,-0.67,-6.47,-5.37,344,447,410,477,242,3
1395,0.96,-0.2,0.29,2.93,-4.09,-3.72,341,452,403,476,235,3
1396,0.94,-0.23,0.27,2.2,-1.1,-2.75,345,452,408,473,236,3
1397,0.96,-0.2,0.29,1.46,-2.5,-1.95,344,453,408,473,235,3
1398,0.95,-0.2,0.28,-1.46,-2.01,-2.62,342,457,406,471,244,3
1399,0.95,-0.21,0.28,2.81,-3.72,-3.17,338,453,408,475,237,3
1400,0.94,-0.21,0.28,4.76,-4.46,-5.13,340,456,408,473,242,3
1401,0.96,-0.19,0.29,1.34,-4.94,-3.91,345,457,405,472,236,3
1402,0.94,-0.2,0.28,0.67,-2.99,-2.26,342,454,407,476,238,3
1403,0.96,-0.19,0.29,1.04,-2.44,-3.17,341,453,409,471,236,3
1404,0.96,-0.18,0.29,0.73,-3.85,-3.05,345,452,405,469,240,3
1405,0.95,-0.19,0.29,1.89,-2.62,-1.4,346,456,409,474,247,3
1406,0.95,-0.2,0.28,0.55,-2.99,-3.42,342,455,405,471,237,3
1407,0.93,-0.2,0.29,0.18,-4.03,-3.66,341,447,406,473,238,3
1408,0.95,-0.19,0.28,1.22,-2.38,-2.87,342,451,407,475,239,3
1409,0.95,-0.18,0.28,1.71,-2.62,-3.11,343,452,407,472,239,3
1410,0.94,-0.18,0.29,-0.55,-2.87,-1.83,339,452,402,469,234,3
1411,0.94,-0.19,0.29,0.61,-2.99,-3.3,342,453,405,472,236,3
1412,0.94,-0.18,0.29,1.83,-3.66,-1.95,342,451,406,472,236,3
1413,0.93,-0.19,0.29,1.16,-2.81,-1.22,339,453,408,470,234,3
1414,0.95,-0.19,0.29,-0.31,-3.3,-2.44,343,448,406,471,237,3
1415,0.95,-0.18,0.29,0.31,-3.17,-3.48,343,456,404,473,235,3
1416,0.94,-0.18,0.29,2.26,-2.44,-1.89,340,453,408,474,236,3
1417,0.95,-0.18,0.29,2.75,-3.3,-2.44,341,456,408,471,239,3
1418,0.94,-0.18,0.3,-0.49,-3.85,-3.11,342,456,402,474,237,3
1419,0.95,-0.18,0.28,1.4,-3.72,-1.65,341,458,407,472,236,3
1420,0.95,-0.18,0.29,0.31,-3.85,-3.3,342,452,409,474,237,3
1421,0.95,-0.17,0.29,0.31,-1.95,-2.44,343,452,406,472,236,3
1422,0.97,-0.18,0.27,3.11,-3.36,-2.56,342,452,404,472,238,3
1423,0.94,-0.19,0.28,0.92,-3.05,-2.56,344,453,409,469,239,3
1424,0.94,-0.19,0.29,0.85,-3.23,-1.53,342,453,408,481,239,3
1425,0.94,-0.19,0.29,1.71,-2.69,-4.09,342,448,407,475,236,3
1426,0.95,-0.18,0.29,2.93,-1.95,-2.81,343,455,403,475,238,3
1427,0.95,-0.17,0.3,0.61,-3.23,-2.69,340,454,405,473,237,3
1428,0.94,-0.18,0.29,0.12,-2.99,-2.93,343,452,408,472,240,3
1429,0.95,-0.18,0.3,0.31,-3.54,-2.56,342,452,407,472,239,3
1430,0.95,-0.18,0.29,0.67,-3.42,-2.32,343,450,409,472,240,3
1431,0.94,-0.18,0.29,0.61,-3.05,-1.89,343,452,410,473,236,3
1432,0.95,-0.18,0.29,0.06,-2.93,-1.83,344,451,409,471,241,3
1433,0.94,-0.17,0.31,1.77,-2.2,-1.83,342,453,406,475,237,3
1434,0.94,-0.17,0.3,-0.73,-2.14,-2.2,342,451,407,476,239,3
1435,0.96,-0.17,0.29,0.85,-4.15,-1.83,341,455,404,470,237,3
1436,0.95,-0.18,0.29,2.08,-3.85,-0.79,342,451,406,472,240,3
1437,0.95,-0.18,0.29,-2.14,-2.26,-1.16,344,450,405,472,239,3
1438,0.94,-0.18,0.29,-1.4,-2.75,-2.62,342,454,406,470,241,3
1439,0.96,-0.16,0.3,-0.12,-4.03,-3.05,343,453,403,471,238,3
1440,0.95,-0.17,0.29,1.65,-3.3,-2.2,345,448,407,474,239,3
1441,0.96,-0.17,0.29,-1.34,-3.66,-1.4,343,449,409,476,238,3
1442,0.94,-0.18,0.29,-0.18,-3.6,-1.4,346,451,408,472,238,3
1443,0.95,-0.17,0.29,1.28,-0.31,-3.48,339,449,405,473,240,3
1444,0.95,-0.17,0.3,1.77,-2.62,-3.3,343,449,408,471,236,3
1445,0.95,-0.18,0.29,0.98,-1.1,-2.44,343,446,405,474,240,3
1446,0.96,-0.17,0.29,2.08,-3.54,-3.3,340,453,406,471,239,3
1447,0.95,-0.17,0.29,2.01,-2.01,-2.69,339,456,408,473,239,3
1448,0.94,-0.17,0.29,-0.12,-3.11,-2.93,342,457,404,475,238,3
1449,0.95,-0.17,0.29,0.55,-4.39,-2.5,341,447,407,472,238,3
1450,0.96,-0.17,0.29,0.85,-2.14,-3.11,338,453,406,469,241,3
1451,0.95,-0.17,0.29,-1.46,-1.53,-2.14,341,462,405,472,238,3
1452,0.94,-0.17,0.29,1.28,-2.87,-2.5,342,452,409,471,241,3
1453,0.95,-0.17,0.3,1.46,-2.87,-2.5,342,455,408,468,240,3
1454,0.95,-0.17,0.29,0.31,-3.3,-2.93,341,453,402,471,239,3
1455,0.95,-0.16,0.29,0.06,-2.75,-2.62,340,457,406,477,238,3
1456,0.95,-0.17,0.29,0.43,-2.93,-1.65,341,458,404,471,240,3
1457,0.95,-0.17,0.29,0.92,-2.32,-3.17,343,452,406,468,239,3
1458,0.95,-0.16,0.3,0.67,-2.93,-2.2,339,451,406,472,238,3
1459,0.95,-0.17,0.29,-0.73,-2.99,-3.48,343,453,405,470,240,3
1460,0.95,-0.17,0.29,0.06,-2.75,-2.56,341,456,415,474,239,3
1461,0.95,-0.16,0.29,0.24,-3.11,-1.95,335,452,408,473,238,3
1462,0.95,-0.17,0.3,1.1,-3.78,-2.44,337,454,408,468,238,3
1463,0.95,-0.17,0.29,-0.24,-2.56,-1.22,339,453,406,467,268,3
1464,0.95,-0.17,0.29,0.0,-2.56,-1.77,337,453,408,473,237,3
1465,0.95,-0.17,0.29,0.98,-1.77,-2.75,342,452,403,467,237,3
1466,0.94,-0.17,0.29,1.71,-2.81,-3.54,339,448,422,479,236,3
1467,0.97,-0.14,0.32,2.5,-3.05,-2.81,338,457,406,470,235,3
1468,0.95,-0.17,0.29,0.06,-2.08,-2.08,340,452,405,474,236,3
1469,0.94,-0.17,0.3,0.18,-2.32,-2.56,341,456,404,473,236,3
1470,0.94,-0.17,0.3,-0.18,-3.91,-2.08,339,452,403,472,236,3
1471,0.96,-0.17,0.29,-0.49,-2.93,-1.89,341,454,409,471,238,3
1472,0.94,-0.17,0.29,-0.49,-3.91,-3.3,341,457,407,471,241,3
1473,0.95,-0.17,0.29,-0.43,-2.38,-0.67,342,454,406,471,236,3
1474,0.95,-0.19,0.26,-0.49,-1.77,-1.53,343,450,405,468,243,3
1475,0.95,-0.19,0.29,-1.4,-1.1,-0.43,342,460,408,474,235,3
1476,0.94,-0.21,0.29,-0.24,-3.48,-0.24,343,457,407,471,237,3
1477,0.92,-0.23,0.28,1.77,-3.85,-1.4,340,454,406,477,236,3
1478,0.94,-0.22,0.29,1.71,-1.77,-2.56,338,452,406,468,236,3
1479,0.94,-0.22,0.3,-0.37,-1.59,-3.54,338,455,405,471,235,3
1480,0.94,-0.22,0.3,-0.85,-1.95,-2.62,336,457,412,473,235,3
1481,0.93,-0.22,0.3,0.06,-2.08,-2.69,341,454,409,468,238,3
1482,0.92,-0.23,0.3,-0.49,-2.44,-2.87,340,449,407,468,233,3
1483,0.93,-0.21,0.32,1.53,-4.46,-3.23,339,459,408,469,234,3
1484,0.93,-0.21,0.31,0.24,-1.77,-3.48,340,451,406,471,235,3
1485,0.94,-0.21,0.31,0.49,-3.6,-2.32,338,459,406,471,237,3
1486,0.93,-0.22,0.31,-0.12,-3.66,-2.69,340,454,418,474,237,3
1487,0.92,-0.22,0.31,-0.12,-2.75,-1.83,338,458,405,473,235,3
1488,0.9,-0.23,0.3,-0.06,-2.81,-1.65,341,460,404,471,238,3
1489,0.97,-0.19,0.31,2.99,-4.94,-4.33,341,454,406,469,235,3
1490,0.93,-0.19,0.32,-14.95,-3.23,-3.97,344,457,404,468,238,3
1491,0.94,-0.21,0.31,1.1,-3.66,-3.6,343,460,411,472,234,3
1492,0.93,-0.2,0.32,-1.89,-3.72,-2.44,341,454,403,471,253,3
1493,0.91,-0.22,0.3,-1.95,-4.27,-1.1,338,457,405,474,236,3
1494,0.94,-0.2,0.32,-1.53,-5.19,-2.38,342,451,403,473,235,3
1495,0.94,-0.21,0.31,-1.1,-3.54,-3.23,342,456,403,473,238,3
1496,0.93,-0.2,0.31,1.28,-1.95,-1.22,341,457,409,471,237,3
1497,0.95,-0.2,0.31,0.18,-2.81,-4.82,340,456,403,471,236,3
1498,0.94,-0.2,0.31,-0.55,-2.87,-3.05,336,454,406,471,237,3
1499,0.93,-0.2,0.31,-0.49,-2.69,-1.04,342,458,406,471,234,3
1500,0.94,-0.2,0.31,2.01,-3.48,-4.46,342,456,404,469,237,3
1501,0.92,-0.2,0.32,0.0,-2.81,-0.55,341,459,406,470,239,3
1502,0.93,-0.2,0.32,1.22,-2.99,-2.2,338,451,409,471,236,3
1503,0.95,-0.19,0.32,1.46,-2.87,-2.81,342,451,408,470,234,3
1504,0.95,-0.2,0.31,-0.49,-3.6,-3.6,340,466,407,470,232,3
1505,0.94,-0.19,0.32,1.28,-1.89,-3.11,346,458,406,471,235,3
1506,0.96,-0.18,0.31,0.67,-3.91,-2.87,338,449,407,467,236,3
1507,0.94,-0.19,0.31,0.18,-4.09,-2.32,336,457,408,470,264,3
1508,0.96,-0.18,0.3,3.23,-2.62,-4.03,340,450,406,470,253,3
1509,0.96,-0.18,0.3,0.43,-3.54,-0.85,340,454,402,469,235,3
1510,0.96,-0.18,0.3,0.12,-2.32,-2.2,341,457,405,471,236,3
1511,0.94,-0.18,0.3,-0.67,-2.62,-2.62,338,459,405,471,233,3
1512,0.94,-0.18,0.3,-0.24,-2.44,-1.65,342,457,404,467,235,3
1513,0.93,-0.18,0.31,-0.61,-2.38,-2.26,339,457,406,472,235,3
1514,0.92,-0.2,0.29,0.12,-2.56,-2.99,338,455,406,473,235,3
1515,0.98,-0.17,0.3,1.77,-1.77,-4.21,340,449,404,474,238,3
1516,0.94,-0.18,0.31,-0.24,-2.14,-1.46,340,456,408,472,235,3
1517,0.95,-0.19,0.31,1.4,-3.48,-2.01,340,454,407,479,233,3
1518,0.94,-0.18,0.31,1.04,-1.77,-1.4,340,450,409,471,233,3
1519,0.95,-0.18,0.31,0.06,-2.5,-2.38,342,459,404,467,238,3
1520,0.93,-0.2,0.3,-0.37,-2.62,-2.14,340,459,407,470,235,3
1521,0.95,-0.18,0.31,-0.79,-4.03,-2.44,339,449,408,471,242,3
1522,0.95,-0.19,0.3,0.49,-3.17,-1.28,340,457,408,471,237,3
1523,0.95,-0.19,0.3,-0.92,-2.75,-2.38,340,449,404,473,237,3
1524,0.97,-0.19,0.3,0.49,-3.78,-2.99,340,454,410,473,236,3
1525,0.95,-0.18,0.31,1.16,-2.62,-2.32,340,450,410,471,236,3
1526,0.94,-0.19,0.3,-0.37,-1.53,0.12,341,455,406,467,235,3
1527,0.95,-0.19,0.3,-0.67,-3.54,-0.85,338,457,406,473,235,3
1528,0.93,-0.2,0.3,-0.85,-0.92,-1.89,337,459,408,471,236,3
1529,0.93,-0.19,0.32,-1.65,-2.5,-2.93,338,455,406,471,236,3
1530,0.94,-0.19,0.32,0.31,-2.5,-2.2,340,455,406,473,236,3
1531,0.94,-0.19,0.31,0.43,-2.75,-2.2,342,459,403,469,237,3
1532,0.93,-0.19,0.32,-0.73,-2.08,0.12,342,452,406,466,237,3
1533,0.94,-0.2,0.31,-0.61,-2.93,-0.85,335,452,404,470,239,3
1534,0.94,-0.2,0.3,-2.62,-6.04,-5.13,341,458,405,469,236,3
1535,0.92,-0.19,0.32,-1.95,-0.92,1.4,341,454,408,478,236,3
1536,0.92,-0.22,0.3,-0.61,-3.6,-5.13,337,455,406,470,236,3
1537,0.94,-0.19,0.32,1.4,-3.36,-2.08,339,455,406,469,238,3
1538,0.93,-0.2,0.31,1.28,-2.99,-3.54,340,458,403,471,237,3
1539,0.93,-0.19,0.32,0.73,-2.75,-2.26,339,458,409,469,236,3
1540,0.92,-0.19,0.32,2.01,-3.85,-1.4,340,450,405,472,237,3
1541,0.94,-0.19,0.3,2.2,-3.78,-2.87,336,459,414,472,243,3
1542,0.94,-0.18,0.32,0.49,-3.11,-3.54,339,457,406,471,237,3
1543,0.95,-0.18,0.3,-0.43,-2.01,-1.89,339,450,402,470,238,3
1544,0.95,-0.18,0.3,-0.67,-2.56,-3.23,339,452,405,469,238,3
1545,0.93,-0.19,0.3,0.12,-1.46,-2.56,335,451,408,472,237,3
1546,0.94,-0.18,0.31,2.26,-3.78,-2.69,341,459,405,472,237,3
1547,0.95,-0.18,0.3,0.61,-3.78,-1.83,339,455,405,470,263,3
1548,0.94,-0.19,0.29,-0.55,-2.93,-3.3,339,458,408,471,244,3
1549,0.94,-0.19,0.3,-1.46,-2.99,-1.89,340,454,407,467,239,3
1550,0.94,-0.19,0.3,-0.79,-2.26,-2.32,343,459,405,466,239,3
1551,0.94,-0.19,0.3,0.55,-2.69,-2.62,339,453,406,466,237,3
1552,0.96,-0.18,0.3,1.22,-4.09,-2.69,335,459,408,468,236,3
1553,0.95,-0.18,0.3,0.55,-2.2,-2.81,339,469,413,472,240,3
1554,0.94,-0.19,0.3,-1.1,-2.01,-1.4,340,452,403,468,237,3
1555,0.94,-0.19,0.3,2.62,-4.09,-3.05,331,454,405,465,236,3
1556,0.94,-0.18,0.3,1.53,-2.56,-2.38,339,449,404,472,238,3
1557,0.94,-0.19,0.28,2.01,-4.46,-3.54,339,460,402,468,237,3
1558,0.94,-0.17,0.3,-0.06,-2.2,-2.69,336,449,408,472,237,3
1559,0.95,-0.17,0.28,-0.18,-2.38,-1.89,338,458,404,471,240,3
1560,0.96,-0.16,0.28,1.83,-4.15,-2.32,337,455,405,470,238,3
1561,0.95,-0.17,0.28,-0.31,-3.97,-1.65,338,453,405,471,234,3
1562,0.96,-0.16,0.27,0.67,-5.0,-4.27,336,458,405,469,238,3
1563,0.96,-0.15,0.26,-10.86,-2.93,0.61,335,459,405,469,241,3
1564,0.95,-0.19,0.26,1.89,-3.3,-3.23,340,457,408,471,238,3
1565,0.95,-0.19,0.27,0.55,-3.48,-2.93,336,453,404,468,238,3
1566,0.96,-0.18,0.28,-2.32,-3.05,-3.72,337,457,404,469,238,3
1567,0.96,-0.18,0.27,0.06,-2.44,-2.75,335,454,407,468,239,3
1568,0.95,-0.18,0.26,-0.85,-3.66,-2.44,337,454,408,471,232,3
1569,0.95,-0.18,0.26,-1.22,-3.05,-2.44,338,454,402,468,236,3
1570,0.97,-0.18,0.26,0.92,-2.01,-1.95,334,455,404,465,239,3
1571,0.95,-0.19,0.26,-0.18,-2.87,-2.81,332,458,408,465,236,3
1572,0.96,-0.17,0.27,0.37,-1.71,-1.77,334,458,402,470,239,3
1573,0.95,-0.17,0.28,1.16,-1.53,-2.44,342,449,404,473,234,3
1574,0.95,-0.18,0.27,-0.24,-3.91,-2.38,338,449,412,464,239,3
1575,0.95,-0.18,0.27,-0.67,-2.56,-2.08,337,454,404,468,236,3
1576,0.96,-0.17,0.27,0.49,-2.81,-2.99,340,447,406,469,236,3
1577,0.96,-0.18,0.27,0.92,-2.44,-2.44,335,454,407,466,237,3
1578,0.95,-0.18,0.27,-0.73,-2.81,-2.14,337,459,405,468,234,3
1579,0.95,-0.18,0.27,-0.06,-3.6,-2.62,336,453,402,468,240,3
1580,0.96,-0.18,0.27,0.73,-3.91,-1.83,334,458,405,468,237,3
1581,0.94,-0.18,0.28,1.89,-2.32,-2.93,338,458,405,468,236,3
1582,0.96,-0.16,0.27,3.3,-4.15,-3.48,337,471,406,470,237,3
1583,0.96,-0.17,0.27,0.18,-3.36,-2.32,334,451,405,465,240,3
1584,0.95,-0.18,0.26,-0.43,-3.42,-2.14,336,455,408,468,234,3
1585,0.96,-0.17,0.26,0.43,-3.23,-1.77,335,457,402,470,238,3
1586,0.96,-0.17,0.27,0.73,-2.93,-2.93,337,457,407,475,235,3
1587,0.95,-0.17,0.27,-0.24,-2.08,-2.93,338,455,404,468,238,3
1588,0.95,-0.18,0.26,0.55,-3.36,-2.93,339,456,407,465,237,3
1589,0.96,-0.18,0.26,-0.12,-2.99,-2.93,337,451,406,470,245,3
1590,0.96,-0.17,0.27,-2.14,-0.55,-2.32,337,455,404,465,231,3
1591,0.89,-0.18,0.32,-15.5,-6.71,-0.61,333,455,402,462,242,3
1592,1.0,-0.28,0.01,-1.77,5.25,25.21,206,469,415,465,322,3
1593,1.02,-0.2,0.15,-18.74,2.26,-6.53,204,468,411,462,321,3
1594,1.05,-0.36,0.01,15.5,2.56,-11.54,202,472,415,461,322,3
1595,0.83,-0.27,0.17,-13.61,1.53,-11.41,206,475,420,461,326,3
1596,0.95,-0.24,0.08,-7.87,-12.21,18.19,194,474,414,460,326,3
1597,0.99,-0.19,0.15,37.11,-2.44,-5.25,206,475,415,461,326,3
1598,0.98,-0.26,0.13,1.4,5.13,-6.77,209,478,411,464,328,3
1599,0.99,-0.18,0.12,16.17,-3.6,-2.69,218,476,417,464,357,3
1600,0.91,-0.29,0.17,7.08,-13.98,8.48,210,478,414,464,340,3
1601,0.92,-0.32,0.14,3.97,3.54,-7.39,212,477,416,466,343,3
1602,0.94,-0.28,0.15,2.5,-8.67,-0.24,214,478,420,467,340,3
1603,0.89,-0.36,0.17,-23.38,-28.93,-24.17,237,482,412,474,344,3
1604,1.03,-0.25,-0.01,28.26,-10.19,-0.31,219,475,414,465,334,3
1605,0.92,-0.22,0.21,21.55,26.37,0.31,215,478,419,461,339,3
1606,0.96,-0.17,0.34,-39.79,44.19,-11.6,218,474,420,457,341,3
1607,1.1,-0.25,0.29,-6.77,-69.89,16.17,221,478,418,457,332,3
1608,0.77,-0.39,0.33,-16.66,70.43,-2.2,223,475,423,464,338,3
1609,1.05,-0.35,0.42,18.13,-86.61,-1.28,218,477,422,456,337,3
1610,0.76,-0.54,0.26,-4.15,-20.57,0.43,222,479,424,461,336,3
1611,0.87,-0.48,0.26,15.2,-16.97,-8.36,220,479,424,456,339,3
1612,0.86,-0.48,0.25,16.3,-10.74,-9.16,220,477,417,455,337,3
1613,0.89,-0.4,0.27,9.28,-10.44,-4.58,217,482,421,460,337,3
1614,0.87,-0.42,0.22,-12.27,-8.36,-15.32,221,479,419,462,329,3
1615,0.94,-0.35,0.16,11.72,-25.82,-0.18,216,474,422,458,323,3
1616,0.93,-0.37,0.09,1.16,-5.68,-15.08,217,481,417,462,327,3
1617,0.97,-0.28,0.06,-2.44,-8.54,-10.13,217,481,419,455,324,3
1618,0.95,-0.34,0.06,-3.36,-4.03,0.37,220,495,418,459,325,3
1619,0.96,-0.36,0.04,-4.21,-3.85,-2.38,218,483,421,457,322,3
1620,0.92,-0.36,0.03,1.95,-2.08,-6.65,221,474,415,451,323,3
1621,0.98,-0.28,0.04,1.83,-2.26,-8.06,221,476,420,456,322,3
1622,0.97,-0.24,0.11,4.09,1.1,1.16,223,471,419,456,319,3
1623,0.96,-0.26,0.09,-12.51,1.53,1.28,221,475,419,457,324,3
1624,0.89,-0.3,-0.06,19.59,-17.58,3.05,220,473,420,459,319,3
1625,0.94,-0.4,-0.05,3.91,-8.97,3.11,221,473,418,458,327,3
1626,0.89,-0.41,-0.01,11.47,0.06,-5.55,225,477,422,459,350,3
1627,0.96,-0.44,-0.03,-4.39,14.1,8.42,207,479,416,460,343,3
1628,0.81,-0.23,0.2,26.25,-7.51,-60.3,215,478,415,466,349,3
1629,1.07,-0.09,0.13,-3.36,-14.59,-0.43,215,476,421,467,347,3
1630,0.76,-0.55,0.14,-14.95,-2.01,27.4,216,478,420,471,342,3
1631,0.81,-0.54,0.13,10.38,-9.28,-2.44,214,482,421,469,345,3
1632,0.77,-0.39,0.07,-5.74,28.63,2.14,216,479,415,461,348,3
1633,0.88,-0.49,0.14,5.74,-2.08,-5.55,219,483,419,467,347,3
1634,0.93,-0.46,0.09,14.28,-27.28,7.14,221,479,420,465,345,3
1635,0.79,-0.53,0.17,-6.35,8.97,-6.41,254,485,420,465,345,3
1636,0.83,-0.51,0.12,7.39,-2.44,-0.98,220,482,419,465,347,3
1637,0.77,-0.56,0.22,-0.43,-2.81,-3.42,221,485,418,469,348,3
1638,0.84,-0.55,0.13,5.8,-5.0,0.31,219,480,426,465,342,3
1639,0.86,-0.55,0.12,-4.21,-4.27,-5.74,220,484,422,466,346,3
1640,0.81,-0.55,0.15,0.06,-0.24,-2.38,221,484,418,470,342,3
1641,0.81,-0.55,0.16,0.0,-3.3,-1.71,219,481,418,466,353,3
1642,0.83,-0.54,0.16,-0.85,-5.37,-3.91,220,482,421,465,342,3
1643,0.84,-0.54,0.16,0.98,-2.32,-3.97,220,485,417,464,344,3
1644,0.84,-0.54,0.14,9.4,-0.18,-0.85,213,484,415,463,346,3
1645,0.84,-0.53,0.16,1.46,-1.71,-2.75,221,483,415,460,346,3
1646,0.83,-0.54,0.18,0.24,-2.44,-2.14,220,479,425,467,349,3
1647,0.86,-0.53,0.16,-2.38,-3.6,-1.4,222,484,421,465,345,3
1648,0.86,-0.51,0.18,0.24,-5.68,-4.46,223,483,424,466,346,3
1649,0.85,-0.52,0.13,-0.73,-4.27,-2.56,236,482,419,468,347,3
1650,0.84,-0.52,0.15,-2.62,-3.42,-4.64,217,483,420,468,349,3
1651,0.84,-0.52,0.14,0.37,-3.72,-2.32,223,479,419,463,347,3
1652,0.85,-0.52,0.16,-1.1,-2.01,-2.75,222,484,419,464,346,3
1653,0.86,-0.51,0.14,3.23,-2.81,-2.08,221,485,419,471,348,3
1654,0.85,-0.52,0.16,-1.53,-2.2,-3.91,218,482,421,466,344,3
1655,0.84,-0.52,0.18,-6.29,1.16,-3.42,219,482,418,462,341,3
1656,0.8,-0.55,0.12,0.43,-10.86,-4.15,229,481,417,465,343,3
1657,0.92,-0.46,0.16,-9.09,-5.43,-5.49,217,482,416,466,333,3
1658,0.77,-0.52,0.03,-24.23,-4.03,10.07,212,482,418,461,314,3
1659,0.81,-0.53,0.06,-12.27,-2.2,10.19,202,483,413,466,287,3
1660,0.87,-0.53,-0.06,2.87,-26.43,-10.44,207,481,413,463,284,3
1661,0.86,-0.53,-0.07,4.7,-0.73,-8.73,228,478,414,460,329,3
1662,0.96,-0.46,-0.2,-1.34,-6.1,2.14,254,484,410,469,324,3
1663,0.86,-0.42,-0.15,23.62,-31.92,-8.97,233,466,413,451,327,3
1664,0.94,-0.46,-0.04,-17.09,-1.1,-16.36,243,463,420,441,316,3
1665,0.88,-0.44,-0.1,15.08,6.29,4.27,240,470,416,464,310,3
1666,0.81,-0.52,0.08,4.64,4.7,-9.64,237,478,420,463,346,3
1667,0.95,-0.42,-0.17,-7.81,7.87,-1.1,215,479,420,465,341,3
1668,0.78,-0.55,-0.05,-13.31,19.17,-37.17,213,476,418,458,328,3
1669,0.86,-0.52,-0.01,13.0,-6.77,-0.98,218,483,422,472,340,3
1670,0.83,-0.54,0.03,-16.91,-9.95,-6.53,219,481,421,467,355,3
1671,0.82,-0.54,0.05,-5.49,5.37,-3.11,225,483,417,468,355,3
1672,0.9,-0.5,0.02,-8.36,0.55,8.06,237,481,421,461,346,3
1673,0.83,-0.5,-0.01,-1.77,6.84,-11.05,244,480,417,449,324,3
1674,0.86,-0.52,0.06,-3.42,-3.72,-2.87,236,478,423,456,332,3
1675,0.84,-0.5,0.1,3.11,-3.36,-5.07,245,482,421,461,343,3
1676,0.85,-0.48,0.1,-1.71,-2.75,-7.26,244,482,424,464,343,3
1677,0.87,-0.34,0.21,12.45,48.4,-27.22,245,415,423,462,343,3
1678,0.67,-0.52,0.2,-7.45,35.22,13.67,243,474,422,465,343,3
1679,0.91,-0.34,0.36,-37.96,-15.69,-12.57,246,482,436,462,342,3
1680,0.88,-0.39,0.11,-33.75,9.4,-15.5,251,487,424,465,345,3
1681,0.9,-0.49,-0.05,-86.43,-15.2,-25.02,241,485,425,463,339,3
1682,0.92,-0.32,-0.05,-39.86,14.83,6.96,252,488,428,459,341,3
1683,0.56,-0.43,-0.07,80.32,12.27,28.75,250,484,426,462,344,3
1684,0.99,-0.29,-0.12,9.95,-8.91,12.02,256,473,426,442,342,3
1685,0.8,-0.3,-0.25,-36.25,-6.9,-47.67,253,465,412,447,365,3
1686,0.94,-0.35,-0.02,88.13,-15.81,1.4,232,465,410,450,323,3
1687,0.93,-0.4,-0.08,18.13,13.85,-8.12,227,474,413,454,327,3
1688,1.3,-0.15,-0.12,-16.05,17.94,-30.82,230,474,413,463,331,3
1689,0.85,-0.25,0.34,-71.96,87.52,-44.68,233,476,414,463,332,3
1690,1.04,-0.16,0.23,-12.33,-22.22,-10.93,232,472,414,463,336,3
1691,0.9,-0.2,0.25,-14.16,-20.39,82.03,260,476,415,460,336,3
1692,0.87,-0.43,-0.02,-19.17,38.7,-33.81,234,480,416,465,337,3
1693,1.08,-0.15,0.16,-6.16,32.41,-22.58,233,467,411,461,329,3
1694,1.01,-0.17,0.17,-14.16,-4.7,4.03,236,475,417,463,327,3
1695,0.94,-0.2,0.2,-5.43,-5.74,3.6,234,477,422,457,328,3
1696,0.96,-0.31,0.14,-12.76,-9.28,7.14,242,478,427,460,331,3
1697,0.95,-0.36,0.05,-26.0,-5.31,16.78,235,479,430,460,332,3
1698,0.87,-0.37,0.02,14.47,-3.36,8.85,236,477,428,457,330,3
1699,0.9,-0.44,0.05,-3.85,0.55,-2.08,236,493,424,462,330,3
1700,0.9,-0.42,0.03,24.96,3.91,-0.06,231,482,422,460,333,3
1701,0.91,-0.43,0.13,10.5,-2.32,-6.29,239,481,425,465,333,3
1702,0.84,-0.48,0.1,-0.06,-3.23,-2.87,236,482,436,465,334,3
1703,0.87,-0.46,0.16,-2.62,-1.83,0.06,235,480,428,460,336,3
1704,0.92,-0.41,0.12,7.63,-5.98,-13.55,235,477,421,470,338,3
1705,0.92,-0.39,0.14,-7.08,-3.36,-1.16,234,482,425,458,338,3
1706,0.9,-0.41,0.11,-1.34,-3.11,-2.32,238,477,426,459,340,3
1707,0.9,-0.41,0.12,0.85,-2.56,-2.93,239,485,421,455,336,3
1708,0.9,-0.41,0.12,1.34,-2.56,-2.81,237,478,426,463,338,3
1709,0.9,-0.41,0.14,-0.06,-1.16,-1.89,240,481,424,456,339,3
1710,0.78,-0.49,0.16,26.86,47.12,16.6,241,481,424,464,337,3
1711,0.84,-0.39,0.39,0.55,-0.31,-8.85,241,480,423,459,335,3
1712,0.85,-0.45,0.37,0.61,-5.25,-2.99,239,481,424,457,338,3
1713,0.82,-0.48,0.32,0.31,-12.63,0.31,237,480,427,461,340,3
1714,0.8,-0.49,0.32,-7.63,-5.62,7.81,239,484,419,459,340,3
1715,0.83,-0.51,0.3,-15.01,-7.02,15.81,240,481,429,459,339,3
1716,0.78,-0.56,0.3,3.6,-1.34,-8.97,240,478,423,461,340,3
1717,0.78,-0.55,0.28,5.86,-4.39,-3.72,241,481,424,461,337,3
1718,0.79,-0.55,0.31,-1.53,-0.98,-4.27,243,479,423,457,337,3
1719,0.8,-0.54,0.26,5.55,-5.13,-0.85,240,482,425,460,337,3
1720,0.78,-0.55,0.29,-1.16,-1.77,-3.6,241,481,428,461,338,3
1721,0.8,-0.55,0.29,2.93,-5.0,-1.83,241,480,425,464,339,3
1722,0.8,-0.53,0.28,1.04,-4.27,-3.85,241,482,424,460,338,3
1723,0.82,-0.53,0.26,3.85,-4.76,-3.05,242,482,425,455,342,3
1724,0.8,-0.54,0.27,0.55,-5.07,-2.5,247,478,424,461,338,3
1725,0.81,-0.53,0.26,-1.71,-2.99,-3.3,242,481,421,465,339,3
1726,0.81,-0.53,0.26,1.89,-4.39,-1.89,242,482,424,456,341,3
1727,0.83,-0.53,0.25,1.65,-5.13,-2.14,242,484,421,461,340,3
1728,0.82,-0.54,0.26,-1.1,-3.17,-3.36,243,482,424,460,339,3
1729,0.81,-0.53,0.25,2.69,-4.64,-1.22,243,480,425,465,337,3
1730,0.81,-0.54,0.27,-4.27,-0.98,-3.97,243,484,420,458,339,3
1731,0.81,-0.54,0.25,1.4,-2.99,-2.38,246,482,424,457,338,3
1732,0.83,-0.53,0.25,2.44,-3.97,-1.65,241,479,424,465,337,3
1733,0.83,-0.54,0.26,0.85,-4.21,-3.11,245,480,424,463,339,3
1734,0.82,-0.52,0.25,2.81,-3.72,-2.75,245,485,424,459,336,3
1735,0.8,-0.54,0.27,2.38,-3.36,-5.31,243,482,424,463,338,3
1736,0.82,-0.51,0.27,-0.12,-4.21,-3.85,245,480,421,461,340,3
1737,0.82,-0.52,0.26,-0.67,-2.32,-4.21,244,482,426,457,341,3
1738,0.82,-0.52,0.26,-0.18,-2.87,-3.6,245,484,428,461,341,3
1739,0.82,-0.52,0.26,1.4,-2.44,-2.62,246,480,426,458,339,3
1740,0.83,-0.51,0.25,-3.17,-2.26,-4.21,238,484,424,456,340,3
1741,0.81,-0.52,0.26,1.1,-4.58,-2.32,244,485,422,465,344,3
1742,0.81,-0.51,0.26,1.28,-2.32,-1.77,270,482,424,457,341,3
1743,0.81,-0.52,0.27,-0.18,-2.56,-3.11,247,482,426,462,339,3
1744,0.83,-0.51,0.25,0.43,-2.32,-2.44,248,479,424,471,342,3
1745,0.82,-0.51,0.27,2.14,-3.36,-2.69,244,483,423,465,341,3
1746,0.83,-0.51,0.26,2.44,-4.88,-2.87,245,485,423,457,339,3
1747,0.82,-0.51,0.28,0.12,-4.7,-3.17,247,481,423,463,337,3
1748,0.82,-0.51,0.26,0.12,-4.03,-3.05,248,483,426,462,340,3
1749,0.82,-0.51,0.27,1.4,-3.05,-3.66,248,481,422,464,342,3
1750,0.83,-0.51,0.26,-1.95,-3.78,-3.66,246,483,424,465,336,3
1751,0.83,-0.5,0.26,0.43,-3.85,-2.38,248,482,424,458,341,3
1752,0.83,-0.51,0.26,-0.79,-3.3,-2.08,247,484,424,461,342,3
1753,0.84,-0.51,0.25,0.49,-2.75,-2.75,245,483,421,460,339,3
1754,0.82,-0.52,0.26,-0.18,-2.93,-3.23,245,484,422,462,339,3
1755,0.83,-0.52,0.26,-0.85,-2.5,-3.42,246,482,430,461,341,3
1756,0.83,-0.51,0.26,1.89,-3.3,-2.87,245,484,425,456,337,3
1757,0.83,-0.51,0.26,1.22,-3.66,-2.99,247,483,422,461,339,3
1758,0.85,-0.5,0.24,0.24,-4.03,-2.32,246,482,427,460,341,3
1759,0.84,-0.5,0.24,1.65,-4.58,-1.59,240,481,420,460,342,3
1760,0.85,-0.51,0.24,-0.31,-3.54,-3.17,252,480,424,470,336,3
1761,0.84,-0.51,0.25,-0.24,-4.27,-2.2,247,485,423,460,339,3
1762,0.83,-0.51,0.24,-1.59,-2.75,-4.15,247,481,426,460,338,3
1763,0.85,-0.5,0.24,0.37,-3.78,-2.14,246,479,434,461,339,3
1764,0.83,-0.51,0.24,1.1,-3.05,-1.95,247,479,427,465,340,3
1765,0.82,-0.51,0.25,-0.67,-3.17,-2.62,244,483,424,462,337,3
1766,0.83,-0.51,0.23,1.95,-4.33,-3.48,249,483,424,460,341,3
1767,0.83,-0.51,0.24,1.71,-1.71,-3.36,248,483,424,464,338,3
1768,0.83,-0.51,0.25,1.53,-2.87,-3.05,247,483,426,464,341,3
1769,0.84,-0.5,0.25,-0.18,-3.54,-4.27,245,481,424,461,339,3
1770,0.84,-0.49,0.26,2.2,-3.42,-1.04,245,481,424,460,340,3
1771,0.84,-0.5,0.25,0.61,-3.05,-2.26,247,480,423,460,341,3
1772,0.83,-0.5,0.25,-0.73,-4.03,-3.42,248,482,424,459,339,3
1773,0.84,-0.5,0.24,1.28,-3.78,-2.93,247,482,426,463,339,3
1774,0.82,-0.51,0.25,0.18,-2.81,-2.26,249,485,423,463,342,3
1775,0.82,-0.51,0.25,0.55,-3.3,-2.5,243,483,421,472,338,3
1776,0.83,-0.51,0.25,1.53,-2.81,-2.01,244,485,422,460,338,3
1777,0.84,-0.51,0.24,-0.12,-0.98,-3.72,249,485,422,455,340,3
1778,0.82,-0.5,0.26,1.89,-3.85,-2.75,250,482,424,453,339,3
1779,0.81,-0.5,0.26,3.97,-2.56,-5.92,246,480,424,458,340,3
1780,0.83,-0.48,0.26,3.3,-4.46,-4.58,250,485,421,463,342,3
1781,0.84,-0.47,0.27,2.69,-2.99,-4.46,247,484,423,460,339,3
1782,0.86,-0.48,0.27,-1.04,-2.93,-2.2,244,484,423,459,336,3
1783,0.82,-0.41,0.22,-6.96,-11.29,0.37,248,479,425,461,338,3
1784,0.91,-0.58,0.18,0.85,-5.0,-7.08,249,483,422,460,338,3
1785,0.74,-0.57,0.19,-0.24,4.76,-3.11,249,479,425,458,340,3
1786,0.8,-0.52,0.19,3.42,-2.69,-2.5,248,487,423,463,335,3
1787,0.87,-0.53,0.12,3.23,-16.54,-5.74,249,478,426,460,338,3
1788,0.78,-0.55,0.15,3.97,1.89,0.61,245,483,423,461,345,3
1789,0.84,-0.55,0.17,1.16,-2.44,-1.4,246,482,422,454,341,3
1790,0.83,-0.54,0.18,-1.16,-1.77,-6.53,249,493,425,460,340,3
1791,0.82,-0.52,0.19,-3.91,-2.01,-7.51,251,483,422,456,339,3
1792,0.82,-0.53,0.18,2.01,-2.81,-1.28,248,478,421,454,338,3
1793,0.85,-0.52,0.15,2.93,-4.58,-1.04,248,480,423,459,340,3
1794,0.83,-0.53,0.18,0.06,-3.23,-3.42,247,481,419,459,340,3
1795,0.83,-0.52,0.18,-1.95,-2.32,-3.3,248,482,422,460,336,3
1796,0.83,-0.52,0.17,1.46,-2.99,-2.5,249,484,426,460,339,3
1797,0.84,-0.52,0.16,-0.37,-2.62,-2.93,247,485,425,460,339,3
1798,0.84,-0.53,0.16,0.73,-4.64,-3.17,248,480,422,459,340,3
1799,0.84,-0.53,0.18,-2.75,-1.53,-4.52,247,483,422,459,340,3
1800,0.85,-0.52,0.16,1.34,-2.62,-3.3,244,485,426,465,341,3
1801,0.84,-0.51,0.18,1.34,-1.89,-2.93,248,483,422,460,340,3
1802,0.84,-0.51,0.18,0.12,-2.08,-4.15,250,486,420,464,338,3
1803,0.83,-0.51,0.18,-0.43,-2.75,-1.89,248,480,424,460,343,3
1804,0.83,-0.52,0.18,-1.83,-3.97,0.55,251,494,427,457,339,3
1805,0.83,-0.53,0.2,0.67,-1.95,0.06,248,483,426,457,339,3
1806,0.84,-0.54,0.19,1.1,-2.44,-3.11,247,483,424,460,338,3
1807,0.81,-0.54,0.2,0.24,-1.77,-2.38,247,488,427,459,339,3
1808,0.83,-0.53,0.18,2.87,-3.36,-2.93,249,480,423,459,343,3
1809,0.84,-0.53,0.18,-0.85,-3.36,-6.41,250,481,426,458,339,3
1810,0.84,-0.5,0.18,2.56,-2.75,-1.77,252,484,422,462,339,3
1811,0.82,-0.54,0.19,2.14,-1.95,-3.23,248,484,425,457,339,3
1812,0.83,-0.52,0.2,0.79,-3.66,-3.05,249,480,425,456,340,3
1813,0.84,-0.52,0.2,0.92,-2.87,-1.53,248,484,424,464,340,3
1814,0.84,-0.53,0.2,-1.28,-1.83,-3.66,251,483,426,454,341,3
1815,0.83,-0.53,0.18,0.49,-2.56,-3.85,248,483,420,458,340,3
1816,0.84,-0.53,0.17,0.12,-3.11,-2.62,248,486,427,467,339,3
1817,0.86,-0.52,0.19,-0.31,-2.75,-3.72,249,479,422,454,338,3
1818,0.83,-0.51,0.22,-0.43,-5.07,-2.5,245,482,423,463,339,3
1819,0.81,-0.53,0.21,1.16,0.92,-3.72,248,481,421,460,339,3
1820,0.83,-0.51,0.21,-0.55,-2.5,-4.88,246,482,423,459,338,3
1821,0.83,-0.54,0.19,-0.67,-1.83,-3.85,261,481,421,454,340,3
1822,0.83,-0.53,0.21,0.06,-3.11,-2.62,249,490,423,458,340,3
1823,0.83,-0.52,0.21,-0.43,-4.58,-3.85,251,491,419,460,340,3
1824,0.83,-0.52,0.2,0.98,-4.33,-2.56,249,485,421,462,341,3
1825,0.83,-0.52,0.21,0.37,-2.56,-2.38,275,485,422,459,339,3
1826,0.83,-0.52,0.2,0.0,-2.62,-3.54,248,482,423,460,342,3
1827,0.84,-0.51,0.21,-1.04,-2.69,-3.48,247,484,425,463,340,3
1828,0.83,-0.52,0.2,0.61,-2.38,-1.95,249,484,425,464,341,3
1829,0.84,-0.52,0.19,1.46,-2.56,-3.3,249,487,423,463,340,3
1830,0.83,-0.51,0.2,2.56,-2.32,-2.26,252,484,430,461,341,3
1831,0.84,-0.52,0.2,0.85,-2.81,-3.11,250,486,431,464,340,3
1832,0.88,-0.5,0.21,-2.81,-1.04,-2.81,248,487,424,460,340,3
1833,0.82,-0.53,0.16,-1.4,-8.18,-1.1,246,479,422,463,342,3
1834,0.95,-0.42,0.13,16.91,-14.22,-5.25,248,487,423,456,339,3
1835,0.97,-0.54,0.02,13.18,2.44,8.3,246,481,427,460,337,3
1836,0.91,-0.48,0.25,-47.42,-47.42,-24.05,259,483,419,455,302,3
1837,0.81,-0.62,0.06,4.39,4.88,14.04,245,481,418,461,296,3
1838,0.78,-0.63,0.08,0.85,-5.43,-3.05,247,475,418,461,303,3
1839,0.77,-0.63,0.08,4.52,-1.65,-4.64,246,485,418,459,304,3
1840,0.77,-0.63,0.09,-4.52,-7.14,-9.34,246,480,415,457,307,3
1841,0.8,-0.59,0.03,-6.04,43.88,-29.6,239,477,418,454,329,3
1842,0.91,-0.5,0.23,-40.47,20.45,20.69,242,483,422,462,336,3
1843,0.77,-0.55,0.17,20.63,11.96,-15.38,241,483,421,460,335,3
1844,0.82,-0.43,0.27,11.05,18.37,-20.57,246,482,423,461,337,3
1845,0.83,-0.58,0.24,-20.81,-5.49,-17.52,245,483,417,460,332,3
1846,0.84,-0.51,0.2,-9.64,-5.92,-4.39,246,478,424,461,336,3
1847,0.84,-0.54,0.14,-3.48,-7.57,-3.3,246,478,420,458,334,3
1848,0.89,-0.47,0.16,-2.93,0.73,-8.12,243,481,419,464,335,3
1849,0.87,-0.49,0.14,-4.88,-3.05,-3.6,249,482,422,459,334,3
1850,0.86,-0.5,-0.01,-19.04,17.15,1.89,244,479,423,460,338,3
1851,0.92,-0.54,-0.03,6.23,-0.92,-1.04,245,481,423,460,333,3
1852,0.84,-0.5,0.03,-2.87,-4.94,-1.04,248,485,419,461,336,3
1853,0.85,-0.5,0.04,5.8,1.65,-1.28,245,483,420,461,333,3
1854,0.83,-0.52,0.0,-7.57,-5.74,5.19,247,480,418,457,331,3
1855,0.85,-0.53,0.03,-1.89,1.65,-7.39,275,483,420,458,332,3
1856,0.87,-0.48,0.06,-9.89,-2.69,-16.05,247,486,420,459,331,3
1857,0.92,-0.48,0.07,5.55,-8.54,-1.59,248,478,418,456,319,3
1858,0.91,-0.49,-0.03,4.58,-12.45,-3.17,243,483,418,459,330,3
1859,0.86,-0.5,0.01,-2.32,-1.53,-2.87,246,483,419,458,330,3
1860,0.83,-0.55,0.01,-2.93,-2.01,6.65,246,484,419,458,326,3
1861,0.84,-0.51,-0.02,8.85,-9.16,1.16,246,480,417,458,328,3
1862,0.83,-0.6,-0.03,-11.17,-7.87,-6.16,245,484,419,461,330,3
1863,0.87,-0.51,-0.01,0.37,0.73,-4.52,275,480,419,455,330,3
1864,0.86,-0.56,-0.05,-7.14,-3.85,-1.4,243,484,420,457,330,3
1865,0.83,-0.54,-0.0,6.29,1.1,-4.39,251,485,414,458,328,3
1866,0.84,-0.52,-0.03,-1.16,-4.64,-5.19,253,481,419,455,328,3
1867,0.87,-0.52,-0.02,-1.83,-3.11,-3.11,246,483,420,460,329,3
1868,0.85,-0.53,-0.04,0.55,-2.75,-4.27,250,484,415,458,329,3
1869,0.83,-0.48,-0.06,-0.67,-0.12,-1.53,247,481,418,455,327,3
1870,0.9,-0.46,0.01,14.16,-7.08,-0.85,244,482,414,459,327,3
1871,0.95,-0.47,0.01,29.54,-23.32,-7.08,246,480,415,457,329,3
1872,0.86,-0.5,0.04,8.61,-5.25,3.97,250,480,422,458,329,3
1873,0.89,-0.49,0.04,-11.9,-0.12,-5.8,247,479,419,460,330,3
1874,0.78,-0.52,0.08,-16.78,-15.56,-22.28,253,482,418,459,330,3
1875,1.04,-0.36,-0.04,-16.66,1.59,-27.4,247,484,418,456,333,3
1876,0.82,-0.12,0.04,56.58,35.71,-15.81,247,483,420,457,331,3
1877,1.05,-0.25,0.09,-5.37,-30.33,-5.98,248,482,419,456,328,3
1878,1.06,-0.13,-0.04,19.96,-18.62,-22.16,248,480,418,454,328,3
1879,1.16,-0.2,-0.1,29.6,-13.12,-0.24,249,483,419,451,321,3
1880,0.95,0.03,-0.04,13.55,-5.98,-8.79,248,481,421,455,325,3
1881,0.76,-0.03,0.07,-0.49,0.67,5.68,249,483,419,453,325,3
1882,1.01,0.03,-0.02,-1.16,-0.24,-9.16,247,480,422,453,327,3
1883,1.0,0.03,0.12,-3.6,-0.43,-15.44,246,483,415,452,328,3
1884,1.04,0.02,-0.18,-17.76,-11.9,4.21,255,485,421,454,326,3
1885,0.99,0.0,-0.15,-13.43,-11.41,7.2,250,483,420,454,328,3
1886,1.13,-0.14,-0.09,19.1,-10.99,63.84,249,482,423,456,325,3
1887,0.86,-0.53,-0.14,-40.28,2.38,19.1,247,482,418,457,328,3
1888,1.04,-0.52,-0.04,4.21,-3.05,22.09,248,485,419,455,327,3
1889,0.74,-0.62,-0.18,-1.71,0.18,7.51,249,482,418,458,328,3
1890,0.63,-0.59,0.05,17.76,24.35,31.31,251,477,423,457,329,3
1891,0.76,-0.7,0.07,8.0,-0.37,-14.47,247,479,419,457,327,3
1892,0.69,-0.62,0.2,-16.91,12.76,-1.16,250,481,419,459,327,3
1893,0.82,-0.63,0.15,-8.61,4.03,-1.65,248,482,423,455,328,3
1894,0.81,-0.57,0.14,1.71,-0.43,-1.65,250,481,422,461,327,3
1895,0.76,-0.6,0.17,-2.01,-4.76,-1.71,248,478,416,457,326,3
1896,0.8,-0.58,0.11,-5.37,-7.08,-2.14,248,482,420,456,328,3
1897,0.81,-0.59,0.1,0.12,-2.2,-1.59,249,481,419,460,325,3
1898,0.77,-0.62,0.12,-1.1,-0.37,-3.11,248,482,422,458,327,3
1899,0.78,-0.6,0.09,-3.97,-11.9,1.83,249,493,419,460,329,3
1900,0.79,-0.63,0.04,-8.0,-15.44,-3.6,247,484,421,454,323,3
1901,0.82,-0.62,-0.02,0.37,-1.89,-5.37,250,483,420,452,326,3
1902,0.77,-0.64,0.0,3.05,-0.79,-1.04,248,482,419,453,329,3
1903,0.77,-0.63,0.03,3.42,-5.0,-2.38,246,499,416,458,327,3
1904,0.77,-0.65,-0.01,0.55,-3.17,-2.44,265,481,418,458,326,3
1905,0.76,-0.63,0.01,2.75,-2.32,-1.89,259,483,419,457,324,3
1906,0.77,-0.66,0.02,-3.42,-3.78,-2.5,245,483,422,451,323,3
1907,0.74,-0.66,0.01,-0.18,-2.32,-2.93,251,483,419,455,328,3
1908,0.73,-0.65,0.02,0.55,-5.92,2.81,246,481,417,457,326,3
1909,0.79,-0.68,-0.02,-0.37,3.11,0.73,247,483,420,456,325,3
1910,0.72,-0.7,0.03,-2.81,2.26,-8.73,261,485,418,457,327,3
1911,0.73,-0.64,0.05,5.37,-3.85,-3.3,250,482,415,457,326,3
1912,0.76,-0.65,0.05,7.93,0.06,-1.71,251,481,418,457,329,3
1913,0.77,-0.62,0.13,13.24,0.49,-6.41,251,482,421,461,328,3
1914,0.77,-0.56,0.24,-4.52,2.2,0.12,268,481,422,459,329,3
1915,0.78,-0.57,0.21,-4.52,-8.42,3.36,251,482,432,460,330,3
1916,0.77,-0.64,0.17,-4.94,-7.45,5.8,247,482,421,457,328,3
1917,0.77,-0.56,0.14,-15.99,8.3,-3.91,249,482,421,457,326,3
1918,0.81,-0.6,0.03,5.86,-1.53,-10.13,249,485,419,460,328,3
1919,0.75,-0.63,0.09,3.66,-2.56,0.06,251,486,421,456,328,3
1920,0.88,-0.57,0.02,-22.28,-6.65,-15.81,249,483,423,456,330,3
1921,0.76,-0.59,0.08,11.78,-8.67,4.82,249,482,420,453,330,3
1922,0.78,-0.61,0.02,-6.84,-4.46,-9.64,252,482,421,470,328,3
1923,0.8,-0.63,0.04,-5.49,-0.31,-12.76,252,481,420,462,330,3
1924,0.8,-0.62,0.03,3.6,-2.75,-1.53,250,482,423,453,327,3
1925,0.78,-0.61,0.05,4.52,1.71,-5.43,252,478,419,453,331,3
1926,0.83,-0.6,0.02,2.2,-5.74,-5.19,254,486,423,462,326,3
1927,0.8,-0.6,0.02,0.12,-3.42,-1.04,247,480,420,456,330,3
1928,0.83,-0.54,0.08,-0.98,-4.58,1.95,250,483,421,458,330,3
1929,0.83,-0.6,-0.02,2.5,-6.59,3.72,251,486,419,462,328,3
1930,0.82,-0.59,0.05,5.49,-7.75,-2.5,245,479,421,457,332,3
1931,0.8,-0.57,0.04,-5.13,1.34,-9.28,248,484,420,457,330,3
1932,0.83,-0.58,0.02,-0.67,-2.26,-6.9,248,482,420,452,329,3
1933,0.82,-0.57,0.04,-1.4,0.24,0.98,249,486,417,458,330,3
1934,0.82,-0.58,0.07,-0.85,-2.99,-0.12,249,482,419,453,329,3
1935,0.81,-0.59,0.05,7.08,-4.46,-2.44,248,482,422,459,331,3
1936,0.81,-0.61,0.05,-2.5,-4.52,-3.48,250,482,418,454,328,3
1937,0.78,-0.6,0.08,2.81,0.73,0.31,250,482,418,457,332,3
1938,0.76,-0.63,0.08,4.76,-5.07,-2.44,250,482,418,455,334,3
1939,0.79,-0.62,0.08,3.23,-3.66,-1.46,254,483,420,457,334,3
1940,0.77,-0.61,0.09,-0.18,-2.56,-4.03,256,482,417,456,333,3
1941,0.79,-0.61,0.07,-0.73,-3.6,-2.5,250,484,418,458,333,3
1942,0.78,-0.62,0.08,-0.06,-3.3,-2.32,251,481,415,461,332,3
1943,0.78,-0.62,0.09,-0.24,-2.26,-3.66,253,480,415,461,331,3
1944,0.8,-0.61,0.07,1.65,-5.92,-1.83,251,483,419,455,329,3
1945,0.79,-0.58,0.06,1.04,-3.3,-2.99,247,479,422,458,326,3
1946,0.82,-0.6,0.06,-0.06,-3.17,-2.26,256,481,419,457,332,3
1947,0.8,-0.6,0.06,-0.37,-2.44,-4.03,251,486,418,453,333,3
1948,0.79,-0.59,0.07,0.06,-1.77,-1.65,251,485,417,464,331,3
1949,0.8,-0.6,0.06,0.79,-4.15,-3.66,252,483,422,458,331,3
1950,0.8,-0.6,0.07,-0.06,-1.28,-2.69,250,489,421,458,330,3
1951,0.79,-0.6,0.07,0.92,-2.99,-3.78,252,484,419,465,330,3
1952,0.81,-0.59,0.08,2.5,-2.38,-0.12,251,483,415,460,333,3
1953,0.79,-0.6,0.08,-2.2,-4.03,0.37,253,484,418,462,331,3
1954,0.79,-0.61,0.07,0.31,-1.16,-1.95,250,485,425,461,334,3
1955,0.8,-0.61,0.07,1.71,-4.39,-3.97,253,479,418,461,331,3
1956,0.83,-0.63,0.06,2.32,-3.78,-3.91,252,487,416,460,330,3
1957,0.79,-0.6,0.09,0.85,-0.31,-0.98,250,481,419,455,331,3
1958,0.77,-0.62,0.1,0.55,-2.93,-0.49,251,481,421,452,331,3
1959,0.77,-0.63,0.09,0.61,-2.32,-3.11,250,485,418,457,328,3
1960,0.78,-0.63,0.08,2.01,-3.72,-3.17,252,486,419,459,333,3
1961,0.78,-0.63,0.07,1.34,-6.1,-0.43,248,488,423,457,332,3
1962,0.76,-0.63,0.09,0.18,-1.77,-3.36,249,482,420,455,327,3
1963,0.78,-0.63,0.09,-0.18,-2.62,-3.23,254,483,419,463,331,3
1964,0.77,-0.63,0.09,0.06,-3.3,-3.72,253,486,419,463,330,3
1965,0.8,-0.63,0.07,1.1,-4.46,-2.62,250,482,418,457,331,3
1966,0.75,-0.68,0.04,-1.71,-2.56,-3.78,253,483,416,458,333,3
1967,0.79,-0.61,0.09,-3.54,-2.2,-5.98,251,481,417,457,332,3
1968,0.78,-0.61,0.09,-0.37,-4.7,-2.08,250,482,418,460,332,3
1969,0.79,-0.6,0.08,0.61,-2.56,-1.53,250,482,421,461,334,3
1970,0.83,-0.63,0.02,-1.28,-0.85,-5.19,253,482,425,452,333,3
1971,0.8,-0.58,0.09,2.08,-2.5,-4.03,250,482,418,453,332,3
1972,0.8,-0.61,0.09,1.89,-3.11,-1.83,251,484,416,458,329,3
1973,0.81,-0.61,0.03,-2.26,-1.46,-5.43,251,484,417,456,328,3
1974,0.82,-0.59,0.1,1.83,-2.44,-2.32,253,481,417,460,331,3
1975,0.8,-0.6,0.09,1.4,-2.2,-3.6,253,488,418,456,332,3
1976,0.8,-0.59,0.08,0.12,-5.31,-1.83,252,484,417,459,331,3
1977,0.8,-0.59,0.1,0.67,-3.17,-2.62,251,481,419,457,331,3
1978,0.81,-0.6,0.09,1.53,-2.62,-4.33,252,482,415,462,341,3
1979,0.81,-0.59,0.1,0.61,-2.5,-2.87,253,484,419,457,331,3
1980,0.78,-0.59,0.12,2.44,-1.71,-1.59,251,478,416,456,333,3
1981,0.81,-0.59,0.11,1.89,-2.01,-1.46,242,482,417,462,330,3
1982,0.81,-0.61,0.09,-0.73,-2.81,-3.85,252,482,420,458,327,3
1983,0.79,-0.59,0.08,-1.89,-4.52,-3.36,248,486,416,461,331,3
1984,0.82,-0.6,0.08,0.79,-1.59,-3.3,251,478,418,459,332,3
1985,0.81,-0.58,0.09,-1.1,-2.44,-3.42,251,483,417,460,334,3
1986,0.81,-0.6,0.08,-1.34,-3.11,-2.44,251,478,416,457,332,3
1987,0.79,-0.6,0.07,-0.85,-0.18,-3.91,255,481,420,452,331,3
1988,0.77,-0.59,0.07,-2.14,-2.08,-2.26,251,481,417,458,333,3
1989,0.8,-0.59,0.04,-0.43,-2.2,-0.73,254,480,419,454,331,3
1990,0.8,-0.61,0.04,-2.75,-2.44,-4.7,254,481,417,457,329,3
1991,0.77,-0.62,0.02,0.98,-3.6,-5.25,255,481,416,456,335,3
1992,0.78,-0.61,0.02,-0.79,-1.77,-3.54,251,481,416,462,335,3
1993,0.82,-0.59,0.01,0.43,-2.5,-2.44,252,484,417,464,334,3
1994,0.81,-0.6,0.02,-1.4,-4.15,-4.15,256,478,420,458,332,3
1995,0.78,-0.61,-0.01,-0.73,-2.93,-2.38,254,483,413,461,336,3
1996,0.81,-0.61,0.01,0.37,-2.08,-3.11,250,493,425,461,331,3
1997,0.81,-0.61,0.02,6.84,-0.24,-2.08,252,481,421,469,332,3
1998,0.79,-0.61,0.02,0.06,-4.15,-2.32,256,480,418,456,332,3
1999,0.79,-0.62,0.01,-0.37,-5.68,-3.42,252,478,418,463,333,3
2000,0.78,-0.62,0.02,-3.11,-0.49,-4.33,253,481,416,455,333,3
2001,0.8,-0.62,0.03,-0.79,-2.2,-3.11,255,482,417,454,332,3
2002,0.78,-0.62,0.02,-0.49,-4.64,-6.23,256,483,412,460,333,3
2003,0.77,-0.62,0.03,4.88,-2.32,-2.26,253,480,413,453,330,3
2004,0.78,-0.61,0.07,5.25,-3.36,-2.08,249,478,414,456,330,3
2005,0.8,-0.61,0.05,0.61,-3.91,-3.78,251,481,419,459,335,3
2006,0.8,-0.6,0.04,-1.46,-3.3,-2.2,251,481,416,456,330,3
2007,0.81,-0.6,0.02,0.61,-3.36,-0.92,253,479,417,456,336,3
2008,0.79,-0.58,0.03,0.61,-3.17,-3.6,254,482,419,456,334,3
2009,0.79,-0.59,0.03,1.65,-2.99,-1.16,252,482,414,450,336,3
2010,0.81,-0.59,0.06,1.77,-4.7,-1.16,260,482,417,458,358,3
2011,0.83,-0.55,0.02,33.51,-22.95,4.09,243,484,417,467,366,3
2012,0.82,-0.64,0.06,-5.13,-7.93,-5.98,224,485,418,466,344,3
2013,0.81,-0.64,0.11,-6.16,15.99,-8.85,236,482,416,460,349,3
2014,0.79,-0.62,0.08,4.94,-10.68,-1.4,239,479,419,466,344,3
2015,0.78,-0.62,0.13,12.63,3.72,3.54,264,481,419,456,350,3
