,aX,aY,aZ,gX,gY,gZ,little,ring,middle,index,thumb,number
0,0.24,-0.83,0.54,-12.15,-6.59,-7.63,173,217,217,277,283,4
1,0.45,-0.79,0.26,-7.81,4.82,27.47,176,219,206,262,285,4
2,0.06,-0.91,0.45,-9.52,-11.41,20.75,173,223,209,258,285,4
3,0.14,-0.92,0.42,1.46,5.62,-2.08,173,220,207,263,285,4
4,0.13,-0.89,0.41,4.15,5.07,-3.3,179,222,209,267,283,4
5,0.07,-0.88,0.33,-4.88,-0.37,-3.23,175,221,206,261,282,4
6,0.02,-0.92,0.39,1.04,-0.79,-10.68,179,223,209,264,281,4
7,0.09,-0.89,0.37,-12.15,-19.96,-7.63,177,225,211,272,285,4
8,0.16,-0.93,0.41,-3.66,-7.2,-14.22,179,224,209,272,282,4
9,0.1,-0.86,0.41,-4.39,-3.66,-1.53,174,224,216,270,284,4
10,0.1,-0.9,0.54,3.48,-2.32,-6.41,177,227,212,273,285,4
11,0.12,-0.9,0.43,0.24,-4.82,-5.98,176,230,213,272,283,4
12,0.16,-0.9,0.42,1.1,-2.75,1.22,175,227,212,270,281,4
13,0.14,-0.87,0.41,-2.62,-3.48,2.2,182,227,214,273,283,4
14,0.22,-0.9,0.45,-5.74,0.24,-7.87,179,227,208,268,285,4
15,0.12,-0.89,0.39,5.37,-2.44,-6.41,181,232,195,259,288,4
16,0.17,-0.9,0.48,0.61,-1.46,-2.69,178,233,195,264,285,4
17,0.18,-0.89,0.46,4.46,-3.78,-4.64,179,231,199,260,287,4
18,0.18,-0.88,0.49,4.15,-2.75,-3.97,186,229,201,261,285,4
19,0.17,-0.87,0.47,-1.89,-2.93,-2.2,181,230,197,263,285,4
20,0.21,-0.86,0.46,0.79,-1.28,-5.19,179,232,200,260,285,4
21,0.25,-0.85,0.42,4.21,-3.23,-2.93,178,232,202,264,285,4
22,0.18,-0.84,0.5,2.62,0.18,-0.55,179,231,204,267,286,4
23,0.1,-0.88,0.47,2.26,17.46,-7.57,181,234,202,269,285,4
24,0.07,-0.89,0.43,7.69,-6.53,-10.5,179,231,205,271,289,4
25,0.08,-0.88,0.48,4.15,-9.89,-5.0,181,233,200,266,289,4
26,0.07,-0.88,0.5,-4.03,-2.26,-6.84,180,235,200,265,288,4
27,0.09,-0.88,0.49,1.22,-5.37,-4.03,180,232,204,260,291,4
28,0.13,-0.87,0.47,1.4,-5.49,-3.66,179,235,206,271,287,4
29,0.11,-0.86,0.48,4.03,-3.54,-1.4,180,237,206,267,287,4
30,0.11,-0.86,0.5,3.72,-6.29,-0.61,183,236,206,270,287,4
31,0.07,-0.87,0.58,-0.18,-0.98,1.59,182,234,216,269,286,4
32,0.09,-0.82,0.5,1.89,-4.64,-6.23,181,233,203,268,287,4
33,0.08,-0.86,0.54,1.95,-0.49,-1.59,184,234,206,267,290,4
34,0.05,-0.84,0.55,-1.1,1.95,-0.67,185,233,207,267,289,4
35,0.02,-0.83,0.55,2.44,-1.95,-1.4,178,234,207,268,290,4
36,0.01,-0.83,0.53,-10.01,-11.35,-9.52,181,235,205,268,286,4
37,0.0,-0.96,0.51,-14.28,20.26,14.1,180,235,206,265,288,4
38,0.08,-0.79,0.41,-23.44,-15.08,-21.61,181,235,204,269,289,4
39,0.24,-0.85,0.44,11.41,-13.0,-20.14,182,236,203,272,287,4
40,0.26,-0.85,0.31,6.35,-8.79,-15.2,179,239,204,273,289,4
41,0.21,-0.86,0.44,-2.08,-0.31,4.39,181,235,202,263,290,4
42,0.19,-0.87,0.39,-0.92,5.31,1.34,181,236,192,251,288,4
43,0.18,-0.88,0.4,-17.82,3.23,-7.93,182,236,193,252,290,4
44,0.15,-0.94,0.4,-4.64,-3.97,-3.91,184,237,187,242,290,4
45,0.17,-0.9,0.41,4.27,-5.62,-4.21,181,240,192,241,286,4
46,0.15,-0.9,0.43,1.53,-5.37,-4.39,181,240,190,244,286,4
47,0.16,-0.9,0.4,1.71,-3.85,-2.81,181,240,192,242,288,4
48,0.15,-0.91,0.44,-1.89,-1.83,-2.56,181,235,189,239,284,4
49,0.15,-0.9,0.42,-0.55,-4.94,-4.76,180,240,191,244,283,4
50,0.17,-0.89,0.42,0.12,-2.14,-2.81,217,238,193,245,289,4
51,0.14,-0.89,0.45,-0.12,0.24,0.98,206,237,195,245,286,4
52,0.15,-0.89,0.46,0.61,-1.53,-0.61,181,241,197,253,288,4
53,0.17,-0.88,0.43,-2.62,-1.59,-2.75,181,238,197,249,289,4
54,0.15,-0.91,0.45,4.15,-1.59,-0.12,184,238,195,250,289,4
55,0.14,-0.89,0.45,0.12,-1.65,-0.98,181,239,202,246,287,4
56,0.12,-0.93,0.45,-1.95,-2.75,-0.61,181,240,194,246,290,4
57,0.14,-0.9,0.43,1.59,-1.04,-1.34,181,242,197,246,289,4
58,0.13,-0.9,0.45,0.18,-1.59,-1.95,182,238,199,251,290,4
59,0.14,-0.89,0.44,1.83,-3.6,-1.95,182,242,198,251,290,4
60,0.12,-0.9,0.46,-2.81,-2.5,-2.38,183,242,198,252,291,4
61,0.15,-0.88,0.45,1.95,-4.15,-2.62,182,239,194,248,284,4
62,0.13,-0.9,0.47,0.18,-2.93,-2.38,182,239,195,246,288,4
63,0.16,-0.89,0.43,1.22,-0.55,-2.56,192,242,196,250,288,4
64,0.14,-0.88,0.43,2.99,-5.49,-4.09,181,241,197,252,288,4
65,0.15,-0.88,0.42,3.72,-4.7,-0.67,184,241,197,247,286,4
66,0.17,-0.87,0.41,1.95,-5.0,-6.23,181,240,199,247,285,4
67,0.14,-0.87,0.45,2.87,-2.81,-2.99,177,240,201,254,287,4
68,0.14,-0.88,0.46,0.98,-1.53,-1.65,181,243,198,254,282,4
69,0.14,-0.88,0.46,-1.04,-3.42,-3.11,182,242,199,248,296,4
70,0.14,-0.86,0.44,2.14,-3.42,-2.87,183,242,195,253,286,4
71,0.15,-0.88,0.48,2.56,-2.26,-2.5,180,246,197,248,285,4
72,0.15,-0.9,0.46,-0.24,0.24,-3.66,182,240,193,254,288,4
73,0.16,-0.88,0.47,2.62,-3.97,-2.93,185,241,198,252,286,4
74,0.16,-0.87,0.46,0.79,-2.26,-3.78,185,239,197,252,284,4
75,0.16,-0.87,0.46,0.24,-3.66,-3.05,184,241,197,253,287,4
76,0.15,-0.87,0.47,-0.24,-1.59,-1.89,182,245,202,255,290,4
77,0.16,-0.88,0.47,0.55,-2.81,-2.14,185,242,197,256,283,4
78,0.16,-0.88,0.46,0.73,-4.15,-2.5,183,241,199,257,288,4
79,0.16,-0.88,0.47,2.01,-1.59,-2.75,181,242,199,252,288,4
80,0.14,-0.88,0.47,0.24,-2.5,-1.34,183,241,197,252,286,4
81,0.14,-0.88,0.48,0.61,-2.32,-2.69,182,242,197,250,286,4
82,0.13,-0.89,0.46,-1.83,-3.66,-0.18,186,243,201,248,286,4
83,0.14,-0.88,0.46,2.5,-3.36,-0.18,182,240,197,249,286,4
84,0.14,-0.86,0.46,-3.48,-4.64,-4.52,186,245,200,256,287,4
85,0.15,-0.88,0.45,-0.31,-2.62,-2.56,183,241,197,256,286,4
86,0.15,-0.88,0.46,0.55,-4.03,-3.11,182,245,198,252,287,4
87,0.31,-0.79,0.27,-27.04,9.64,-48.46,182,243,198,253,285,4
88,0.3,-0.87,0.19,29.3,14.22,-5.25,183,243,196,258,283,4
89,0.44,-0.92,0.61,0.98,0.37,13.43,182,244,198,258,286,4
90,0.27,-0.98,0.48,3.66,-22.52,1.83,181,243,197,253,286,4
91,0.21,-0.89,0.36,0.06,-6.1,4.52,183,242,196,252,286,4
92,0.19,-0.9,0.4,0.0,-2.44,2.81,183,242,199,255,287,4
93,0.21,-0.85,0.39,8.36,-6.47,8.12,183,248,200,252,286,4
94,0.2,-0.85,0.43,8.42,-5.8,-2.26,183,244,200,259,286,4
95,0.15,-0.88,0.46,-2.26,-3.11,-7.51,183,244,197,254,287,4
96,0.16,-0.89,0.46,-1.4,-1.22,-1.22,183,246,201,255,289,4
97,0.19,-0.86,0.43,-5.37,-3.6,-2.75,181,244,202,255,286,4
98,0.19,-0.87,0.43,4.52,-3.54,-2.01,185,243,199,251,285,4
99,0.16,-0.91,0.43,0.43,-3.17,-3.48,184,248,201,259,284,4
100,0.18,-0.9,0.43,0.43,-2.93,-2.44,182,246,203,255,286,4
101,0.19,-0.9,0.44,0.18,-1.4,-2.14,184,247,198,252,287,4
102,0.18,-0.89,0.43,0.31,-2.56,-1.83,178,246,203,256,287,4
103,0.19,-0.89,0.42,-0.31,-3.54,-2.87,183,246,198,256,284,4
104,0.17,-0.9,0.43,0.43,-3.05,-2.75,185,244,199,257,289,4
105,0.18,-0.89,0.43,1.4,-3.6,-2.99,188,246,208,260,294,4
106,0.18,-0.89,0.43,-0.12,-3.91,-3.48,185,244,198,256,288,4
107,0.17,-0.88,0.44,-0.37,-1.65,-2.75,181,246,202,258,287,4
108,0.16,-0.9,0.43,-0.18,-2.81,-2.93,182,241,205,257,282,4
109,0.17,-0.89,0.46,1.89,-1.65,0.06,183,245,197,260,286,4
110,0.19,-0.88,0.45,0.61,-2.93,-2.5,184,244,197,258,289,4
111,0.18,-0.88,0.45,1.16,-1.83,-1.28,184,248,197,258,292,4
112,0.18,-0.88,0.45,0.06,-2.87,-2.2,182,245,198,257,288,4
113,0.27,-0.87,0.53,-7.14,-7.69,1.16,187,247,202,256,285,4
114,0.19,-0.97,0.91,-3.42,-16.85,16.97,183,248,198,257,287,4
115,0.3,-0.86,0.86,46.75,11.11,-1.89,183,243,202,254,292,4
116,0.16,-0.84,0.54,-0.06,-4.33,-2.69,186,249,203,259,286,4
117,0.12,-0.86,0.54,-0.06,-2.08,-1.89,181,248,198,258,288,4
118,0.16,-0.86,0.53,0.0,-4.88,-2.5,184,246,202,258,288,4
119,0.13,-0.85,0.44,1.83,-2.2,-7.2,183,247,199,262,286,4
120,0.12,-0.88,0.5,-0.31,-2.14,-0.24,182,243,200,262,288,4
121,0.15,-0.86,0.49,3.85,-4.33,-0.92,187,246,203,258,291,4
122,0.14,-0.86,0.5,-0.06,-2.26,-3.91,182,245,203,258,290,4
123,0.15,-0.87,0.51,0.06,-2.5,-2.81,195,263,198,258,291,4
124,0.14,-0.87,0.52,0.43,-3.36,-2.26,182,247,200,259,288,4
125,0.06,-0.92,0.56,-14.04,1.34,-21.0,183,248,203,257,288,4
126,0.41,-0.75,0.45,31.49,21.85,-54.81,185,246,198,267,286,4
127,0.5,-0.79,0.69,-61.95,-8.12,21.42,182,248,203,258,290,4
128,0.31,-0.8,0.28,-3.23,-18.92,18.92,181,253,198,262,287,4
129,0.08,-0.79,0.54,13.43,-10.99,42.05,181,247,201,254,291,4
130,-0.02,-0.87,0.56,3.36,-3.17,-5.86,183,246,195,262,291,4
131,0.02,-0.84,0.53,-0.49,4.58,-6.23,182,250,197,261,287,4
132,0.34,-1.09,1.35,-57.5,-17.94,-21.79,183,247,198,268,287,4
133,-0.02,-0.78,-0.68,-22.03,-0.43,2.32,185,247,199,255,283,4
134,0.04,-0.92,0.92,43.52,-10.99,44.68,184,248,198,261,288,4
135,0.29,-0.68,0.47,62.81,-6.35,63.96,181,250,199,259,286,4
136,0.02,-0.85,0.45,-13.43,3.11,-39.55,183,247,203,261,285,4
137,-0.21,-0.91,0.52,2.62,-8.0,-18.31,183,248,202,260,286,4
138,0.05,-0.79,0.54,12.7,-3.91,6.59,186,248,203,260,286,4
139,0.09,-0.83,0.63,-5.31,3.91,-21.91,187,252,200,256,287,4
140,-0.05,-0.8,0.45,-3.54,12.7,17.7,198,251,203,261,287,4
141,0.25,-0.75,0.33,-17.88,19.59,-65.8,182,246,201,255,288,4
142,0.16,-0.85,0.62,7.14,-16.36,17.03,183,251,203,260,286,4
143,0.36,-0.85,0.38,2.32,-5.07,26.25,185,251,204,262,289,4
144,0.18,-0.8,0.53,-5.13,-2.87,-6.41,186,246,204,261,286,4
145,0.16,-0.85,0.58,1.89,-13.73,-3.91,183,250,202,257,284,4
146,0.23,-0.88,0.46,1.4,-36.44,18.62,190,248,221,263,285,4
147,0.19,-0.74,0.36,-12.15,-20.39,-23.8,203,245,231,281,300,4
148,0.23,-0.91,0.44,-12.33,-16.05,-2.5,206,253,255,297,309,4
149,0.23,-0.94,0.37,-6.1,2.62,2.01,214,267,264,301,320,4
150,0.24,-0.94,0.3,-22.83,36.07,12.51,217,279,319,296,302,4
151,0.19,-0.95,0.38,2.32,-4.88,-2.5,212,273,220,271,304,4
152,0.29,-0.92,0.26,-9.58,-17.7,-2.26,206,273,212,267,302,4
153,0.28,-0.95,0.39,14.4,4.46,6.53,207,270,215,266,305,4
154,0.21,-0.89,0.34,12.02,12.15,4.46,206,275,225,269,307,4
155,0.16,-0.89,0.66,-0.92,-3.72,4.33,211,274,230,272,308,4
156,0.2,-0.94,0.44,-2.99,19.04,28.26,207,275,231,275,304,4
157,0.14,-0.78,0.36,8.79,-2.87,-48.77,210,274,219,267,307,4
158,0.05,-0.86,0.51,-2.2,-15.5,-0.73,209,273,210,259,309,4
159,0.12,-0.86,0.46,-0.24,-4.64,1.95,207,275,216,259,309,4
160,0.08,-0.85,0.56,6.1,-2.32,-7.45,210,273,213,260,305,4
161,0.07,-0.86,0.55,6.53,-0.49,-21.0,208,275,211,265,308,4
162,0.18,-0.85,0.39,-0.43,-22.58,-19.17,207,277,212,260,306,4
163,-0.0,-0.89,0.58,-9.7,7.63,21.18,208,276,211,268,305,4
164,0.01,-0.85,0.36,-4.46,-0.12,-6.84,207,277,213,260,310,4
165,-0.06,-0.91,0.43,-6.84,-12.82,-10.07,209,274,214,264,307,4
166,0.05,-0.92,0.42,-1.46,-11.29,-5.55,206,275,212,264,304,4
167,0.16,-0.87,0.41,-1.89,-39.37,-11.66,209,273,214,268,307,4
168,0.12,-0.93,0.39,11.84,-11.05,18.92,208,277,217,268,307,4
169,0.3,-0.86,0.18,-15.44,-35.1,-11.6,205,275,215,263,310,4
170,0.21,-0.92,0.25,11.47,-5.43,4.7,205,274,207,268,305,4
171,0.33,-0.91,0.27,0.12,-18.55,-3.48,210,273,212,263,308,4
172,0.25,-0.91,0.11,9.4,-5.86,-11.41,204,273,211,265,309,4
173,0.16,-0.94,0.37,15.69,2.62,-5.74,204,273,206,264,310,4
174,0.22,-0.94,0.3,8.18,-3.36,-6.96,207,272,214,268,309,4
175,0.25,-0.91,0.25,6.65,-2.26,-8.79,204,272,203,262,310,4
176,0.19,-0.94,0.25,-0.55,-7.45,9.22,204,271,203,265,308,4
177,0.26,-0.93,0.35,1.65,10.25,-1.1,207,268,208,261,312,4
178,0.27,-0.91,0.35,1.16,2.99,-7.2,203,270,206,268,310,4
179,0.26,-0.9,0.36,3.42,0.85,0.67,205,259,206,268,310,4
180,0.27,-0.9,0.37,3.91,-2.08,-5.86,206,267,201,267,311,4
181,0.26,-0.9,0.39,2.01,-4.76,-1.46,204,271,206,264,313,4
182,0.24,-0.9,0.36,-2.5,-3.78,-3.05,211,270,203,265,314,4
183,0.24,-0.89,0.35,-0.61,-2.56,-3.05,205,268,205,267,310,4
184,0.27,-0.88,0.33,13.55,-5.86,2.2,204,270,202,264,312,4
185,0.25,-0.89,0.39,1.04,-3.6,-3.66,208,270,203,263,314,4
186,0.26,-0.89,0.38,2.14,-2.75,-3.23,206,272,202,265,312,4
187,0.24,-0.89,0.39,2.93,-2.14,-1.16,206,271,209,262,311,4
188,0.22,-0.89,0.39,-1.83,-2.62,-4.76,202,271,215,262,315,4
189,0.23,-0.89,0.37,-8.54,-7.02,-2.56,193,269,208,264,311,4
190,0.27,-0.9,0.35,-1.34,-5.13,-4.15,201,269,205,261,311,4
191,0.27,-0.89,0.39,-7.51,-0.43,-7.57,206,269,205,268,306,4
192,0.26,-0.91,0.38,-11.96,1.4,-4.39,203,271,205,263,309,4
193,0.27,-0.91,0.35,0.61,-4.15,1.89,206,269,202,261,311,4
194,0.25,-0.91,0.33,2.26,-4.58,-3.3,204,270,214,264,308,4
195,0.26,-0.88,0.35,1.4,-3.72,-1.1,205,269,197,256,309,4
196,0.25,-0.89,0.34,1.83,-2.81,-3.91,213,269,194,255,309,4
197,0.26,-0.91,0.35,1.1,-3.91,-3.11,201,274,193,249,308,4
198,0.22,-0.91,0.35,0.92,-14.1,-6.71,206,270,199,251,310,4
199,0.26,-0.9,0.35,0.98,-6.9,-2.93,205,269,200,258,308,4
200,0.27,-0.9,0.34,1.22,-5.92,-2.01,204,270,201,259,310,4
201,0.29,-0.89,0.35,-1.59,-4.09,-2.75,204,274,201,258,305,4
202,0.31,-0.88,0.39,1.16,-4.58,0.85,207,273,204,257,309,4
203,0.31,-0.86,0.22,-5.13,-9.28,-7.45,204,270,202,257,311,4
204,0.3,-0.89,0.34,-10.25,2.2,-19.17,204,272,200,262,307,4
205,0.43,-0.87,0.28,-2.93,-5.19,12.08,205,271,205,256,310,4
206,0.36,-0.87,0.43,6.71,-7.02,-20.2,201,273,200,262,309,4
207,0.37,-0.84,0.39,1.04,8.54,7.93,206,272,204,266,310,4
208,0.35,-0.84,0.42,0.85,2.56,-4.15,207,269,205,265,309,4
209,0.32,-0.83,0.49,7.51,-0.37,-5.43,203,271,204,268,310,4
210,0.37,-0.83,0.45,0.12,-3.6,-3.6,204,273,203,265,312,4
211,0.32,-0.82,0.5,6.9,-5.43,-6.29,203,275,206,269,311,4
212,0.38,-0.84,0.41,0.92,-3.91,-4.58,205,273,202,269,313,4
213,0.35,-0.83,0.46,5.13,-2.99,-0.92,205,283,204,260,311,4
214,0.31,-0.83,0.46,1.22,-0.43,-3.91,207,272,209,269,308,4
215,0.34,-0.82,0.47,1.71,-3.54,-2.2,203,272,206,260,310,4
216,0.36,-0.84,0.47,-2.69,-7.69,-1.34,204,275,205,270,310,4
217,0.37,-0.82,0.48,4.76,-3.17,-5.98,205,273,206,268,311,4
218,0.33,-0.84,0.45,-1.59,-3.78,-2.2,204,271,204,261,309,4
219,0.34,-0.83,0.44,0.79,-3.23,-2.08,235,269,203,264,310,4
220,0.36,-0.83,0.48,0.67,-4.58,-2.44,202,272,203,265,310,4
221,0.34,-0.84,0.44,0.0,-3.05,-0.79,205,272,202,269,309,4
222,0.34,-0.83,0.46,-0.43,-3.66,-2.01,204,274,206,265,311,4
223,0.34,-0.83,0.45,-0.24,-3.11,-1.83,204,273,201,265,308,4
224,0.34,-0.83,0.46,0.37,-1.83,-2.75,204,273,206,265,308,4
225,0.34,-0.84,0.44,-0.43,-1.77,-2.14,205,270,204,264,310,4
226,0.32,-0.83,0.46,2.26,-2.38,-2.01,205,273,204,264,312,4
227,0.33,-0.83,0.45,-1.16,-2.75,-3.3,206,272,202,262,306,4
228,0.33,-0.82,0.46,1.53,-1.46,-1.53,207,269,203,264,311,4
229,0.33,-0.84,0.46,0.31,-2.99,-3.36,215,276,207,269,310,4
230,0.33,-0.83,0.45,-0.31,-3.05,-2.75,208,275,206,269,306,4
231,0.33,-0.83,0.45,0.24,-3.78,-3.05,205,273,207,268,306,4
232,0.33,-0.83,0.46,0.92,-2.62,-2.56,202,269,205,265,311,4
233,0.34,-0.83,0.45,-1.04,1.71,-1.22,204,273,204,261,309,4
234,0.32,-0.84,0.47,1.28,-6.35,-1.89,205,276,206,270,305,4
235,0.35,-0.85,0.44,-0.18,-0.92,-2.2,209,275,203,266,309,4
236,0.35,-0.84,0.45,2.87,-0.92,-1.28,208,273,204,263,311,4
237,0.32,-0.84,0.46,3.17,-2.56,2.5,210,276,212,267,309,4
238,0.26,-0.84,0.48,0.24,-1.89,0.43,207,270,207,270,310,4
239,0.26,-0.86,0.46,2.32,-8.67,5.62,208,275,206,270,310,4
240,0.35,-0.85,0.42,-1.65,-4.15,-6.1,228,272,204,263,311,4
241,0.24,-0.86,0.45,-3.36,-2.14,-7.2,200,275,207,266,308,4
242,0.25,-0.86,0.47,3.17,-3.3,1.28,206,276,204,266,310,4
243,0.3,-0.85,0.43,3.48,-3.78,-0.49,204,276,208,262,310,4
244,0.22,-0.86,0.48,1.4,-3.05,-7.63,207,273,205,267,311,4
245,0.22,-0.86,0.46,0.37,-4.33,7.51,202,277,202,263,311,4
246,0.24,-0.85,0.51,0.18,0.18,-3.23,207,276,210,266,306,4
247,0.16,-0.9,0.48,-13.55,6.77,-10.07,206,277,208,263,309,4
248,0.22,-0.89,0.41,6.9,-7.08,-3.66,205,277,203,266,309,4
249,0.19,-0.89,0.5,5.8,-5.19,-2.5,208,274,217,267,307,4
250,0.3,-0.86,0.46,-12.94,13.98,-33.2,207,272,206,267,301,4
251,0.29,-0.85,0.41,4.82,-9.7,8.18,206,272,206,266,309,4
252,0.32,-0.86,0.44,-2.87,-1.4,-2.44,208,275,206,270,310,4
253,0.21,-0.88,0.41,7.32,-3.6,2.75,209,277,206,267,305,4
254,0.16,-0.85,0.34,-6.96,7.81,1.71,207,274,201,267,313,4
255,0.16,-0.9,0.38,-8.85,-3.66,-3.3,221,272,199,263,312,4
256,0.19,-0.91,0.37,0.31,-3.17,-5.07,208,276,200,268,311,4
257,0.19,-0.91,0.37,1.71,-5.43,-4.39,207,273,203,265,314,4
258,0.18,-0.88,0.41,3.11,-3.91,-5.49,206,273,201,269,311,4
259,0.24,-0.9,0.39,-0.06,-3.85,-3.42,206,276,199,268,311,4
260,0.21,-0.9,0.39,-0.55,-2.75,-4.7,207,273,202,260,309,4
261,0.21,-0.91,0.38,0.06,-2.93,-2.26,208,274,200,270,311,4
262,0.21,-0.9,0.38,-0.55,-4.27,-3.54,208,275,204,264,313,4
263,0.17,-0.9,0.32,-1.77,-31.31,-19.41,204,277,202,267,310,4
264,0.31,-0.89,0.31,1.53,-0.18,-6.84,225,276,206,266,309,4
265,0.27,-0.91,0.39,4.15,-2.5,-3.97,206,271,209,268,309,4
266,0.25,-0.88,0.31,10.07,1.89,-6.47,204,271,204,271,301,4
267,0.23,-0.91,0.32,17.33,-11.96,10.44,202,268,207,268,295,4
268,0.17,-0.89,0.36,-27.04,13.85,-24.9,229,267,210,272,289,4
269,0.2,-0.94,0.37,-6.04,-5.07,4.88,203,272,205,273,291,4
270,0.15,-0.92,0.35,-1.4,-6.29,-2.81,204,271,213,272,294,4
271,0.17,-0.91,0.35,2.99,-1.65,-4.82,203,271,212,271,293,4
272,0.18,-0.91,0.36,2.14,-4.27,-2.5,203,277,205,277,293,4
273,0.17,-0.92,0.34,2.5,-4.15,-1.22,204,273,211,273,295,4
274,0.18,-0.92,0.37,5.31,-2.75,-2.2,206,272,208,275,295,4
275,0.17,-0.91,0.37,-2.44,-1.89,-4.58,205,276,211,275,292,4
276,0.16,-0.92,0.37,3.42,-2.26,-4.52,204,273,211,276,292,4
277,0.17,-0.91,0.36,1.4,-2.93,-2.14,204,273,214,272,293,4
278,0.19,-0.92,0.4,3.17,-2.56,-2.01,202,273,209,267,302,4
279,0.19,-0.91,0.39,0.31,-4.76,-2.56,204,275,208,288,291,4
280,0.17,-0.91,0.38,4.46,-3.6,-2.08,207,271,211,271,297,4
281,0.17,-0.91,0.39,0.31,-1.28,-3.3,206,274,211,274,298,4
282,0.18,-0.92,0.4,-3.3,-2.93,-3.72,204,273,212,269,295,4
283,0.18,-0.91,0.39,-2.5,-1.71,-2.93,204,275,209,271,295,4
284,0.18,-0.91,0.39,0.79,-4.03,-2.01,202,271,212,273,296,4
285,0.18,-0.91,0.37,-1.59,-2.38,-2.32,206,277,208,277,298,4
286,0.18,-0.91,0.39,-0.98,-1.1,-3.48,207,283,214,277,297,4
287,0.19,-0.91,0.39,-1.53,-1.95,-4.52,204,283,211,273,297,4
288,0.21,-0.92,0.37,-0.55,-4.33,-1.71,206,275,208,270,298,4
289,0.2,-0.92,0.39,-0.98,-2.93,-3.11,207,275,208,266,299,4
290,0.18,-0.91,0.38,0.49,-2.75,-1.95,205,286,210,265,299,4
291,0.2,-0.91,0.38,0.18,-2.32,-2.32,207,275,206,263,298,4
292,0.18,-0.91,0.38,0.61,-3.11,-2.93,204,277,209,264,300,4
293,0.19,-0.9,0.37,-0.55,-2.93,-2.69,204,278,206,264,298,4
294,0.19,-0.91,0.38,-0.49,-3.05,-3.11,206,283,206,267,297,4
295,0.19,-0.89,0.38,-3.3,-4.58,-3.91,200,275,205,266,295,4
296,0.2,-0.91,0.37,1.1,-3.72,-2.32,205,277,205,282,298,4
297,0.19,-0.91,0.38,0.55,-3.05,-1.95,202,277,206,263,301,4
298,0.19,-0.9,0.37,1.16,-2.99,-2.08,204,276,208,270,299,4
299,0.18,-0.9,0.39,2.44,-3.54,-1.83,207,277,207,271,301,4
300,0.22,-0.91,0.42,0.92,-3.72,-2.14,203,279,210,267,299,4
301,0.2,-0.91,0.37,2.32,-3.05,-3.05,204,277,205,265,300,4
302,0.18,-0.91,0.33,-0.85,-2.56,-7.26,204,282,208,274,302,4
303,0.28,-0.9,0.45,-4.76,-6.1,-1.16,205,277,208,271,298,4
304,0.22,-0.91,0.35,-4.46,-5.49,-4.46,206,278,207,267,302,4
305,0.23,-0.9,0.34,1.34,-2.26,-2.38,207,279,208,267,299,4
306,0.24,-0.91,0.39,-0.67,1.1,-10.38,205,279,208,268,299,4
307,0.28,-0.9,0.32,2.14,-1.34,-1.34,202,277,211,274,298,4
308,0.25,-0.89,0.33,2.93,0.06,-3.72,209,274,209,269,298,4
309,0.25,-0.88,0.39,-3.72,-7.32,0.79,204,276,212,268,299,4
310,0.28,-0.89,0.36,-6.16,1.71,-6.1,207,276,209,263,301,4
311,0.32,-0.91,0.31,-11.11,-5.25,-4.88,217,277,214,268,301,4
312,0.32,-0.86,0.23,19.9,14.53,-11.9,203,276,208,264,298,4
313,0.2,-0.86,0.5,3.6,7.87,26.67,204,279,209,269,297,4
314,0.2,-0.95,0.38,-2.81,0.61,-6.71,207,279,212,272,296,4
315,0.21,-0.94,0.4,-28.93,-21.85,12.21,206,278,209,269,301,4
316,0.06,-0.97,0.16,-44.98,-4.03,-9.22,203,280,206,273,301,4
317,-0.15,-1.04,-0.23,-24.9,-19.84,19.84,207,278,210,273,307,4
318,-0.09,-1.0,-0.11,3.85,-4.33,-3.36,207,277,210,267,301,4
319,-0.01,-1.02,-0.19,-1.77,-16.24,-21.3,206,278,213,270,302,4
320,0.07,-0.97,0.03,-8.73,-15.26,11.05,207,278,215,270,302,4
321,0.06,-0.99,0.03,-17.52,34.73,-28.26,204,279,212,269,300,4
322,0.21,-0.99,-0.0,-11.96,-1.71,8.12,200,276,213,273,294,4
323,0.13,-1.0,-0.03,-3.78,-10.99,10.13,200,277,208,274,292,4
324,0.19,-0.96,0.09,9.89,3.36,-9.4,205,280,211,282,298,4
325,0.11,-1.0,-0.01,-2.2,-16.85,17.88,205,279,212,272,293,4
326,0.08,-0.99,0.07,-3.42,-4.39,-0.61,203,278,210,275,295,4
327,0.1,-0.99,0.06,0.67,-1.71,-4.52,203,278,210,266,296,4
328,0.08,-0.99,0.05,-0.55,-3.36,-2.44,205,279,211,271,295,4
329,0.07,-0.99,0.05,0.92,-1.65,-3.17,204,278,209,271,300,4
330,0.11,-0.99,0.04,-5.19,5.74,-8.91,206,278,213,275,295,4
331,0.1,-0.98,0.1,-4.88,9.95,-12.02,205,279,210,286,301,4
332,0.03,-0.99,0.08,1.4,-0.73,-4.09,207,279,213,271,298,4
333,0.16,-1.0,-0.01,4.58,-0.43,-6.96,206,282,212,273,297,4
334,0.11,-0.99,0.03,-0.61,-1.1,-2.93,204,279,211,268,299,4
335,0.08,-0.99,0.04,2.87,5.55,-9.95,205,280,210,270,300,4
336,0.13,-0.98,0.06,0.67,-2.26,-3.17,201,279,210,270,300,4
337,0.14,-0.99,0.07,2.32,6.77,-10.19,205,282,214,284,297,4
338,0.16,-0.98,0.07,5.55,-1.77,-3.54,208,280,209,274,302,4
339,0.15,-0.99,0.07,2.69,-6.84,-0.43,211,278,209,272,299,4
340,0.13,-0.99,0.07,2.08,-1.89,-4.33,204,278,211,271,300,4
341,0.15,-0.97,0.14,3.91,-3.17,-4.76,206,278,212,266,298,4
342,0.09,-1.02,-0.0,9.58,-5.43,-7.2,204,277,209,277,300,4
343,0.33,-0.93,0.39,16.36,9.77,-4.46,203,275,214,278,297,4
344,0.11,-0.99,0.21,-18.68,10.31,5.55,201,275,217,274,292,4
345,0.11,-0.96,0.21,0.85,-5.19,-2.5,205,277,217,278,294,4
346,0.08,-0.96,0.21,2.69,-5.55,-3.36,211,279,220,274,296,4
347,0.11,-0.95,0.23,3.17,-6.65,-4.94,207,277,217,278,296,4
348,0.13,-0.97,0.26,1.28,-3.11,-1.89,213,277,217,273,297,4
349,0.12,-0.96,0.22,2.14,-2.87,-3.85,206,280,218,277,296,4
350,0.14,-0.96,0.23,1.95,-6.71,-1.53,207,277,215,277,294,4
351,0.14,-0.95,0.25,0.79,-3.11,-3.42,205,279,218,277,298,4
352,0.13,-0.96,0.25,4.52,-3.42,-3.48,207,280,217,277,299,4
353,0.14,-0.95,0.27,-2.2,-2.87,-2.14,206,280,212,275,298,4
354,0.12,-0.95,0.29,1.65,-4.21,0.73,204,278,228,279,299,4
355,0.13,-0.95,0.24,-0.67,-1.16,-0.12,212,281,215,282,300,4
356,0.07,-0.95,0.29,2.01,-4.15,-5.0,209,280,215,276,298,4
357,0.12,-0.96,0.24,-1.89,-3.72,-2.5,207,278,213,278,298,4
358,0.12,-0.95,0.3,0.55,-3.42,-2.69,205,278,216,276,301,4
359,0.04,-0.94,0.32,3.05,-8.73,-0.67,206,281,219,276,297,4
360,0.18,-0.96,0.27,0.0,-4.82,-5.25,206,277,217,276,297,4
361,0.14,-0.95,0.34,-2.81,-2.93,0.55,207,281,217,280,300,4
362,0.14,-0.94,0.32,2.26,-2.56,-1.65,203,277,216,276,294,4
363,0.14,-0.94,0.33,0.61,-3.72,-4.09,203,280,216,277,299,4
364,0.14,-0.92,0.32,0.67,-1.71,-1.28,205,278,215,277,299,4
365,0.14,-0.93,0.32,-0.31,-3.66,-2.44,203,281,226,276,301,4
366,0.12,-0.94,0.31,0.12,7.93,-1.65,204,282,214,273,300,4
367,0.14,-0.93,0.31,-0.61,-3.11,-0.55,205,285,218,279,296,4
368,0.13,-0.94,0.29,-14.22,-4.15,-1.28,205,281,219,274,298,4
369,0.11,-0.95,0.26,-3.66,-0.12,-1.16,204,275,215,281,303,4
370,0.13,-0.95,0.25,6.04,-3.05,-3.17,205,279,219,281,298,4
371,0.14,-0.95,0.29,2.32,-2.81,-2.87,206,279,217,276,294,4
372,0.13,-0.95,0.27,-1.34,-3.48,-2.44,208,286,217,279,295,4
373,0.15,-0.95,0.27,-1.1,-1.59,-3.36,206,278,215,276,296,4
374,0.14,-0.95,0.29,-0.43,-2.44,-2.81,205,280,213,279,298,4
375,0.16,-0.94,0.29,2.75,-4.03,11.9,207,279,218,278,301,4
376,0.09,-0.96,0.22,-15.26,-3.72,-5.92,208,278,222,281,300,4
377,0.06,-0.98,0.2,-1.59,-5.07,-15.32,209,282,218,281,295,4
378,0.06,-0.99,0.17,-2.2,-1.71,-13.67,206,283,214,277,299,4
379,0.09,-1.03,0.24,8.67,-16.66,-7.45,207,281,217,276,300,4
380,0.17,-0.98,0.19,-7.81,-4.39,-4.58,205,280,216,278,302,4
381,0.14,-0.98,-0.02,-8.79,-7.69,0.18,207,278,220,278,298,4
382,0.16,-0.96,0.21,0.85,-3.85,1.46,202,281,213,283,301,4
383,0.17,-0.98,0.23,3.11,-3.11,-4.39,209,286,219,280,299,4
384,0.24,-0.95,0.25,-2.56,-2.2,15.2,208,280,217,277,299,4
385,0.02,-1.01,0.45,33.2,36.38,-12.08,203,280,217,280,297,4
386,0.1,-0.74,0.54,35.64,56.7,61.83,206,283,220,278,300,4
387,-0.26,-0.72,0.48,-39.18,-47.3,-58.41,211,281,215,283,296,4
388,-0.13,-0.85,0.59,10.56,4.27,-13.12,207,279,217,284,300,4
389,-0.19,-0.78,0.58,1.89,-2.44,-0.43,206,278,220,278,299,4
390,-0.19,-0.8,0.61,-3.6,-9.64,2.75,206,280,215,279,299,4
391,-0.3,-0.72,0.64,17.33,19.29,12.76,205,280,220,279,300,4
392,-0.25,-0.68,0.68,4.52,-26.18,-0.79,207,284,221,278,293,4
393,-0.16,-0.71,0.68,-2.44,4.64,-11.78,209,277,218,276,298,4
394,-0.15,-0.71,0.71,6.77,21.42,3.23,206,280,220,282,301,4
395,-0.21,-0.77,0.62,-4.39,-7.32,-17.27,205,280,214,282,298,4
396,-0.13,-0.83,0.59,5.86,-13.73,-2.26,209,280,212,277,297,4
397,0.32,-0.76,0.48,-13.67,-43.76,-40.04,206,284,212,282,301,4
398,0.25,-0.89,0.19,-30.4,-46.81,11.41,203,281,210,279,300,4
399,0.26,-0.89,0.31,5.86,-1.28,1.46,206,279,216,278,296,4
400,0.36,-0.88,0.32,-4.15,-15.26,-2.87,206,282,218,274,296,4
401,0.34,-0.88,0.38,1.1,-1.04,-6.47,207,284,212,282,304,4
402,0.37,-0.88,0.32,-1.28,-2.56,-2.2,208,292,220,278,302,4
403,0.36,-0.88,0.31,-7.08,-17.82,-9.77,207,282,215,274,303,4
404,0.41,-0.87,0.28,0.43,-6.59,0.98,205,281,217,277,301,4
405,0.42,-0.88,0.26,-1.53,-3.17,-6.23,204,280,214,277,301,4
406,0.43,-0.87,0.27,3.23,-5.07,-1.34,209,281,220,272,304,4
407,0.43,-0.87,0.24,1.95,-3.11,-2.2,207,281,215,277,297,4
408,0.41,-0.88,0.26,-0.24,-2.99,-3.97,208,289,218,276,303,4
409,0.41,-0.88,0.26,-1.4,-1.28,-1.34,208,294,215,276,301,4
410,0.35,-0.89,0.27,-1.89,17.76,6.29,204,284,217,279,301,4
411,0.37,-0.89,0.26,-7.14,-8.24,-0.55,206,278,218,275,303,4
412,0.36,-0.9,0.24,-1.34,-5.62,-1.89,207,281,216,281,301,4
413,0.37,-0.9,0.25,2.01,-1.46,-2.69,207,280,217,276,304,4
414,0.42,-0.91,0.21,7.2,-76.66,-23.07,207,282,214,274,303,4
415,0.39,-0.9,0.23,1.34,1.46,-0.73,209,281,212,272,299,4
416,0.36,-0.91,0.25,2.38,-2.14,-3.36,207,277,214,277,298,4
417,0.36,-0.9,0.25,0.98,-1.53,-2.56,210,283,216,276,301,4
418,0.38,-0.89,0.25,-0.85,-2.69,-2.69,209,281,220,277,302,4
419,0.38,-0.91,0.33,-2.08,-4.39,-6.53,206,284,217,278,299,4
420,0.39,-0.92,0.21,-5.49,-14.53,2.08,208,284,212,277,301,4
421,0.41,-0.9,0.18,3.78,-3.85,-0.98,207,283,212,273,302,4
422,0.4,-0.9,0.22,0.43,-2.44,-3.05,203,281,212,273,301,4
423,0.39,-0.89,0.22,0.37,-2.62,-1.89,209,285,215,277,305,4
424,0.4,-0.89,0.21,1.59,1.77,-2.14,209,282,217,281,301,4
425,0.38,-0.9,0.22,2.01,-2.81,-5.8,207,283,214,279,302,4
426,0.39,-0.89,0.22,0.85,-4.58,-2.93,207,283,216,289,301,4
427,0.39,-0.9,0.24,0.37,-2.93,-2.81,209,281,215,272,300,4
428,0.39,-0.89,0.24,0.43,-2.75,-2.69,204,284,213,280,304,4
429,0.38,-0.9,0.24,0.0,-3.23,-2.38,205,285,216,274,303,4
430,0.39,-0.9,0.23,0.31,-2.75,-3.05,206,281,218,277,303,4
431,0.39,-0.89,0.23,0.92,-4.03,-2.93,206,284,215,275,303,4
432,0.36,-0.88,0.26,-10.8,12.15,-23.8,208,284,211,277,302,4
433,0.52,-0.85,0.19,5.43,-8.24,7.45,206,279,205,277,303,4
434,0.36,-0.89,0.26,-2.26,-2.81,-5.0,208,284,209,280,301,4
435,0.38,-0.88,0.26,1.04,-4.76,-1.28,204,284,209,279,300,4
436,0.4,-0.89,0.25,0.85,-4.76,-1.59,208,285,205,272,303,4
437,0.4,-0.89,0.24,1.22,-2.26,-3.6,208,285,208,272,300,4
438,0.4,-0.88,0.24,0.43,-3.54,-2.99,206,284,206,275,301,4
439,0.41,-0.89,0.23,0.0,-4.7,-0.31,205,281,212,279,300,4
440,0.2,-0.94,0.24,-6.47,0.67,10.99,206,282,209,276,297,4
441,0.2,-0.93,0.42,-10.74,-1.1,-13.92,209,282,207,281,302,4
442,-0.01,-0.94,0.41,13.49,-5.13,1.4,209,282,214,276,303,4
443,0.18,-0.96,0.02,-6.59,9.34,-32.53,210,283,208,278,300,4
444,0.28,-0.9,-0.01,-21.3,-7.02,-11.17,209,282,206,278,303,4
445,0.3,-0.98,0.2,6.16,-14.1,5.37,209,284,206,278,300,4
446,0.17,-0.95,0.13,1.22,-18.13,2.01,234,280,206,283,297,4
447,0.2,-0.92,-0.09,-3.48,-3.97,-8.91,209,282,203,275,300,4
448,0.34,-0.96,0.1,-15.63,5.55,-12.33,209,280,209,276,301,4
449,0.27,-0.94,0.18,4.64,0.24,3.36,223,281,210,283,301,4
450,0.29,-0.95,0.14,2.5,-4.88,-0.24,208,282,209,276,303,4
451,0.25,-0.94,0.18,11.41,-1.4,3.66,207,284,210,282,298,4
452,0.2,-0.99,0.16,-12.76,13.73,6.04,207,280,207,281,299,4
453,0.07,-0.97,0.28,8.3,-19.41,-2.38,208,281,211,278,304,4
454,0.17,-0.97,0.16,-0.43,-2.01,-2.81,209,281,209,273,303,4
455,0.1,-0.96,0.21,-3.42,17.33,-7.81,207,283,209,281,301,4
456,0.3,-0.97,0.05,-28.44,-10.44,-8.73,208,283,209,282,303,4
457,0.17,-0.97,0.17,6.35,-9.09,2.44,208,283,208,273,301,4
458,0.22,-0.97,0.12,2.2,-4.09,-2.44,205,279,212,276,305,4
459,0.2,-0.97,0.13,0.37,-3.48,-2.81,207,283,209,273,304,4
460,0.21,-0.97,0.13,0.79,-2.87,-2.81,210,281,209,275,300,4
461,0.21,-0.97,0.13,0.73,-2.38,-2.5,208,284,212,274,304,4
462,0.2,-0.95,0.17,-4.09,-13.18,3.54,208,281,209,280,303,4
463,0.17,-0.98,0.08,-2.01,4.46,-12.7,210,284,207,277,303,4
464,0.21,-0.97,0.04,-3.91,-5.8,-1.16,204,285,211,277,303,4
465,0.0,-0.99,0.23,-2.14,99.37,11.05,210,279,210,279,302,4
466,0.18,-0.98,0.08,3.05,-9.83,-6.23,208,282,213,275,303,4
467,0.17,-0.98,0.08,-0.43,-6.1,-5.98,209,282,209,278,300,4
468,0.08,-0.99,0.07,3.85,-4.21,0.49,210,281,209,277,298,4
469,0.12,-0.98,0.1,9.46,-14.16,-0.24,208,282,215,279,299,4
470,0.13,-0.98,0.11,2.08,-2.81,-3.17,206,280,210,277,299,4
471,0.15,-0.96,0.16,8.79,-0.43,-5.74,205,282,215,280,301,4
472,0.22,-0.97,0.18,2.2,-27.95,-4.82,207,282,211,274,296,4
473,0.21,-0.97,0.12,-1.1,0.67,-3.78,207,283,216,277,299,4
474,0.18,-0.97,0.14,-1.34,1.34,-4.94,208,285,209,280,296,4
475,0.19,-0.96,0.17,5.62,-1.28,-3.36,205,285,208,281,301,4
476,0.25,-0.97,0.15,-21.67,1.77,-11.72,209,282,211,279,299,4
477,0.27,-0.96,0.13,-9.7,-5.13,-15.75,209,282,211,282,299,4
478,0.31,-0.95,0.07,1.1,-3.23,-2.2,208,285,211,277,301,4
479,0.28,-0.95,0.08,-1.77,-3.78,-1.04,209,282,212,275,300,4
480,0.28,-0.96,0.08,-0.73,-3.85,-2.44,203,281,215,278,300,4
481,0.28,-0.96,0.08,-0.37,-1.83,-2.32,207,284,211,279,299,4
482,0.27,-0.96,0.1,0.73,-3.23,-2.38,210,285,211,282,297,4
483,0.27,-0.96,0.09,2.08,-3.78,-1.71,208,283,211,278,301,4
484,0.3,-0.95,0.02,11.23,-7.51,0.73,208,283,214,279,300,4
485,0.28,-0.96,0.08,-6.29,6.47,-13.31,207,283,212,281,298,4
486,0.13,-0.94,0.11,4.39,-26.55,8.79,208,282,211,281,298,4
487,0.12,-0.97,0.22,6.84,-10.38,-0.18,209,282,212,275,301,4
488,0.19,-0.97,0.15,8.61,-2.32,3.72,215,285,215,283,299,4
489,0.12,-0.97,0.22,-3.42,-0.55,-7.02,208,283,214,279,298,4
490,0.18,-0.97,0.18,0.79,-3.05,-4.46,210,286,214,281,295,4
491,-0.15,-0.97,0.4,0.49,1.83,-0.12,210,285,213,275,299,4
492,0.46,-0.9,-0.02,24.29,-26.12,40.04,209,284,214,277,299,4
493,0.17,-0.9,0.35,37.05,39.79,-11.17,211,280,214,281,299,4
494,0.08,-0.9,0.24,36.13,7.26,-3.48,208,281,212,276,297,4
495,-0.03,-0.96,0.29,-4.7,-1.59,-13.37,206,283,210,279,300,4
496,0.19,-0.94,0.19,-7.69,5.68,-20.94,204,279,214,279,297,4
497,0.25,-0.94,0.22,8.48,-27.59,6.23,216,282,213,274,296,4
498,0.15,-0.97,0.29,0.73,1.77,-8.0,209,282,211,279,299,4
499,0.21,-0.95,0.24,-4.09,-3.97,-2.08,207,284,210,277,297,4
500,0.28,-0.94,0.21,2.14,-4.88,-2.14,206,283,210,275,297,4
501,0.22,-0.96,0.25,-1.28,-1.89,-3.42,206,281,214,278,300,4
502,0.25,-0.95,0.23,-0.79,-0.31,-3.3,210,283,214,278,302,4
503,0.25,-0.93,0.26,9.16,-6.29,-0.67,210,281,213,276,302,4
504,0.26,-0.93,0.26,0.06,-2.14,-5.74,210,283,215,281,298,4
505,0.25,-0.95,0.26,7.02,-1.65,-1.89,206,282,210,278,299,4
506,0.26,-0.95,0.27,4.76,-2.93,-8.18,204,282,211,279,302,4
507,0.23,-0.93,0.25,8.48,-8.73,9.89,207,282,211,280,300,4
508,0.12,-0.94,0.36,4.82,-5.19,4.21,208,283,215,277,303,4
509,0.19,-0.93,0.31,3.66,0.37,-6.53,209,285,216,277,303,4
510,0.16,-0.89,0.56,13.24,-7.93,11.47,210,280,212,281,301,4
511,0.14,-0.89,0.38,12.21,3.36,2.38,210,282,214,282,298,4
512,0.1,-0.86,0.52,6.47,-1.71,-3.91,209,283,214,283,299,4
513,0.14,-0.86,0.5,-1.65,-1.65,-5.0,206,282,214,285,304,4
514,0.12,-0.86,0.52,-1.95,-3.97,-2.26,211,284,214,283,299,4
515,0.14,-0.87,0.49,1.34,-2.81,-2.69,206,288,215,281,301,4
516,0.13,-0.87,0.47,-0.18,-2.75,-2.99,207,285,216,279,300,4
517,0.13,-0.87,0.49,0.49,-2.87,-2.87,209,283,219,281,302,4
518,0.14,-0.87,0.49,0.98,-3.23,-2.87,207,285,217,280,298,4
519,0.13,-0.86,0.49,0.0,-2.44,-2.69,208,286,217,286,301,4
520,0.14,-0.87,0.49,0.43,-3.23,-3.3,208,284,215,280,298,4
521,0.14,-0.87,0.49,0.49,-2.87,-2.99,209,286,217,287,301,4
522,0.13,-0.87,0.48,0.37,-3.42,-3.97,206,283,217,286,301,4
523,0.14,-0.86,0.49,0.92,-4.21,-2.44,210,283,217,282,304,4
524,-0.25,-0.93,0.21,-6.65,-5.43,4.58,282,275,184,227,200,4
525,-0.12,-0.96,0.16,9.7,8.3,-25.63,281,275,186,224,200,4
526,-0.23,-0.94,0.25,2.26,-4.94,3.78,280,276,186,224,199,4
527,-0.22,-0.95,0.21,-0.37,-2.56,-1.77,282,276,187,226,199,4
528,-0.22,-0.95,0.23,-0.92,-2.81,-1.83,281,279,189,227,197,4
529,-0.23,-0.94,0.22,-1.71,-3.6,-2.38,277,277,188,227,202,4
530,-0.23,-0.95,0.22,-0.37,-3.3,-3.11,282,277,188,225,199,4
531,-0.23,-0.95,0.22,0.31,-2.99,-2.5,283,280,190,229,200,4
532,-0.24,-0.94,0.23,0.06,-3.23,-2.44,284,283,187,232,200,4
533,-0.22,-0.94,0.25,1.95,-0.98,-0.92,282,278,188,229,204,4
534,-0.22,-0.92,0.28,-3.42,-1.65,-9.09,282,280,186,227,206,4
535,-0.23,-0.95,0.15,-1.71,-1.34,1.65,281,278,187,230,203,4
536,-0.22,-0.95,0.22,1.46,-2.5,-3.72,283,273,189,228,202,4
537,-0.23,-0.95,0.21,2.26,-3.11,-2.26,284,279,188,228,203,4
538,-0.23,-0.94,0.21,1.4,-2.99,-2.38,282,282,189,231,203,4
539,-0.24,-0.95,0.21,-0.85,-2.69,-2.81,280,278,192,232,231,4
540,-0.24,-0.94,0.21,0.61,-3.23,-2.5,285,279,194,233,206,4
541,-0.24,-0.94,0.22,0.06,-3.23,-2.62,284,281,191,240,206,4
542,-0.24,-0.95,0.21,0.43,-2.81,-2.5,285,279,192,234,206,4
543,-0.24,-0.94,0.21,-0.18,-2.69,-2.32,283,286,190,233,207,4
544,-0.24,-0.94,0.2,0.43,-2.93,-2.38,283,279,191,232,204,4
545,-0.24,-0.94,0.21,1.71,-3.42,-2.62,283,282,193,235,207,4
546,-0.24,-0.95,0.21,-0.12,-2.08,-4.64,284,275,192,234,208,4
547,-0.24,-0.95,0.21,4.15,-5.19,0.43,285,281,195,233,207,4
548,-0.25,-0.94,0.22,-3.91,-3.3,-2.14,286,281,195,231,206,4
549,-0.23,-0.95,0.2,0.67,-3.85,-1.65,284,282,190,233,208,4
550,-0.24,-0.95,0.2,1.89,-3.05,-2.5,283,278,193,234,205,4
551,-0.24,-0.94,0.2,-0.31,-3.54,-2.38,286,279,189,234,208,4
552,-0.22,-0.94,0.28,0.06,-2.2,-3.78,286,284,194,234,204,4
553,-0.24,-0.95,0.24,-0.37,-5.8,-2.69,283,285,193,236,203,4
554,-0.23,-0.95,0.2,-0.24,-3.78,-1.71,285,283,193,237,209,4
555,-0.24,-0.95,0.22,1.16,-3.78,-1.34,288,280,196,233,208,4
556,-0.23,-0.94,0.22,1.83,-2.69,-2.81,289,282,196,231,209,4
557,-0.22,-0.95,0.22,1.22,-2.38,-2.2,288,286,195,237,208,4
558,-0.24,-0.93,0.25,-4.46,-1.71,-0.49,287,288,197,235,210,4
559,-0.24,-0.94,0.22,-0.73,-2.5,-2.81,283,283,193,233,211,4
560,-0.23,-0.95,0.2,8.67,-5.43,-4.64,288,285,193,229,210,4
561,-0.26,-0.94,0.22,3.36,-5.37,4.64,289,287,195,233,208,4
562,-0.24,-0.94,0.21,-3.97,-0.79,-4.39,290,292,194,235,210,4
563,-0.25,-0.94,0.23,0.18,-3.97,-2.14,292,281,194,236,207,4
564,-0.26,-0.94,0.23,0.67,-1.65,-2.26,288,284,197,235,212,4
565,-0.25,-0.94,0.23,-0.12,-2.56,-1.89,287,284,197,234,205,4
566,-0.25,-0.94,0.21,-0.92,-2.99,-2.69,287,288,197,238,208,4
567,-0.24,-0.95,0.24,0.92,-3.66,-3.3,284,284,193,236,212,4
568,-0.25,-0.94,0.23,0.67,-3.11,-2.87,290,286,195,237,209,4
569,-0.25,-0.94,0.22,0.37,-2.81,-2.2,286,284,199,234,210,4
570,-0.25,-0.93,0.22,1.4,-3.72,-2.87,288,286,196,238,212,4
571,-0.25,-0.94,0.23,0.0,-3.11,-3.23,286,284,196,238,210,4
572,-0.25,-0.94,0.23,0.37,-2.62,-2.5,283,292,196,236,207,4
573,-0.25,-0.94,0.22,0.67,-2.93,-2.2,285,286,201,236,214,4
574,-0.26,-0.93,0.22,0.24,-3.78,-3.48,283,289,197,237,207,4
575,-0.26,-0.94,0.22,0.37,-3.78,-0.67,289,289,199,235,211,4
576,-0.24,-0.94,0.22,0.31,-2.75,-1.95,288,283,207,236,209,4
577,-0.26,-0.93,0.22,0.73,-3.17,-2.38,289,284,197,239,207,4
578,-0.23,-0.94,0.23,3.42,-1.83,-4.33,287,283,204,239,211,4
579,-0.23,-0.94,0.23,-0.73,-3.11,-2.69,290,288,194,238,218,4
580,-0.24,-0.93,0.24,2.08,-2.93,-2.75,289,281,196,237,208,4
581,-0.24,-0.94,0.23,0.31,-3.6,-2.81,288,284,200,236,209,4
582,-0.25,-0.94,0.23,0.43,-2.32,-2.38,288,281,197,240,212,4
583,-0.25,-0.94,0.22,-1.28,-3.11,-2.62,291,286,199,240,213,4
584,-0.25,-0.94,0.21,-0.49,-3.05,-2.75,289,288,195,236,211,4
585,-0.24,-0.94,0.22,1.4,-2.81,-2.69,291,284,195,234,213,4
586,-0.25,-0.94,0.21,-1.04,-2.69,-2.38,288,287,198,237,215,4
587,-0.25,-0.94,0.22,-0.06,-2.56,-2.44,286,285,197,241,211,4
588,-0.25,-0.94,0.21,-1.34,-2.14,-2.93,289,290,199,237,214,4
589,-0.25,-0.94,0.21,0.37,-2.44,-3.05,289,285,198,240,215,4
590,-0.24,-0.94,0.22,-0.24,-2.62,-2.62,288,285,202,238,208,4
591,-0.24,-0.94,0.21,0.31,-2.69,-3.11,290,285,198,237,212,4
592,-0.24,-0.94,0.21,1.1,-2.93,-2.2,288,290,197,240,211,4
593,-0.25,-0.94,0.2,0.61,-2.99,-2.14,291,285,202,239,209,4
594,-0.25,-0.94,0.21,0.49,-3.36,-2.69,289,285,201,237,212,4
595,-0.26,-0.94,0.2,1.46,-3.17,-1.89,286,283,201,236,210,4
596,-0.24,-0.95,0.2,-0.49,-2.26,-4.58,291,286,202,237,242,4
597,-0.25,-0.94,0.2,0.61,-3.42,-1.46,291,288,196,245,212,4
598,-0.24,-0.94,0.21,1.16,-2.81,-2.93,289,286,198,239,211,4
599,-0.25,-0.94,0.2,0.55,-3.17,-2.01,289,290,202,239,215,4
600,-0.24,-0.94,0.2,0.67,-3.54,-2.01,290,291,213,238,215,4
601,-0.25,-0.95,0.2,-0.12,-3.17,-2.26,289,302,199,240,214,4
602,-0.25,-0.94,0.21,1.1,-2.99,-2.56,291,289,200,240,210,4
603,-0.25,-0.94,0.21,-0.18,-3.05,-2.38,291,290,202,240,213,4
604,-0.25,-0.94,0.2,0.92,-2.87,-2.01,290,288,198,239,212,4
605,-0.23,-0.94,0.2,-2.38,-2.26,-3.42,302,286,200,244,216,4
606,-0.25,-0.94,0.2,-0.06,-2.99,-2.08,290,286,198,241,211,4
607,-0.24,-0.94,0.21,0.85,-2.62,-2.44,292,289,200,241,212,4
608,-0.23,-0.94,0.21,-0.49,-2.38,-4.88,289,286,203,238,214,4
609,-0.24,-0.94,0.21,1.22,-2.93,-2.56,291,286,202,244,213,4
610,-0.25,-0.94,0.21,-0.73,-3.23,-2.56,289,289,203,243,211,4
611,-0.25,-0.94,0.22,0.55,-2.87,-2.75,288,282,203,241,216,4
612,-0.25,-0.94,0.22,-2.08,-2.26,-0.85,292,286,203,238,217,4
613,-0.25,-0.94,0.2,0.43,-2.75,-2.26,290,287,204,241,214,4
614,-0.24,-0.95,0.2,0.61,-3.17,-2.93,290,282,203,244,217,4
615,-0.25,-0.94,0.21,1.71,-2.93,-2.44,292,282,203,239,216,4
616,-0.25,-0.94,0.21,-0.79,-2.62,-2.56,294,283,204,240,212,4
617,-0.25,-0.94,0.2,-0.92,-2.87,-2.44,292,291,201,238,214,4
618,-0.25,-0.94,0.2,-0.61,-2.81,-3.05,287,286,200,241,215,4
619,-0.25,-0.94,0.2,0.24,-3.05,-2.56,287,282,200,242,215,4
620,-0.25,-0.94,0.2,-0.49,-2.5,-2.75,291,289,201,242,215,4
621,-0.25,-0.94,0.2,0.73,-2.75,-2.01,294,288,203,242,214,4
622,-0.25,-0.94,0.21,0.61,-3.54,-2.81,289,284,203,244,204,4
623,-0.24,-0.94,0.2,0.31,-3.23,-2.81,291,287,200,241,216,4
624,-0.25,-0.94,0.2,0.61,-2.69,-2.5,292,290,202,241,213,4
625,-0.25,-0.94,0.2,0.31,-2.62,-2.62,292,283,204,242,212,4
626,-0.25,-0.94,0.2,-0.18,-3.85,-2.5,292,287,206,245,217,4
627,-0.25,-0.94,0.21,1.65,-3.54,-2.62,287,287,200,245,215,4
628,-0.26,-0.95,0.2,1.1,-3.91,-2.99,292,285,202,247,218,4
629,-0.25,-0.94,0.21,1.4,-3.6,-2.93,293,288,203,243,218,4
630,-0.21,-0.94,0.23,1.28,-0.67,-8.42,298,289,202,245,215,4
631,-0.24,-0.94,0.24,2.69,-3.17,-1.22,292,290,203,244,218,4
632,-0.24,-0.94,0.22,-1.46,-4.58,-0.06,288,285,199,246,218,4
633,-0.24,-0.95,0.19,-1.04,-1.22,-1.83,292,287,200,242,216,4
634,-0.26,-0.93,0.24,6.23,-5.74,-2.2,294,284,202,246,248,4
635,-0.22,-0.93,0.26,6.96,-8.12,0.0,294,290,202,247,215,4
636,-0.2,-0.93,0.27,-9.4,-2.93,-8.61,293,287,204,247,216,4
637,-0.27,-0.95,0.2,0.85,-7.39,5.43,291,289,201,245,217,4
638,-0.25,-0.94,0.17,5.25,-2.44,1.1,289,283,203,241,220,4
639,-0.23,-0.95,0.2,-1.95,1.34,-8.54,295,288,205,243,216,4
640,-0.22,-0.95,0.17,-13.18,-5.98,-3.23,295,289,203,245,217,4
641,-0.25,-0.96,0.1,6.53,-8.18,-0.12,293,288,204,242,214,4
642,-0.27,-0.96,0.12,1.16,-0.79,0.73,301,286,203,244,216,4
643,-0.26,-0.94,0.18,6.59,-2.2,-1.46,295,289,200,245,213,4
644,-0.26,-0.94,0.17,3.05,-3.54,-2.69,294,293,204,245,216,4
645,-0.28,-0.94,0.19,5.49,-3.48,-3.66,294,290,200,245,216,4
646,-0.26,-0.94,0.2,3.91,-2.69,-3.42,294,288,209,247,216,4
647,-0.26,-0.94,0.19,-0.18,-2.99,-2.38,293,288,203,246,214,4
648,-0.27,-0.94,0.2,-0.12,-3.05,-2.32,294,287,206,242,219,4
649,-0.27,-0.94,0.19,-0.92,-2.32,-3.3,291,287,203,244,217,4
650,-0.27,-0.94,0.21,1.4,-2.2,-2.32,294,294,201,244,216,4
651,-0.27,-0.94,0.2,0.12,-3.05,-3.23,292,290,205,246,215,4
652,-0.27,-0.94,0.2,1.22,-3.17,-3.17,291,289,204,255,213,4
653,-0.26,-0.94,0.21,-1.1,-3.3,-3.11,292,290,200,242,217,4
654,-0.26,-0.94,0.21,0.06,-2.44,-2.81,292,291,204,245,216,4
655,-0.27,-0.94,0.2,-1.28,-2.5,-2.81,293,297,205,244,216,4
656,-0.27,-0.93,0.21,-0.92,-2.38,-3.23,292,289,202,243,217,4
657,-0.27,-0.94,0.2,-0.67,-2.56,-2.69,295,290,203,245,216,4
658,-0.27,-0.94,0.21,0.43,-1.95,-2.44,294,290,203,244,215,4
659,-0.27,-0.94,0.2,0.12,-3.36,-2.08,292,286,204,241,219,4
660,-0.27,-0.94,0.2,2.69,-2.87,-2.75,295,289,206,246,218,4
661,-0.26,-0.94,0.21,0.55,-2.99,-2.93,294,289,203,244,221,4
662,-0.27,-0.93,0.22,0.06,-2.26,-2.87,294,289,204,247,218,4
663,-0.26,-0.94,0.21,0.31,-3.11,-2.81,291,291,206,248,245,4
664,-0.26,-0.94,0.21,0.79,-2.75,-2.81,294,293,208,245,222,4
665,-0.26,-0.94,0.21,4.39,-3.78,-3.66,293,293,204,247,213,4
666,-0.23,-0.95,0.2,4.39,-0.24,-1.04,293,287,206,247,219,4
667,-0.25,-0.89,0.33,6.41,0.92,2.32,296,291,205,245,217,4
668,-0.3,-0.92,0.27,-4.58,-2.32,-5.25,293,292,204,246,221,4
669,-0.27,-0.94,0.21,-3.3,-3.91,-1.4,295,295,201,248,221,4
670,-0.28,-0.93,0.22,-1.22,-2.81,-3.11,294,293,203,249,218,4
671,-0.27,-0.93,0.22,1.1,-2.44,-2.62,295,287,204,246,219,4
672,-0.28,-0.93,0.23,1.46,-2.56,-2.2,290,290,208,249,233,4
673,-0.28,-0.93,0.23,-0.98,-3.6,-2.5,292,291,206,249,217,4
674,-0.27,-0.93,0.23,0.79,-2.75,-2.62,296,296,208,245,219,4
675,-0.27,-0.93,0.23,-0.55,-3.11,-2.56,291,291,207,250,219,4
676,-0.28,-0.93,0.22,-0.55,-3.17,-2.26,293,295,202,249,221,4
677,-0.28,-0.93,0.22,-0.12,-2.81,-2.2,291,290,208,247,218,4
678,-0.28,-0.93,0.22,0.24,-2.75,-2.87,291,290,217,249,215,4
679,-0.27,-0.93,0.22,-0.43,-2.87,-3.54,294,296,206,247,219,4
680,-0.28,-0.93,0.22,0.61,-4.33,-2.87,292,291,205,247,221,4
681,-0.27,-0.93,0.23,-0.31,-3.11,-2.01,293,290,205,244,222,4
682,-0.27,-0.92,0.28,3.11,-0.79,-5.68,293,295,204,248,221,4
683,-0.28,-0.92,0.25,2.2,-4.09,-2.2,294,291,203,245,219,4
684,-0.27,-0.93,0.25,-0.61,-4.46,-4.33,294,292,207,248,220,4
685,-0.28,-0.93,0.22,1.71,-8.61,-1.59,296,293,202,247,221,4
686,-0.23,-0.94,0.23,-4.7,-9.58,-11.29,296,290,204,251,221,4
687,-0.29,-0.94,0.2,2.99,0.18,-6.65,294,286,208,251,219,4
688,-0.19,-0.94,0.25,1.34,3.42,-12.94,296,289,205,248,216,4
689,-0.22,-0.96,0.2,11.29,3.05,-3.85,296,291,203,250,218,4
690,-0.15,-0.95,0.23,1.04,2.75,1.65,295,287,201,244,219,4
691,-0.22,-0.95,0.21,0.79,-5.37,0.18,295,292,208,248,252,4
692,-0.25,-0.94,0.24,-0.06,-1.95,-0.85,296,298,205,250,222,4
693,-0.18,-0.93,0.26,-2.38,-2.32,-0.06,293,289,208,248,220,4
694,-0.23,-0.95,0.19,5.31,3.91,-4.03,295,291,204,250,219,4
695,-0.24,-0.93,0.25,-3.36,-2.69,-3.6,292,294,204,251,218,4
696,-0.24,-0.94,0.23,0.98,-4.03,-2.93,292,290,207,251,222,4
697,-0.24,-0.94,0.23,1.77,-1.89,-4.39,296,293,206,252,221,4
698,-0.25,-0.94,0.22,0.43,-3.17,-3.3,298,291,203,248,220,4
699,-0.26,-0.94,0.22,0.06,-2.87,-2.01,295,290,208,254,219,4
700,-0.25,-0.94,0.23,0.49,-2.99,-2.14,297,290,209,249,220,4
701,-0.25,-0.94,0.22,0.98,-2.56,-2.62,296,295,205,249,221,4
702,-0.25,-0.94,0.22,-1.53,-2.44,-2.87,297,295,204,253,222,4
703,-0.26,-0.93,0.21,-0.12,-2.56,-2.38,298,292,206,245,220,4
704,-0.24,-0.93,0.24,7.2,-9.52,-4.52,292,289,218,250,221,4
705,-0.26,-0.93,0.26,4.03,-5.55,3.11,298,294,209,249,221,4
706,-0.17,-0.91,0.27,-14.89,3.97,-3.72,296,286,209,248,222,4
707,-0.23,-0.94,0.23,-0.31,-2.01,-2.01,295,291,205,250,219,4
708,-0.24,-0.94,0.22,1.53,-3.97,-3.97,297,294,211,249,222,4
709,-0.24,-0.94,0.23,-0.18,-4.15,-1.46,296,291,208,252,220,4
710,-0.25,-0.94,0.24,1.4,-3.54,-2.26,294,290,206,251,222,4
711,-0.25,-0.93,0.24,1.22,-3.48,-1.77,296,293,207,250,218,4
712,-0.25,-0.93,0.25,0.73,-3.17,-2.08,293,295,206,251,223,4
713,-0.25,-0.93,0.25,0.24,-2.99,-1.83,292,292,202,248,221,4
714,-0.25,-0.94,0.24,-0.06,-2.87,-2.14,292,291,207,247,221,4
715,-0.25,-0.93,0.24,1.4,-3.23,-2.5,299,287,202,252,222,4
716,-0.24,-0.93,0.24,-0.24,-3.05,-3.23,296,291,207,249,223,4
717,-0.25,-0.93,0.24,0.37,-2.44,-2.2,293,291,206,253,224,4
718,-0.25,-0.93,0.24,-0.06,-2.81,-2.69,293,286,209,252,220,4
719,-0.26,-0.95,0.19,1.77,-8.61,-1.22,292,293,210,246,220,4
720,-0.25,-0.93,0.28,2.5,-6.53,-4.52,292,287,210,252,221,4
721,-0.24,-0.9,0.37,3.91,-0.24,-2.14,300,291,205,248,218,4
722,-0.26,-0.94,0.24,-2.99,-1.1,-4.7,295,295,209,253,245,4
723,-0.25,-0.94,0.22,0.12,-2.56,-4.15,293,294,205,250,222,4
724,-0.26,-0.94,0.23,-2.69,-0.43,-3.97,298,291,206,250,220,4
725,-0.26,-0.93,0.22,2.5,-2.81,-1.22,296,299,207,250,221,4
726,-0.25,-0.94,0.22,-0.37,-3.05,-1.89,300,289,206,254,222,4
727,-0.25,-0.94,0.22,-1.22,-3.42,-2.81,298,287,204,251,221,4
728,-0.26,-0.94,0.23,-0.49,-1.83,-2.14,302,291,209,250,222,4
729,-0.26,-0.94,0.22,2.5,-3.78,-2.44,298,291,206,248,223,4
730,-0.25,-0.93,0.24,0.43,-2.56,-1.89,294,288,206,249,220,4
731,-0.26,-0.93,0.23,-0.12,-2.81,-2.44,297,287,207,250,224,4
732,-0.26,-0.93,0.23,1.89,-2.99,-2.32,296,290,206,253,221,4
733,-0.26,-0.93,0.23,-0.31,-3.11,-1.4,299,295,206,248,220,4
734,-0.26,-0.94,0.22,0.43,-2.87,-2.08,297,292,207,250,224,4
735,-0.26,-0.93,0.23,0.98,-3.05,-2.81,296,291,210,252,221,4
736,-0.26,-0.93,0.23,0.67,-2.81,-2.2,296,296,206,253,221,4
737,-0.26,-0.93,0.22,-0.24,-2.32,-3.3,297,289,207,248,219,4
738,-0.26,-0.94,0.23,0.18,-3.42,-2.2,292,289,209,249,222,4
739,-0.26,-0.93,0.23,0.37,-3.05,-2.38,293,291,206,251,221,4
740,-0.26,-0.93,0.23,-0.24,-2.99,-2.26,296,291,205,250,225,4
741,-0.26,-0.93,0.23,0.61,-2.99,-2.14,297,290,206,248,232,4
742,-0.27,-0.93,0.23,0.0,-2.93,-1.89,294,294,207,253,221,4
743,-0.26,-0.93,0.23,0.61,-2.87,-2.38,294,292,208,253,221,4
744,-0.26,-0.94,0.23,0.12,-2.69,-2.81,297,290,209,254,224,4
745,-0.25,-0.93,0.26,0.12,-3.11,-1.77,295,291,206,252,224,4
746,-0.26,-0.94,0.24,3.36,-3.6,-0.98,298,290,205,250,227,4
747,-0.26,-0.93,0.25,-0.43,-1.83,-1.46,297,297,206,250,225,4
748,-0.27,-0.93,0.23,-0.55,-3.48,-1.59,299,295,208,253,221,4
749,-0.27,-0.93,0.23,1.1,-3.17,-2.5,297,294,206,253,224,4
750,-0.27,-0.93,0.24,0.79,-3.48,-2.38,296,295,208,254,222,4
751,-0.27,-0.93,0.24,1.34,-3.66,-2.2,297,287,208,251,224,4
752,-0.26,-0.93,0.25,-0.12,-2.56,-2.26,297,289,210,250,221,4
753,-0.27,-0.93,0.24,-0.73,-2.26,-2.75,297,295,210,251,224,4
754,-0.28,-0.93,0.24,1.04,-2.99,-2.62,297,291,207,253,237,4
755,-0.27,-0.93,0.24,0.31,-2.87,-2.99,297,296,204,254,221,4
756,-0.26,-0.94,0.22,1.16,-3.85,-3.48,297,294,208,251,225,4
757,-0.26,-0.93,0.24,2.56,-3.54,-2.5,299,294,208,253,221,4
758,-0.22,-0.93,0.26,3.05,-2.99,-3.17,299,292,210,251,221,4
759,-0.25,-0.92,0.29,-0.85,-1.34,-4.52,298,292,211,252,221,4
760,-0.23,-0.92,0.28,1.46,-5.43,-2.44,297,295,208,252,222,4
761,-0.24,-0.93,0.26,4.03,-4.88,-1.83,299,293,213,253,220,4
762,-0.26,-0.93,0.25,-7.26,-0.73,-1.53,298,291,207,258,220,4
763,-0.23,-0.95,0.16,-2.44,0.73,-2.69,297,291,208,255,223,4
764,-0.26,-0.94,0.2,3.36,-2.32,-1.59,298,288,211,251,220,4
765,-0.26,-0.93,0.22,-0.18,-2.93,-2.01,298,293,210,252,221,4
766,-0.26,-0.94,0.2,-1.16,-2.2,-3.72,298,287,206,254,222,4
767,-0.26,-0.94,0.2,-0.18,-3.6,-1.16,294,287,214,250,220,4
768,-0.27,-0.94,0.2,0.49,-3.48,-2.32,299,293,207,251,221,4
769,-0.25,-0.94,0.21,0.67,-0.79,-3.3,300,293,208,252,222,4
770,-0.27,-0.94,0.2,2.2,-3.91,-1.46,298,288,211,253,224,4
771,-0.26,-0.94,0.22,2.75,-2.87,-2.56,299,291,209,252,224,4
772,-0.27,-0.94,0.21,-2.69,-2.01,-3.85,294,292,208,253,220,4
773,-0.28,-0.94,0.22,2.44,-2.5,-0.73,298,293,211,254,224,4
774,-0.25,-0.96,0.17,-1.1,-0.06,-4.33,299,289,210,252,219,4
775,-0.26,-0.93,0.24,0.06,-1.04,-3.6,297,295,209,256,218,4
776,-0.28,-0.94,0.22,-2.5,-4.27,-2.75,297,287,208,254,223,4
777,-0.27,-0.93,0.2,-1.65,-3.78,-2.38,297,292,220,254,225,4
778,-0.29,-0.93,0.23,0.55,-2.87,-1.46,298,297,208,253,223,4
779,-0.28,-0.93,0.21,-0.18,-2.93,-2.69,298,291,208,252,222,4
780,-0.27,-0.93,0.22,1.53,-2.99,-2.01,300,295,207,255,223,4
781,-0.27,-0.93,0.22,0.85,-2.5,-2.5,300,288,210,250,223,4
782,-0.27,-0.93,0.22,0.43,-3.54,-2.75,298,289,208,255,222,4
783,-0.27,-0.94,0.19,-0.79,-2.08,-3.6,295,293,206,254,222,4
784,-0.25,-0.94,0.22,1.77,-2.38,-3.17,298,292,206,256,223,4
785,-0.25,-0.94,0.22,0.67,-2.81,-2.75,295,296,208,251,223,4
786,-0.27,-0.94,0.21,-0.06,-2.93,-1.95,300,292,212,253,226,4
787,-0.3,-0.94,0.2,0.37,-5.31,-6.53,301,295,212,253,224,4
788,-0.18,-0.93,0.25,2.93,1.65,-5.74,298,303,207,252,224,4
789,-0.23,-0.94,0.25,2.08,12.82,-9.34,293,296,209,255,223,4
790,-0.23,-0.95,0.18,-3.3,-4.7,-4.21,301,287,210,252,224,4
791,-0.24,-0.96,0.18,-0.55,-10.01,0.67,299,292,207,254,223,4
792,-0.18,-0.96,0.19,-0.06,-1.16,-5.86,297,296,207,255,225,4
793,-0.18,-0.96,0.19,-1.34,-2.01,-3.48,300,290,212,256,226,4
794,-0.16,-0.97,0.19,0.85,-3.36,-4.27,303,295,207,256,226,4
795,-0.18,-0.96,0.19,2.62,-4.39,-2.01,297,296,207,256,226,4
796,-0.17,-0.96,0.19,-0.24,-2.2,-3.54,301,296,212,250,224,4
797,-0.16,-0.96,0.2,1.1,-2.62,-3.11,293,292,208,253,225,4
798,-0.16,-0.96,0.2,4.76,-1.28,-5.86,300,292,206,251,224,4
799,-0.16,-0.97,0.2,3.3,-1.71,-0.43,297,293,209,253,223,4
800,-0.14,-0.97,0.21,-3.91,-5.92,-1.46,296,293,211,249,223,4
801,-0.17,-0.96,0.22,1.16,-2.75,-1.53,297,295,212,253,226,4
802,-0.17,-0.96,0.22,1.28,-2.69,-1.95,299,291,208,254,223,4
803,-0.17,-0.96,0.2,-0.67,-3.11,-1.53,299,289,212,254,224,4
804,-0.16,-0.95,0.24,0.85,-1.95,-3.05,300,292,212,255,225,4
805,-0.18,-0.95,0.23,-1.95,-2.38,-0.55,297,296,211,252,226,4
806,-0.17,-0.96,0.22,1.77,-2.81,-2.75,299,294,206,254,223,4
807,-0.17,-0.96,0.2,0.06,-3.6,-1.71,295,295,210,256,225,4
808,-0.15,-0.97,0.2,-0.49,-3.36,-1.22,294,291,209,256,226,4
809,-0.17,-0.96,0.21,-1.16,-5.49,-1.4,300,296,207,254,224,4
810,-0.14,-0.96,0.22,-0.24,-4.21,-6.53,299,292,211,256,226,4
811,-0.14,-0.97,0.19,3.17,-2.5,1.16,299,290,212,256,227,4
812,-0.16,-0.96,0.21,-1.46,-3.48,-0.98,296,294,212,255,225,4
813,-0.17,-0.96,0.23,3.78,-2.99,-3.97,297,287,213,258,225,4
814,-0.2,-0.95,0.24,2.99,-4.33,-1.22,299,293,208,255,221,4
815,-0.17,-0.96,0.21,-0.18,-3.17,-2.01,296,292,211,251,224,4
816,-0.17,-0.96,0.21,-1.1,-3.05,-1.89,301,289,212,256,224,4
817,-0.17,-0.96,0.21,-0.49,-2.56,-2.56,294,296,214,257,226,4
818,-0.16,-0.96,0.21,-2.44,-2.56,-2.93,301,292,209,254,223,4
819,-0.16,-0.96,0.2,-1.34,-4.15,-1.71,298,292,209,257,223,4
820,-0.16,-0.96,0.21,0.31,-2.87,-2.87,298,294,211,259,247,4
821,-0.17,-0.96,0.23,0.31,-2.44,-3.11,299,292,210,257,225,4
822,-0.17,-0.96,0.22,0.61,-2.69,-2.5,300,292,209,255,222,4
823,-0.17,-0.96,0.21,0.37,-3.42,-2.14,302,290,209,254,223,4
824,-0.17,-0.96,0.21,0.18,-2.93,-2.44,299,294,209,256,225,4
825,-0.17,-0.96,0.21,0.37,-2.26,-3.23,298,293,208,257,223,4
826,-0.17,-0.96,0.21,-0.67,-2.87,-2.08,301,297,220,251,224,4
827,-0.17,-0.97,0.2,-0.24,-2.14,-2.87,300,287,210,257,226,4
828,-0.16,-0.96,0.21,0.92,-2.38,-3.66,300,288,210,255,223,4
829,-0.16,-0.96,0.2,1.22,-2.99,-2.01,300,294,209,260,228,4
830,-0.16,-0.96,0.2,-0.73,-3.23,-1.77,300,297,210,262,222,4
831,-0.17,-0.96,0.2,-0.06,-3.48,-2.5,298,296,212,258,224,4
832,-0.17,-0.96,0.22,-0.43,-2.5,-2.38,301,295,211,253,224,4
833,-0.16,-0.96,0.21,0.06,-2.93,-2.32,298,293,209,256,227,4
834,-0.17,-0.96,0.21,-0.12,-3.23,-2.56,299,289,212,259,222,4
835,-0.16,-0.96,0.21,2.26,-3.36,-3.48,300,296,207,255,223,4
836,-0.15,-0.96,0.21,0.55,-3.23,-2.44,299,289,207,256,222,4
837,-0.16,-0.96,0.2,0.92,-3.36,-1.95,300,290,214,256,225,4
838,-0.17,-0.96,0.21,0.43,-3.05,-2.08,299,290,220,256,227,4
839,-0.16,-0.96,0.21,1.22,-2.62,-2.93,296,297,207,256,227,4
840,-0.16,-0.96,0.21,-0.18,-2.5,-2.26,298,293,213,254,224,4
841,-0.16,-0.96,0.21,0.37,-2.99,-1.89,297,289,208,257,226,4
842,-0.16,-0.96,0.21,1.53,-2.5,-2.93,299,294,213,256,225,4
843,-0.15,-0.96,0.21,0.73,-3.05,-2.5,301,290,209,252,226,4
844,-0.16,-0.96,0.21,0.0,-2.99,-2.08,301,296,209,255,226,4
845,-0.17,-0.97,0.21,0.06,-2.81,-2.75,301,296,210,254,222,4
846,-0.16,-0.96,0.21,0.24,-2.69,-2.93,304,292,212,256,228,4
847,-0.16,-0.96,0.21,0.73,-3.05,-2.14,302,288,211,256,224,4
848,-0.16,-0.96,0.21,1.4,-3.17,-2.14,298,292,209,255,225,4
849,-0.15,-0.96,0.23,0.55,-2.87,-3.11,297,297,217,256,227,4
850,-0.15,-0.96,0.22,0.67,-3.05,-2.2,304,296,215,256,227,4
851,-0.16,-0.96,0.23,-0.73,-4.33,-1.65,301,297,212,258,254,4
852,-0.14,-0.97,0.2,0.18,-4.39,-11.54,306,289,208,259,216,4
853,-0.18,-0.95,0.25,-3.66,-3.78,3.78,304,297,212,256,225,4
854,-0.14,-0.97,0.21,-0.92,-1.34,-2.69,302,297,222,258,227,4
855,-0.16,-0.96,0.21,0.37,-2.14,-2.75,302,297,210,259,223,4
856,-0.15,-0.96,0.21,0.06,-2.81,-3.05,302,297,210,258,222,4
857,-0.16,-0.96,0.21,-0.31,-2.75,-2.93,303,292,209,256,228,4
858,-0.15,-0.96,0.2,0.12,-2.75,-2.93,302,293,217,258,226,4
859,-0.15,-0.97,0.2,0.06,-2.69,-2.56,302,296,213,259,228,4
860,-0.15,-0.97,0.2,0.06,-3.54,-2.38,299,293,211,259,226,4
861,-0.16,-0.96,0.2,-0.12,-2.81,-2.99,302,291,211,255,222,4
862,-0.15,-0.96,0.2,0.43,-2.44,-2.32,302,297,213,257,228,4
863,-0.15,-0.97,0.2,-0.06,-2.93,-2.14,299,292,212,256,227,4
864,-0.15,-0.96,0.21,1.04,-3.36,-1.46,299,297,210,258,224,4
865,-0.16,-0.96,0.21,0.98,-3.3,-2.56,302,297,210,258,226,4
866,-0.16,-0.96,0.2,1.4,-3.11,-2.2,299,297,212,255,224,4
867,-0.15,-0.96,0.21,0.73,-3.48,-2.26,303,294,209,259,225,4
868,-0.15,-0.97,0.21,0.18,-2.62,-2.5,303,303,226,258,226,4
869,-0.14,-0.97,0.21,1.4,-3.36,-2.01,301,293,211,256,225,4
870,-0.15,-0.97,0.2,-1.28,-2.99,-2.38,301,293,210,256,226,4
871,-0.15,-0.96,0.2,0.12,-2.87,-2.5,304,295,211,256,228,4
872,-0.14,-0.97,0.2,0.73,-3.97,-2.01,304,295,210,257,230,4
873,-0.14,-0.97,0.2,1.89,-2.56,-1.95,303,291,208,256,226,4
874,-0.15,-0.96,0.21,0.98,-3.36,-2.81,303,295,209,260,225,4
875,-0.14,-0.96,0.21,1.22,-1.77,-4.03,300,293,221,257,226,4
876,-0.15,-0.96,0.22,1.65,-1.83,-2.99,303,297,207,256,227,4
877,-0.14,-0.96,0.22,1.95,-2.44,-3.3,299,293,211,254,225,4
878,-0.14,-0.96,0.23,0.92,-2.87,-2.26,296,293,214,259,225,4
879,-0.14,-0.96,0.21,0.18,-2.81,-1.89,298,296,224,257,226,4
880,-0.14,-0.96,0.22,-0.24,-3.6,-2.14,301,304,211,256,225,4
881,-0.14,-0.96,0.22,0.12,-2.99,-2.32,301,297,210,254,228,4
882,-0.14,-0.96,0.21,0.55,-2.81,-2.32,300,290,214,259,227,4
883,-0.14,-0.96,0.22,0.43,-2.93,-1.89,303,292,214,258,225,4
884,-0.15,-0.96,0.22,-0.12,-2.69,-1.95,299,294,212,260,225,4
885,-0.14,-0.96,0.23,0.12,-2.99,-2.93,301,290,215,259,226,4
886,-0.14,-0.96,0.22,0.43,-2.93,-2.38,307,293,214,260,228,4
887,-0.15,-0.97,0.21,0.49,-2.87,-2.81,304,290,211,256,225,4
888,-0.14,-0.96,0.22,0.37,-2.2,-3.91,301,290,209,259,226,4
889,-0.13,-0.96,0.23,0.73,-3.11,-2.62,301,289,211,256,229,4
890,-0.14,-0.96,0.22,0.12,-3.85,-2.14,301,295,211,256,226,4
891,-0.14,-0.96,0.22,1.1,-2.93,-1.22,299,292,215,259,225,4
892,-0.13,-0.97,0.21,1.95,-3.42,-2.2,301,293,214,257,226,4
893,-0.14,-0.97,0.22,0.06,-2.87,-3.42,301,298,215,260,216,4
894,-0.12,-0.96,0.24,-1.89,-2.5,-5.19,303,293,213,257,229,4
895,-0.16,-0.96,0.22,-1.28,-4.58,0.43,302,298,211,258,227,4
896,-0.13,-0.96,0.25,1.34,-1.4,-0.18,302,296,211,266,224,4
897,-0.12,-0.96,0.25,4.39,-2.5,-2.32,302,290,207,261,226,4
898,-0.12,-0.95,0.27,5.25,-2.38,-2.01,305,297,210,261,225,4
899,-0.11,-0.95,0.28,4.09,-1.28,-0.98,300,294,214,258,226,4
900,-0.15,-0.95,0.27,-1.53,-3.6,-1.59,303,294,213,254,229,4
901,-0.16,-0.95,0.29,-0.18,-6.23,-1.77,304,298,215,259,224,4
902,-0.15,-0.96,0.26,-1.95,-1.16,-4.64,303,299,211,258,227,4
903,-0.14,-0.95,0.26,1.59,-1.65,-3.23,305,290,211,261,231,4
904,-0.15,-0.96,0.24,0.31,-5.49,-2.81,304,295,211,259,224,4
905,-0.13,-0.95,0.27,1.95,-3.72,-2.14,299,293,212,263,224,4
906,-0.14,-0.95,0.26,0.49,-3.72,-2.08,292,296,212,260,228,4
907,-0.14,-0.96,0.26,-0.31,-3.48,-0.61,303,297,215,258,237,4
908,-0.16,-0.95,0.26,-2.2,-3.66,-2.2,302,294,214,259,228,4
909,-0.15,-0.96,0.26,-1.65,-4.33,-1.46,301,294,212,259,226,4
910,-0.14,-0.95,0.25,-0.73,-8.97,-2.32,303,297,213,260,228,4
911,-0.13,-0.95,0.26,1.65,-0.92,-1.83,302,297,212,259,234,4
912,-0.12,-0.95,0.26,0.67,-2.2,-2.93,305,294,211,257,226,4
913,-0.12,-0.99,0.19,0.43,1.22,-4.39,304,294,213,259,226,4
914,-0.15,-0.94,0.28,7.57,-4.27,-0.67,305,294,216,257,228,4
915,-0.16,-0.94,0.28,-4.33,-2.62,-3.48,300,298,215,261,226,4
916,-0.17,-0.94,0.3,0.79,2.81,-4.09,300,299,212,258,224,4
917,-0.13,-0.95,0.27,0.98,0.61,0.12,302,298,210,258,229,4
918,-0.19,-0.93,0.31,0.12,-4.46,0.12,305,298,217,260,230,4
919,-0.16,-0.95,0.27,-2.08,-5.92,-2.69,304,291,210,262,226,4
920,-0.16,-0.95,0.25,-1.46,-3.36,-2.87,304,295,214,257,224,4
921,-0.17,-0.94,0.28,-0.73,-2.87,-2.69,305,294,215,257,226,4
922,-0.18,-0.94,0.27,-0.18,-3.17,-2.01,301,294,214,260,228,4
923,-0.17,-0.96,0.22,-4.88,-5.07,-2.62,304,293,214,274,253,4
924,-0.17,-0.94,0.28,6.84,-2.93,-1.28,301,298,212,259,226,4
925,-0.18,-0.96,0.23,2.2,-0.79,-5.8,304,293,213,259,225,4
926,-0.18,-0.96,0.25,-1.22,-1.83,-2.5,303,296,216,259,227,4
927,-0.16,-0.95,0.24,0.92,2.2,-4.39,307,298,209,256,226,4
928,-0.16,-0.94,0.27,-0.24,-1.83,-2.2,300,292,213,260,229,4
929,-0.18,-0.95,0.25,-0.37,-4.76,-0.49,303,291,213,261,225,4
930,-0.18,-0.95,0.25,-0.61,-3.6,-1.4,301,294,217,259,224,4
931,-0.19,-0.94,0.26,0.79,-4.09,-1.16,304,294,215,260,224,4
932,-0.19,-0.94,0.26,1.16,-2.81,-2.38,302,289,216,256,232,4
933,-0.18,-0.95,0.27,1.28,-2.81,-2.44,304,297,211,271,226,4
934,-0.19,-0.94,0.27,0.98,-3.48,-1.89,307,296,211,261,227,4
935,-0.19,-0.94,0.28,1.34,-2.81,-2.26,303,297,214,257,228,4
936,-0.18,-0.94,0.28,0.92,-3.3,-2.44,300,294,215,257,226,4
937,-0.18,-0.94,0.28,0.67,-2.99,-2.14,305,290,213,261,227,4
938,-0.18,-0.94,0.29,0.31,-2.62,-2.14,302,294,216,262,228,4
939,-0.19,-0.94,0.28,-0.12,-2.99,-2.32,303,300,215,259,229,4
940,-0.2,-0.94,0.28,0.98,-3.36,-1.53,303,297,212,256,227,4
941,-0.2,-0.94,0.28,-0.49,-2.75,-1.65,303,296,214,268,228,4
942,-0.2,-0.94,0.28,0.61,-2.75,-1.89,300,295,211,260,225,4
943,-0.19,-0.94,0.28,-1.04,-2.32,-2.87,303,297,213,259,226,4
944,-0.19,-0.94,0.28,-0.18,-3.3,-2.08,302,296,208,257,225,4
945,-0.19,-0.94,0.27,-1.4,-3.54,-1.71,303,299,213,271,226,4
946,-0.19,-0.95,0.26,-0.61,-3.17,-2.01,306,289,212,259,229,4
947,-0.19,-0.94,0.26,0.49,-3.11,-2.81,303,297,211,261,227,4
948,-0.19,-0.95,0.26,0.43,-3.23,-2.5,303,294,214,260,226,4
949,-0.19,-0.94,0.27,1.4,-3.05,-2.56,314,296,214,263,226,4
950,-0.19,-0.94,0.26,0.79,-3.17,-2.75,303,294,216,260,226,4
951,-0.19,-0.94,0.27,-0.18,-2.87,-2.32,302,298,213,262,228,4
952,-0.2,-0.94,0.27,0.49,-3.11,-2.5,304,296,216,262,229,4
953,-0.18,-0.95,0.27,0.79,-2.5,-2.69,304,300,213,262,226,4
954,-0.19,-0.94,0.27,0.0,-2.87,-2.14,304,295,215,256,229,4
955,-0.19,-0.94,0.27,0.37,-2.93,-2.44,305,295,212,259,226,4
956,-0.19,-0.94,0.27,-0.18,-2.81,-1.95,304,291,213,263,226,4
957,-0.2,-0.94,0.27,0.49,-2.44,-2.93,301,295,210,262,226,4
958,-0.18,-0.94,0.28,0.06,-2.2,-2.87,304,295,211,259,229,4
959,-0.19,-0.94,0.27,0.61,-2.62,-2.87,306,295,216,257,228,4
960,-0.2,-0.94,0.27,-0.55,-2.87,-2.81,302,296,215,260,226,4
961,-0.19,-0.94,0.27,-0.12,-2.75,-2.56,304,296,217,268,226,4
962,-0.19,-0.94,0.27,0.49,-2.87,-2.2,304,290,211,262,228,4
963,-0.19,-0.94,0.27,0.31,-2.56,-2.5,302,291,213,262,229,4
964,-0.19,-0.94,0.27,-0.24,-3.85,-2.44,304,294,213,263,227,4
965,-0.19,-0.94,0.27,1.04,-3.3,-2.2,307,297,216,262,227,4
966,-0.19,-0.94,0.28,-0.12,-3.11,-2.5,300,307,214,260,226,4
967,-0.19,-0.94,0.28,0.85,-2.69,-2.32,301,295,212,259,226,4
968,-0.19,-0.94,0.28,0.67,-3.3,-2.14,304,297,211,262,228,4
969,-0.19,-0.94,0.28,-0.06,-3.3,-1.65,306,290,214,263,224,4
970,-0.19,-0.94,0.28,0.98,-2.93,-2.08,304,297,216,259,228,4
971,-0.19,-0.94,0.29,-0.18,-3.36,-2.14,307,301,214,261,222,4
972,-0.2,-0.94,0.28,0.37,-2.87,-2.26,304,294,217,260,230,4
973,-0.19,-0.93,0.29,0.61,-2.08,-2.56,304,298,211,261,225,4
974,-0.19,-0.94,0.28,-0.12,-3.48,-2.32,306,297,214,260,230,4
975,-0.19,-0.94,0.28,0.79,-3.42,-2.08,305,295,215,264,230,4
976,-0.19,-0.94,0.28,-0.67,-3.11,-2.5,304,298,212,262,228,4
977,-0.2,-0.94,0.26,1.16,-3.6,-0.73,307,297,217,260,225,4
978,-0.2,-0.94,0.26,0.55,-2.93,-1.4,305,295,210,259,224,4
979,-0.2,-0.94,0.26,0.43,-2.62,-2.93,300,298,212,263,226,4
980,-0.21,-0.94,0.26,-0.67,-2.08,-1.28,303,303,217,259,227,4
981,-0.21,-0.94,0.26,1.46,-2.2,-2.26,297,297,217,261,227,4
982,-0.2,-0.95,0.26,0.61,-2.93,-2.69,301,302,216,259,227,4
983,-0.19,-0.94,0.27,1.34,-1.95,-4.39,302,306,217,260,227,4
984,-0.17,-0.93,0.28,-2.2,-1.4,-2.32,301,299,215,260,228,4
985,-0.21,-0.94,0.25,6.84,-2.75,-4.03,302,295,218,260,228,4
986,-0.19,-0.93,0.31,0.0,-2.81,-1.59,302,303,216,261,229,4
987,-0.17,-0.94,0.28,-0.06,-2.99,-4.15,302,297,214,266,225,4
988,-0.17,-0.93,0.32,0.37,-1.04,-3.54,301,296,215,262,228,4
989,-0.18,-0.93,0.32,2.56,-2.08,-2.75,305,303,214,261,228,4
990,-0.19,-0.94,0.28,1.46,-1.95,-1.83,300,305,213,263,228,4
991,-0.17,-0.93,0.32,0.79,-2.56,-1.89,302,301,217,260,231,4
992,-0.19,-0.94,0.28,2.01,-3.05,-3.11,299,298,216,262,228,4
993,-0.19,-0.93,0.3,0.37,-3.72,-3.11,304,303,214,263,227,4
994,-0.19,-0.94,0.3,0.73,-1.28,-2.26,303,299,213,263,227,4
995,-0.19,-0.93,0.31,0.55,-3.23,-1.22,312,296,218,262,225,4
996,-0.2,-0.93,0.3,0.61,-3.42,-1.4,305,302,215,260,230,4
997,-0.2,-0.93,0.3,-0.06,-3.54,-1.46,304,299,217,263,230,4
998,-0.2,-0.93,0.3,-0.06,-2.93,-2.44,302,300,214,261,228,4
999,-0.2,-0.93,0.3,0.49,-2.62,-1.89,302,298,217,264,228,4
1000,-0.2,-0.93,0.29,1.1,-3.23,-2.01,306,297,215,260,229,4
1001,-0.2,-0.93,0.31,0.37,-2.56,-1.89,303,294,217,261,227,4
1002,-0.2,-0.93,0.3,-0.06,-3.17,-2.38,304,299,217,264,226,4
1003,-0.21,-0.93,0.3,0.18,-3.6,-1.95,303,301,215,264,228,4
1004,-0.2,-0.93,0.3,-0.24,-2.99,-1.95,304,295,213,262,231,4
1005,-0.2,-0.93,0.29,0.06,-3.3,-1.77,303,295,218,262,227,4
1006,-0.19,-0.89,0.29,-0.31,-3.48,-2.44,302,300,224,261,225,4
1007,-0.19,-0.94,0.3,-5.74,0.18,-3.97,303,305,217,258,226,4
1008,-0.19,-0.94,0.27,2.01,-3.23,-2.75,304,301,217,260,225,4
1009,-0.19,-0.94,0.27,0.61,-2.93,-2.44,300,305,213,260,230,4
1010,-0.2,-0.93,0.3,-0.85,-2.87,-1.53,305,299,215,260,229,4
1011,-0.2,-0.94,0.28,-0.98,-2.32,-2.75,303,301,215,260,227,4
1012,-0.21,-0.93,0.25,-2.87,-6.53,-1.04,306,301,217,261,229,4
1013,-0.26,-0.94,0.26,0.61,-7.2,2.38,304,300,216,261,227,4
1014,-0.18,-0.93,0.27,0.24,-2.5,-8.18,301,300,214,263,232,4
1015,-0.2,-0.92,0.29,2.87,-5.07,-0.24,300,302,213,260,228,4
1016,-0.21,-0.93,0.29,1.89,-3.11,-2.93,302,302,215,260,229,4
1017,-0.21,-0.93,0.29,1.22,-3.72,-1.95,302,300,214,261,229,4
1018,-0.22,-0.93,0.3,0.79,-2.14,-2.14,299,300,218,261,231,4
1019,-0.22,-0.94,0.31,-0.79,-2.56,-1.89,298,301,212,261,230,4
1020,-0.22,-0.93,0.29,0.73,-3.42,-2.81,303,294,217,258,226,4
1021,-0.21,-0.93,0.28,0.85,-3.17,-1.34,303,301,214,261,230,4
1022,-0.22,-0.93,0.3,0.49,-2.69,-1.46,299,303,213,264,230,4
1023,-0.21,-0.93,0.29,-0.18,-3.48,-2.01,302,304,215,261,230,4
1024,-0.22,-0.93,0.3,2.14,-1.46,-2.62,300,300,215,263,228,4
1025,-0.21,-0.93,0.29,-0.18,-2.75,-2.62,303,298,213,264,228,4
1026,-0.06,-0.97,0.25,27.53,1.16,-7.32,287,261,192,220,197,4
1027,-0.05,-0.96,0.28,7.14,-7.51,-4.52,289,265,194,218,199,4
1028,-0.03,-0.96,0.31,-1.65,-4.58,1.77,286,272,198,224,196,4
1029,-0.05,-0.93,0.31,-0.67,-1.22,2.01,287,267,196,219,198,4
1030,-0.06,-0.96,0.29,0.24,0.0,-4.27,286,272,196,219,198,4
1031,-0.04,-0.95,0.26,1.1,-0.55,-1.04,289,265,197,221,198,4
1032,-0.06,-0.95,0.3,-1.16,-0.49,0.61,288,268,199,219,199,4
1033,-0.11,-0.96,0.23,-1.34,-8.3,-2.14,290,280,202,224,199,4
1034,-0.1,-0.95,0.26,-0.12,-4.09,-4.03,289,280,200,223,200,4
1035,-0.1,-0.96,0.28,-2.87,-3.54,-2.69,287,280,205,223,198,4
1036,-0.09,-0.96,0.27,2.01,-4.09,-2.2,286,286,202,224,231,4
1037,-0.08,-0.96,0.3,-1.22,-4.21,-1.16,287,283,205,222,199,4
1038,-0.1,-0.95,0.29,0.85,-3.66,-1.4,285,283,206,221,202,4
1039,-0.1,-0.95,0.28,1.22,-3.48,-2.69,291,286,202,224,199,4
1040,-0.09,-0.95,0.31,0.92,-3.17,-1.83,287,281,201,225,199,4
1041,-0.1,-0.95,0.3,-2.26,-2.75,-3.11,288,282,206,225,202,4
1042,-0.09,-0.95,0.27,-3.11,-1.59,-3.97,286,284,208,223,199,4
1043,-0.1,-0.95,0.28,2.5,-4.15,-3.3,289,285,205,222,199,4
1044,-0.1,-0.95,0.29,0.98,-2.87,-3.54,291,287,206,222,201,4
1045,-0.1,-0.95,0.29,-5.19,2.14,-7.57,291,281,208,222,201,4
1046,-0.1,-0.96,0.3,-2.75,-4.7,-2.08,288,284,219,224,205,4
1047,-0.09,-0.95,0.28,-0.49,-2.93,-2.99,286,285,205,228,200,4
1048,-0.09,-0.95,0.28,-0.12,-1.53,-3.85,290,286,219,229,204,4
1049,-0.09,-0.96,0.28,-0.24,-1.95,-2.99,290,286,209,224,204,4
1050,-0.1,-0.95,0.28,-0.43,-3.23,-1.77,298,285,208,227,204,4
1051,-0.09,-0.95,0.29,0.85,-2.38,-1.59,287,281,205,226,212,4
1052,-0.1,-0.95,0.29,-1.22,-2.32,-3.42,286,281,206,226,204,4
1053,-0.11,-0.95,0.31,1.16,-2.32,-3.85,288,287,203,230,199,4
1054,-0.1,-0.95,0.3,-0.73,-2.44,-3.6,288,282,206,230,203,4
1055,-0.08,-0.95,0.3,0.85,-1.65,-3.3,289,281,204,225,205,4
1056,-0.08,-0.95,0.29,0.0,-1.83,-4.33,284,298,206,228,204,4
1057,-0.1,-0.95,0.29,0.61,-1.71,-4.33,286,281,206,231,204,4
1058,-0.08,-0.95,0.28,0.31,-2.56,-3.17,290,286,209,227,204,4
1059,-0.07,-0.96,0.28,-1.22,-2.08,-5.07,290,283,209,227,204,4
1060,-0.05,-0.96,0.26,-0.92,-2.99,-3.11,290,285,206,230,205,4
1061,-0.06,-0.96,0.28,1.28,-2.26,-2.5,291,284,211,229,203,4
1062,-0.05,-0.95,0.28,0.12,-5.8,-2.44,290,282,207,230,204,4
1063,-0.05,-0.96,0.29,0.55,-2.62,-3.11,293,287,206,235,202,4
1064,-0.05,-0.95,0.28,0.61,-3.23,-2.32,291,284,207,232,204,4
1065,-0.06,-0.96,0.29,0.92,-3.42,-1.46,288,287,210,227,204,4
1066,-0.07,-0.95,0.29,0.85,-2.81,-2.69,291,287,207,231,204,4
1067,-0.07,-0.96,0.29,-0.31,-3.23,-1.53,290,289,209,230,207,4
1068,-0.06,-0.96,0.3,0.49,-3.97,-1.28,292,292,200,232,207,4
1069,-0.06,-0.96,0.29,1.4,-2.93,-2.08,290,289,204,233,203,4
1070,-0.06,-0.96,0.3,-0.85,-3.11,-3.48,291,291,209,227,209,4
1071,-0.07,-0.95,0.29,1.83,-4.33,-1.89,292,290,206,233,208,4
1072,-0.06,-0.95,0.29,0.12,-4.27,-2.5,289,283,208,241,206,4
1073,-0.05,-0.95,0.29,0.12,-2.5,-2.2,291,291,206,231,207,4
1074,-0.06,-0.95,0.29,0.67,-2.5,-3.05,294,290,210,229,201,4
1075,-0.07,-0.96,0.3,1.28,-5.31,0.49,291,292,207,230,207,4
1076,-0.06,-0.96,0.27,1.59,-3.48,0.24,291,289,207,230,205,4
1077,-0.08,-0.95,0.29,1.4,-3.3,-1.89,292,286,206,233,246,4
1078,-0.07,-0.95,0.3,0.67,-3.91,-3.11,294,294,208,234,203,4
1079,-0.06,-0.95,0.3,-0.31,-1.77,-3.17,292,290,210,231,208,4
1080,-0.07,-0.95,0.3,-1.1,-2.26,-2.81,290,291,212,233,208,4
1081,-0.06,-0.95,0.29,0.79,-2.69,-2.08,294,290,212,233,208,4
1082,-0.07,-0.95,0.29,2.01,-2.99,-0.92,293,291,210,229,207,4
1083,-0.06,-0.95,0.28,1.95,-3.48,-1.28,296,295,210,232,209,4
1084,-0.06,-0.95,0.29,1.53,-3.78,-2.38,295,289,206,232,209,4
1085,-0.06,-0.95,0.28,1.22,-3.11,-2.44,291,292,208,231,204,4
1086,-0.06,-0.95,0.29,0.24,-3.36,-2.38,295,301,212,232,205,4
1087,-0.06,-0.96,0.29,0.18,-2.44,-3.54,295,290,210,235,206,4
1088,-0.07,-0.96,0.29,0.18,-3.48,-2.5,294,295,209,233,208,4
1089,-0.07,-0.96,0.29,0.43,-2.44,-2.2,294,294,207,236,207,4
1090,-0.06,-0.95,0.29,0.49,-3.23,-1.83,292,296,209,233,207,4
1091,-0.07,-0.95,0.3,0.24,-2.5,-2.87,290,293,217,232,206,4
1092,-0.08,-0.95,0.31,0.0,-2.62,-2.87,290,292,209,236,208,4
1093,-0.07,-0.95,0.3,0.98,-2.75,-2.32,294,288,212,236,214,4
1094,-0.07,-0.95,0.3,-0.06,-2.75,-2.81,293,295,209,234,209,4
1095,-0.06,-0.95,0.31,-0.49,-3.48,-3.05,294,296,209,234,210,4
1096,-0.06,-0.95,0.3,1.04,-3.6,-2.26,291,294,209,236,214,4
1097,-0.06,-0.95,0.3,-2.62,-1.95,-3.42,290,296,208,236,210,4
1098,-0.06,-0.96,0.28,-2.5,-4.21,-2.38,292,298,209,236,210,4
1099,-0.07,-0.95,0.27,2.26,-1.34,-7.26,290,292,209,235,204,4
1100,-0.04,-0.96,0.29,-0.98,-2.81,-2.2,296,291,210,231,209,4
1101,-0.06,-0.95,0.29,1.4,-2.44,-1.95,296,292,210,238,206,4
1102,-0.05,-0.95,0.29,-0.18,-3.85,-3.23,296,292,211,231,210,4
1103,-0.06,-0.96,0.29,-0.12,-3.17,-3.54,305,291,210,234,207,4
1104,-0.06,-0.96,0.29,1.4,-2.5,-3.42,295,295,209,232,207,4
1105,-0.05,-0.96,0.27,-0.67,-0.98,-2.99,296,287,212,234,208,4
1106,-0.07,-0.95,0.31,-0.24,-5.25,-1.34,297,297,206,237,204,4
1107,-0.05,-0.96,0.28,-1.59,-3.3,-2.69,295,290,212,238,212,4
1108,-0.06,-0.95,0.31,0.85,-2.32,-2.75,292,296,210,235,209,4
1109,-0.05,-0.96,0.29,-0.12,-2.62,-2.99,295,290,212,234,213,4
1110,-0.05,-0.96,0.27,0.55,-3.17,-2.2,296,287,208,236,235,4
1111,-0.06,-0.95,0.28,-1.28,-2.32,-3.66,295,294,207,237,210,4
1112,-0.06,-0.96,0.29,0.49,-2.69,-2.44,294,294,216,239,208,4
1113,-0.05,-0.95,0.29,0.12,-2.62,-3.3,290,290,213,237,208,4
1114,-0.07,-0.96,0.28,-1.65,-3.48,-3.6,292,292,212,239,211,4
1115,-0.06,-0.96,0.28,1.22,-3.48,-0.49,294,295,209,233,234,4
1116,-0.06,-0.96,0.28,-0.24,-3.3,-2.56,293,292,215,240,208,4
1117,-0.08,-0.96,0.29,-0.98,-3.23,-2.14,291,292,209,237,209,4
1118,-0.05,-0.95,0.28,0.85,-2.38,-3.23,292,296,210,237,210,4
1119,-0.06,-0.96,0.28,0.24,-1.16,-3.42,294,296,213,235,210,4
1120,-0.06,-0.96,0.27,1.04,-3.72,-2.69,286,298,211,239,213,4
1121,-0.05,-0.96,0.28,-0.24,-2.93,-3.11,294,288,210,237,207,4
1122,-0.06,-0.96,0.29,-1.04,-3.23,-3.6,294,291,213,241,210,4
1123,-0.05,-0.96,0.29,0.61,-2.38,-2.44,296,298,212,240,211,4
1124,-0.06,-0.96,0.28,-0.61,-3.05,-2.44,296,294,212,239,247,4
1125,-0.06,-0.96,0.28,-0.31,-2.87,-1.95,297,293,210,240,210,4
1126,-0.06,-0.96,0.28,0.98,-3.17,-0.37,294,294,214,237,247,4
1127,-0.06,-0.96,0.28,-0.18,-2.93,-2.99,291,297,212,239,207,4
1128,-0.05,-0.96,0.28,1.1,-2.99,-2.69,296,293,208,239,204,4
1129,-0.06,-0.96,0.28,0.0,-2.81,-2.75,294,294,219,246,209,4
1130,-0.06,-0.96,0.28,0.85,-3.3,-2.5,295,296,211,237,214,4
1131,-0.06,-0.96,0.29,0.06,-2.62,-2.56,296,299,213,237,211,4
1132,-0.07,-0.95,0.29,1.28,-3.3,-1.77,296,296,215,239,209,4
1133,-0.06,-0.96,0.29,0.18,-3.6,-1.71,295,304,210,238,211,4
1134,-0.07,-0.95,0.28,-0.55,-2.93,-2.44,294,295,211,240,210,4
1135,-0.07,-0.95,0.29,0.12,-2.32,-2.93,293,294,214,241,210,4
1136,-0.07,-0.96,0.29,-0.98,-2.87,-3.36,295,299,214,240,210,4
1137,-0.08,-0.95,0.3,-1.28,-1.95,-3.97,297,299,212,238,237,4
1138,-0.08,-0.95,0.3,-0.79,-3.36,-2.44,298,295,212,239,229,4
1139,-0.07,-0.95,0.3,0.79,-3.54,-2.81,294,289,219,240,212,4
1140,-0.08,-0.95,0.3,0.79,-3.11,-2.2,296,296,210,235,208,4
1141,-0.07,-0.95,0.29,0.73,-2.2,-2.56,294,295,209,241,249,4
1142,-0.07,-0.95,0.28,-0.12,-3.17,-2.14,292,291,212,240,211,4
1143,-0.08,-0.96,0.3,0.24,-2.62,-2.69,298,293,212,237,210,4
1144,-0.07,-0.95,0.3,-0.85,-3.3,-2.62,296,291,214,237,210,4
1145,-0.07,-0.95,0.29,0.18,-2.93,-2.81,296,311,210,242,211,4
1146,-0.07,-0.95,0.29,0.43,-2.93,-2.44,293,294,213,240,212,4
1147,-0.07,-0.95,0.3,0.43,-2.69,-2.44,295,297,213,246,211,4
1148,-0.07,-0.96,0.3,0.43,-1.65,-3.11,293,297,213,239,212,4
1149,-0.07,-0.95,0.31,1.1,-2.08,-2.75,293,291,216,246,212,4
1150,-0.07,-0.95,0.31,0.06,-3.3,-2.32,296,297,210,241,214,4
1151,-0.06,-0.95,0.31,0.12,-3.11,-2.01,296,290,210,241,211,4
1152,-0.07,-0.95,0.3,0.43,-3.3,-2.69,295,294,214,242,211,4
1153,-0.07,-0.95,0.31,1.4,-2.56,-2.38,295,295,210,243,211,4
1154,-0.08,-0.95,0.31,0.73,-2.99,-2.01,287,296,210,240,211,4
1155,-0.09,-0.95,0.31,0.24,-2.38,-3.17,296,296,210,243,211,4
1156,-0.08,-0.95,0.31,0.49,-3.91,-2.5,297,294,215,241,210,4
1157,-0.09,-0.95,0.31,3.85,-3.66,-4.09,298,299,211,241,211,4
1158,-0.07,-0.94,0.3,1.46,-3.72,-2.75,296,298,212,239,214,4
1159,-0.06,-0.94,0.31,0.06,-2.38,-2.62,296,301,214,244,228,4
1160,-0.08,-0.94,0.31,0.67,-3.11,-2.26,295,300,212,243,211,4
1161,-0.08,-0.95,0.31,-0.43,-2.81,-2.56,296,290,213,242,220,4
1162,-0.07,-0.95,0.31,0.24,-3.11,-2.69,297,300,213,246,212,4
1163,-0.08,-0.95,0.31,-0.49,-2.32,-2.14,296,292,213,238,211,4
1164,-0.08,-0.95,0.31,1.65,-3.91,-1.71,296,292,212,248,213,4
1165,-0.07,-0.95,0.31,0.61,-4.21,-2.01,298,300,212,239,212,4
1166,-0.07,-0.95,0.31,0.24,-3.3,-3.17,293,311,214,242,209,4
1167,-0.07,-0.95,0.32,0.0,-2.32,-3.3,297,296,211,244,210,4
1168,-0.08,-0.94,0.32,0.67,-2.62,-2.26,297,291,213,242,217,4
1169,-0.08,-0.94,0.32,0.31,-2.32,-2.2,296,296,212,243,207,4
1170,-0.09,-0.94,0.32,-0.55,-2.99,-2.01,298,293,213,245,217,4
1171,-0.09,-0.95,0.31,-0.98,-2.01,-2.2,299,296,209,244,214,4
1172,-0.06,-0.95,0.31,1.65,-1.65,-3.11,296,297,211,246,211,4
1173,-0.09,-0.95,0.32,-3.78,-3.48,-3.05,299,297,213,245,211,4
1174,-0.09,-0.94,0.34,-0.18,-2.87,-2.56,297,291,213,240,214,4
1175,-0.1,-0.95,0.32,-0.55,-3.66,-3.36,297,296,211,240,214,4
1176,-0.08,-0.95,0.31,-0.06,-3.11,-3.11,294,299,214,243,207,4
1177,-0.08,-0.95,0.32,-0.92,-2.38,-2.5,296,298,212,241,214,4
1178,-0.08,-0.95,0.31,-1.1,-2.08,-4.15,297,296,216,240,214,4
1179,-0.08,-0.95,0.31,0.31,-2.5,-2.87,299,302,227,243,215,4
1180,-0.08,-0.95,0.31,-0.67,-3.11,-2.75,298,297,215,243,214,4
1181,-0.07,-0.95,0.31,-1.28,-3.72,-3.42,296,294,214,243,211,4
1182,-0.07,-0.94,0.32,1.95,-2.14,-2.32,296,297,213,244,214,4
1183,-0.08,-0.95,0.3,1.89,-3.17,-2.69,298,300,214,241,213,4
1184,-0.07,-0.95,0.3,-0.18,-2.14,-2.75,298,297,214,240,241,4
1185,-0.07,-0.95,0.3,-0.49,-2.75,-2.75,299,298,210,243,214,4
1186,-0.07,-0.95,0.31,0.67,-2.81,-2.69,296,300,214,245,213,4
1187,-0.09,-0.95,0.29,-2.99,-3.05,-3.91,297,296,214,243,211,4
1188,-0.08,-0.95,0.31,0.85,-3.48,-1.95,295,300,217,240,214,4
1189,-0.06,-0.95,0.3,-0.67,-2.08,-3.91,297,298,213,242,211,4
1190,-0.07,-0.95,0.31,1.71,-2.93,-2.5,299,298,219,244,212,4
1191,-0.07,-0.95,0.31,-0.37,-2.01,-2.87,297,297,216,244,213,4
1192,-0.07,-0.95,0.29,-3.66,-2.5,-1.46,295,297,214,243,215,4
1193,-0.07,-0.95,0.32,2.56,-3.66,-2.14,299,293,213,240,214,4
1194,-0.08,-0.95,0.31,-1.46,-2.93,-3.36,297,301,216,245,213,4
1195,-0.07,-0.95,0.29,0.31,-2.14,-3.42,294,301,215,245,213,4
1196,-0.07,-0.95,0.29,1.16,-3.42,-2.08,296,298,214,243,214,4
1197,-0.06,-0.96,0.29,1.46,-3.78,-2.5,294,297,214,243,213,4
1198,-0.06,-0.95,0.29,0.92,-3.05,-2.75,296,300,214,244,213,4
1199,-0.06,-0.95,0.3,-0.12,-3.11,-2.5,297,295,215,243,214,4
1200,-0.08,-0.95,0.29,0.67,-2.5,-1.83,298,302,214,242,215,4
1201,-0.07,-0.95,0.29,-0.37,-2.44,-2.93,296,299,217,240,216,4
1202,-0.08,-0.95,0.3,0.92,-3.11,-2.14,299,297,215,241,215,4
1203,-0.08,-0.95,0.29,0.85,-2.5,-2.56,295,304,213,240,215,4
1204,-0.08,-0.95,0.29,1.4,-3.66,-2.26,295,304,213,244,214,4
1205,-0.08,-0.95,0.29,-0.24,-3.11,-3.42,299,303,214,243,215,4
1206,-0.07,-0.95,0.3,1.4,-3.66,-2.01,299,303,218,241,215,4
1207,-0.06,-0.95,0.3,0.24,-3.6,-2.5,296,300,218,243,214,4
1208,-0.07,-0.95,0.3,-0.49,-2.14,-1.83,296,301,215,245,232,4
1209,-0.08,-0.95,0.29,-0.12,-2.93,-2.44,307,301,216,246,215,4
1210,-0.1,-0.95,0.3,-0.67,2.87,-1.83,298,304,216,244,214,4
1211,-0.07,-0.95,0.29,1.4,-2.93,-2.5,301,305,212,247,213,4
1212,-0.09,-0.95,0.29,0.12,-2.81,-2.44,299,316,215,243,215,4
1213,-0.07,-0.96,0.29,1.22,-3.17,-2.01,297,316,218,245,214,4
1214,-0.07,-0.95,0.32,1.83,-2.81,-2.93,297,316,218,248,213,4
1215,-0.08,-0.94,0.32,1.53,-3.23,-2.26,298,307,221,247,214,4
1216,-0.08,-0.95,0.32,0.12,-3.3,-2.87,301,311,221,244,215,4
1217,-0.07,-0.95,0.31,0.73,-2.69,-2.01,299,309,219,246,212,4
1218,-0.07,-0.95,0.32,0.31,-2.93,-2.26,299,312,217,245,211,4
1219,-0.08,-0.95,0.31,-0.37,-2.93,-2.99,302,312,217,245,221,4
1220,-0.07,-0.95,0.31,-1.46,-1.83,-3.78,296,316,214,245,209,4
1221,-0.07,-0.95,0.3,0.79,-3.17,-2.81,300,311,219,247,215,4
1222,-0.07,-0.94,0.31,0.67,-3.85,-2.14,299,305,218,250,215,4
1223,-0.07,-0.95,0.31,0.37,-2.62,-2.81,295,307,217,246,216,4
1224,-0.06,-0.95,0.31,0.43,-2.99,-2.5,295,313,220,246,214,4
1225,-0.07,-0.95,0.31,0.79,-2.93,-2.2,299,312,217,243,215,4
1226,-0.08,-0.95,0.31,1.89,-3.72,-1.65,299,313,215,248,214,4
1227,-0.08,-0.94,0.32,0.61,-4.15,-2.62,299,314,224,246,210,4
1228,-0.07,-0.95,0.31,-0.24,-3.05,-1.89,296,310,221,245,216,4
1229,-0.06,-0.95,0.3,0.73,-2.75,-2.5,299,317,220,245,216,4
1230,-0.06,-0.95,0.3,-0.24,-1.59,-3.05,297,313,219,245,213,4
1231,-0.07,-0.95,0.3,0.98,-3.11,-2.75,299,311,219,246,213,4
1232,-0.07,-0.95,0.31,0.85,-2.69,-2.93,302,310,215,249,212,4
1233,-0.07,-0.95,0.31,-0.18,-3.05,-2.5,300,318,216,245,215,4
1234,-0.05,-0.95,0.28,0.0,-2.87,-1.89,296,313,220,248,213,4
1235,-0.06,-0.95,0.31,0.06,-2.5,-2.56,299,313,216,248,232,4
1236,-0.07,-0.95,0.31,-0.06,-2.69,-3.05,295,313,218,253,215,4
1237,-0.06,-0.95,0.3,-0.24,-2.38,-2.56,299,313,218,248,215,4
1238,-0.07,-0.95,0.29,0.12,-3.23,-2.26,299,312,221,248,215,4
1239,-0.07,-0.95,0.31,0.06,-3.66,-2.14,303,314,218,245,216,4
1240,-0.06,-0.95,0.31,0.79,-3.6,-2.62,301,310,221,244,216,4
1241,-0.07,-0.95,0.31,-0.06,-2.26,-2.99,300,308,221,249,214,4
1242,-0.07,-0.95,0.31,0.55,-2.69,-2.75,298,313,223,250,213,4
1243,-0.07,-0.95,0.3,-0.55,-3.17,-2.44,302,316,221,252,212,4
1244,-0.07,-0.95,0.3,-0.06,-2.93,-2.69,297,313,218,248,216,4
1245,-0.07,-0.95,0.29,0.79,-4.21,-1.89,300,309,219,245,216,4
1246,-0.07,-0.96,0.31,0.73,-1.22,-2.81,298,313,220,249,216,4
1247,-0.06,-0.95,0.3,0.55,-3.3,-2.69,299,315,218,247,216,4
1248,-0.07,-0.95,0.29,1.1,-2.99,-3.05,297,318,218,249,217,4
1249,-0.06,-0.95,0.31,-0.18,-3.54,-2.2,299,313,220,246,216,4
1250,-0.07,-0.95,0.3,0.73,-2.69,-1.95,299,312,222,249,214,4
1251,-0.06,-0.95,0.3,-0.85,-2.2,-3.97,302,313,222,249,211,4
1252,-0.06,-0.95,0.3,-1.83,-2.38,-3.23,297,316,217,248,217,4
1253,-0.06,-0.96,0.28,-1.34,-2.75,-2.69,304,315,220,244,211,4
1254,-0.07,-0.95,0.28,0.85,-2.32,-2.01,302,307,222,248,212,4
1255,-0.01,-0.94,0.27,-8.85,-0.31,-5.0,299,312,217,246,216,4
1256,-0.07,-0.96,0.26,2.87,-4.03,-0.61,296,308,221,257,214,4
1257,-0.02,-0.96,0.27,2.26,-2.62,-5.98,299,309,222,244,212,4
1258,-0.04,-0.97,0.27,-1.34,-2.2,-0.73,300,315,217,247,212,4
1259,-0.04,-0.97,0.25,-2.69,-4.82,-4.09,297,307,218,248,216,4
1260,-0.07,-0.97,0.26,-4.46,1.16,-2.56,300,310,222,250,214,4
1261,-0.07,-0.97,0.27,3.54,-6.23,3.97,301,308,225,244,226,4
1262,-0.06,-0.95,0.26,1.46,-6.23,-3.36,300,329,221,246,216,4
1263,-0.04,-0.96,0.23,-1.71,-4.46,-5.86,301,310,221,249,212,4
1264,-0.04,-0.97,0.24,1.53,-7.39,1.4,302,309,221,244,216,4
1265,-0.06,-0.97,0.24,-1.95,-5.07,-2.75,301,312,219,250,216,4
1266,-0.08,-0.97,0.24,1.71,-7.02,-1.04,302,308,218,250,217,4
1267,-0.02,-0.96,0.27,0.06,-3.36,-1.77,300,317,218,249,214,4
1268,-0.04,-0.97,0.27,-0.67,-2.75,-3.54,303,312,220,250,226,4
1269,-0.03,-0.97,0.25,2.56,-2.5,-1.22,301,312,220,248,217,4
1270,-0.03,-0.97,0.26,-0.31,-5.0,-2.56,298,313,224,246,214,4
1271,-0.0,-0.96,0.27,-2.5,-1.04,-5.68,301,311,221,251,214,4
1272,-0.02,-0.97,0.24,2.14,-5.13,-0.61,302,318,218,248,213,4
1273,-0.02,-0.96,0.28,-1.65,-1.46,-4.39,298,313,221,248,217,4
1274,-0.01,-0.97,0.23,0.98,-4.27,-1.77,301,310,231,248,216,4
1275,-0.02,-0.97,0.23,-1.59,-4.76,-2.44,300,310,217,248,215,4
1276,-0.02,-0.98,0.23,-1.53,-0.67,-4.15,296,312,219,247,225,4
1277,-0.02,-0.97,0.29,1.4,1.16,-2.69,300,313,218,264,213,4
1278,-0.02,-0.97,0.2,0.85,-1.28,-5.55,303,314,219,249,216,4
1279,0.01,-0.98,0.19,-0.37,-3.42,-2.56,301,310,219,262,215,4
1280,-0.02,-0.98,0.21,-0.06,-2.62,-2.62,299,315,219,250,212,4
1281,-0.01,-0.96,0.25,2.62,-1.71,-2.2,304,312,221,252,216,4
1282,-0.03,-0.98,0.2,-2.99,-2.56,0.12,312,312,221,250,219,4
1283,-0.02,-0.97,0.22,-0.67,-2.81,-2.38,299,314,218,253,212,4
1284,-0.01,-0.98,0.21,1.04,-2.62,-1.77,303,312,221,253,218,4
1285,-0.03,-0.97,0.23,-0.18,-1.71,-4.82,302,323,220,254,214,4
1286,-0.01,-0.98,0.19,3.91,-7.69,0.12,304,316,218,249,214,4
1287,0.01,-0.98,0.18,-0.55,-2.69,-6.35,303,317,216,251,252,4
1288,-0.02,-0.98,0.24,3.6,-3.17,-0.37,302,316,222,250,215,4
1289,-0.0,-0.97,0.25,-0.37,-1.89,-1.34,298,313,221,249,216,4
1290,-0.0,-0.97,0.22,-0.12,-4.09,-1.53,301,312,217,261,215,4
1291,-0.03,-0.97,0.22,2.08,-8.12,-3.97,300,314,219,255,217,4
1292,-0.04,-0.97,0.26,4.46,-1.65,0.67,300,308,218,253,218,4
1293,-0.01,-0.97,0.24,0.12,-4.88,-1.83,300,313,216,255,218,4
1294,-0.02,-0.97,0.27,2.93,-4.76,-5.25,302,315,219,249,218,4
1295,-0.01,-0.98,0.2,4.88,-0.98,-3.42,300,317,219,250,217,4
1296,-0.01,-0.97,0.24,5.92,-2.01,1.71,304,311,221,256,218,4
1297,-0.02,-0.97,0.21,-1.95,7.2,-0.85,296,306,219,251,215,4
1298,-0.07,-0.97,0.27,2.01,-0.61,-2.26,300,307,222,247,215,4
1299,-0.04,-0.96,0.24,1.71,-5.74,-2.08,300,310,217,250,216,4
1300,-0.01,-0.96,0.26,0.92,-9.4,-3.17,303,314,223,252,215,4
1301,-0.03,-0.96,0.27,-0.67,-3.6,-3.11,301,317,221,251,222,4
1302,-0.04,-0.97,0.29,3.05,-4.27,1.53,305,313,220,250,216,4
1303,-0.01,-0.97,0.25,0.55,-3.97,-0.85,300,306,222,245,217,4
1304,-0.03,-0.97,0.25,-2.87,-0.49,-5.13,301,305,222,250,217,4
1305,-0.0,-0.96,0.27,1.34,0.0,-3.72,303,324,222,258,216,4
1306,-0.03,-0.96,0.25,3.85,-3.97,-1.04,299,315,223,249,213,4
1307,-0.02,-0.96,0.27,-1.22,-2.75,-3.05,300,307,224,252,217,4
1308,-0.02,-0.96,0.28,-1.22,-6.65,-2.32,302,315,223,253,220,4
1309,-0.05,-0.95,0.3,0.18,-3.36,-2.69,301,308,221,251,238,4
1310,-0.07,-0.97,0.28,1.22,-4.33,0.06,299,315,220,253,216,4
1311,-0.01,-0.97,0.27,0.31,-5.43,-0.24,302,321,218,250,220,4
1312,-0.01,-0.96,0.27,-2.69,-0.49,-2.01,299,315,223,254,213,4
1313,-0.02,-0.96,0.25,1.59,-3.11,-1.16,301,313,222,253,217,4
1314,-0.03,-0.97,0.26,-1.95,-1.59,-3.66,302,319,222,250,213,4
1315,0.0,-0.97,0.24,-1.59,-3.78,-1.95,303,310,221,251,220,4
1316,-0.04,-0.97,0.28,4.03,3.78,-3.85,304,308,219,250,219,4
1317,-0.02,-0.97,0.25,0.85,-4.94,-1.53,300,306,220,249,212,4
1318,-0.03,-0.97,0.25,-1.16,-3.17,-3.48,300,306,217,251,218,4
1319,-0.02,-0.97,0.27,2.5,-3.3,-3.66,303,316,217,247,220,4
1320,-0.02,-0.97,0.26,-0.92,-0.37,-3.78,301,311,220,250,217,4
1321,-0.01,-0.97,0.27,2.32,-2.93,-3.05,303,312,223,253,217,4
1322,0.01,-1.0,0.23,1.34,-2.75,-0.43,316,305,220,249,214,4
1323,-0.01,-0.96,0.28,2.08,-1.59,-2.99,306,314,219,254,220,4
1324,-0.03,-0.97,0.27,-0.31,-5.19,-1.28,301,311,221,252,216,4
1325,0.01,-0.97,0.24,-2.56,-3.97,-5.31,305,308,230,253,215,4
1326,-0.0,-0.97,0.24,2.69,2.69,-3.36,305,314,221,254,218,4
1327,-0.03,-0.97,0.28,-2.87,0.73,-2.75,305,306,223,253,221,4
1328,-0.03,-0.96,0.26,2.14,-5.07,-0.79,305,312,222,252,217,4
1329,-0.03,-0.97,0.23,-2.08,-6.1,-4.15,304,310,220,253,217,4
1330,-0.04,-0.97,0.27,6.23,-0.67,-3.6,305,311,220,251,221,4
1331,0.0,-0.96,0.28,2.69,1.77,-3.23,304,306,220,254,217,4
1332,-0.02,-0.97,0.21,-1.71,-5.13,-2.56,307,312,220,253,221,4
1333,-0.04,-0.97,0.23,2.44,-3.48,-3.05,306,315,222,252,219,4
1334,-0.03,-0.97,0.24,0.49,-0.85,-6.04,304,311,219,249,217,4
1335,-0.02,-0.96,0.25,2.44,-5.37,-3.36,304,313,219,252,220,4
1336,-0.02,-0.98,0.21,-2.26,-3.11,-4.09,303,312,217,249,213,4
1337,-0.03,-0.98,0.22,3.91,-2.26,-1.65,302,315,221,255,219,4
1338,-0.02,-0.98,0.24,-0.67,-2.99,-1.83,302,313,223,254,226,4
1339,-0.03,-0.98,0.22,3.91,-2.2,-0.85,304,310,220,249,219,4
1340,-0.01,-0.97,0.24,1.77,-4.52,-2.01,303,318,221,254,218,4
1341,-0.01,-0.97,0.25,3.97,-3.91,-2.87,304,314,223,252,220,4
1342,-0.04,-0.97,0.26,-0.79,-4.52,-1.95,305,315,219,253,220,4
1343,-0.05,-0.97,0.27,1.1,-3.72,-2.32,306,306,223,250,218,4
1344,-0.05,-0.96,0.29,1.59,-3.85,-1.65,303,309,221,251,219,4
1345,-0.03,-0.97,0.26,-1.53,-2.5,-4.64,301,310,223,254,219,4
1346,-0.01,-0.97,0.25,-0.67,-4.94,-1.71,295,311,221,257,220,4
1347,-0.06,-0.97,0.27,-3.05,-1.89,-3.36,304,311,224,252,218,4
1348,-0.03,-0.97,0.27,0.98,-3.78,-2.08,306,312,224,254,222,4
1349,-0.0,-0.96,0.25,4.15,-3.17,-0.98,304,314,222,252,222,4
1350,-0.03,-0.96,0.3,3.66,-2.69,-2.62,307,312,222,254,217,4
1351,-0.02,-0.96,0.29,-1.16,-2.32,-1.59,305,312,228,256,220,4
1352,-0.01,-0.96,0.27,0.24,-4.82,-0.73,306,310,220,252,219,4
1353,-0.02,-0.96,0.27,0.55,-3.3,-2.44,305,315,221,253,217,4
1354,-0.03,-0.96,0.29,-0.67,-2.93,-2.38,306,307,223,254,218,4
1355,-0.02,-0.96,0.27,1.16,-4.21,-1.65,308,311,219,253,217,4
1356,-0.03,-0.96,0.27,1.83,-3.6,-2.56,306,315,221,254,218,4
1357,-0.02,-0.96,0.27,0.37,-2.56,-2.62,306,316,224,256,220,4
1358,-0.02,-0.95,0.3,-3.3,-2.32,-5.19,306,305,221,257,219,4
1359,-0.02,-0.96,0.28,0.0,-2.62,-3.05,306,311,224,256,220,4
1360,-0.03,-0.96,0.28,0.24,-2.56,-2.62,301,310,221,254,221,4
1361,-0.04,-0.95,0.33,-0.37,-1.16,-2.69,307,311,218,251,218,4
1362,-0.03,-0.96,0.29,0.0,-3.05,-3.54,306,311,224,254,221,4
1363,-0.02,-0.96,0.27,2.2,-3.3,-1.71,308,311,224,257,219,4
1364,-0.02,-0.96,0.27,-0.43,-1.22,-2.26,307,305,219,255,218,4
1365,-0.02,-0.96,0.29,3.42,-2.99,-1.89,303,305,220,252,219,4
1366,-0.05,-0.96,0.29,-0.37,-2.44,-4.33,302,316,218,256,220,4
1367,-0.03,-0.96,0.3,-0.49,-3.91,-1.59,307,312,221,254,222,4
1368,-0.02,-0.96,0.25,-0.67,-3.85,-2.81,308,305,222,255,219,4
1369,-0.03,-0.96,0.27,-0.43,0.49,-5.55,307,311,219,254,218,4
1370,-0.01,-0.96,0.26,1.22,-2.44,-1.04,306,306,221,257,219,4
1371,-0.02,-0.96,0.26,-3.3,18.43,-4.52,304,310,216,248,218,4
1372,-0.04,-0.96,0.27,-1.34,-5.19,-3.42,304,310,218,242,214,4
1373,-0.03,-0.97,0.28,-1.89,-3.78,-5.07,305,321,222,246,218,4
1374,-0.02,-0.96,0.26,1.83,-2.01,-1.77,306,314,222,255,217,4
1375,-0.05,-0.96,0.27,0.85,-1.59,-4.27,308,318,219,251,256,4
1376,-0.02,-0.96,0.28,-0.37,-3.05,-2.93,307,317,221,247,217,4
1377,-0.03,-0.96,0.27,0.37,-4.03,-3.17,307,313,219,252,218,4
1378,-0.02,-0.97,0.27,-0.49,-3.11,-2.26,307,308,221,253,217,4
1379,-0.04,-0.96,0.26,0.24,-3.97,-1.22,306,312,223,249,219,4
1380,-0.03,-0.97,0.26,0.06,-3.78,-2.56,307,312,220,250,220,4
1381,-0.03,-0.97,0.25,0.79,-3.05,-2.32,305,309,222,249,217,4
1382,-0.03,-0.97,0.27,-0.12,-3.42,-2.14,307,315,221,252,216,4
1383,-0.04,-0.97,0.26,-0.67,-3.72,-2.99,306,313,220,248,216,4
1384,-0.03,-0.97,0.27,-0.18,-3.3,-2.5,305,318,220,253,217,4
1385,-0.03,-0.96,0.26,1.77,-3.36,-2.32,306,316,220,252,219,4
1386,-0.04,-0.97,0.26,0.49,-3.17,-2.14,307,310,218,251,218,4
1387,-0.05,-0.97,0.26,-1.1,-2.87,-4.15,305,317,220,253,215,4
1388,-0.03,-0.96,0.26,0.55,-2.44,-3.36,304,315,224,253,216,4
1389,-0.04,-0.96,0.28,-0.31,-2.44,-2.93,302,318,224,252,221,4
1390,-0.04,-0.96,0.27,-1.71,-3.17,-2.32,303,311,219,251,219,4
1391,-0.04,-0.96,0.26,1.83,-4.03,-1.65,316,311,222,254,218,4
1392,-0.03,-0.96,0.26,0.31,-2.01,-2.75,308,316,220,252,218,4
1393,-0.04,-0.97,0.25,0.31,-3.54,-2.87,308,315,224,254,220,4
1394,-0.04,-0.97,0.26,-0.37,-3.36,-3.11,305,318,221,254,219,4
1395,-0.03,-0.97,0.25,0.67,-2.5,-2.56,314,315,224,250,220,4
1396,-0.04,-0.97,0.26,1.46,-2.93,-1.71,306,317,226,252,214,4
1397,-0.04,-0.97,0.25,0.98,-2.81,-2.81,306,320,223,252,220,4
1398,-0.04,-0.97,0.26,0.85,-3.72,-2.38,307,319,220,252,221,4
1399,-0.04,-0.97,0.25,0.0,-3.66,-1.34,306,316,223,251,219,4
1400,-0.03,-0.96,0.26,-0.24,-2.69,-2.56,306,314,224,254,220,4
1401,-0.03,-0.97,0.25,-0.06,-3.05,-2.26,309,314,221,255,218,4
1402,-0.03,-0.97,0.25,-1.28,-3.17,-2.62,308,314,220,253,216,4
1403,-0.04,-0.96,0.27,0.55,-3.6,-2.08,304,318,223,253,220,4
1404,-0.04,-0.96,0.26,0.49,-3.3,-2.26,306,314,223,252,213,4
1405,-0.05,-0.96,0.26,1.16,-2.75,-2.56,308,320,222,263,216,4
1406,-0.03,-0.96,0.26,1.04,-3.11,-2.62,306,314,222,253,217,4
1407,-0.04,-0.97,0.25,1.59,-7.02,-0.73,308,314,223,255,221,4
1408,-0.05,-0.96,0.28,9.52,-4.94,1.4,308,313,224,252,218,4
1409,-0.04,-0.96,0.26,-0.31,-1.95,-2.26,310,320,226,254,217,4
1410,-0.04,-0.96,0.26,0.92,-1.53,-1.83,309,315,222,254,220,4
1411,-0.04,-0.96,0.27,0.49,-2.69,-1.65,308,315,226,256,222,4
1412,-0.04,-0.96,0.27,0.67,-1.22,-2.44,308,332,222,258,219,4
1413,-0.04,-0.96,0.26,0.31,-2.81,-3.05,312,325,227,254,216,4
1414,-0.04,-0.96,0.26,-0.18,-2.87,-2.38,309,328,224,254,222,4
1415,-0.05,-0.96,0.27,0.06,-4.15,-2.81,308,330,223,255,222,4
1416,-0.04,-0.96,0.27,1.28,-2.01,-3.66,301,330,223,256,227,4
1417,-0.04,-0.96,0.28,1.4,-3.36,-2.38,308,325,228,255,219,4
1418,-0.03,-0.96,0.26,-0.85,-3.11,-2.26,311,326,222,252,218,4
1419,-0.04,-0.95,0.29,3.05,-1.59,-2.08,309,326,223,257,219,4
1420,-0.04,-0.96,0.28,0.37,-2.75,-3.54,307,331,222,255,222,4
1421,-0.04,-0.96,0.27,0.24,-3.48,-1.53,306,321,221,258,220,4
1422,-0.04,-0.96,0.28,0.79,-2.56,-2.26,310,326,227,258,219,4
1423,-0.04,-0.96,0.28,0.73,-3.42,-2.08,311,322,235,255,222,4
1424,-0.05,-0.96,0.28,1.34,-4.27,-2.2,306,335,226,261,222,4
1425,-0.04,-0.96,0.3,-0.49,-2.99,-3.05,309,330,220,258,218,4
1426,-0.04,-0.96,0.28,-0.55,-1.34,-2.69,308,326,227,253,220,4
1427,-0.06,-0.96,0.25,-9.28,-3.23,-4.58,305,325,226,256,219,4
1428,-0.06,-0.96,0.3,2.75,-2.62,-0.49,307,322,226,255,220,4
1429,-0.05,-0.97,0.23,0.73,-3.42,-4.33,307,325,227,257,220,4
1430,0.01,-0.96,0.22,-0.61,-2.26,-5.62,307,322,226,255,221,4
1431,-0.04,-0.97,0.23,-1.1,-0.24,-2.38,310,327,222,259,223,4
1432,-0.05,-0.97,0.22,-6.35,-3.91,-3.91,307,330,225,256,218,4
1433,-0.01,-0.98,0.22,-0.55,-4.94,-3.48,306,328,221,256,221,4
1434,0.02,-0.97,0.25,0.0,-4.15,0.24,308,332,226,259,220,4
1435,-0.02,-0.99,0.15,7.26,-2.38,4.52,310,328,227,255,222,4
1436,-0.04,-0.98,0.22,-3.17,-2.32,-1.71,305,331,223,259,220,4
1437,-0.05,-0.93,0.15,-26.73,-14.83,4.76,308,325,223,255,220,4
1438,-0.05,-1.0,0.09,4.52,-1.04,-5.0,307,326,222,256,214,4
1439,-0.03,-1.01,0.07,5.92,-3.91,-2.5,304,327,221,254,221,4
1440,-0.03,-0.99,0.1,-0.85,-1.71,-3.54,308,325,221,258,220,4
1441,-0.03,-0.99,0.15,9.22,0.85,-3.54,310,324,222,255,213,4
1442,-0.05,-0.99,0.16,1.83,-3.23,-3.6,308,321,221,256,219,4
1443,-0.03,-0.99,0.14,2.44,-5.31,-0.98,308,318,225,258,217,4
1444,-0.0,-0.97,0.19,5.92,-2.75,-4.58,305,320,218,261,223,4
1445,0.04,-0.97,0.16,-2.26,-0.37,-8.48,307,315,222,259,218,4
1446,-0.02,-0.99,0.16,-0.49,-1.89,-2.14,307,317,220,256,219,4
1447,-0.01,-0.98,0.17,-0.92,-0.79,-4.64,302,317,224,257,219,4
1448,-0.02,-0.98,0.18,0.12,-2.75,-1.89,309,318,234,262,220,4
1449,-0.01,-0.98,0.17,1.28,-5.43,-0.31,307,313,220,256,227,4
1450,-0.01,-0.98,0.17,-2.87,-4.88,-2.5,304,317,221,257,218,4
1451,-0.02,-0.99,0.17,-0.18,-2.99,0.24,308,322,220,256,218,4
1452,-0.03,-0.98,0.18,0.37,-3.6,-3.48,308,324,220,256,221,4
1453,-0.0,-0.98,0.19,0.92,-3.17,-1.95,308,323,219,255,222,4
1454,-0.01,-0.98,0.17,1.22,-1.95,-3.85,308,320,224,264,216,4
1455,-0.03,-0.98,0.18,-1.28,-2.38,-3.91,310,320,220,256,219,4
1456,-0.01,-0.98,0.19,-0.37,-3.23,-3.3,310,320,225,258,222,4
1457,-0.0,-0.98,0.19,-0.18,-1.77,-2.75,307,316,222,256,219,4
1458,-0.02,-0.98,0.18,0.12,-4.7,-1.46,306,334,221,255,221,4
1459,-0.01,-0.98,0.18,-3.72,-2.01,-4.39,308,324,223,257,221,4
1460,-0.01,-0.98,0.16,0.92,-4.46,-2.08,308,318,220,258,211,4
1461,-0.06,-1.0,0.17,-0.24,7.75,-2.14,307,326,221,260,220,4
1462,-0.01,-0.98,0.17,0.12,-1.71,-2.38,308,318,220,258,222,4
1463,-0.02,-0.98,0.18,0.18,-3.36,-2.32,308,322,221,260,222,4
1464,-0.02,-0.98,0.15,-0.49,-2.75,-2.69,310,325,221,257,219,4
1465,-0.03,-0.99,0.17,4.21,1.1,-3.36,307,322,219,259,221,4
1466,-0.04,-0.98,0.19,1.04,-1.28,-2.38,307,323,221,256,216,4
1467,-0.02,-0.98,0.18,2.08,-1.59,-2.26,306,323,222,251,215,4
1468,-0.04,-0.97,0.18,0.31,-2.56,-3.11,307,330,220,255,215,4
1469,-0.03,-0.98,0.18,0.49,-3.54,-2.38,303,332,225,253,221,4
1470,-0.03,-0.98,0.2,1.59,-3.85,-2.81,303,333,223,253,222,4
1471,-0.04,-0.98,0.19,0.37,-4.21,-2.5,303,328,223,259,220,4
1472,-0.03,-0.98,0.2,0.43,-2.32,-2.69,304,330,227,259,221,4
1473,-0.02,-0.98,0.18,0.12,-3.78,-2.32,306,332,221,255,221,4
1474,-0.04,-0.98,0.17,0.61,-2.81,-2.01,306,329,222,258,221,4
1475,-0.03,-0.98,0.19,1.28,-2.75,-1.53,304,329,222,255,219,4
1476,-0.05,-0.98,0.19,-1.65,-3.36,-2.38,305,331,220,253,221,4
1477,-0.06,-0.98,0.19,0.37,-4.76,-2.5,305,329,226,251,220,4
1478,-0.04,-0.98,0.18,1.65,-4.09,-2.44,301,334,221,259,215,4
1479,-0.04,-0.98,0.18,0.12,-2.81,-2.38,307,330,220,260,224,4
1480,-0.03,-0.98,0.19,0.55,-3.6,-3.48,306,326,223,255,222,4
1481,-0.04,-0.98,0.19,0.49,-2.44,-2.44,306,330,222,257,222,4
1482,-0.04,-0.98,0.19,0.55,-2.99,-2.26,307,335,226,257,217,4
1483,-0.04,-0.98,0.18,-0.98,-2.32,-2.99,307,334,223,261,222,4
1484,-0.03,-0.98,0.17,1.89,-3.97,-2.01,307,332,227,257,224,4
1485,-0.04,-0.98,0.18,-0.31,-2.5,-2.93,307,330,229,257,218,4
1486,-0.03,-0.98,0.18,0.49,-4.27,-1.04,306,325,224,259,217,4
1487,-0.04,-0.98,0.18,2.75,-4.21,-2.2,306,329,220,257,221,4
1488,-0.04,-0.98,0.19,0.79,-2.5,-2.62,307,332,226,260,220,4
1489,-0.04,-0.98,0.2,0.0,-2.75,-2.56,308,331,226,258,224,4
1490,-0.03,-0.98,0.17,-0.18,-4.03,-2.01,307,331,225,258,220,4
1491,0.0,-0.97,0.17,0.37,-2.62,-3.72,306,329,224,256,222,4
1492,-0.04,-0.98,0.19,-2.38,-0.55,-4.88,307,330,225,259,221,4
1493,-0.05,-0.98,0.18,1.4,-3.78,-1.53,308,328,224,259,222,4
1494,-0.04,-0.98,0.19,0.79,-3.6,-2.38,306,334,227,261,222,4
1495,-0.04,-0.98,0.19,0.43,-3.97,-2.38,309,326,224,258,220,4
1496,-0.06,-0.98,0.2,0.24,-1.89,-2.56,307,330,226,258,223,4
1497,-0.06,-0.98,0.2,-0.98,-3.97,-3.54,308,328,224,259,223,4
1498,-0.03,-0.98,0.17,-1.71,-2.5,-3.42,309,334,224,260,218,4
1499,-0.05,-0.98,0.19,0.73,-2.14,-1.95,306,325,224,259,220,4
1500,-0.05,-0.98,0.21,-1.1,-4.94,-2.81,305,327,227,260,228,4
1501,-0.04,-0.98,0.19,0.73,-3.85,-3.11,304,326,227,259,221,4
1502,-0.04,-0.98,0.19,1.1,-4.7,-1.46,306,332,226,258,226,4
1503,-0.03,-0.98,0.18,2.2,-3.78,-1.4,305,339,225,258,220,4
1504,-0.04,-0.98,0.19,2.5,-5.68,-2.14,312,329,227,259,223,4
1505,-0.04,-0.98,0.18,0.61,-2.5,-2.26,306,328,225,259,220,4
1506,-0.04,-0.98,0.18,-0.79,-1.46,-2.01,309,333,234,260,222,4
1507,-0.04,-0.98,0.19,-0.31,-2.2,-2.69,306,328,225,257,222,4
1508,-0.04,-0.98,0.18,0.73,-3.72,-2.32,306,327,224,261,221,4
1509,-0.05,-0.98,0.18,-0.18,-2.93,-2.5,307,329,226,256,231,4
1510,-0.04,-0.98,0.17,0.18,-3.3,-2.69,308,334,228,259,226,4
1511,-0.05,-0.98,0.18,-0.18,-2.56,-3.05,303,325,227,259,223,4
1512,-0.05,-0.98,0.19,-0.73,0.67,-3.11,310,330,228,259,223,4
1513,-0.05,-0.98,0.17,0.06,-2.75,-2.38,307,331,229,258,221,4
1514,-0.05,-0.98,0.18,-0.12,-2.62,-2.2,308,325,226,256,220,4
1515,-0.04,-0.98,0.16,-0.98,-1.4,-3.23,308,335,228,262,220,4
1516,-0.06,-1.0,0.19,-1.65,-0.49,-2.2,303,326,226,256,222,4
1517,-0.02,-0.98,0.13,-8.3,-5.98,-6.59,304,334,228,259,222,4
1518,-0.0,-0.98,0.13,2.44,-2.93,-1.4,307,332,225,261,221,4
1519,0.0,-0.98,0.19,-3.66,-0.85,-5.68,303,326,225,262,219,4
1520,-0.01,-0.99,0.16,-1.1,-1.65,-2.69,307,328,224,262,223,4
1521,-0.02,-0.98,0.16,1.22,-2.87,-1.46,306,332,230,262,220,4
1522,-0.02,-0.98,0.16,1.34,-3.11,-2.01,307,330,223,263,221,4
1523,-0.03,-0.98,0.17,0.55,-3.36,-1.65,307,331,226,261,222,4
1524,-0.03,-0.99,0.18,0.12,-2.26,-2.5,306,330,222,261,224,4
1525,-0.03,-0.99,0.15,1.22,-4.76,-0.79,306,332,227,256,222,4
1526,0.0,-0.98,0.15,1.1,-3.6,-1.89,307,335,226,259,223,4
1527,-0.02,-0.99,0.15,0.31,-2.62,-2.87,304,327,227,260,221,4
1528,-0.33,-0.94,0.32,-14.77,53.59,-23.56,222,268,198,246,300,4
1529,-0.07,-0.83,0.48,-21.18,23.38,1.46,218,269,199,247,301,4
1530,-0.0,-0.91,0.26,-2.62,-14.1,-20.57,219,268,197,248,302,4
1531,-0.05,-0.97,0.31,10.8,2.38,6.9,221,271,200,254,299,4
1532,-0.08,-0.99,0.41,6.9,-0.18,0.92,220,267,203,255,302,4
1533,-0.06,-0.95,0.4,-8.3,-7.39,-2.44,220,271,202,258,302,4
1534,-0.03,-0.91,0.34,-5.43,-11.72,-13.85,221,270,202,264,304,4
1535,-0.05,-0.95,0.36,4.64,-3.78,-0.79,222,273,201,257,304,4
1536,-0.03,-0.93,0.37,-0.73,-5.25,-0.37,221,268,203,261,304,4
1537,0.07,-0.9,0.31,0.92,-4.94,-2.87,222,273,199,263,306,4
1538,-0.04,-0.96,0.35,-2.32,-3.91,-0.31,222,274,210,255,306,4
1539,-0.03,-0.93,0.32,-6.04,-8.06,-8.0,224,273,201,262,299,4
1540,-0.03,-0.93,0.31,18.25,2.14,6.35,225,275,196,259,297,4
1541,-0.05,-0.94,0.37,1.95,-5.68,-3.36,227,277,197,267,303,4
1542,-0.04,-0.94,0.36,-18.31,-6.47,-7.51,224,277,203,264,298,4
1543,-0.02,-0.93,0.3,4.7,-8.06,-3.23,224,278,198,262,299,4
1544,-0.04,-0.95,0.35,1.95,0.06,-1.89,227,275,199,260,297,4
1545,0.01,-0.92,0.36,2.14,-7.32,-0.73,224,273,196,262,298,4
1546,-0.06,-0.93,0.41,2.2,-1.1,-4.64,224,275,202,263,299,4
1547,-0.14,-0.89,0.5,12.21,10.68,1.46,234,256,206,279,285,4
1548,-0.07,-0.88,0.45,-21.24,-9.64,-0.43,229,249,206,276,279,4
1549,-0.07,-0.98,0.32,-15.5,7.14,10.74,214,235,230,266,278,4
1550,-0.13,-0.9,0.35,15.26,-9.77,-3.97,215,236,197,259,283,4
1551,-0.14,-0.9,0.43,-3.6,-8.24,-3.05,222,240,193,273,294,4
1552,-0.16,-0.88,0.37,-7.81,-4.88,-7.32,224,240,196,280,293,4
1553,-0.14,-0.89,0.32,-13.12,-7.02,-2.81,222,240,195,276,292,4
1554,-0.12,-0.94,0.32,-11.54,-11.66,3.17,220,244,198,277,290,4
1555,-0.15,-0.91,0.33,15.93,-4.03,-10.38,220,246,201,280,290,4
1556,-0.16,-0.94,0.34,-14.28,-1.4,-8.73,222,244,200,273,291,4
1557,-0.15,-0.95,0.37,2.5,-1.89,-1.95,216,238,203,278,290,4
1558,-0.13,-0.89,0.3,-1.65,-1.77,-3.48,221,243,203,282,291,4
1559,-0.16,-0.94,0.34,6.41,-2.08,-0.67,220,243,201,284,289,4
1560,-0.16,-0.93,0.39,6.77,-1.89,6.1,220,243,201,274,288,4
1561,-0.17,-0.91,0.4,-2.01,-2.38,-4.46,227,239,200,286,289,4
1562,-0.16,-0.91,0.41,-2.01,-4.15,-4.21,252,243,202,281,285,4
1563,-0.15,-0.9,0.4,0.18,-0.92,-1.34,225,248,205,285,287,4
1564,-0.17,-0.89,0.4,-1.1,-2.81,-3.78,224,243,205,283,285,4
1565,-0.16,-0.88,0.37,3.11,-7.81,-2.5,227,248,203,286,292,4
1566,-0.18,-0.9,0.39,7.26,-8.18,-0.61,232,249,210,293,290,4
1567,-0.17,-0.93,0.46,-2.69,-2.32,-3.23,227,248,205,290,287,4
1568,-0.15,-0.88,0.38,2.62,-7.63,-2.87,229,259,211,295,288,4
1569,-0.15,-0.9,0.43,-0.79,-4.82,-3.3,227,249,210,296,290,4
1570,-0.14,-0.9,0.41,2.69,0.31,-2.99,227,251,209,307,288,4
1571,-0.09,-0.85,0.4,3.97,-18.01,0.98,230,249,213,315,284,4
1572,-0.15,-0.9,0.42,-18.8,3.36,6.65,227,250,228,316,282,4
1573,-0.12,-0.9,0.43,-11.41,0.37,-2.93,229,254,214,322,280,4
1574,-0.16,-0.88,0.39,5.92,-4.52,-3.66,221,253,220,320,281,4
1575,-0.16,-0.9,0.43,-3.54,-2.69,1.22,229,252,222,321,286,4
1576,-0.16,-0.9,0.39,2.01,-4.94,-2.69,231,259,220,321,284,4
1577,-0.17,-0.91,0.38,2.75,-3.85,-2.69,230,251,225,325,285,4
1578,-0.15,-0.91,0.38,0.92,-2.56,-3.85,233,254,225,327,286,4
1579,-0.15,-0.9,0.36,-2.08,0.61,-2.81,231,254,222,320,286,4
1580,-0.16,-0.93,0.4,0.85,-1.46,-2.26,229,253,226,326,287,4
1581,-0.15,-0.91,0.39,1.4,-4.03,-3.23,238,258,227,328,285,4
1582,-0.15,-0.91,0.38,1.95,-5.55,-2.69,230,255,226,326,286,4
1583,-0.15,-0.91,0.4,-1.28,-2.62,-2.01,232,264,221,329,285,4
1584,-0.14,-0.93,0.39,-0.06,-5.13,-3.11,231,256,229,335,288,4
1585,-0.14,-0.88,0.31,-3.54,-3.17,-3.78,230,256,217,339,281,4
1586,-0.15,-0.93,0.39,-1.95,-0.73,-1.65,231,257,218,342,287,4
1587,-0.14,-0.9,0.35,2.26,-4.09,-3.42,231,253,224,349,290,4
1588,-0.15,-0.91,0.38,0.98,-2.99,-3.11,231,259,219,350,290,4
1589,-0.14,-0.92,0.38,-0.79,-2.56,-2.99,231,261,223,354,285,4
1590,-0.13,-0.92,0.34,-1.04,-3.72,-1.77,231,256,222,350,288,4
1591,-0.14,-0.92,0.34,-4.46,-2.38,-1.71,233,257,225,348,289,4
1592,-0.16,-0.94,0.37,2.81,-2.93,-2.99,234,259,224,355,289,4
1593,-0.14,-0.93,0.35,1.53,-4.21,-2.2,234,257,226,352,292,4
1594,-0.14,-0.92,0.38,-0.37,-4.39,-2.69,230,261,228,354,290,4
1595,-0.14,-0.92,0.39,0.49,-4.39,-2.93,233,266,228,339,289,4
1596,-0.13,-0.9,0.38,3.42,-19.53,-9.52,232,261,212,311,290,4
1597,-0.09,-0.91,0.39,1.1,-3.48,-3.97,233,258,196,267,289,4
1598,-0.09,-0.92,0.39,0.55,-2.75,-2.32,233,258,196,269,289,4
1599,-0.1,-0.92,0.4,2.87,-1.77,-2.44,232,263,202,272,290,4
1600,-0.1,-0.93,0.39,-4.76,-0.67,-1.89,231,257,192,280,290,4
1601,-0.11,-0.92,0.38,2.01,-2.75,-2.14,234,259,196,278,290,4
1602,-0.1,-0.92,0.4,-5.86,-1.77,-2.44,232,258,207,277,290,4
1603,-0.09,-0.91,0.36,2.2,-2.26,-0.18,231,259,194,275,291,4
1604,-0.11,-0.93,0.39,-1.28,-2.2,0.12,235,259,192,277,292,4
1605,-0.12,-0.93,0.38,-0.85,-2.93,-3.17,233,256,196,276,291,4
1606,-0.1,-0.91,0.38,4.7,-3.48,-2.56,235,262,200,287,290,4
1607,-0.08,-0.92,0.4,-2.93,-0.55,-6.41,231,255,199,281,292,4
1608,-0.02,-0.85,0.37,15.99,-19.04,-6.84,229,263,200,278,286,4
1609,-0.07,-0.96,0.45,-16.3,-11.9,-2.2,226,264,208,273,305,4
1610,0.02,-1.0,0.36,-4.33,8.97,-2.26,220,268,212,258,290,4
1611,0.01,-0.94,0.37,-9.09,15.87,-1.04,227,266,203,278,292,4
1612,-0.04,-0.95,0.42,-6.71,2.75,2.56,225,272,204,269,292,4
1613,-0.06,-0.91,0.34,-2.38,-0.79,0.37,234,268,205,277,292,4
1614,-0.13,-0.9,0.4,9.03,-5.19,-15.69,226,269,203,282,295,4
1615,0.17,-0.85,0.43,-13.92,-7.02,-3.05,226,270,208,276,290,4
1616,0.07,-0.92,0.3,-0.92,-1.28,-2.81,226,269,208,277,296,4
1617,0.11,-0.93,0.26,1.04,-3.85,-6.71,225,270,207,279,296,4
1618,0.12,-0.93,0.33,9.95,-0.61,2.5,228,271,213,281,309,4
1619,0.09,-0.98,0.34,-4.39,-1.95,-1.4,225,269,212,279,296,4
1620,0.13,-0.94,0.25,0.55,-5.0,-3.23,229,270,219,280,297,4
1621,0.1,-0.97,0.32,-0.31,-4.58,-1.22,223,272,219,281,299,4
1622,0.09,-0.94,0.28,4.03,-5.07,-0.73,230,271,217,273,302,4
1623,0.1,-0.95,0.31,0.61,-1.28,-1.28,230,275,218,279,299,4
1624,0.1,-0.94,0.31,7.87,-3.36,-1.71,231,270,215,279,300,4
1625,0.1,-0.93,0.34,11.54,4.39,7.26,231,275,213,284,297,4
1626,0.05,-0.93,0.38,-2.99,-2.62,-1.16,231,274,213,276,301,4
1627,0.04,-0.93,0.37,-0.18,-5.25,-2.93,231,277,215,280,301,4
1628,-0.05,-0.89,0.44,-12.7,45.04,28.14,229,280,213,281,301,4
1629,-0.29,-0.89,0.29,15.99,2.75,-15.5,229,279,227,275,306,4
1630,-0.01,-0.96,0.27,-30.03,18.13,-8.85,231,275,218,279,305,4
1631,-0.02,-1.0,0.25,-3.85,-3.85,-43.15,233,277,219,279,305,4
1632,0.02,-0.93,0.16,7.02,-6.9,-3.54,230,278,218,282,303,4
1633,0.08,-0.93,0.19,8.24,-2.5,-11.6,234,288,216,278,304,4
1634,0.05,-0.97,0.28,3.91,-1.77,-6.65,233,284,215,278,303,4
1635,-0.03,-0.97,0.39,8.97,-5.13,-4.15,234,279,213,281,303,4
1636,0.05,-0.95,0.34,4.09,8.06,-12.27,231,280,216,279,304,4
1637,-0.04,-0.98,0.41,19.35,-8.91,1.46,233,282,217,275,304,4
1638,0.01,-0.92,0.4,0.61,-0.79,-3.72,234,283,218,283,304,4
1639,0.02,-0.93,0.41,-0.73,-2.01,-3.23,238,277,216,279,304,4
1640,0.02,-0.92,0.4,2.56,-5.31,-1.59,230,279,218,278,306,4
1641,0.05,-0.91,0.4,-3.05,-4.94,-3.48,233,281,219,284,306,4
1642,0.03,-0.93,0.4,1.53,-4.58,-1.95,230,283,223,282,300,4
1643,0.03,-0.91,0.38,1.65,-5.55,-0.85,234,280,217,276,301,4
1644,0.03,-0.92,0.39,2.99,-5.92,-0.92,231,285,218,282,303,4
1645,0.06,-0.91,0.34,4.27,-2.75,-4.46,232,280,219,280,302,4
1646,0.05,-0.93,0.39,-0.31,-3.85,-2.01,233,281,217,275,305,4
1647,0.05,-0.93,0.4,-0.12,-4.27,-3.23,233,282,219,281,304,4
1648,0.03,-0.93,0.41,3.17,-5.31,-2.32,232,282,217,282,301,4
1649,0.06,-0.91,0.41,-0.43,-4.27,-4.21,230,285,219,285,304,4
1650,0.05,-0.91,0.37,-2.26,-2.38,-2.26,232,283,218,282,302,4
1651,0.04,-0.92,0.38,1.28,-3.48,-3.17,233,283,217,276,302,4
1652,0.05,-0.94,0.39,-0.61,-3.97,-2.56,234,287,218,281,300,4
1653,0.06,-0.92,0.37,0.98,-3.6,-3.3,235,286,218,284,301,4
1654,0.06,-0.94,0.36,-2.81,-4.27,-1.95,232,283,214,285,302,4
1655,0.05,-0.93,0.35,-15.26,-4.82,1.16,231,282,214,293,302,4
1656,0.04,-0.93,0.34,0.61,-4.21,0.24,234,283,211,291,300,4
1657,0.02,-0.95,0.37,-2.08,-2.87,-3.48,238,286,218,291,303,4
1658,0.05,-0.95,0.33,1.65,-1.04,-3.48,232,284,214,291,307,4
1659,0.05,-0.93,0.33,0.43,-1.59,-3.3,232,286,211,299,302,4
1660,0.05,-0.94,0.34,0.31,-2.44,-3.36,240,284,214,296,302,4
1661,0.05,-0.95,0.35,0.0,-2.08,-2.14,243,282,210,288,302,4
1662,0.04,-0.93,0.34,-4.09,-2.26,-3.05,235,287,215,287,305,4
1663,0.05,-0.95,0.36,0.43,-3.72,-3.66,231,287,208,289,305,4
1664,0.05,-0.93,0.35,1.16,-3.11,-2.81,234,287,200,289,299,4
1665,0.05,-0.94,0.36,-2.2,-2.56,-3.72,236,282,204,282,302,4
1666,0.05,-0.93,0.35,2.01,-4.88,-0.31,232,285,202,280,305,4
1667,0.03,-0.94,0.35,3.97,-2.44,-0.85,231,283,204,281,298,4
1668,0.05,-0.93,0.37,-0.43,-1.77,-3.3,258,284,194,275,303,4
1669,0.04,-0.94,0.39,2.5,-2.08,-2.5,232,285,198,275,303,4
1670,0.04,-0.94,0.37,-5.43,-4.27,-7.14,233,286,196,272,307,4
1671,0.05,-0.95,0.37,-2.69,-2.75,-4.15,230,279,190,273,307,4
1672,0.03,-0.93,0.36,2.14,-2.56,0.12,233,285,195,269,304,4
1673,0.03,-0.94,0.37,2.44,-4.21,1.1,232,288,193,270,306,4
1674,0.08,-0.93,0.32,-2.75,-3.85,-3.05,229,287,196,283,307,4
1675,0.04,-0.95,0.36,-1.71,-3.6,-2.44,234,285,198,273,307,4
1676,0.03,-0.95,0.37,-0.73,-4.33,-0.92,236,287,195,274,306,4
1677,0.03,-0.94,0.35,2.14,-4.15,-1.46,233,285,197,273,304,4
1678,0.01,-0.94,0.37,1.89,-1.28,-4.15,234,288,203,272,309,4
1679,0.03,-0.93,0.33,0.43,-3.05,-4.27,235,285,197,271,304,4
1680,0.03,-0.93,0.33,3.66,-4.58,-4.52,233,285,201,276,305,4
1681,0.06,-0.96,0.32,-16.85,-7.51,-0.49,235,289,197,274,308,4
1682,-0.0,-0.96,0.28,5.43,-2.08,-0.49,232,283,198,275,306,4
1683,0.02,-0.97,0.31,5.31,-4.58,-3.6,233,286,201,278,303,4
1684,0.02,-0.96,0.29,1.4,-2.62,-2.62,233,288,199,279,304,4
1685,0.02,-0.94,0.3,5.74,-3.42,-3.23,235,291,198,270,303,4
1686,0.02,-0.96,0.35,7.51,2.26,-15.75,227,287,200,276,302,4
1687,0.04,-0.95,0.31,-4.03,-1.53,-5.55,229,283,199,275,298,4
1688,0.04,-0.97,0.31,-0.98,-4.03,-3.23,229,277,202,277,289,4
1689,0.05,-0.94,0.28,2.93,-5.31,-2.2,231,284,200,275,292,4
1690,0.05,-0.96,0.29,-1.65,-2.62,-2.93,230,283,200,274,289,4
1691,0.04,-0.97,0.3,7.02,-0.92,-5.98,232,283,197,273,293,4
1692,0.07,-0.97,0.33,1.46,-1.59,-3.42,231,282,201,269,290,4
1693,0.1,-0.93,0.3,4.21,-4.7,-1.28,230,282,200,273,295,4
1694,0.06,-0.96,0.32,0.37,-1.1,-1.53,230,283,197,273,294,4
1695,0.06,-0.94,0.29,-2.87,-1.95,-3.23,228,281,202,273,293,4
1696,0.06,-0.91,0.3,7.14,-0.92,-12.45,233,279,203,266,292,4
1697,0.07,-0.97,0.32,5.49,-9.7,0.55,241,271,203,274,313,4
1698,0.04,-0.97,0.32,-5.13,-5.25,-5.0,230,270,201,265,299,4
1699,0.04,-0.93,0.26,-4.58,-7.2,-2.99,230,269,203,274,294,4
1700,0.08,-0.97,0.22,6.41,-26.61,-4.58,228,271,202,266,297,4
1701,0.08,-0.98,0.28,-3.42,-11.78,0.61,232,278,204,278,286,4
1702,0.04,-1.0,0.25,-14.83,-6.53,-11.05,229,285,202,281,278,4
1703,0.06,-0.92,0.17,8.73,5.49,-3.85,228,282,204,281,278,4
1704,0.13,-1.01,0.23,5.19,7.26,-1.65,229,286,204,277,285,4
1705,-0.03,-1.0,0.25,-4.15,53.65,-0.85,230,284,203,276,286,4
1706,-0.05,-0.92,0.17,6.53,-10.86,-1.34,231,285,207,281,283,4
1707,-0.0,-0.94,0.26,-0.85,5.0,6.65,230,286,207,277,279,4
1708,-0.03,-0.96,0.26,3.36,-4.39,-0.73,233,285,203,275,286,4
1709,-0.02,-0.96,0.3,1.65,-6.35,-1.4,231,282,206,279,283,4
1710,-0.05,-0.96,0.3,2.5,-6.41,-3.66,231,284,204,276,283,4
1711,-0.04,-0.95,0.35,-0.79,-2.14,-3.54,234,285,208,274,283,4
1712,-0.05,-0.94,0.3,0.18,-1.46,-0.98,270,287,203,279,287,4
1713,-0.02,-0.96,0.29,-0.49,-4.64,-5.25,233,288,204,274,285,4
1714,-0.04,-0.98,0.3,-2.01,-0.85,-2.81,235,285,208,278,289,4
1715,-0.05,-0.96,0.27,3.48,-2.87,-2.75,227,287,204,282,288,4
1716,-0.01,-0.97,0.3,-0.24,-5.25,-2.44,231,289,207,274,289,4
1717,-0.04,-0.96,0.29,2.93,-5.31,-0.85,230,287,207,276,288,4
1718,-0.05,-0.97,0.29,-7.14,-0.61,-4.27,232,289,206,284,289,4
1719,-0.01,-0.94,0.27,6.59,-4.52,-5.55,232,286,209,279,289,4
1720,-0.01,-0.95,0.27,1.28,-6.16,-2.69,234,289,202,283,288,4
1721,0.0,-0.95,0.28,-1.22,-0.55,-2.87,232,284,206,280,288,4
1722,-0.01,-0.97,0.31,1.34,-5.62,-4.58,235,292,203,282,286,4
1723,-0.01,-0.94,0.29,3.36,-2.5,-1.59,235,290,207,277,290,4
1724,0.0,-0.96,0.32,0.12,-1.95,-2.08,231,287,205,279,288,4
1725,-0.02,-0.97,0.3,-0.98,-1.65,-2.93,236,293,204,276,289,4
1726,-0.01,-0.96,0.28,-1.1,-0.67,-1.83,234,289,205,278,289,4
1727,-0.01,-0.93,0.26,6.84,-3.66,-1.59,232,291,203,271,290,4
1728,-0.03,-0.95,0.29,5.62,-2.14,0.31,233,297,205,273,290,4
1729,-0.03,-0.95,0.29,0.06,-1.83,-0.49,230,290,211,278,292,4
1730,-0.03,-0.95,0.31,-2.81,-1.28,-3.3,232,292,207,276,291,4
1731,-0.03,-0.98,0.24,-1.16,-0.24,0.61,232,294,202,280,292,4
1732,-0.04,-0.99,0.25,-7.63,1.53,-5.43,234,290,208,278,296,4
1733,-0.1,-0.95,0.19,-2.75,2.87,-2.2,234,302,208,280,296,4
1734,-0.03,-0.96,0.22,-3.54,0.55,-2.69,236,292,205,275,295,4
1735,-0.03,-0.96,0.24,4.33,-5.49,-2.81,255,294,207,278,300,4
1736,-0.02,-0.96,0.22,-3.97,-3.97,-3.48,234,294,206,278,295,4
1737,0.03,-0.98,0.18,5.55,-3.66,-1.77,236,294,208,282,296,4
1738,-0.0,-0.97,0.21,1.53,-4.52,-3.85,235,293,208,283,299,4
1739,-0.01,-0.96,0.24,2.08,-3.17,-3.85,234,297,210,280,295,4
1740,-0.01,-0.97,0.23,1.95,-2.5,-3.05,237,295,207,277,297,4
1741,-0.0,-0.97,0.25,0.49,-2.75,-2.2,236,296,211,284,297,4
1742,-0.0,-0.97,0.26,0.0,-3.42,-3.23,236,294,210,280,297,4
1743,-0.01,-0.98,0.25,0.92,-1.22,-3.66,236,294,208,279,298,4
1744,0.0,-0.97,0.24,-0.73,-1.83,-2.75,236,297,210,283,296,4
1745,0.02,-0.97,0.25,-0.18,-3.23,-2.69,235,295,205,282,297,4
1746,0.01,-0.97,0.25,-0.61,-3.85,-2.56,234,296,207,281,298,4
1747,0.0,-0.97,0.24,1.95,-3.3,-0.92,243,299,212,278,306,4
1748,-0.0,-0.98,0.24,0.73,-4.15,-2.2,235,295,208,283,301,4
1749,0.0,-0.97,0.25,1.89,-3.78,-2.93,236,294,206,281,298,4
1750,-0.01,-0.97,0.26,0.79,-2.62,-3.17,234,297,216,283,296,4
1751,0.01,-0.98,0.25,0.79,-2.56,-3.91,235,297,207,287,295,4
1752,0.01,-0.96,0.25,-0.12,-2.99,-3.05,237,294,212,282,300,4
1753,0.01,-0.98,0.25,1.65,-1.1,-3.3,233,298,208,284,299,4
1754,-0.0,-0.97,0.27,0.24,-2.93,-2.81,238,298,214,282,298,4
1755,0.0,-0.97,0.26,-1.89,-2.01,-2.69,236,299,212,280,299,4
1756,0.02,-0.96,0.25,1.95,-3.11,-2.99,237,296,210,287,300,4
1757,0.01,-0.96,0.26,3.05,-3.6,-1.46,240,297,209,288,301,4
1758,0.0,-0.97,0.27,0.49,-3.11,-0.85,234,300,210,283,298,4
1759,-0.0,-0.96,0.27,1.16,-2.62,-2.32,238,298,210,282,299,4
1760,0.01,-0.96,0.28,2.2,-2.99,-3.42,238,299,219,283,297,4
1761,0.01,-0.96,0.26,2.87,-2.93,-1.95,235,300,209,293,301,4
1762,0.01,-0.96,0.28,0.18,-2.32,-3.23,235,299,216,280,300,4
1763,0.02,-0.95,0.26,2.75,-4.21,-1.65,236,298,210,284,301,4
1764,-0.0,-0.97,0.28,1.65,-3.17,-2.38,232,301,212,283,300,4
1765,0.01,-0.95,0.27,-0.92,-3.78,-2.08,238,298,210,282,301,4
1766,0.0,-0.96,0.28,-1.22,-3.97,-2.38,238,298,211,282,300,4
1767,-0.0,-0.96,0.27,1.89,-2.87,-2.26,236,298,207,288,301,4
1768,-0.01,-0.97,0.3,-0.31,-2.14,-2.62,236,298,211,287,299,4
1769,-0.0,-0.96,0.29,1.46,-3.17,-2.75,242,300,207,285,299,4
1770,0.0,-0.96,0.29,1.04,-3.3,-2.87,234,303,212,284,300,4
1771,0.01,-0.95,0.29,3.23,-3.97,-2.5,240,299,209,288,302,4
1772,-0.0,-0.96,0.3,1.04,-2.5,-2.99,239,296,207,282,300,4
1773,0.03,-0.98,0.31,-2.69,-0.98,-2.08,238,302,210,281,303,4
1774,0.01,-0.96,0.28,-0.31,-2.62,-2.93,238,300,213,284,300,4
1775,0.01,-0.96,0.26,0.55,-3.11,-2.26,236,299,219,279,298,4
1776,0.0,-0.96,0.28,0.55,-2.69,-1.77,236,298,211,283,307,4
1777,0.0,-0.96,0.28,2.32,-5.98,-1.34,234,300,212,286,305,4
1778,-0.0,-0.97,0.31,-0.37,-5.49,-1.71,237,300,209,287,300,4
1779,-0.01,-0.96,0.31,-0.85,-3.54,-2.38,238,303,211,287,299,4
1780,0.01,-0.95,0.3,1.89,-2.01,-2.69,234,301,214,283,297,4
1781,0.02,-0.96,0.31,-0.55,-2.81,-3.66,239,299,214,282,298,4
1782,-0.02,-0.98,0.31,-0.98,-3.11,-1.16,234,301,211,286,296,4
1783,-0.01,-0.98,0.31,6.23,12.51,-12.7,230,278,209,288,281,4
1784,0.11,-0.98,0.26,15.14,-0.79,0.73,229,260,209,272,285,4
1785,0.08,-0.96,0.37,-6.1,-4.58,-5.49,233,274,212,278,325,4
1786,0.06,-0.91,0.28,6.9,-4.76,-0.61,235,278,215,279,320,4
1787,0.01,-0.96,0.3,-1.4,-1.89,-0.73,237,277,212,282,318,4
1788,0.03,-0.94,0.28,5.8,-5.55,4.88,237,279,213,281,303,4
1789,0.05,-0.94,0.27,0.67,1.46,-6.23,232,272,214,278,277,4
1790,0.04,-0.97,0.25,-0.43,-2.56,-4.39,235,266,215,280,274,4
1791,0.04,-0.95,0.25,1.4,-3.23,-2.44,232,274,215,284,281,4
1792,0.03,-0.96,0.27,0.55,-2.87,-2.81,230,278,217,291,286,4
1793,0.05,-0.98,0.26,-0.24,-3.72,-2.93,235,278,214,281,285,4
1794,0.02,-0.97,0.27,-0.61,-3.72,-2.38,241,281,217,287,287,4
1795,0.04,-0.89,0.25,8.79,-2.38,-3.6,233,280,211,290,291,4
1796,0.02,-0.94,0.37,3.85,-4.27,-1.89,236,276,210,295,294,4
1797,0.0,-0.95,0.41,3.17,-4.33,-0.06,234,280,214,293,296,4
1798,0.02,-0.94,0.4,-2.38,0.49,-0.92,242,280,213,294,295,4
1799,0.02,-0.93,0.46,-0.12,-3.36,-6.1,234,279,217,294,297,4
1800,0.02,-0.9,0.42,-2.38,1.65,-3.91,235,284,218,306,297,4
1801,-0.04,-0.89,0.46,8.61,-7.45,4.64,238,280,217,303,299,4
1802,-0.03,-0.91,0.43,1.04,-5.74,3.17,240,284,213,308,297,4
1803,-0.03,-0.86,0.43,4.15,-2.44,-1.65,240,285,207,303,299,4
1804,-0.05,-0.91,0.46,-1.59,-4.15,-1.77,237,286,209,300,310,4
1805,-0.04,-0.89,0.43,1.59,-2.44,-1.4,237,284,210,305,297,4
1806,-0.06,-0.89,0.38,5.19,-0.12,-1.89,238,286,217,302,301,4
1807,-0.05,-0.93,0.44,-0.92,-3.91,-2.87,238,289,212,299,301,4
1808,-0.05,-0.91,0.41,1.89,-2.38,-2.87,235,290,225,304,303,4
1809,-0.07,-0.87,0.42,5.13,-2.08,-3.91,237,287,219,300,302,4
1810,-0.03,-0.9,0.43,5.49,-5.74,-1.28,241,290,213,299,302,4
1811,-0.04,-0.9,0.42,1.4,-2.99,-3.23,240,288,215,298,305,4
1812,-0.05,-0.9,0.43,1.46,-4.33,-2.87,240,288,211,301,298,4
1813,-0.04,-0.93,0.46,-1.4,-2.14,-2.75,240,287,199,295,303,4
1814,-0.04,-0.9,0.43,-0.06,-2.26,-1.1,234,288,206,290,304,4
1815,-0.03,-0.92,0.43,-1.83,-3.05,-2.62,238,289,206,296,304,4
1816,-0.05,-0.91,0.44,-2.14,-3.17,-1.28,233,288,210,293,302,4
1817,-0.04,-0.9,0.42,1.04,-3.36,-3.72,238,287,207,296,301,4
1818,-0.04,-0.9,0.44,1.89,-3.42,-3.48,238,291,209,293,304,4
1819,-0.03,-0.9,0.42,1.53,-2.32,-1.83,239,295,208,291,300,4
1820,-0.04,-0.9,0.43,-8.24,-4.21,-1.1,239,290,208,288,304,4
1821,-0.04,-0.91,0.4,1.59,-3.91,-2.08,238,290,208,290,299,4
1822,-0.04,-0.92,0.4,0.43,-2.75,-2.93,240,293,211,286,306,4
1823,-0.04,-0.93,0.4,-1.22,-3.72,-1.89,238,291,211,293,302,4
1824,-0.05,-0.91,0.4,0.24,-3.54,-2.01,241,290,209,291,303,4
1825,-0.05,-0.89,0.39,1.04,-2.14,-1.71,234,291,216,287,306,4
1826,-0.04,-0.91,0.4,1.59,-2.69,-3.91,241,294,210,295,304,4
1827,-0.04,-0.92,0.4,-1.04,-3.11,-2.44,273,291,212,295,305,4
1828,-0.03,-0.92,0.4,0.73,-3.78,-2.38,242,293,209,299,308,4
1829,-0.02,-0.92,0.39,0.43,-4.03,-2.69,241,294,212,294,304,4
1830,-0.03,-0.92,0.39,1.53,-2.81,-2.38,241,308,212,293,307,4
1831,-0.05,-0.93,0.4,-0.55,-3.54,-2.2,242,294,215,292,303,4
1832,-0.04,-0.93,0.39,0.24,-4.21,-1.59,239,292,214,293,306,4
1833,-0.04,-0.92,0.4,0.61,-3.72,-1.34,241,293,213,297,302,4
1834,-0.05,-0.91,0.39,1.71,-3.72,-2.69,241,294,211,293,306,4
1835,-0.04,-0.92,0.4,1.46,-2.81,-3.23,236,290,220,293,306,4
1836,-0.04,-0.91,0.39,0.06,-1.95,-2.87,239,292,214,290,306,4
1837,-0.04,-0.92,0.4,0.73,-3.23,-3.17,241,293,212,297,305,4
1838,-0.03,-0.93,0.42,-0.92,-3.85,-3.48,242,294,212,298,305,4
1839,-0.03,-0.91,0.39,0.92,-2.62,-1.95,238,295,214,290,308,4
1840,-0.04,-0.93,0.4,-0.18,-3.17,-3.3,240,296,212,294,307,4
1841,-0.03,-0.93,0.4,0.67,-2.87,-3.3,242,295,215,298,308,4
1842,-0.04,-0.94,0.4,-2.56,-3.11,-1.34,237,294,214,298,307,4
1843,-0.04,-0.92,0.39,-1.34,-3.11,-1.95,242,295,214,294,307,4
1844,-0.05,-0.92,0.36,1.65,-3.91,-2.26,241,295,217,297,306,4
1845,-0.04,-0.92,0.39,0.0,-3.3,-2.93,250,294,216,289,310,4
1846,-0.04,-0.92,0.38,0.98,-2.56,-3.05,238,299,214,291,308,4
1847,-0.03,-0.93,0.39,0.92,-3.48,-3.17,242,296,211,298,307,4
1848,-0.03,-0.93,0.37,0.31,-2.75,-2.32,242,293,214,291,303,4
1849,-0.03,-0.92,0.37,-0.67,-1.89,-2.32,269,297,216,294,309,4
1850,-0.01,-0.92,0.38,4.88,-2.87,-3.17,240,297,213,292,308,4
1851,-0.04,-0.94,0.36,0.18,-3.11,-3.11,243,298,215,294,309,4
1852,-0.02,-0.93,0.35,-0.61,-2.32,-4.58,240,292,214,296,309,4
1853,-0.03,-0.93,0.32,4.46,-3.11,-1.59,241,295,215,298,308,4
1854,-0.03,-0.92,0.36,0.43,-3.48,-2.2,240,294,213,293,306,4
1855,-0.03,-0.93,0.35,0.67,-3.17,-2.01,239,297,214,292,311,4
1856,-0.03,-0.92,0.36,0.85,-3.85,-2.5,246,294,218,292,310,4
1857,-0.03,-0.93,0.37,0.98,-2.99,-2.87,242,295,211,297,312,4
1858,-0.04,-0.94,0.39,-0.37,-3.72,-1.28,245,296,214,293,308,4
1859,-0.04,-0.94,0.39,-0.61,-3.36,-1.53,241,295,215,292,308,4
1860,-0.03,-0.92,0.37,0.18,-3.36,-2.2,241,292,215,293,308,4
1861,-0.04,-0.93,0.37,2.2,-3.54,-2.87,240,297,217,297,308,4
1862,-0.03,-0.92,0.38,1.65,-2.2,-3.85,240,291,214,296,306,4
1863,-0.03,-0.93,0.37,1.28,-2.2,-3.6,240,294,217,297,310,4
1864,-0.03,-0.93,0.4,1.46,-2.5,-2.56,239,298,214,292,310,4
1865,-0.03,-0.94,0.38,0.31,-3.11,-2.81,243,294,213,291,308,4
1866,-0.01,-0.92,0.36,2.38,-3.36,-2.26,240,296,211,300,306,4
1867,-0.01,-0.94,0.37,0.49,-2.5,-1.95,242,295,214,297,306,4
1868,-0.04,-0.93,0.39,-1.28,-3.91,-1.4,238,295,216,293,305,4
1869,-0.03,-0.94,0.37,0.37,-3.05,-1.95,238,297,215,296,305,4
1870,-0.03,-0.94,0.37,0.0,-2.26,-3.3,240,297,213,300,310,4
1871,-0.03,-0.91,0.37,-1.4,-3.72,-1.53,261,297,214,299,305,4
1872,-0.03,-0.96,0.42,3.17,0.18,-3.11,242,295,216,298,307,4
1873,-0.0,-0.96,0.39,-5.68,-6.65,-1.22,242,293,216,294,309,4
1874,-0.03,-0.94,0.33,3.66,-2.62,-4.64,241,296,215,300,304,4
1875,-0.03,-0.95,0.37,0.55,-3.85,-2.56,241,296,213,295,308,4
1876,-0.04,-0.94,0.36,0.49,-3.72,-1.83,243,299,214,298,308,4
1877,-0.03,-0.93,0.36,0.67,-4.27,-1.65,241,298,214,292,309,4
1878,-0.04,-0.93,0.36,1.59,-3.48,-2.93,242,300,218,301,309,4
1879,-0.03,-0.93,0.36,-0.61,-2.32,-3.42,250,295,216,301,310,4
1880,-0.02,-0.93,0.36,2.75,-1.28,-3.05,241,293,216,294,307,4
1881,-0.02,-0.94,0.35,-0.92,-1.95,-3.85,268,295,213,294,310,4
1882,-0.01,-0.94,0.32,0.61,-3.17,-2.62,241,296,222,297,309,4
1883,-0.02,-0.95,0.32,1.53,-3.11,-2.93,240,297,217,296,312,4
1884,-0.02,-0.92,0.32,2.44,-2.75,-2.38,241,297,215,298,311,4
1885,-0.02,-0.94,0.33,-0.12,-2.81,-2.62,246,296,215,301,310,4
1886,-0.02,-0.95,0.33,-2.2,-3.11,-2.14,240,297,216,299,313,4
1887,-0.03,-0.94,0.32,0.37,-3.6,-1.16,239,299,217,302,310,4
1888,-0.02,-0.95,0.32,1.59,-3.66,-3.23,242,297,216,300,308,4
1889,0.01,-0.93,0.29,-4.03,-2.62,-4.82,243,298,214,298,309,4
1890,-0.02,-0.95,0.33,-2.32,-1.77,-3.54,242,297,209,295,311,4
1891,-0.01,-0.96,0.33,-2.2,-3.85,-2.62,242,298,209,295,309,4
1892,-0.03,-0.95,0.32,1.83,-3.78,-2.56,241,296,212,298,313,4
1893,-0.01,-0.94,0.32,1.04,-2.56,-3.3,238,299,211,299,313,4
1894,-0.01,-0.93,0.31,-0.24,-1.65,-2.81,240,299,214,301,310,4
1895,-0.01,-0.95,0.32,-1.1,-2.56,-2.81,243,300,210,295,312,4
1896,-0.01,-0.95,0.31,-0.24,-3.91,-2.08,266,298,213,297,307,4
1897,-0.02,-0.95,0.31,1.59,-3.54,-2.44,244,298,213,301,313,4
1898,-0.02,-0.95,0.31,1.04,-3.36,-1.46,244,296,213,299,307,4
1899,-0.02,-0.94,0.31,1.34,-3.54,-0.92,243,299,215,298,307,4
1900,-0.03,-0.95,0.31,2.01,-3.48,-2.08,243,300,212,298,310,4
1901,-0.03,-0.96,0.32,0.24,-2.87,-2.69,242,305,212,298,309,4
1902,-0.02,-0.95,0.32,0.06,-2.56,-3.11,246,298,208,297,311,4
1903,-0.02,-0.94,0.32,0.12,-2.38,-2.62,243,300,210,298,311,4
1904,-0.03,-0.95,0.31,1.71,-2.93,-2.44,242,299,216,303,307,4
1905,-0.02,-0.95,0.32,-0.24,-2.99,-4.09,242,302,212,298,312,4
1906,-0.01,-0.94,0.33,-0.18,-2.62,-2.93,243,297,215,297,310,4
1907,-0.02,-0.95,0.31,1.65,-2.08,-2.56,248,301,211,294,311,4
1908,-0.02,-0.94,0.31,0.79,-2.99,-2.14,244,299,216,299,307,4
1909,-0.0,-0.93,0.31,2.2,-3.78,-2.81,242,298,215,300,313,4
1910,-0.02,-0.95,0.31,0.79,-3.78,-1.46,241,300,212,297,312,4
1911,-0.02,-0.94,0.31,-0.06,-3.3,-1.28,241,298,219,293,313,4
1912,-0.03,-0.95,0.33,-1.59,-3.17,-2.5,244,299,217,300,310,4
1913,-0.03,-0.95,0.32,1.04,-2.75,-3.42,242,296,214,298,313,4
1914,-0.03,-0.95,0.31,2.14,-2.87,-2.26,242,299,217,300,308,4
1915,-0.03,-0.96,0.32,-3.72,-3.97,-3.23,244,301,220,302,313,4
1916,-0.03,-0.95,0.32,-0.92,-1.46,-2.93,242,299,215,297,310,4
1917,-0.03,-0.95,0.31,1.16,-2.2,-3.11,239,300,218,296,311,4
1918,-0.01,-0.94,0.32,1.59,-2.38,-2.01,241,300,218,299,311,4
1919,-0.02,-0.95,0.33,0.06,-2.5,-2.62,243,300,216,302,313,4
1920,-0.02,-0.95,0.31,0.98,-3.23,-2.87,244,298,218,299,312,4
1921,-0.02,-0.94,0.32,1.71,-2.87,-2.62,241,298,213,296,312,4
1922,-0.02,-0.95,0.32,-0.61,-3.66,-2.44,241,298,216,302,311,4
1923,-0.02,-0.95,0.32,0.67,-3.78,-1.46,241,297,217,297,312,4
1924,-0.03,-0.94,0.32,0.79,-3.05,-2.93,242,303,211,297,311,4
1925,-0.03,-0.95,0.33,-1.59,-3.11,-3.11,242,296,218,299,311,4
1926,-0.03,-0.96,0.33,0.43,-2.38,-2.99,242,301,213,300,311,4
1927,-0.03,-0.95,0.32,0.79,-2.44,-3.05,242,299,213,296,316,4
1928,-0.02,-0.95,0.34,0.37,-0.98,-3.42,241,297,215,299,314,4
1929,-0.02,-0.95,0.35,2.08,-2.08,-2.99,240,285,214,289,305,4
1930,-0.04,-0.94,0.35,-0.06,-4.03,-1.77,242,286,214,291,308,4
1931,-0.02,-0.92,0.33,2.62,-3.48,-2.01,238,290,215,293,310,4
1932,-0.04,-0.93,0.34,1.77,-3.3,-2.38,239,291,214,296,305,4
1933,-0.03,-0.95,0.36,-2.32,-4.03,-3.42,238,291,217,290,310,4
1934,-0.02,-0.94,0.34,2.01,-4.33,-1.71,241,292,213,296,306,4
1935,-0.03,-0.94,0.34,-0.79,-4.03,-0.98,240,295,214,289,307,4
1936,-0.04,-0.93,0.33,2.38,-3.3,-1.34,241,293,219,290,307,4
1937,-0.04,-0.96,0.34,3.54,-3.6,-2.87,238,293,216,309,310,4
1938,-0.03,-0.91,0.38,4.94,0.18,-7.39,241,297,215,292,309,4
1939,-0.02,-0.94,0.38,-0.24,-4.64,-4.21,239,297,216,295,309,4
1940,-0.03,-0.93,0.35,-0.98,-0.61,-2.38,240,293,216,294,311,4
1941,-0.03,-0.94,0.35,-3.97,-3.3,-2.93,240,296,216,294,301,4
1942,-0.04,-0.97,0.34,2.32,-4.39,0.79,243,291,216,298,292,4
1943,0.01,-0.92,0.33,2.81,-4.03,-2.99,243,290,217,302,283,4
1944,-0.01,-0.96,0.36,12.21,-8.3,-3.6,243,298,216,300,318,4
1945,-0.02,-0.94,0.44,9.58,-5.49,-1.59,239,294,217,304,323,4
1946,0.06,-0.89,0.45,3.97,-14.65,-3.42,232,260,216,306,336,4
1947,0.07,-0.89,0.35,-16.54,-17.21,8.3,232,256,217,299,370,4
1948,0.04,-0.99,0.4,21.24,-10.56,0.73,236,285,214,297,335,4
1949,0.02,-0.93,0.4,0.73,-1.89,-2.81,242,282,218,282,312,4
1950,0.01,-0.93,0.4,-1.65,-0.49,-2.81,231,287,220,289,310,4
1951,-0.01,-0.95,0.42,-2.56,-1.59,-1.34,234,290,214,291,312,4
1952,0.0,-0.91,0.39,1.46,-1.83,-2.87,236,287,220,287,313,4
1953,0.02,-0.92,0.4,0.43,-0.73,-3.36,236,288,215,289,313,4
1954,-0.01,-0.92,0.41,-1.46,-1.59,-2.75,236,291,215,288,315,4
1955,-0.0,-0.91,0.39,-3.66,-5.86,-4.7,259,291,212,293,317,4
1956,-0.0,-0.95,0.43,4.46,-2.38,-2.01,237,291,216,292,321,4
1957,-0.01,-0.92,0.47,-2.81,-3.11,-2.62,237,291,220,295,318,4
1958,-0.02,-0.86,0.44,-2.99,-1.65,-4.39,237,292,217,301,324,4
1959,-0.03,-0.88,0.46,-0.06,-5.37,0.79,257,290,217,295,322,4
1960,-0.04,-0.89,0.38,-20.63,13.85,-8.3,239,291,216,299,321,4
1961,-0.0,-0.97,0.35,8.61,-11.54,1.34,241,294,218,302,326,4
1962,-0.04,-0.82,0.38,32.78,68.66,-31.31,237,292,215,298,322,4
1963,0.05,-0.94,0.41,-17.33,-1.65,2.2,240,290,219,299,327,4
1964,-0.15,-0.88,0.27,9.4,-24.05,13.24,241,293,218,298,326,4
1965,-0.03,-0.95,0.45,5.62,-24.35,1.4,257,290,220,298,327,4
1966,-0.03,-0.93,0.35,0.06,-10.13,-5.31,237,290,218,296,323,4
1967,-0.07,-0.9,0.39,-1.22,-2.56,-1.83,235,291,223,299,322,4
1968,0.01,-0.93,0.29,7.69,-3.66,-1.16,237,290,218,297,325,4
1969,0.0,-0.94,0.35,1.77,-3.05,-1.46,239,295,221,302,325,4
1970,-0.0,-0.95,0.3,-13.37,-2.69,-5.92,240,292,222,297,332,4
1971,0.04,-0.98,0.26,2.01,3.78,-0.85,241,298,218,299,324,4
1972,-0.01,-0.93,0.23,18.49,-1.53,-0.85,279,297,222,291,326,4
1973,-0.03,-0.98,0.32,-5.98,1.04,-4.94,242,293,218,291,324,4
1974,0.0,-0.97,0.33,11.47,-8.48,3.78,243,292,219,290,323,4
1975,-0.01,-0.93,0.35,5.68,-4.94,-0.49,242,295,221,291,326,4
1976,-0.0,-0.94,0.37,-7.45,-2.2,-1.83,243,291,218,292,325,4
1977,-0.02,-0.94,0.36,2.38,-4.64,-1.28,243,292,220,297,326,4
1978,0.0,-0.93,0.35,14.34,-4.09,2.2,241,291,221,292,327,4
1979,-0.01,-0.92,0.37,2.38,-3.48,-2.44,240,293,219,289,329,4
1980,-0.01,-0.91,0.37,2.93,-2.69,-2.62,245,288,221,294,325,4
1981,-0.02,-0.92,0.38,1.59,-2.2,-2.38,244,292,217,292,325,4
1982,-0.02,-0.94,0.38,-0.49,-3.05,-3.17,250,294,218,292,327,4
1983,-0.05,-0.96,0.29,-19.47,25.02,-2.69,247,296,218,289,327,4
1984,-0.07,-0.97,0.27,-3.48,4.03,-4.82,236,296,217,278,324,4
1985,-0.06,-0.98,0.27,-1.04,-4.64,-4.76,240,296,218,280,327,4
1986,-0.04,-0.97,0.22,1.95,1.65,-5.31,239,291,218,286,325,4
1987,-0.03,-0.97,0.26,3.05,-4.76,-2.56,241,294,217,286,327,4
1988,-0.02,-0.93,0.28,8.24,-4.64,0.12,240,294,218,289,328,4
1989,-0.07,-0.96,0.29,-5.25,22.09,-12.51,238,294,217,282,327,4
1990,-0.04,-0.95,0.31,1.83,-0.06,-1.34,240,293,219,281,326,4
1991,0.11,-0.93,0.3,-10.74,-30.21,0.49,240,293,218,288,327,4
1992,-0.06,-1.02,0.23,7.81,3.42,-3.66,239,294,219,285,327,4
1993,-0.01,-0.96,0.28,-5.8,2.08,-6.29,242,295,216,276,325,4
1994,-0.01,-0.97,0.28,-0.61,-1.59,-3.17,240,294,216,286,329,4
1995,-0.0,-0.97,0.28,0.49,-2.99,-3.05,240,297,220,287,328,4
1996,0.0,-0.93,0.25,6.96,-2.5,0.37,240,294,215,285,327,4
1997,-0.01,-0.96,0.31,-0.85,-3.72,-1.95,242,297,219,283,326,4
1998,-0.01,-0.95,0.3,3.23,-5.74,0.98,242,304,217,292,328,4
1999,-0.02,-0.97,0.31,0.61,-1.59,-2.08,243,296,215,284,328,4
