,aX,aY,aZ,gX,gY,gZ,little,ring,middle,index,thumb,number
0,0.02,-0.94,0.38,1.83,-2.08,-1.95,451,478,432,482,267,5
1,0.0,-0.92,0.34,12.27,0.79,-2.5,450,474,434,487,270,5
2,-0.05,-0.91,0.38,6.16,-4.21,3.11,453,476,436,486,275,5
3,-0.05,-0.92,0.42,1.53,-3.42,-4.46,450,477,430,487,272,5
4,-0.13,-0.93,0.35,-4.82,2.99,-12.94,459,477,433,484,272,5
5,0.14,-0.92,0.37,-8.0,-5.86,-10.5,452,478,434,483,273,5
6,0.09,-0.93,0.31,1.1,-4.03,-0.98,452,479,433,486,272,5
7,0.11,-0.94,0.32,-3.97,-1.83,-5.49,451,477,432,491,274,5
8,0.11,-0.95,0.31,-1.04,-5.31,-0.12,452,478,434,486,273,5
9,0.07,-0.95,0.3,1.53,-6.29,1.46,455,485,430,485,272,5
10,0.08,-0.96,0.29,2.87,-6.9,-1.1,451,481,430,486,272,5
11,0.06,-0.94,0.33,1.34,-5.0,2.38,452,481,430,487,275,5
12,0.04,-0.94,0.35,2.5,-5.8,0.06,451,480,429,486,270,5
13,0.11,-0.92,0.4,9.58,14.59,1.83,454,478,429,486,273,5
14,-0.05,-0.91,0.35,8.06,-6.41,-4.64,452,477,440,488,274,5
15,0.09,-0.88,0.53,2.62,-2.38,2.69,451,494,428,482,273,5
16,-0.04,-0.82,0.59,24.17,-10.62,43.15,446,478,427,486,275,5
17,-0.25,-0.82,0.59,-10.38,-3.6,-21.12,448,474,427,491,274,5
18,-0.21,-1.03,0.76,25.09,48.83,50.23,447,473,426,479,272,5
19,-0.3,-0.37,0.6,76.23,38.64,-18.68,445,477,425,474,277,5
20,-0.44,-0.71,0.58,2.2,5.8,-36.13,449,480,425,476,280,5
21,-0.31,-0.68,0.53,15.5,21.36,-9.4,445,474,425,482,275,5
22,-0.43,-0.7,0.56,16.6,25.33,-18.49,443,475,424,473,269,5
23,-0.31,-0.77,0.59,16.3,25.76,-11.54,444,473,424,473,274,5
24,-0.4,-0.79,0.54,4.58,18.31,-29.54,443,475,424,477,273,5
25,-0.33,-0.75,0.51,10.25,26.06,-17.4,442,476,423,482,275,5
26,-0.09,-0.77,0.6,12.88,-3.17,-47.67,444,475,424,487,275,5
27,-0.32,-0.74,0.55,-8.73,-5.55,0.24,445,474,425,478,275,5
28,-0.21,-0.76,0.55,-12.76,-21.55,3.91,445,477,428,477,273,5
29,-0.38,-0.76,0.47,7.63,-20.69,25.76,444,476,423,479,276,5
30,-0.62,-0.62,0.53,-28.26,3.97,47.49,444,471,422,481,275,5
31,-0.53,-0.78,0.33,-2.87,15.5,0.85,438,474,419,480,278,5
32,-0.53,-0.64,0.79,-14.95,-18.86,18.74,441,473,428,478,274,5
33,-0.27,-0.66,0.34,14.04,0.61,-46.2,442,479,421,478,276,5
34,-0.6,-0.65,0.56,-13.0,-7.26,-4.39,442,475,419,479,276,5
35,-0.4,-0.54,0.24,-21.18,1.22,-16.17,440,477,423,477,276,5
36,-0.69,-0.7,0.39,6.47,4.82,10.19,441,476,424,473,279,5
37,-0.55,-0.66,0.47,2.87,-8.18,-9.22,440,477,420,481,277,5
38,-0.67,-0.57,0.48,8.67,-4.88,7.57,439,475,421,475,274,5
39,-0.55,-0.58,0.41,-4.09,-7.39,-6.04,440,477,420,480,275,5
40,-0.9,-0.52,0.75,16.3,-7.02,28.44,443,476,422,478,272,5
41,-0.26,-0.36,0.09,-26.18,-10.68,-22.71,443,477,421,478,277,5
42,-0.57,-0.76,0.45,-1.83,-20.57,-33.69,444,471,416,477,272,5
43,-0.56,-0.74,0.45,15.81,-0.31,-9.7,441,475,418,480,273,5
44,-0.53,-0.65,0.47,10.25,-8.91,0.24,441,474,420,482,279,5
45,-0.66,-0.62,0.61,-2.08,-8.0,19.1,443,473,417,476,279,5
46,-0.5,-0.58,0.55,-7.02,-1.22,0.37,441,475,418,478,282,5
47,-0.65,-0.58,0.58,4.64,-4.52,-10.01,440,477,429,482,282,5
48,-0.57,-0.58,0.57,1.95,-3.17,-18.43,439,477,419,478,282,5
49,-0.6,-0.63,0.55,-5.8,-0.73,-1.77,441,475,415,477,282,5
50,-0.57,-0.56,0.52,-3.42,-7.08,-8.48,441,477,416,480,282,5
51,-0.58,-0.63,0.48,10.93,3.17,-5.86,436,479,412,481,277,5
52,-0.62,-0.61,0.55,-0.92,-1.89,2.44,436,478,414,473,279,5
53,-0.55,-0.61,0.55,0.79,-4.7,-6.35,442,479,420,472,278,5
54,-0.66,-0.56,0.49,-35.16,6.1,21.12,442,479,415,477,285,5
55,-0.48,-0.7,0.63,16.24,-23.86,-19.23,439,477,414,474,282,5
56,-0.6,-0.47,0.21,-29.24,-6.59,-21.67,439,475,413,478,283,5
57,-0.52,-0.69,0.73,13.31,-1.4,8.48,439,476,413,477,280,5
58,-0.63,-0.63,0.76,47.55,-58.41,-42.72,438,476,413,474,284,5
59,-0.28,-0.49,0.21,-33.02,21.79,21.48,441,478,416,483,283,5
60,-0.66,-0.74,0.43,1.4,7.51,17.82,432,477,415,472,283,5
61,-0.51,-0.84,0.73,15.81,3.17,3.91,442,475,412,476,284,5
62,-0.44,-0.59,0.44,-4.88,-32.04,-37.05,438,474,414,477,284,5
63,-0.44,-0.72,0.47,-28.08,-52.86,-74.34,439,471,412,476,283,5
64,-0.25,-0.74,0.59,25.82,-10.8,-9.95,439,477,414,482,285,5
65,-0.35,-0.7,0.58,-7.69,-7.51,-42.36,440,474,408,480,286,5
66,-0.39,-0.77,0.44,3.3,-39.61,11.84,438,475,415,480,285,5
67,-0.29,-0.74,0.6,21.55,-14.4,-32.84,439,472,412,479,285,5
68,-0.38,-0.68,0.5,1.22,-23.25,-13.92,439,478,408,481,286,5
69,-0.39,-0.61,0.67,7.87,0.61,-9.95,439,477,410,477,287,5
70,-0.46,-0.88,0.78,14.59,53.1,47.3,438,474,412,481,287,5
71,-0.44,-0.65,0.51,5.55,2.81,-14.53,438,477,409,475,285,5
72,-0.53,-0.61,0.63,-17.46,-10.8,8.12,434,472,411,472,285,5
73,-0.57,-0.66,0.52,8.61,-1.22,0.43,439,481,410,480,285,5
74,-0.43,-0.72,0.6,3.85,4.76,-6.53,439,472,410,472,288,5
75,-0.4,-0.75,0.57,6.65,7.26,-13.85,433,477,411,478,285,5
76,-0.32,-0.67,0.57,-5.98,-1.1,-17.88,434,476,412,476,287,5
77,-0.36,-0.72,0.68,15.01,18.68,20.63,439,477,412,477,285,5
78,-0.4,-0.66,0.63,-4.33,-0.31,1.04,459,474,415,474,287,5
79,-0.4,-0.66,0.62,0.49,-1.65,-3.36,444,477,409,475,287,5
80,-0.42,-0.67,0.64,0.37,-2.62,-0.98,434,475,408,485,287,5
81,-0.41,-0.66,0.62,-0.73,-1.83,-0.43,447,474,406,488,289,5
82,-0.41,-0.66,0.64,2.38,-1.71,-0.85,434,474,408,479,287,5
83,-0.4,-0.66,0.63,0.67,-1.16,-2.2,436,477,405,477,287,5
84,-0.41,-0.65,0.63,2.38,-3.48,-0.92,437,474,410,474,288,5
85,-0.42,-0.65,0.64,1.1,0.55,-2.32,452,475,407,476,289,5
86,-0.42,-0.65,0.63,1.34,-1.89,-3.11,438,475,406,478,286,5
87,-0.41,-0.65,0.62,-4.39,-1.4,-5.31,438,473,407,472,284,5
88,-0.4,-0.7,0.59,-6.04,1.77,-0.18,439,477,414,477,286,5
89,-0.41,-0.71,0.59,-0.18,-6.59,-5.43,436,470,404,480,284,5
90,-0.39,-0.69,0.57,2.08,-6.53,-4.39,436,471,404,477,284,5
91,-0.39,-0.69,0.58,-0.67,-6.59,-6.84,436,473,408,476,285,5
92,-0.4,-0.71,0.61,-1.28,-1.89,-2.93,437,475,410,476,284,5
93,-0.39,-0.71,0.58,-3.48,-3.48,-0.49,432,476,404,477,284,5
94,-0.36,-0.7,0.57,-10.38,-21.42,-4.94,438,471,404,477,288,5
95,-0.32,-0.78,0.65,-18.49,-16.97,9.16,435,474,406,478,285,5
96,-0.36,-0.83,0.46,-21.91,-1.1,13.79,436,475,406,476,281,5
97,-0.28,-0.76,0.6,-24.41,-34.12,-19.1,433,475,406,481,285,5
98,-0.07,-0.92,0.22,-8.0,-16.91,-25.09,437,472,407,476,285,5
99,-0.02,-1.06,0.19,8.42,-4.21,-6.23,436,471,403,481,285,5
100,0.14,-1.04,0.13,-30.15,-15.5,-5.49,434,472,406,482,286,5
101,-0.03,-0.92,0.14,-6.04,8.79,6.16,432,474,405,480,290,5
102,-0.08,-0.98,-0.01,-6.53,2.69,12.45,432,476,405,479,284,5
103,-0.11,-0.94,0.11,0.73,-17.88,-11.35,436,475,408,479,285,5
104,-0.07,-0.99,0.16,8.06,-2.2,-5.74,435,475,403,483,285,5
105,-0.12,-1.02,0.11,-2.75,-0.49,-10.38,436,472,405,479,283,5
106,0.01,-0.99,0.01,-9.77,-6.1,-12.21,435,476,404,479,287,5
107,-0.11,-1.02,-0.02,-5.74,-15.08,-6.23,436,474,404,482,284,5
108,0.04,-0.97,-0.09,-4.76,-12.45,0.0,435,474,405,479,285,5
109,0.02,-1.01,0.1,-1.28,-19.59,-52.61,434,473,406,480,285,5
110,0.01,-1.07,0.24,25.27,-4.52,7.87,437,475,407,474,287,5
111,0.24,-0.95,0.08,-17.52,1.59,36.5,435,473,405,483,286,5
112,-0.03,-1.01,0.1,-9.95,-1.22,-20.2,434,475,402,481,287,5
113,-0.06,-1.03,0.09,-6.65,8.42,-20.63,436,472,405,475,286,5
114,0.19,-0.98,-0.01,6.16,-1.4,-1.89,434,470,403,473,287,5
115,0.09,-1.0,0.09,4.27,10.8,0.85,434,475,404,478,290,5
116,0.1,-1.0,0.09,-3.91,-0.55,-7.57,433,471,407,492,288,5
117,0.4,-0.95,0.21,-0.24,1.53,-0.18,435,472,404,479,286,5
118,0.07,-0.97,0.2,-11.66,-26.43,28.38,437,474,404,475,288,5
119,0.01,-0.99,0.06,-17.88,-13.98,-12.27,436,473,406,474,291,5
120,0.09,-0.97,-0.01,0.79,-25.63,-7.2,434,486,404,476,289,5
121,0.3,-0.96,0.03,-17.76,13.98,-19.35,437,475,404,479,289,5
122,-0.0,-1.02,0.06,23.25,-10.99,-5.0,435,476,403,482,287,5
123,0.07,-0.97,-0.05,-1.83,-5.0,1.28,432,471,408,478,289,5
124,0.06,-1.0,0.01,6.71,15.44,-4.58,431,473,405,483,296,5
125,0.14,-0.96,0.08,9.09,31.37,10.68,429,475,407,479,284,5
126,-0.05,-0.99,0.19,7.51,3.23,-4.21,434,470,403,477,284,5
127,-0.15,-1.01,0.27,5.0,-2.69,3.97,431,474,406,476,285,5
128,-0.03,-0.97,0.2,-7.45,-13.18,-13.67,432,474,405,478,285,5
129,0.05,-0.98,0.19,-3.54,-35.77,-20.57,430,473,406,481,284,5
130,0.06,-0.97,0.21,11.35,-13.0,6.16,433,473,402,477,288,5
131,0.15,-0.98,0.18,12.7,-5.74,-1.28,432,474,401,482,284,5
132,0.07,-0.97,0.27,2.5,-3.11,2.44,432,473,401,482,286,5
133,0.07,-0.97,0.27,-0.55,-6.23,-3.36,432,475,403,479,286,5
134,0.03,-0.98,0.27,-2.08,10.56,-6.84,434,473,399,481,284,5
135,0.15,-0.95,0.24,-4.27,10.01,-17.4,434,473,401,478,279,5
136,0.14,-0.96,0.28,-3.42,-16.36,4.21,431,474,399,478,279,5
137,0.14,-0.97,0.18,-34.06,-5.0,-21.48,432,473,399,480,283,5
138,0.33,-0.91,0.07,-5.55,-12.33,-2.2,431,478,398,476,287,5
139,0.24,-0.95,0.04,-11.47,1.95,1.4,432,472,398,477,282,5
140,0.08,-0.99,0.13,13.49,18.62,29.05,432,475,398,477,280,5
141,-0.01,-0.95,0.19,9.89,-11.17,-5.8,429,474,397,482,283,5
142,-0.2,-1.02,0.24,-5.31,12.08,58.29,432,471,400,477,280,5
143,-0.2,-0.95,0.31,-7.93,-2.2,-8.97,437,471,401,473,274,5
144,-0.06,-0.97,0.22,1.28,-4.21,-9.28,436,473,402,480,276,5
145,-0.13,-0.96,0.19,1.22,-1.1,-0.18,435,482,401,480,275,5
146,-0.09,-0.96,0.14,-2.08,-5.25,-7.08,433,472,399,481,279,5
147,-0.08,-0.97,0.17,-4.15,-2.38,-4.82,439,472,403,474,277,5
148,-0.05,-0.95,0.14,5.31,-0.92,-8.97,433,467,399,482,276,5
149,-0.04,-0.96,0.19,-8.18,-2.56,-0.79,433,469,399,477,279,5
150,-0.01,-0.96,0.22,-7.63,-3.17,-4.58,453,469,400,478,282,5
151,-0.02,-0.98,0.19,-2.2,-6.65,-3.85,437,470,403,491,279,5
152,0.0,-0.98,0.17,-2.32,1.89,-7.26,426,474,399,482,277,5
153,-0.04,-0.97,0.17,5.37,-6.41,7.63,430,472,401,473,275,5
154,-0.06,-0.98,0.21,5.31,0.12,-1.95,432,473,406,478,278,5
155,-0.09,-1.0,0.28,-6.23,-0.85,9.52,433,473,403,489,279,5
156,-0.12,-0.85,0.32,25.88,24.96,31.49,442,472,406,476,277,5
157,-0.23,-0.88,0.35,2.32,-7.26,-1.65,428,469,405,478,280,5
158,-0.36,-0.87,0.36,10.38,7.14,13.55,435,472,403,477,278,5
159,-0.37,-0.87,0.41,1.1,-1.22,-6.77,434,475,401,479,279,5
160,-0.33,-0.88,0.39,1.89,-0.67,9.46,431,473,402,479,278,5
161,-0.35,-0.73,0.37,0.85,25.51,35.03,434,473,409,479,279,5
162,-0.72,-0.58,0.47,43.52,3.6,4.7,434,470,405,480,283,5
163,-0.74,-0.56,0.48,11.66,14.95,14.1,430,471,402,475,279,5
164,-0.75,-0.58,0.48,-15.93,-4.76,-3.72,429,473,398,482,280,5
165,-0.6,-0.54,0.55,8.18,9.89,1.4,430,473,402,477,279,5
166,-0.65,-0.59,0.4,-29.24,-18.31,8.73,434,472,402,480,279,5
167,-0.68,-0.62,0.43,13.37,-1.89,-14.04,435,476,402,474,276,5
168,-0.6,-0.63,0.49,7.81,-5.07,-2.81,430,473,399,482,280,5
169,-0.69,-0.61,0.48,-5.8,-4.88,2.81,434,471,401,477,279,5
170,-0.69,-0.61,0.43,-7.32,-5.98,-4.09,432,472,401,476,282,5
171,-0.79,-0.69,0.5,-20.57,35.03,21.42,433,474,399,477,278,5
172,-0.74,-0.56,0.17,-27.65,5.07,-1.22,433,471,400,475,279,5
173,-0.67,-0.63,0.16,27.16,-0.06,-11.23,432,470,400,484,281,5
174,-0.61,-0.69,0.3,22.22,-18.92,-25.27,435,473,401,476,282,5
175,-0.56,-0.75,0.23,-16.78,-13.0,2.01,435,468,399,474,283,5
176,-0.58,-0.73,0.43,-31.68,-65.8,-41.44,435,470,404,476,282,5
177,-0.34,-0.73,0.67,21.3,3.17,30.21,433,473,403,477,280,5
178,-0.16,-0.91,0.41,-63.42,0.12,-69.15,429,477,400,472,281,5
179,-0.38,-1.16,0.5,21.24,30.09,70.74,423,471,397,477,277,5
180,-0.16,-0.93,0.12,31.25,4.88,-21.18,424,473,398,477,278,5
181,-0.08,-0.89,0.23,0.43,-14.65,-34.36,438,468,397,478,278,5
182,-0.14,-0.95,0.31,3.3,-16.17,-8.85,429,474,396,475,279,5
183,-0.32,-1.06,0.36,48.16,16.42,25.09,427,471,401,472,279,5
184,-0.16,-0.89,0.33,-2.44,13.67,63.23,429,472,401,476,281,5
185,0.03,-0.9,0.44,7.02,4.64,-17.76,430,472,403,477,280,5
186,-0.02,-0.91,0.28,-12.15,7.14,10.74,432,469,400,473,276,5
187,-0.09,-0.96,0.31,-9.34,-7.26,-27.4,430,471,401,475,282,5
188,0.1,-0.95,0.19,-8.3,-1.22,-0.43,436,471,401,471,279,5
189,-0.02,-1.12,-0.01,-50.48,6.23,-2.5,427,470,404,477,282,5
190,-0.03,-1.03,0.05,28.02,-22.4,13.18,428,472,399,479,282,5
191,0.0,-1.02,0.07,7.63,-3.42,-16.36,428,474,403,474,283,5
192,0.07,-0.96,0.06,-0.79,-10.13,-2.75,431,469,402,474,281,5
193,0.05,-1.04,0.09,7.14,-8.61,-9.09,426,468,396,481,283,5
194,0.07,-0.99,0.08,-2.44,-0.55,-5.92,432,470,396,471,280,5
195,0.13,-0.96,0.08,3.17,-6.41,-2.99,431,475,401,479,279,5
196,0.12,-1.02,0.1,-25.09,-28.56,-11.66,432,470,402,476,283,5
197,0.13,-0.99,0.12,9.03,0.49,-8.0,429,470,397,474,280,5
198,0.09,-1.0,0.12,4.27,-3.6,-0.37,431,470,398,477,281,5
199,0.05,-0.99,0.2,4.82,-1.53,-2.75,429,469,404,474,278,5
200,0.13,-0.98,0.16,-7.93,7.45,-0.18,430,470,399,477,282,5
201,0.07,-0.99,0.16,5.31,13.0,6.71,430,468,397,475,280,5
202,-0.06,-1.0,0.17,2.93,18.25,10.56,429,472,398,470,281,5
203,-0.18,-0.91,0.13,24.66,27.95,-1.65,430,473,401,476,282,5
204,-0.06,-0.94,0.43,4.03,-32.96,-1.34,436,471,402,477,281,5
205,-0.24,-0.92,0.25,1.95,-2.26,-2.2,429,471,403,480,284,5
206,-0.19,-0.93,0.29,-1.65,-5.13,-8.06,428,471,406,476,281,5
207,-0.13,-0.94,0.33,1.34,-3.42,-8.0,428,470,405,470,281,5
208,-0.1,-0.93,0.31,1.89,-4.03,-5.13,429,467,401,478,280,5
209,-0.09,-0.95,0.32,-2.75,-3.78,-11.78,427,470,405,479,283,5
210,-0.04,-0.94,0.33,-0.85,-5.31,-9.22,428,467,400,475,281,5
211,-0.02,-0.93,0.35,-0.06,-2.99,-2.44,425,472,413,475,283,5
212,-0.02,-0.93,0.36,0.85,-1.34,-3.72,428,468,403,473,276,5
213,-0.02,-0.94,0.35,-0.31,-2.75,-4.21,424,473,403,479,285,5
214,-0.01,-0.93,0.36,2.26,-3.6,-1.16,428,472,403,475,282,5
215,-0.02,-0.94,0.37,0.49,1.4,0.79,429,472,403,475,281,5
216,-0.03,-0.94,0.38,1.22,-2.56,-2.2,428,467,402,473,283,5
217,-0.05,-0.94,0.37,0.55,-2.2,-2.38,429,488,404,475,282,5
218,-0.05,-0.94,0.36,-0.49,-1.77,-1.34,424,469,404,480,282,5
219,-0.07,-0.94,0.36,-0.92,-2.87,-1.65,427,471,405,475,280,5
220,-0.07,-0.93,0.35,0.61,-4.21,-3.23,427,468,403,474,281,5
221,-0.05,-0.92,0.35,1.04,-5.37,-2.62,430,471,399,479,280,5
222,-0.05,-0.92,0.34,0.79,-3.3,-4.94,428,472,405,473,282,5
223,-0.05,-0.92,0.36,3.48,-4.52,-5.74,429,472,399,474,283,5
224,-0.06,-0.93,0.37,0.98,-1.71,-2.2,430,466,407,475,282,5
225,-0.05,-0.92,0.39,1.89,-2.5,-1.71,432,472,405,476,283,5
226,-0.06,-0.93,0.38,-0.79,-3.36,-4.15,423,467,403,474,281,5
227,-0.06,-0.91,0.38,1.89,-3.36,-1.22,427,474,402,470,283,5
228,-0.08,-0.9,0.37,0.67,-3.05,-3.42,430,471,400,474,282,5
229,-0.06,-0.92,0.38,-0.06,-3.42,-3.91,431,471,400,475,279,5
230,-0.05,-0.93,0.38,-0.55,-1.16,-2.62,431,473,401,475,282,5
231,-0.04,-0.93,0.38,0.31,-2.75,-3.54,429,472,401,473,281,5
232,-0.05,-0.93,0.37,1.16,-3.72,-2.93,428,472,404,476,279,5
233,-0.04,-0.92,0.38,1.1,-3.6,-2.81,431,467,402,476,280,5
234,-0.04,-0.92,0.37,1.77,-4.09,-2.75,439,469,402,481,280,5
235,-0.03,-0.93,0.38,1.89,-2.69,-1.89,429,471,403,475,282,5
236,-0.02,-0.92,0.4,-0.06,-2.69,-4.15,428,470,400,474,283,5
237,-0.03,-0.92,0.38,0.31,-2.87,-3.97,430,470,406,475,285,5
238,-0.03,-0.92,0.37,-0.43,-4.21,-3.54,427,470,404,474,283,5
239,-0.02,-0.93,0.38,-0.12,-3.11,-3.85,429,473,401,475,282,5
240,-0.04,-0.92,0.38,-0.67,-2.56,-2.26,428,470,402,472,283,5
241,-0.02,-0.93,0.37,-0.43,-3.36,-3.85,432,467,401,474,283,5
242,-0.02,-0.92,0.36,2.08,-3.05,-2.62,429,466,403,475,284,5
243,-0.02,-0.93,0.38,1.46,-2.5,-0.49,430,474,402,473,283,5
244,-0.02,-0.93,0.38,1.04,-2.56,-2.32,429,471,399,474,286,5
245,-0.03,-0.92,0.38,-0.92,-3.97,-4.88,430,472,397,476,279,5
246,-0.02,-0.93,0.38,0.0,-3.42,-4.27,425,467,397,479,285,5
247,-0.02,-0.93,0.39,-0.06,-2.56,-3.85,425,473,404,471,283,5
248,-0.01,-0.92,0.38,0.85,-1.95,-1.46,431,472,397,477,279,5
249,-0.02,-0.92,0.37,0.37,-3.23,-3.66,429,470,402,475,283,5
250,-0.02,-0.93,0.37,0.49,-3.05,-2.62,429,473,399,473,283,5
251,-0.02,-0.93,0.38,0.43,-2.44,-3.42,428,472,399,478,280,5
252,-0.01,-0.93,0.37,1.04,-3.48,-3.91,427,468,401,470,282,5
253,-0.01,-0.92,0.36,1.04,-3.48,-3.05,426,469,402,469,284,5
254,-0.01,-0.92,0.38,0.98,-3.17,-2.44,426,473,397,472,285,5
255,-0.02,-0.93,0.39,1.89,-2.01,-0.55,427,466,401,475,285,5
256,-0.01,-0.92,0.38,0.67,-2.44,-2.75,426,474,402,474,281,5
257,-0.01,-0.92,0.37,-0.31,-3.05,-3.72,431,471,399,478,282,5
258,-0.01,-0.92,0.37,0.61,-2.75,-2.99,426,473,404,472,286,5
259,-0.01,-0.93,0.38,0.43,-3.36,-3.42,429,471,398,478,283,5
260,-0.01,-0.92,0.38,0.37,-1.95,-1.95,428,470,402,474,286,5
261,-0.01,-0.93,0.38,0.98,-3.42,-4.46,425,471,398,479,281,5
262,-0.01,-0.94,0.37,0.37,-2.81,-3.05,431,471,397,474,284,5
263,-0.01,-0.93,0.37,0.98,-3.42,-2.56,427,467,400,476,281,5
264,-0.01,-0.93,0.37,0.37,-2.87,-2.5,429,468,395,472,289,5
265,-0.01,-0.92,0.38,1.34,-3.36,-1.95,430,467,401,469,285,5
266,-0.01,-0.93,0.38,1.28,-2.99,-1.89,426,470,399,474,280,5
267,-0.01,-0.92,0.38,0.18,-2.81,-2.87,430,473,400,474,286,5
268,-0.01,-0.92,0.38,0.24,-3.42,-3.72,427,468,408,474,283,5
269,-0.0,-0.92,0.38,0.24,-3.42,-4.21,428,470,401,469,282,5
270,-0.01,-0.92,0.37,0.85,-3.6,-2.93,427,470,396,476,283,5
271,-0.01,-0.92,0.38,0.67,-3.36,-2.93,428,471,399,474,283,5
272,0.0,-0.92,0.37,0.31,-4.03,-3.54,428,467,395,474,281,5
273,0.0,-0.93,0.38,0.0,-2.5,-2.75,428,473,403,474,283,5
274,-0.02,-0.92,0.38,0.73,-2.69,-2.69,425,472,401,474,284,5
275,-0.03,-0.93,0.39,-1.04,-2.93,-2.93,428,468,402,477,282,5
276,-0.01,-0.91,0.37,0.12,-1.65,-3.23,425,469,402,472,283,5
277,-0.01,-0.94,0.37,-2.08,-4.03,-7.02,429,471,399,474,285,5
278,0.0,-0.93,0.38,-0.24,-2.87,-3.78,429,468,399,473,283,5
279,0.01,-0.92,0.36,1.16,-2.5,-1.4,432,471,400,475,282,5
280,0.01,-0.94,0.4,-1.65,-2.32,-7.57,428,474,397,469,282,5
281,0.1,-0.91,0.34,2.2,10.56,0.06,428,471,401,477,285,5
282,-0.01,-0.91,0.33,-6.1,-13.12,4.52,424,469,397,477,280,5
283,-0.08,-0.93,0.37,0.92,-4.39,-6.29,428,470,398,475,281,5
284,-0.08,-0.93,0.37,4.09,-2.75,-5.8,428,471,400,471,284,5
285,-0.02,-0.93,0.37,-5.07,0.67,-8.79,429,471,402,474,283,5
286,0.03,-0.91,0.31,0.92,-5.55,-9.89,423,467,403,478,285,5
287,0.07,-0.93,0.3,1.71,-12.15,-15.93,428,469,400,474,284,5
288,0.09,-0.95,0.3,-3.66,-0.67,-6.77,427,468,399,477,284,5
289,0.09,-0.96,0.32,-2.08,-3.6,-4.7,423,470,401,474,280,5
290,0.09,-0.95,0.3,0.12,-5.74,-5.74,428,470,398,476,283,5
291,0.13,-0.95,0.35,2.62,-1.04,-0.92,428,470,399,474,283,5
292,0.11,-0.94,0.33,2.99,-2.32,-3.11,428,471,399,476,284,5
293,0.1,-0.93,0.34,-1.77,-1.04,-5.98,423,468,401,475,284,5
294,0.14,-0.94,0.26,7.45,-2.01,0.24,428,471,399,474,282,5
295,-0.09,-0.97,0.35,3.72,-10.07,9.83,429,473,396,476,283,5
296,-0.07,-0.93,0.34,15.32,-6.1,13.98,428,473,400,474,287,5
297,-0.13,-0.9,0.3,-4.03,-3.66,-7.87,428,470,405,475,280,5
298,-0.08,-0.92,0.29,2.2,-7.45,1.89,426,469,396,479,283,5
299,-0.11,-0.93,0.33,-1.4,0.06,-4.58,424,470,402,475,283,5
300,-0.11,-0.92,0.35,1.46,-3.42,0.18,428,473,405,479,280,5
301,-0.11,-0.94,0.35,-0.18,-4.58,-3.78,427,473,401,475,282,5
302,0.03,-0.91,0.36,5.98,0.55,-13.43,428,472,401,477,285,5
303,-0.11,-0.95,0.37,5.74,-3.17,1.65,427,470,401,470,283,5
304,-0.06,-0.95,0.38,-0.31,-2.5,0.12,427,472,405,476,281,5
305,-0.06,-0.93,0.37,7.57,-3.66,1.04,428,470,401,475,286,5
306,-0.12,-0.92,0.36,-3.72,-2.14,0.79,428,470,401,473,282,5
307,-0.13,-0.91,0.42,-1.59,-2.14,-5.0,426,468,405,477,282,5
308,-0.11,-0.91,0.41,1.28,-4.7,-4.03,436,472,408,475,283,5
309,-0.1,-0.92,0.41,-0.55,-4.09,-4.15,430,473,409,478,280,5
310,-0.09,-0.92,0.4,0.06,-2.5,-2.2,427,475,406,476,283,5
311,-0.09,-0.92,0.41,-0.12,-2.01,-2.44,431,474,408,472,282,5
312,-0.08,-0.93,0.4,-0.18,-1.83,-1.46,427,472,410,473,282,5
313,-0.08,-0.91,0.39,1.28,-2.44,-1.22,431,474,407,492,284,5
314,-0.1,-0.92,0.39,-0.43,-3.36,-2.14,430,473,410,480,283,5
315,-0.09,-0.91,0.39,-0.43,-2.44,-2.38,429,474,409,476,283,5
316,-0.1,-0.92,0.39,0.12,-4.27,-3.3,430,475,407,480,284,5
317,-0.09,-0.91,0.4,0.85,-3.17,-2.08,429,476,410,476,285,5
318,-0.09,-0.92,0.42,0.79,-1.65,-2.44,429,475,412,473,284,5
319,-0.09,-0.91,0.39,-0.73,-2.62,-3.42,433,472,410,475,279,5
320,-0.09,-0.91,0.4,-0.98,-2.93,-2.5,429,473,407,476,284,5
321,-0.11,-0.92,0.41,-4.52,-1.65,-5.37,430,475,408,472,281,5
322,-0.02,-0.93,0.43,-0.98,-1.34,0.0,429,473,408,477,286,5
323,-0.19,-0.96,0.44,4.46,12.57,14.22,428,479,406,476,281,5
324,-0.19,-0.9,0.37,-6.96,-2.32,-2.44,430,474,408,480,283,5
325,-0.18,-0.92,0.38,-2.56,-7.2,-4.33,429,470,407,481,283,5
326,-0.19,-0.91,0.34,-3.85,-4.76,-3.72,431,474,405,472,283,5
327,-0.16,-0.93,0.33,-11.41,-8.61,-9.58,431,475,408,472,282,5
328,-0.15,-0.94,0.33,-4.33,-5.55,-4.64,431,474,406,474,287,5
329,-0.14,-0.93,0.34,0.24,-3.05,-1.89,429,472,404,476,287,5
330,-0.14,-0.93,0.33,1.1,-2.5,-2.26,429,469,404,475,286,5
331,-0.14,-0.92,0.33,1.22,-3.3,-4.03,428,473,407,476,285,5
332,-0.14,-0.93,0.34,-0.12,-2.69,-1.89,429,473,407,474,283,5
333,-0.13,-0.93,0.33,0.31,-3.05,-3.36,435,469,406,470,282,5
334,-0.14,-0.94,0.33,-0.73,-2.99,-2.38,432,473,407,475,284,5
335,-0.13,-0.93,0.33,-0.24,-2.99,-3.48,430,474,407,477,282,5
336,-0.13,-0.94,0.32,-2.69,-3.54,-3.23,429,476,408,476,284,5
337,-0.12,-0.94,0.32,-1.77,-2.87,-2.93,430,476,414,476,285,5
338,-0.12,-0.96,0.31,-4.76,-9.89,-5.74,426,476,406,472,279,5
339,-0.08,-0.98,0.24,-32.65,-17.46,-5.25,427,472,405,472,282,5
340,0.01,-0.99,-0.0,-18.86,-67.02,-34.0,429,474,414,476,282,5
341,0.19,-0.97,-0.03,-0.24,-35.46,-12.88,433,474,406,476,286,5
342,0.18,-0.98,-0.07,-1.83,-0.24,-0.18,430,474,401,478,282,5
343,0.16,-0.97,-0.07,0.06,5.68,-1.04,431,474,406,479,287,5
344,0.14,-0.95,0.0,30.09,58.96,17.64,430,472,405,479,284,5
345,-0.07,-0.97,0.22,42.79,28.44,2.14,431,473,404,478,286,5
346,-0.12,-0.94,0.38,-0.06,-5.68,-7.08,431,474,405,476,284,5
347,-0.09,-0.93,0.32,2.81,-5.0,-5.37,427,473,400,474,284,5
348,-0.03,-0.92,0.27,5.86,-7.93,-5.8,427,473,403,479,281,5
349,-0.15,-0.93,0.3,-2.01,-6.47,-12.02,430,472,405,475,286,5
350,0.21,-0.98,0.24,-41.2,8.3,-31.49,428,472,401,473,282,5
351,0.21,-0.94,0.29,-10.07,-19.23,4.27,428,475,405,473,284,5
352,0.11,-0.98,0.23,0.37,-6.71,-4.33,430,472,403,480,280,5
353,0.17,-0.97,0.21,6.1,-17.27,18.68,430,474,399,475,287,5
354,0.11,-0.91,0.24,12.76,-37.9,-3.48,429,472,405,478,280,5
355,-0.01,-0.99,0.27,-0.06,10.31,-10.8,426,472,404,478,286,5
356,0.16,-0.96,0.23,0.73,-1.83,-11.96,427,472,400,476,287,5
357,0.09,-0.96,0.23,4.21,-10.38,-1.59,428,472,400,479,287,5
358,0.09,-0.91,0.24,9.16,10.01,18.31,433,472,405,476,287,5
359,-0.16,-0.93,0.37,-2.5,-14.83,18.25,423,474,403,475,286,5
360,-0.08,-0.91,0.37,-3.97,-1.22,0.12,423,473,398,475,285,5
361,-0.07,-0.93,0.42,-3.6,-10.13,-9.7,424,468,402,480,287,5
362,-0.04,-0.92,0.34,-14.47,-6.29,-4.27,421,472,405,471,287,5
363,-0.06,-0.95,0.32,2.99,-7.69,-2.93,419,469,400,477,283,5
364,-0.01,-0.93,0.33,-0.92,-6.53,-6.53,425,471,403,477,287,5
365,-0.03,-0.95,0.34,-0.61,-3.78,-4.64,424,472,401,475,288,5
366,0.02,-0.96,0.3,-0.61,-6.65,-5.43,422,471,401,479,281,5
367,0.03,-0.96,0.26,-2.69,-3.36,-4.52,424,471,400,474,283,5
368,-0.02,-0.96,0.22,-2.69,3.85,-2.81,425,471,406,479,285,5
369,0.04,-0.96,0.25,3.05,-6.23,-3.48,426,470,401,472,288,5
370,0.08,-0.95,0.28,-0.67,-3.17,0.61,423,470,396,475,286,5
371,-0.0,-0.96,0.3,0.55,-3.54,-0.37,423,472,400,477,285,5
372,0.03,-0.94,0.32,8.12,-16.97,-0.18,425,468,398,471,288,5
373,-0.03,-0.95,0.34,0.92,-2.01,-1.46,425,469,399,478,288,5
374,-0.01,-0.94,0.34,2.87,-2.38,-1.77,422,468,398,480,285,5
375,0.0,-0.94,0.35,3.05,-3.48,-2.69,423,470,400,475,285,5
376,-0.01,-0.94,0.38,3.42,-3.97,-1.77,423,470,400,476,288,5
377,-0.01,-0.94,0.35,0.61,-3.3,-3.23,424,468,395,476,286,5
378,-0.01,-0.94,0.35,-0.98,-2.87,-3.78,421,471,400,478,292,5
379,-0.01,-0.94,0.36,-0.92,-2.93,-1.59,421,470,399,478,289,5
380,0.01,-0.94,0.35,0.18,-2.2,-4.58,423,470,406,473,283,5
381,-0.03,-0.95,0.34,-2.93,8.48,3.48,425,471,396,479,285,5
382,-0.05,-0.94,0.35,0.79,-1.65,-1.95,421,471,398,480,285,5
383,-0.06,-0.94,0.34,-0.61,-2.38,-2.08,422,471,401,470,281,5
384,-0.05,-0.94,0.34,-1.77,-2.69,-2.5,422,467,396,475,284,5
385,-0.07,-0.94,0.34,1.28,-1.34,-2.75,424,473,401,475,287,5
386,-0.07,-0.95,0.35,-2.99,0.92,-5.07,421,473,400,480,285,5
387,-0.06,-0.95,0.34,0.06,0.18,-3.36,424,479,398,480,285,5
388,0.01,-0.98,0.33,-18.49,12.21,-3.78,422,473,398,479,287,5
389,0.0,-0.94,0.24,-2.99,-1.53,-1.34,417,474,402,478,286,5
390,0.02,-0.97,0.24,-2.38,-4.94,-5.86,422,470,399,478,284,5
391,0.01,-0.96,0.2,0.98,-5.62,-2.81,424,472,398,479,288,5
392,0.0,-0.98,0.19,-1.59,-2.69,-2.2,425,486,396,476,283,5
393,-0.01,-0.99,0.24,-10.31,8.85,6.04,426,470,400,470,286,5
394,-0.04,-0.99,0.12,-0.79,-3.05,-1.59,425,477,405,475,282,5
395,-0.03,-0.99,0.09,-0.67,-3.05,-3.05,424,469,398,475,285,5
396,-0.02,-0.99,0.12,1.59,-4.33,-3.3,424,473,401,474,286,5
397,-0.03,-0.99,0.12,1.28,-3.48,-2.81,424,470,398,474,286,5
398,-0.04,-0.99,0.09,8.12,4.27,-0.31,424,470,400,479,287,5
399,-0.03,-0.98,0.09,-2.32,-3.42,-3.54,431,473,400,478,287,5
400,-0.02,-0.99,0.12,2.44,-4.64,-3.23,426,468,401,480,287,5
401,-0.02,-1.0,0.12,1.22,-3.66,-2.32,424,472,398,476,288,5
402,-0.03,-1.0,0.15,0.24,-2.38,-2.26,426,472,397,478,286,5
403,0.01,-0.98,0.12,10.38,-21.0,-14.59,424,475,399,476,286,5
404,0.01,-0.99,0.14,0.31,-2.44,-2.01,423,470,397,471,287,5
405,-0.02,-0.99,0.13,2.32,-5.43,-5.74,425,470,398,480,286,5
406,0.02,-0.99,0.17,0.55,-9.09,-6.47,422,470,401,476,287,5
407,0.06,-0.99,0.16,-0.55,-1.53,-2.14,421,472,394,478,288,5
408,0.03,-0.98,0.15,1.4,-6.29,-4.82,426,470,400,472,286,5
409,0.04,-0.98,0.15,0.06,-2.62,-1.53,424,472,397,475,289,5
410,0.03,-0.99,0.14,-0.18,-0.67,-1.46,425,469,396,478,287,5
411,0.03,-0.99,0.15,0.43,-2.93,-2.38,418,477,398,476,286,5
412,0.02,-0.98,0.15,-0.61,-2.32,-2.44,423,471,395,475,294,5
413,-0.02,-0.98,0.11,1.22,-2.56,-2.62,422,469,398,476,284,5
414,-0.03,-0.99,0.14,1.28,-2.62,-2.81,423,473,397,476,285,5
415,-0.03,-0.99,0.13,-0.43,-4.76,-5.0,420,472,397,479,286,5
416,-0.0,-0.99,0.13,0.31,-0.31,-3.85,423,472,396,471,287,5
417,0.02,-0.99,0.2,10.19,-0.55,-1.71,423,477,397,479,289,5
418,-0.01,-0.96,0.3,26.86,1.83,1.83,423,470,397,478,288,5
419,-0.08,-0.95,0.27,-5.0,-1.28,-0.61,423,468,397,480,284,5
420,-0.09,-0.94,0.32,2.87,1.04,-1.89,426,470,397,476,285,5
421,-0.05,-0.94,0.25,-5.19,-5.31,-11.41,423,473,399,470,286,5
422,-0.06,-0.95,0.3,-5.49,-1.95,-2.14,424,470,397,474,283,5
423,-0.08,-0.97,0.3,-7.81,-6.41,-6.96,424,470,399,476,286,5
424,-0.01,-0.97,0.19,-11.17,-7.02,-4.52,422,472,398,477,288,5
425,-0.0,-0.98,0.15,-3.72,-0.85,-3.11,419,470,403,480,287,5
426,0.0,-0.98,0.17,1.4,-0.12,-3.23,422,470,396,474,284,5
427,-0.01,-0.99,0.17,0.92,-5.25,-2.26,424,471,400,470,285,5
428,0.01,-0.99,0.13,-1.4,-4.76,-2.81,425,469,398,473,287,5
429,-0.0,-0.99,0.15,-2.69,-5.92,-21.61,419,470,397,478,285,5
430,0.05,-0.99,0.08,4.09,-3.36,-2.56,424,468,397,476,286,5
431,0.04,-0.99,0.12,1.16,-3.97,-2.93,423,468,403,477,287,5
432,0.02,-0.99,0.13,1.59,-2.69,-2.75,422,470,399,476,283,5
433,0.03,-0.99,0.12,0.37,-2.62,-2.38,420,472,396,479,287,5
434,0.03,-0.99,0.12,0.55,-2.69,-2.75,422,472,397,477,285,5
435,0.03,-0.99,0.12,1.1,-3.78,-2.01,420,467,400,480,287,5
436,0.02,-0.99,0.11,0.12,-2.62,-2.62,425,470,400,482,287,5
437,0.02,-0.99,0.14,0.92,-2.5,-1.83,417,474,397,476,288,5
438,0.01,-1.0,0.16,0.92,-2.69,0.06,427,471,398,477,286,5
439,0.02,-0.99,0.13,0.55,-2.32,-2.38,424,475,393,476,285,5
440,0.0,-0.99,0.13,0.98,-3.91,-1.71,421,470,398,479,285,5
441,0.02,-0.99,0.12,0.49,-3.11,-3.36,424,478,397,480,288,5
442,0.02,-0.99,0.13,0.06,-2.62,-2.81,422,472,393,479,283,5
443,0.02,-0.99,0.13,0.06,-2.81,-2.44,422,471,394,476,287,5
444,0.01,-0.99,0.13,-0.37,-2.99,-2.62,422,472,398,475,284,5
445,-0.12,-0.96,0.22,-11.54,47.91,-14.65,426,473,400,475,285,5
446,0.25,-0.88,0.32,30.33,20.32,2.87,421,470,399,473,287,5
447,0.19,-0.94,0.18,-24.48,-14.95,-2.69,424,470,395,475,287,5
448,0.03,-0.97,0.34,7.32,-13.43,15.75,424,468,397,476,289,5
449,0.19,-0.93,0.31,9.58,4.21,-18.49,420,473,400,476,288,5
450,-0.03,-0.98,0.31,11.6,-7.93,-0.18,421,471,394,478,290,5
451,0.22,-0.89,0.23,-37.35,20.32,-24.72,420,471,397,474,286,5
452,0.17,-0.99,0.18,25.21,-0.49,-1.83,424,471,396,470,285,5
453,0.2,-0.97,0.31,11.72,10.86,-34.97,424,470,398,478,287,5
454,-0.19,-1.07,0.25,-0.49,0.61,19.78,426,472,402,476,288,5
455,-0.15,-1.04,0.26,5.55,5.98,14.47,427,470,398,474,290,5
456,-0.19,-0.93,0.32,0.73,-5.92,-4.46,425,470,395,479,289,5
457,-0.18,-0.93,0.32,2.38,-2.93,-3.48,425,467,398,476,288,5
458,-0.18,-0.94,0.32,-0.98,-1.28,-4.27,430,470,398,474,288,5
459,-0.17,-0.94,0.3,-0.12,-2.2,-9.89,426,468,396,478,285,5
460,-0.1,-0.95,0.27,-1.83,-1.95,-17.46,424,473,394,470,297,5
461,-0.0,-0.96,0.26,-3.48,-3.42,-2.08,424,470,393,480,290,5
462,0.06,-0.95,0.29,-6.1,-10.01,-2.62,423,471,394,473,285,5
463,-0.04,-0.96,0.21,12.33,-17.21,1.89,423,469,395,476,290,5
464,-0.03,-0.97,0.31,-14.89,-9.16,-5.19,424,471,396,479,285,5
465,0.03,-0.94,0.17,-0.92,2.93,-6.47,422,468,394,476,288,5
466,0.12,-1.0,0.16,-15.87,-6.47,-12.21,422,473,394,475,290,5
467,0.06,-0.99,0.1,2.32,-18.07,-10.13,424,470,396,477,291,5
468,0.09,-0.99,0.07,-7.69,-9.4,-1.71,423,470,399,474,293,5
469,0.05,-0.96,0.07,7.75,-1.95,-1.1,421,471,392,476,289,5
470,0.06,-1.0,0.07,2.75,3.3,-1.46,424,469,396,475,290,5
471,0.04,-1.01,-0.03,-18.86,13.67,-3.42,421,470,395,476,287,5
472,0.02,-1.01,0.05,4.39,-9.83,-10.56,423,469,395,477,288,5
473,0.02,-1.0,0.06,0.92,-10.74,-0.67,421,470,394,479,291,5
474,-0.01,-0.96,0.14,3.42,-4.7,-2.5,421,471,398,475,293,5
475,-0.05,-0.99,0.14,23.5,-14.47,-3.97,417,466,397,475,291,5
476,-0.0,-0.98,0.11,-4.21,-0.18,-3.6,418,468,396,475,290,5
477,-0.03,-0.99,0.17,-0.24,-4.09,-2.5,412,471,394,471,292,5
478,0.06,-0.98,0.03,-4.33,-3.48,-7.2,421,475,395,475,289,5
479,-0.03,-1.01,0.11,3.97,-5.07,-4.7,416,467,394,474,290,5
480,-0.04,-0.99,0.11,-5.86,-7.26,-2.2,421,472,392,470,290,5
481,-0.09,-0.99,0.11,2.38,-9.77,5.92,416,470,394,478,290,5
482,-0.09,-0.98,0.17,0.31,-1.22,0.31,419,470,393,474,287,5
483,-0.1,-0.98,0.1,4.88,-1.28,2.62,420,470,390,475,290,5
484,-0.16,-0.97,0.15,5.98,-11.9,1.83,419,468,393,477,290,5
485,-0.13,-0.98,0.13,-0.18,-5.49,-3.23,418,472,392,471,291,5
486,-0.1,-0.98,0.14,0.85,-3.78,-2.38,420,469,393,470,290,5
487,-0.12,-0.97,0.14,3.17,-6.1,-3.36,420,471,396,471,290,5
488,-0.1,-0.97,0.14,-2.69,1.34,-2.14,415,469,394,470,293,5
489,-0.14,-0.97,0.13,-4.7,6.35,-4.21,415,470,393,474,286,5
490,-0.15,-0.97,0.13,3.11,-3.97,-3.17,420,470,394,476,292,5
491,-0.16,-0.96,0.13,2.5,-2.08,-2.99,421,469,398,471,289,5
492,-0.15,-0.98,0.13,-0.43,-2.32,-3.78,419,467,389,475,291,5
493,-0.14,-0.97,0.12,-0.85,-2.2,-3.6,420,468,392,470,288,5
494,-0.15,-0.98,0.12,0.37,-2.14,-1.89,419,469,397,476,288,5
495,-0.16,-0.97,0.13,2.62,-6.9,-2.08,415,473,391,475,291,5
496,-0.14,-0.98,0.12,0.12,-5.31,-3.6,408,471,393,476,292,5
497,-0.15,-0.98,0.13,2.69,-2.81,-2.44,402,469,395,476,292,5
498,-0.15,-0.98,0.14,0.18,-2.2,-2.08,407,469,393,478,290,5
499,-0.15,-0.98,0.13,-0.67,-3.11,-2.81,410,469,397,475,289,5
500,-0.15,-0.97,0.14,-0.85,-1.77,-2.01,410,470,395,475,290,5
501,-0.15,-0.97,0.13,0.24,-2.69,-2.44,407,473,394,476,286,5
502,-0.15,-0.98,0.13,-0.92,-3.17,-2.99,411,469,395,470,290,5
503,-0.16,-0.98,0.11,-3.54,-2.32,-1.83,410,469,395,479,292,5
504,-0.0,-0.99,0.22,-1.1,1.46,-0.85,268,465,403,473,433,5
505,0.01,-0.97,0.13,1.71,-3.11,-2.81,272,461,402,477,433,5
506,-0.02,-0.98,0.16,2.38,-2.08,-1.4,273,469,401,479,434,5
507,-0.02,-0.98,0.16,1.95,-2.99,-2.08,273,460,409,477,430,5
508,0.0,-0.98,0.16,-0.55,-2.99,-4.39,272,464,403,472,434,5
509,-0.01,-0.99,0.16,0.12,-2.08,-3.97,274,468,399,479,430,5
510,0.0,-0.99,0.15,-0.37,-3.11,-3.54,283,468,398,474,430,5
511,-0.01,-0.99,0.16,0.06,-2.75,-2.93,274,466,401,479,430,5
512,0.01,-0.99,0.16,1.04,-3.54,-2.2,273,460,399,476,431,5
513,0.0,-0.98,0.16,1.46,-2.87,-1.34,272,465,400,476,431,5
514,-0.01,-0.99,0.16,-2.08,-2.2,-3.48,274,465,401,476,429,5
515,0.0,-0.99,0.16,0.67,-3.42,-2.56,274,465,396,478,426,5
516,-0.01,-0.98,0.15,-0.18,-2.14,-2.75,274,464,399,479,428,5
517,-0.01,-0.98,0.14,0.92,-2.81,-1.71,274,468,402,475,428,5
518,-0.01,-0.99,0.15,1.46,-3.3,-1.83,277,464,399,474,428,5
519,-0.01,-0.98,0.16,-1.1,-3.54,-2.56,276,465,394,479,431,5
520,-0.0,-0.99,0.15,-0.61,-2.93,-2.14,275,461,398,477,429,5
521,-0.0,-0.99,0.14,-0.55,-2.38,-3.05,276,466,397,471,429,5
522,0.0,-0.99,0.15,0.18,-3.05,-2.99,277,467,397,477,427,5
523,-0.0,-0.99,0.15,0.37,-3.54,-2.75,274,466,398,472,430,5
524,-0.01,-0.99,0.14,-0.79,-2.69,-2.69,276,465,400,485,426,5
525,-0.0,-0.99,0.14,-0.43,-2.69,-2.93,276,465,398,476,423,5
526,-0.01,-0.99,0.15,-0.24,-3.23,-2.2,271,470,403,473,431,5
527,-0.01,-0.98,0.15,-0.24,-3.05,-2.32,287,464,398,473,426,5
528,-0.01,-0.99,0.14,1.04,-3.36,-1.83,276,469,398,474,427,5
529,-0.01,-0.99,0.14,0.79,-2.32,-2.75,276,464,399,474,429,5
530,-0.0,-0.99,0.14,0.37,-3.17,-2.87,277,465,398,476,427,5
531,-0.01,-0.99,0.15,0.12,-2.81,-2.56,275,465,398,475,422,5
532,-0.01,-0.98,0.14,-0.55,-3.23,-2.62,274,468,393,473,426,5
533,-0.01,-0.98,0.14,0.55,-2.14,-2.2,274,469,396,473,426,5
534,-0.01,-0.99,0.15,-1.4,-2.26,-3.11,275,468,397,474,430,5
535,-0.01,-0.99,0.14,-1.1,-2.81,-2.75,275,465,395,473,427,5
536,-0.01,-0.99,0.14,0.98,-2.81,-2.01,276,469,397,474,428,5
537,-0.02,-0.99,0.14,1.4,-2.81,-2.26,275,462,402,475,426,5
538,-0.01,-0.99,0.15,0.18,-3.23,-2.75,276,467,400,471,428,5
539,-0.01,-0.98,0.13,0.55,-2.87,-2.38,274,460,399,472,427,5
540,-0.01,-0.99,0.14,0.73,-2.14,-2.26,276,463,399,475,424,5
541,-0.01,-0.99,0.15,0.37,-2.99,-2.2,280,461,398,475,422,5
542,-0.02,-0.99,0.14,-0.43,-2.87,-2.44,275,463,396,475,434,5
543,0.01,-0.99,0.13,-0.85,-2.26,-3.36,276,460,397,470,426,5
544,-0.02,-0.99,0.14,0.06,-2.75,-1.83,274,468,396,468,422,5
545,0.0,-0.99,0.15,1.95,-3.91,-5.31,276,467,398,470,423,5
546,-0.0,-0.99,0.16,3.85,-3.11,-0.67,277,460,397,471,426,5
547,-0.01,-0.99,0.12,-5.37,-5.37,-4.76,276,466,396,469,421,5
548,0.01,-0.99,0.09,-1.04,-3.66,-4.52,277,460,397,472,427,5
549,0.02,-0.99,0.07,-1.53,-3.6,-6.29,277,460,396,470,427,5
550,0.02,-1.0,0.08,0.73,-4.76,-1.77,274,465,394,468,425,5
551,0.01,-0.99,0.07,0.67,-2.01,-2.75,279,468,407,470,421,5
552,0.02,-1.0,0.09,2.38,-2.87,-1.4,278,469,397,474,421,5
553,0.05,-1.0,0.09,-0.31,0.37,-5.98,277,464,392,472,426,5
554,-0.0,-1.0,0.13,6.16,-0.55,-0.73,279,468,396,473,425,5
555,0.0,-0.99,0.13,6.04,-4.09,-1.53,280,460,394,470,421,5
556,0.01,-0.99,0.12,1.46,-2.81,-3.6,277,462,395,472,422,5
557,0.01,-0.99,0.11,-2.5,-2.2,-4.76,280,469,392,471,415,5
558,0.02,-0.99,0.11,2.75,-3.17,-0.98,278,469,390,470,423,5
559,0.01,-0.98,0.1,-1.89,-1.59,-1.83,280,467,391,468,423,5
560,0.01,-0.99,0.1,-4.94,-0.49,-5.25,276,466,392,469,419,5
561,0.03,-1.0,0.08,2.26,-2.93,-2.87,278,463,391,472,420,5
562,0.02,-0.99,0.09,1.89,-2.44,-3.3,281,473,390,472,433,5
563,0.04,-0.99,0.1,0.31,-2.44,-2.32,281,466,391,469,421,5
564,0.03,-0.99,0.11,0.24,-3.97,-2.93,278,466,395,469,424,5
565,0.02,-0.99,0.1,1.16,-3.6,-1.77,279,468,389,469,421,5
566,0.02,-1.0,0.11,1.77,-2.62,-2.14,281,465,397,468,421,5
567,0.03,-0.99,0.1,-0.49,-2.81,-2.99,276,470,393,469,421,5
568,0.04,-0.99,0.11,2.75,-0.67,-1.59,279,469,391,470,422,5
569,0.03,-1.0,0.12,-1.46,-2.87,-3.48,280,467,391,472,420,5
570,0.0,-0.98,0.1,-6.1,-1.89,0.79,281,462,391,465,422,5
571,-0.01,-1.0,0.11,-0.18,-2.62,-2.75,278,468,390,469,419,5
572,-0.01,-0.99,0.11,0.0,-2.75,-3.05,278,469,392,481,423,5
573,-0.01,-0.99,0.12,0.73,-3.05,-2.87,279,460,390,469,420,5
574,-0.01,-0.99,0.12,0.55,-2.75,-2.01,279,462,389,469,419,5
575,-0.01,-0.99,0.12,0.92,-3.11,-2.5,278,471,389,468,424,5
576,-0.01,-0.99,0.12,0.73,-3.42,-1.59,280,463,389,468,420,5
577,-0.0,-0.99,0.13,1.46,-2.87,-2.01,278,468,386,471,419,5
578,0.01,-0.99,0.13,1.59,-3.05,-2.75,281,463,390,466,421,5
579,-0.0,-0.99,0.13,0.06,-2.69,-2.2,280,463,393,471,421,5
580,-0.01,-0.99,0.12,0.85,-2.5,-2.69,276,462,390,469,415,5
581,0.0,-0.99,0.12,0.73,-2.69,-2.69,280,466,388,467,415,5
582,0.0,-0.99,0.12,0.24,-3.6,-2.99,276,465,389,468,414,5
583,-0.0,-0.99,0.12,0.37,-3.05,-2.69,279,465,390,472,416,5
584,0.0,-0.99,0.13,-0.18,-3.05,-3.05,280,465,390,481,412,5
585,-0.0,-0.99,0.12,-0.55,-2.69,-2.75,282,464,388,465,413,5
586,-0.0,-0.99,0.12,0.79,-3.11,-2.87,280,461,390,466,417,5
587,0.0,-0.99,0.13,0.24,-3.3,-2.2,281,465,388,464,415,5
588,-0.01,-0.99,0.13,0.61,-2.81,-2.26,282,465,391,462,415,5
589,0.01,-0.99,0.13,0.49,-3.72,-2.08,282,462,393,465,416,5
590,-0.0,-0.99,0.12,0.31,-2.32,-2.01,280,461,388,466,415,5
591,0.0,-0.99,0.14,0.55,-3.3,-2.69,281,462,390,468,417,5
592,-0.0,-0.99,0.13,0.18,-3.3,-3.23,283,461,385,467,414,5
593,-0.01,-0.99,0.12,-0.73,-2.93,-1.77,279,465,388,466,417,5
594,-0.01,-0.99,0.13,-2.44,-4.64,-2.08,283,464,385,461,415,5
595,0.02,-0.99,0.09,-5.0,-4.88,-6.29,278,464,388,464,414,5
596,0.03,-0.99,0.05,-8.73,-2.5,0.73,281,468,386,464,415,5
597,0.0,-1.0,0.03,2.62,-2.56,-3.3,282,463,386,463,413,5
598,0.0,-1.0,0.01,-2.26,-4.64,-0.49,278,462,387,467,415,5
599,0.02,-1.0,0.02,0.37,-4.03,-1.46,280,464,386,471,414,5
600,0.01,-0.99,0.01,0.0,-2.75,-2.38,280,468,386,464,411,5
601,0.01,-1.0,0.01,0.43,-3.3,-2.81,282,459,388,461,413,5
602,0.01,-1.0,0.02,-0.24,-3.11,-2.08,284,462,390,462,416,5
603,0.0,-1.0,0.01,0.61,-2.75,-2.08,283,467,384,466,413,5
604,0.02,-1.0,0.02,0.43,-2.93,-2.26,282,467,387,466,414,5
605,0.01,-0.99,0.0,-0.31,-2.75,-2.62,282,461,388,463,414,5
606,0.01,-0.99,0.02,0.85,-2.44,-2.99,282,466,387,461,411,5
607,0.01,-1.0,0.01,0.12,-2.62,-2.87,283,467,387,464,415,5
608,0.01,-1.0,0.01,1.59,-2.99,-2.56,282,459,386,463,416,5
609,0.02,-1.0,0.01,0.37,-3.17,-2.69,283,459,399,464,415,5
610,0.0,-1.0,0.0,-0.92,-3.3,-2.26,275,464,389,480,413,5
611,0.02,-0.99,0.01,0.61,-3.05,-2.69,284,469,387,461,413,5
612,0.02,-1.0,0.01,1.04,-3.17,-2.38,284,459,403,465,416,5
613,-0.0,-1.0,0.01,-3.66,-4.82,-3.78,282,459,384,464,413,5
614,0.02,-0.99,-0.01,0.18,-1.34,-1.71,282,468,384,466,413,5
615,-0.0,-1.0,0.01,-0.12,-5.68,-4.27,284,468,386,466,410,5
616,0.04,-0.99,-0.01,1.77,-2.75,-1.95,284,462,386,464,425,5
617,0.02,-1.0,0.0,0.18,-3.3,-1.1,281,464,389,460,415,5
618,0.01,-1.0,-0.01,-4.39,-6.77,-4.33,278,459,388,464,414,5
619,0.01,-0.99,-0.03,5.49,-2.2,0.67,283,458,388,462,414,5
620,0.03,-1.0,0.02,0.12,-3.11,-3.42,282,464,385,462,412,5
621,0.01,-1.0,0.02,-1.1,-2.44,-2.62,280,464,382,463,415,5
622,-0.0,-1.0,0.01,0.43,-4.03,1.04,280,461,385,465,413,5
623,-0.0,-0.99,-0.02,-2.87,-3.72,-1.59,283,467,385,464,408,5
624,-0.01,-1.0,-0.0,-0.85,-2.75,-2.56,284,464,382,461,414,5
625,-0.01,-1.0,-0.01,-1.1,-2.56,-2.81,279,467,383,463,411,5
626,-0.0,-0.99,-0.01,-0.43,-3.66,-1.59,281,467,388,465,412,5
627,0.0,-1.0,-0.01,-0.18,-3.11,-2.08,282,467,384,464,412,5
628,-0.0,-1.0,-0.02,0.06,-2.87,-2.56,283,465,383,464,414,5
629,-0.01,-1.0,-0.02,-4.27,-3.17,-5.62,282,460,385,462,410,5
630,0.02,-0.99,-0.03,-0.18,-3.17,-2.62,282,458,388,461,416,5
631,0.02,-0.99,-0.03,1.89,-2.38,-3.23,283,464,385,460,411,5
632,0.02,-0.99,-0.01,1.46,-2.69,-1.95,282,462,384,464,410,5
633,0.05,-1.0,-0.01,-1.28,-2.44,-5.68,281,462,386,460,410,5
634,0.02,-1.0,-0.01,5.62,-2.08,-2.93,282,463,387,460,413,5
635,0.04,-0.99,0.0,1.28,-2.26,-2.01,282,464,384,463,410,5
636,0.02,-0.99,-0.02,6.77,-1.53,-1.71,291,460,385,464,411,5
637,0.02,-1.0,0.06,4.7,0.85,-0.43,282,461,388,465,413,5
638,0.02,-1.0,0.07,0.92,-1.77,-1.53,285,459,387,460,412,5
639,0.02,-0.99,0.06,-0.37,-3.3,-2.87,278,464,386,463,412,5
640,0.0,-1.0,0.07,0.73,-3.54,-1.59,283,460,383,465,411,5
641,0.0,-1.0,0.06,0.06,-2.69,-2.32,283,464,383,465,413,5
642,-0.0,-1.0,0.06,3.23,-3.72,-0.49,283,464,386,462,414,5
643,0.0,-0.99,0.06,1.28,-3.97,-1.95,285,462,386,459,409,5
644,-0.0,-0.99,0.06,2.01,-2.56,-1.71,281,464,384,465,413,5
645,-0.01,-1.0,0.06,0.55,-3.23,-2.26,285,467,388,464,413,5
646,-0.01,-0.99,0.07,0.37,-2.81,-2.62,284,461,381,462,410,5
647,0.0,-1.0,0.08,0.06,-3.54,-2.87,284,466,382,462,413,5
648,0.01,-0.99,0.07,-1.71,-4.7,-4.7,284,465,383,462,414,5
649,0.0,-0.99,0.05,-5.86,-4.21,-5.8,283,468,387,462,411,5
650,0.06,-0.99,-0.01,3.54,-2.56,-2.56,280,467,396,462,424,5
651,-0.01,-0.99,-0.04,-4.33,-1.1,-2.62,287,467,383,461,411,5
652,0.05,-0.99,-0.02,6.41,-3.42,-1.04,284,458,379,462,411,5
653,-0.0,-0.99,-0.06,-7.32,-2.2,-1.83,283,459,384,463,409,5
654,-0.0,-1.0,0.0,3.85,-3.72,0.85,281,458,384,463,412,5
655,-0.0,-0.99,-0.03,2.62,-3.78,-0.98,284,467,381,461,412,5
656,-0.01,-0.99,-0.03,0.12,-3.3,-2.26,284,464,381,461,410,5
657,-0.0,-0.99,-0.03,0.12,-3.05,-2.32,284,464,382,457,410,5
658,0.0,-1.0,-0.04,-0.06,-3.54,-2.08,279,463,385,459,409,5
659,-0.0,-1.0,-0.03,0.67,-2.69,-2.44,284,467,385,457,413,5
660,0.0,-0.99,-0.03,1.22,-2.81,-2.38,286,466,387,461,410,5
661,0.01,-0.99,-0.03,0.61,-1.83,-2.62,281,463,383,457,412,5
662,-0.01,-0.99,-0.03,0.12,-2.01,-3.36,279,466,383,459,412,5
663,0.0,-0.99,-0.03,1.16,-2.99,-2.56,283,468,382,457,412,5
664,-0.0,-0.99,-0.04,-0.24,-3.36,-2.2,282,466,386,464,412,5
665,-0.01,-0.99,-0.03,0.61,-2.93,-2.87,282,464,383,461,410,5
666,0.0,-1.0,-0.02,0.49,-3.05,-2.99,282,460,383,458,410,5
667,-0.01,-0.99,-0.03,-1.4,-3.17,-2.62,283,464,383,457,411,5
668,-0.0,-1.0,-0.02,0.61,-3.66,-2.2,285,458,384,459,410,5
669,-0.01,-1.0,-0.02,-0.06,-2.69,-2.2,289,467,382,458,410,5
670,-0.01,-1.0,-0.03,0.12,-3.66,-2.14,284,480,382,461,410,5
671,-0.0,-0.99,-0.02,1.04,-3.11,-2.56,282,458,385,461,412,5
672,-0.0,-0.99,-0.04,0.12,-2.5,-2.5,281,465,382,457,407,5
673,0.0,-1.0,-0.03,0.85,-3.42,-2.62,283,460,385,459,409,5
674,-0.0,-0.99,-0.03,0.61,-2.93,-2.62,286,464,381,455,410,5
675,-0.01,-0.99,-0.03,1.77,-3.66,-2.62,286,464,385,458,404,5
676,-0.01,-1.0,-0.03,0.06,-2.81,-2.93,289,459,381,462,410,5
677,-0.01,-1.0,-0.04,0.06,-3.42,-2.56,280,461,380,458,408,5
678,-0.01,-0.99,-0.03,0.98,-2.75,-2.75,286,465,393,459,408,5
679,-0.01,-1.0,-0.01,0.55,-3.11,-2.32,286,463,380,457,420,5
680,-0.01,-0.99,-0.02,-0.06,-3.36,-3.05,287,463,382,456,409,5
681,-0.01,-1.0,-0.02,0.61,-3.42,-2.44,285,464,385,458,408,5
682,-0.01,-1.0,-0.03,-0.49,-2.93,-2.5,284,465,380,459,409,5
683,-0.0,-0.99,-0.03,0.55,-2.38,-2.75,281,466,380,460,408,5
684,-0.0,-1.0,-0.03,-0.24,-3.11,-2.56,284,466,383,460,407,5
685,-0.0,-0.99,-0.03,1.1,-3.48,-2.56,285,458,381,457,405,5
686,-0.0,-0.99,-0.02,1.95,-2.69,-2.5,283,466,380,454,407,5
687,-0.01,-0.99,-0.02,0.31,-2.69,-2.2,283,457,385,460,409,5
688,-0.01,-1.0,-0.03,-0.18,-3.17,-2.87,284,464,379,456,404,5
689,-0.01,-1.0,-0.02,0.24,-1.77,-3.05,285,465,375,454,409,5
690,-0.01,-1.0,-0.03,-0.31,-2.81,-3.11,285,464,379,454,407,5
691,-0.01,-1.0,-0.03,-0.79,-2.99,-2.75,284,466,379,459,406,5
692,-0.01,-1.0,-0.02,0.18,-3.17,-2.32,285,468,387,454,407,5
693,-0.0,-1.0,-0.02,0.85,-3.48,-2.87,285,465,378,456,409,5
694,-0.01,-0.99,-0.03,1.04,-2.69,-2.14,284,460,381,458,407,5
695,-0.01,-1.0,-0.03,1.16,-2.44,-2.32,283,458,379,458,405,5
696,-0.01,-1.0,-0.03,0.18,-3.23,-2.44,286,464,380,460,403,5
697,-0.01,-0.99,-0.03,1.22,-3.23,-2.32,282,460,376,467,409,5
698,-0.01,-1.0,-0.02,1.34,-3.05,-2.32,293,465,375,459,403,5
699,-0.01,-0.99,-0.03,0.24,-2.75,-2.62,288,463,377,458,405,5
700,-0.01,-1.0,-0.02,0.18,-2.5,-2.69,283,470,377,458,408,5
701,-0.01,-1.0,-0.02,0.79,-3.36,-2.38,282,468,378,457,409,5
702,-0.0,-1.0,-0.03,-0.12,-3.36,-2.2,282,467,377,457,406,5
703,-0.02,-0.99,-0.01,0.79,-2.69,-2.32,285,466,382,458,406,5
704,-0.02,-0.99,-0.02,1.04,-3.3,-2.56,285,468,384,456,409,5
705,-0.02,-0.99,-0.01,2.93,-3.78,-2.62,285,462,387,458,406,5
706,-0.02,-0.99,0.01,3.3,-4.58,-2.5,277,461,386,458,413,5
707,-0.02,-1.0,0.01,0.0,-2.5,-2.56,287,467,384,459,412,5
708,-0.02,-0.99,0.01,0.31,-2.81,-2.69,284,476,384,459,413,5
709,-0.02,-0.99,0.0,0.24,-2.87,-2.81,283,464,386,457,413,5
710,-0.02,-1.0,0.01,0.12,-2.81,-2.75,285,465,386,458,411,5
711,-0.02,-1.0,0.02,-0.61,-2.75,-2.38,287,461,393,460,411,5
712,-0.02,-1.0,0.0,-1.1,-2.69,-2.81,285,459,384,457,421,5
713,-0.02,-1.0,0.0,0.43,-3.11,-3.11,288,464,384,458,407,5
714,-0.01,-1.0,0.0,-0.73,-2.81,-2.99,282,460,384,456,409,5
715,-0.02,-0.99,-0.01,-0.12,-2.62,-2.44,285,462,383,459,410,5
716,-0.02,-1.0,-0.0,0.18,-3.54,-2.93,285,459,384,462,412,5
717,-0.02,-1.0,0.0,-0.37,-3.11,-2.87,284,458,384,456,408,5
718,-0.02,-1.0,-0.0,-0.12,-3.11,-1.59,286,464,383,458,410,5
719,-0.0,-0.99,-0.0,0.24,-2.75,-1.59,285,459,384,477,409,5
720,-0.02,-1.0,-0.02,1.1,-4.27,-5.07,287,465,382,459,409,5
721,0.0,-0.99,-0.03,-3.66,-4.03,-4.76,286,460,381,457,411,5
722,-0.01,-1.0,-0.01,-0.92,-1.71,-2.99,286,458,384,456,408,5
723,-0.03,-1.0,-0.04,-0.61,-1.77,-1.65,291,463,382,467,411,5
724,-0.01,-1.0,-0.02,-0.85,-1.95,-3.85,289,470,381,454,410,5
725,-0.01,-1.0,-0.02,1.4,-2.56,-2.01,291,464,385,461,401,5
726,-0.01,-1.0,-0.02,0.73,-2.87,-2.26,287,463,386,456,404,5
727,-0.01,-0.99,-0.02,-0.67,-3.85,-2.2,288,466,387,458,407,5
728,-0.01,-0.99,-0.03,0.55,-3.3,-2.01,290,461,384,459,407,5
729,-0.01,-0.99,-0.02,0.73,-2.32,-2.81,289,466,386,461,410,5
730,-0.01,-0.99,-0.03,0.37,-2.87,-2.75,290,464,383,458,408,5
731,-0.01,-0.99,-0.02,-0.43,-2.2,-2.62,288,462,386,458,411,5
732,-0.01,-1.0,-0.02,0.0,-3.36,-2.81,290,464,386,459,410,5
733,-0.02,-0.99,-0.04,-1.59,-4.88,-3.23,291,464,388,459,406,5
734,0.02,-0.99,-0.03,6.71,-4.33,-6.96,289,461,384,458,409,5
735,0.0,-1.0,0.02,8.79,-4.46,-2.01,284,466,384,458,410,5
736,-0.01,-0.99,-0.08,-5.74,3.54,-9.64,291,461,387,462,409,5
737,-0.03,-1.0,-0.01,3.3,-5.07,2.75,289,465,383,455,407,5
738,-0.02,-1.0,-0.03,-2.44,-2.93,-3.54,289,464,384,460,406,5
739,-0.02,-0.99,-0.03,-1.59,-3.11,-3.23,291,457,383,457,405,5
740,-0.01,-1.0,-0.03,0.73,-3.05,-2.5,291,465,381,458,409,5
741,-0.02,-1.0,-0.02,-0.12,-3.23,-2.08,286,462,380,460,408,5
742,-0.01,-0.99,-0.02,0.37,-2.87,-3.17,286,460,385,460,405,5
743,-0.02,-1.0,-0.02,0.06,-3.3,-2.56,291,458,385,459,406,5
744,-0.02,-0.99,-0.01,1.04,-2.32,-2.08,290,468,379,459,399,5
745,-0.02,-1.0,-0.01,0.0,-2.93,-2.5,292,459,383,460,413,5
746,-0.01,-1.0,-0.01,-0.49,-3.3,-3.05,289,461,378,459,404,5
747,-0.02,-0.99,-0.02,0.31,-2.69,-2.08,291,467,381,455,405,5
748,-0.01,-0.99,-0.02,1.22,-2.2,-2.5,288,466,383,459,405,5
749,-0.01,-1.0,-0.02,0.31,-3.48,-2.26,288,463,381,459,405,5
750,-0.02,-1.0,-0.02,0.24,-3.23,-2.32,290,463,382,456,400,5
751,-0.02,-0.99,-0.02,0.73,-2.81,-2.2,290,465,381,455,405,5
752,-0.02,-1.0,-0.01,0.12,-3.72,-2.2,290,467,382,455,403,5
753,-0.02,-1.0,-0.01,0.92,-3.17,-2.14,291,464,383,457,404,5
754,-0.02,-1.0,-0.0,0.98,-2.62,-2.56,288,466,382,457,405,5
755,-0.02,-1.0,-0.01,0.37,-2.93,-2.32,285,461,386,457,406,5
756,-0.01,-1.0,-0.01,0.18,-3.11,-2.38,290,464,382,454,404,5
757,-0.02,-0.99,-0.02,0.73,-3.11,-2.81,289,464,381,456,404,5
758,-0.02,-1.0,-0.01,1.1,-3.54,-2.26,287,464,384,458,406,5
759,-0.02,-0.99,-0.01,-0.12,-3.36,-2.14,291,468,384,454,404,5
760,-0.02,-1.0,-0.01,0.55,-3.05,-2.32,289,466,388,455,404,5
761,-0.02,-1.0,-0.01,1.34,-2.75,-2.56,289,463,380,455,405,5
762,-0.02,-0.99,-0.01,0.12,-3.05,-2.56,290,463,382,457,401,5
763,-0.02,-1.0,-0.01,0.18,-3.17,-2.69,288,464,378,456,404,5
764,-0.02,-1.0,-0.01,0.0,-2.93,-2.69,293,466,385,456,403,5
765,-0.02,-0.99,-0.01,0.67,-2.93,-2.38,289,464,382,456,406,5
766,-0.01,-1.0,-0.01,0.37,-3.48,-3.36,288,464,381,458,421,5
767,-0.01,-1.0,-0.02,-0.18,-3.78,-2.87,290,463,384,456,403,5
768,-0.02,-1.0,-0.01,-0.37,-2.56,-2.26,288,467,380,451,400,5
769,-0.02,-1.0,-0.01,0.37,-3.11,-2.69,289,463,383,449,427,5
770,-0.02,-0.99,-0.01,0.37,-3.36,-2.5,287,460,382,453,404,5
771,-0.02,-0.99,-0.01,-0.73,-3.05,-3.17,288,462,383,452,405,5
772,-0.01,-1.0,-0.02,0.43,-2.99,-2.5,292,463,380,470,403,5
773,-0.01,-1.0,-0.01,1.28,-2.99,-1.46,289,466,380,450,402,5
774,-0.02,-1.0,-0.01,0.06,-2.81,-2.99,290,467,377,452,405,5
775,-0.02,-1.0,-0.0,-0.06,-2.62,-2.93,294,463,381,449,403,5
776,-0.01,-1.0,-0.02,-1.89,-3.54,-2.81,289,469,382,448,403,5
777,-0.01,-1.0,-0.03,1.71,-2.69,-2.01,292,466,381,454,397,5
778,-0.01,-1.0,-0.02,1.16,-3.05,-2.26,289,466,381,451,405,5
779,-0.02,-0.99,-0.02,0.18,-3.11,-2.38,289,461,381,451,403,5
780,-0.01,-1.0,-0.02,0.55,-3.05,-1.83,293,466,378,450,403,5
781,-0.01,-0.99,-0.03,1.4,-2.75,-2.62,287,462,377,453,402,5
782,-0.02,-1.0,-0.03,-0.49,-3.42,-2.56,293,462,378,450,403,5
783,-0.01,-1.0,-0.02,-0.67,-2.93,-3.11,289,458,378,454,404,5
784,-0.01,-1.0,-0.01,0.37,-2.81,-3.3,290,455,377,451,402,5
785,-0.02,-1.0,-0.03,1.34,-4.46,-0.37,290,461,378,454,403,5
786,-0.01,-0.99,-0.03,2.01,-1.1,-1.59,293,464,376,453,403,5
787,-0.01,-1.0,-0.02,1.04,-3.3,-2.69,288,461,380,453,403,5
788,-0.03,-0.99,-0.09,-4.58,-21.3,-4.7,288,466,381,458,404,5
789,0.01,-1.0,0.16,15.08,-7.87,-1.83,289,465,383,455,394,5
790,-0.01,-0.95,0.1,-2.38,-10.07,-9.52,285,461,384,454,407,5
791,0.06,-0.99,0.16,3.42,-2.44,0.31,286,458,385,455,407,5
792,-0.02,-0.99,0.03,-11.66,-6.35,-10.01,288,460,386,456,406,5
793,0.02,-0.98,0.04,-21.55,-8.54,3.05,290,466,383,454,404,5
794,0.05,-1.0,0.05,9.4,1.1,-2.01,289,464,383,453,404,5
795,0.01,-0.99,0.04,1.04,-1.28,-0.73,291,463,383,455,407,5
796,-0.03,-1.0,0.04,1.34,-2.99,-1.22,288,463,384,453,404,5
797,-0.02,-0.99,0.01,-2.32,-2.56,-3.11,289,464,382,454,405,5
798,-0.01,-1.0,0.01,2.69,-3.48,-2.26,289,463,385,455,403,5
799,-0.01,-1.0,0.04,1.77,-3.05,-1.89,289,466,381,452,404,5
800,-0.01,-0.99,0.03,0.31,-2.93,-3.05,295,468,382,455,403,5
801,-0.01,-0.99,0.02,-0.24,-1.59,-2.2,291,460,381,453,405,5
802,-0.02,-1.0,0.02,0.85,-2.2,-2.08,291,460,381,450,404,5
803,-0.01,-0.99,0.02,1.53,-2.69,-1.83,286,468,384,456,400,5
804,-0.02,-1.0,0.02,-0.73,-2.93,-2.01,292,464,381,451,409,5
805,-0.01,-1.0,0.02,0.31,-3.17,-2.56,291,463,383,453,403,5
806,-0.01,-0.99,0.02,0.49,-3.54,-2.69,289,467,380,449,403,5
807,-0.01,-1.0,0.02,0.31,-3.05,-2.56,292,463,380,451,403,5
808,-0.02,-1.0,0.03,0.79,-2.56,-2.56,291,465,383,452,404,5
809,-0.04,-1.01,0.15,4.52,-0.79,0.43,289,467,390,452,403,5
810,0.07,-0.99,-0.02,3.54,-9.52,-15.99,287,464,379,454,404,5
811,0.08,-1.0,0.0,-2.26,-2.32,-6.71,291,463,382,448,402,5
812,0.06,-0.99,-0.05,1.71,-5.49,0.31,289,466,379,448,398,5
813,0.06,-0.99,-0.06,1.53,-2.62,-4.76,294,458,376,450,401,5
814,0.06,-0.99,-0.06,1.04,-2.62,-2.14,291,463,378,447,401,5
815,0.07,-0.99,-0.05,-4.03,-0.67,-5.0,292,458,382,448,399,5
816,0.03,-1.0,-0.06,1.53,-2.56,1.4,293,466,378,443,400,5
817,0.06,-0.99,-0.1,0.49,-1.83,-1.22,290,469,379,445,402,5
818,0.03,-1.0,-0.04,3.17,-0.24,-1.59,291,458,378,446,403,5
819,0.03,-0.99,-0.08,3.11,-2.38,-2.81,294,458,379,447,398,5
820,0.02,-0.99,-0.06,1.95,-3.3,-4.33,291,463,376,448,400,5
821,0.02,-0.99,-0.06,-0.06,-2.93,-2.44,291,467,380,448,398,5
822,0.02,-1.0,-0.06,-0.31,-2.08,-1.53,293,466,379,447,399,5
823,0.02,-1.0,-0.07,4.52,-9.28,-6.9,291,463,388,453,404,5
824,0.03,-1.0,-0.04,0.18,-3.11,-2.56,291,476,387,457,405,5
825,0.03,-0.99,-0.05,1.59,-3.6,-2.62,285,465,392,464,403,5
826,0.03,-1.0,-0.05,-0.12,-2.69,-2.56,290,464,386,454,404,5
827,0.01,-0.99,-0.04,0.12,-2.75,-2.69,290,465,381,450,401,5
828,0.01,-0.99,-0.06,1.77,-4.27,-3.17,288,465,383,451,406,5
829,0.01,-0.99,-0.05,-5.37,-7.02,0.55,289,467,381,453,401,5
830,0.05,-1.0,-0.02,5.92,-1.04,-1.4,293,458,392,451,403,5
831,0.05,-0.99,-0.04,7.39,-1.1,-4.27,289,468,382,449,400,5
832,-0.04,-1.01,0.14,3.78,-0.43,-2.75,293,464,384,455,406,5
833,0.0,-0.99,-0.05,-13.55,-1.1,-5.98,294,464,384,451,399,5
834,0.02,-1.0,-0.03,0.85,-3.97,1.77,293,463,381,453,403,5
835,0.01,-0.99,-0.03,0.55,-2.56,-2.2,292,459,390,450,402,5
836,0.0,-1.0,-0.02,-0.92,-3.6,0.06,293,466,380,449,405,5
837,0.02,-0.99,-0.01,0.61,-1.65,-2.14,289,464,377,450,402,5
838,0.0,-1.0,-0.01,0.43,-3.48,-3.85,294,465,378,443,402,5
839,-0.01,-1.0,-0.05,1.22,-5.74,-1.04,291,463,382,450,402,5
840,0.01,-1.0,-0.04,3.66,-3.97,-2.32,292,457,384,450,405,5
841,0.01,-1.0,-0.02,0.24,-3.3,-2.87,290,464,384,451,402,5
842,-0.0,-0.99,-0.02,1.28,-3.3,-2.62,298,469,383,456,405,5
843,0.01,-1.0,-0.01,1.53,-4.15,-5.19,295,465,384,447,401,5
844,0.02,-1.0,-0.03,-0.49,-4.76,-3.91,290,468,383,451,402,5
845,0.03,-0.99,-0.02,4.03,-9.03,-2.99,292,459,382,452,406,5
846,-0.02,-1.0,0.01,-0.67,-1.71,-1.22,290,464,378,451,401,5
847,0.04,-1.0,-0.03,-0.79,-0.79,-0.85,294,467,380,451,402,5
848,0.01,-1.01,0.01,0.06,4.7,-8.12,293,466,380,453,403,5
849,0.09,-1.0,0.02,6.9,-4.64,4.21,294,459,382,452,404,5
850,0.08,-1.0,0.09,1.59,4.03,-8.97,293,468,381,451,404,5
851,0.02,-0.97,-0.02,3.85,-5.07,1.4,295,465,384,450,399,5
852,0.05,-0.99,0.02,-4.15,-5.62,-2.14,294,469,377,449,402,5
853,0.02,-1.0,0.04,4.27,-4.39,-4.82,294,461,384,447,403,5
854,0.02,-1.0,0.0,0.85,-2.75,-1.34,292,466,379,446,402,5
855,0.02,-0.99,-0.02,-0.92,-3.3,-1.95,297,460,382,451,403,5
856,0.01,-0.99,-0.01,-0.61,-2.5,-2.62,293,467,378,451,401,5
857,0.01,-0.99,-0.02,-0.18,-3.23,-2.62,296,459,380,451,405,5
858,0.01,-1.0,-0.03,-0.31,-3.3,-2.32,291,466,379,448,431,5
859,0.01,-1.0,-0.02,0.37,-3.42,-2.69,292,460,380,452,404,5
860,0.0,-1.0,-0.02,0.12,-2.62,-2.69,292,469,377,446,404,5
861,-0.0,-1.0,-0.03,0.43,-2.56,-2.08,296,474,381,446,402,5
862,0.0,-0.99,-0.03,-0.37,-2.56,-2.99,296,465,377,451,397,5
863,-0.0,-1.0,-0.02,0.49,-2.56,-2.5,295,465,375,448,403,5
864,-0.0,-1.0,-0.02,-0.24,-2.87,-2.56,296,464,378,449,403,5
865,0.0,-1.0,-0.01,0.79,-2.93,-1.83,294,460,380,451,405,5
866,-0.01,-1.0,-0.05,0.37,-4.94,-3.78,294,467,375,450,421,5
867,0.01,-1.0,-0.01,1.89,-1.46,-0.79,296,459,377,449,399,5
868,0.01,-1.0,0.0,1.71,-2.81,-0.31,292,469,377,449,400,5
869,-0.03,-0.99,-0.01,-2.2,-4.64,-1.89,294,466,379,446,402,5
870,0.01,-1.0,0.04,-1.83,1.89,-0.67,293,466,380,451,402,5
871,-0.02,-0.99,0.02,4.03,-4.39,0.0,293,465,378,449,404,5
872,-0.02,-1.0,-0.0,-0.12,-3.23,-2.81,294,465,375,450,401,5
873,-0.02,-0.99,0.01,1.22,-3.23,-2.32,291,469,379,447,399,5
874,-0.03,-1.0,0.01,-0.61,-3.17,-3.11,296,461,379,449,400,5
875,-0.01,-0.99,-0.01,-0.06,-3.23,-2.87,294,464,384,451,402,5
876,-0.01,-0.99,0.0,1.04,-3.17,-1.71,297,464,379,444,402,5
877,-0.05,-0.99,-0.03,3.05,-5.13,-4.46,294,465,376,444,402,5
878,-0.03,-0.99,-0.02,2.69,-6.41,-2.01,297,466,378,448,401,5
879,-0.01,-0.99,0.01,-4.09,-1.28,-2.2,294,464,378,450,399,5
880,-0.03,-0.99,0.04,-4.33,-1.04,-1.46,296,464,380,448,408,5
881,-0.01,-1.0,0.01,0.79,-4.33,-0.79,294,464,375,444,400,5
882,-0.01,-1.0,0.0,0.0,-3.17,-3.36,292,464,381,446,402,5
883,-0.02,-0.99,0.0,1.22,-2.75,-2.99,297,468,378,445,400,5
884,-0.02,-0.99,0.02,0.43,-2.99,-2.38,297,464,377,448,400,5
885,-0.02,-1.0,0.01,-1.34,-2.14,-2.99,295,464,380,453,400,5
886,-0.01,-1.0,-0.0,0.12,-3.3,-1.71,294,464,378,443,401,5
887,-0.01,-0.99,-0.01,-1.22,-2.69,-3.11,294,459,379,445,405,5
888,-0.02,-0.99,-0.01,0.31,-2.69,-2.5,296,469,378,447,401,5
889,-0.01,-1.0,0.0,2.26,-2.81,-2.62,296,465,380,452,428,5
890,-0.02,-1.0,0.0,1.53,-3.05,-2.62,294,465,376,448,406,5
891,-0.02,-1.0,-0.0,1.53,-3.72,-3.05,295,459,377,448,403,5
892,-0.02,-1.0,0.0,1.1,-3.05,-1.83,293,464,377,450,400,5
893,-0.02,-1.0,0.01,0.31,-2.81,-2.75,294,464,376,443,398,5
894,-0.03,-0.99,0.0,-1.04,-3.05,-2.01,293,459,376,443,394,5
895,-0.01,-1.0,-0.0,0.79,-3.3,-2.56,297,460,377,464,400,5
896,-0.02,-1.0,0.01,1.28,-2.69,-2.44,298,464,377,452,396,5
897,-0.02,-1.0,0.01,-1.53,-1.65,-1.95,296,464,383,446,400,5
898,-0.02,-0.99,-0.01,0.67,-3.05,-2.01,293,464,383,451,401,5
899,-0.02,-0.99,0.0,0.43,-3.91,-2.26,296,464,383,450,404,5
900,-0.03,-1.0,0.01,0.79,-3.11,-2.08,294,464,381,455,401,5
901,-0.03,-0.99,-0.0,0.06,-3.36,-2.01,296,463,384,453,413,5
902,-0.03,-0.99,0.01,0.85,-2.99,-2.75,297,463,388,454,402,5
903,-0.03,-0.99,0.02,0.24,-2.81,-2.75,296,464,385,453,398,5
904,-0.03,-0.99,0.02,0.12,-3.17,-2.26,298,468,384,453,401,5
905,-0.04,-0.98,0.01,-1.22,-2.99,-2.56,293,469,381,452,401,5
906,-0.03,-0.99,0.01,-1.04,-2.44,-2.93,295,463,384,452,399,5
907,-0.03,-0.99,0.01,0.24,-3.11,-2.99,295,468,391,455,401,5
908,-0.03,-0.99,0.01,0.79,-2.62,-2.38,299,461,383,455,402,5
909,-0.03,-1.0,0.02,2.01,-3.91,-1.77,296,461,382,452,398,5
910,-0.03,-1.0,0.01,-0.18,-3.11,-3.11,296,465,382,450,402,5
911,-0.03,-0.99,0.01,0.37,-2.38,-2.44,297,464,382,455,402,5
912,-0.03,-0.99,0.01,1.22,-2.75,-2.5,296,466,384,455,403,5
913,-0.03,-1.0,0.02,0.55,-2.99,-2.5,296,465,385,452,403,5
914,-0.03,-0.99,0.02,1.46,-3.17,-2.38,296,465,394,453,402,5
915,-0.03,-1.0,0.01,0.79,-2.5,-2.38,297,468,385,457,405,5
916,-0.03,-0.99,0.02,0.73,-2.5,-2.5,296,464,385,454,401,5
917,-0.03,-0.99,0.01,0.06,-3.3,-2.5,296,460,382,452,398,5
918,-0.03,-1.0,0.01,0.43,-3.48,-2.38,294,469,378,452,402,5
919,-0.03,-1.0,0.02,1.1,-2.93,-2.56,286,464,380,452,401,5
920,-0.03,-1.0,0.02,0.18,-2.87,-2.56,296,463,384,450,401,5
921,-0.03,-1.0,0.02,0.55,-2.38,-2.38,297,466,383,448,413,5
922,-0.04,-0.99,0.01,-0.18,-2.87,-2.56,300,467,381,455,402,5
923,-0.03,-1.0,0.01,0.55,-3.36,-2.32,296,463,380,448,401,5
924,-0.03,-1.0,0.03,1.1,-2.87,-2.44,293,464,384,448,402,5
925,-0.03,-1.0,0.02,-0.06,-2.75,-2.56,299,460,383,459,398,5
926,-0.04,-0.99,0.01,-0.24,-3.11,-2.38,297,465,382,455,402,5
927,-0.02,-1.0,0.06,5.13,-1.89,-5.98,297,462,382,454,402,5
928,-0.05,-1.0,0.01,-16.17,-3.42,4.7,299,466,383,452,404,5
929,-0.01,-1.0,0.02,-0.67,-4.52,-0.92,298,464,381,453,420,5
930,-0.01,-0.99,-0.02,0.61,-4.27,-1.59,299,463,383,456,401,5
931,-0.03,-1.0,-0.02,0.98,-3.05,-2.56,300,459,381,451,404,5
932,-0.04,-1.0,-0.01,0.06,-2.87,-2.81,299,467,380,466,402,5
933,-0.03,-1.0,-0.01,-0.43,-2.99,-2.2,302,458,381,450,398,5
934,-0.04,-0.99,-0.01,-0.85,-2.56,-1.89,299,463,383,449,404,5
935,-0.04,-0.99,-0.01,2.08,-3.17,-2.26,298,462,385,452,405,5
936,-0.02,-1.01,0.02,2.32,-1.34,-1.89,297,463,386,453,401,5
937,-0.04,-1.0,0.01,0.06,-2.99,-2.69,300,467,381,454,429,5
938,-0.04,-1.0,0.01,1.1,-2.87,-3.11,298,466,381,451,399,5
939,-0.03,-0.99,0.01,0.18,-3.11,-2.5,299,459,390,453,441,5
940,-0.04,-0.99,0.0,0.43,-2.5,-2.69,300,461,388,455,398,5
941,-0.03,-1.0,0.0,-0.37,-3.54,-2.75,303,460,384,452,406,5
942,-0.03,-1.0,-0.01,-0.67,-3.11,-2.75,299,464,384,452,403,5
943,-0.03,-0.99,0.0,-0.55,-3.3,-2.81,300,465,380,449,425,5
944,-0.03,-0.99,0.01,1.22,-2.62,-2.69,293,464,382,455,399,5
945,-0.04,-0.99,0.0,-0.31,-3.11,-2.56,300,467,380,453,398,5
946,-0.04,-1.0,-0.0,0.24,-3.17,-2.62,298,465,385,454,401,5
947,-0.04,-0.99,0.0,-0.49,-3.05,-2.2,303,466,381,451,399,5
948,-0.04,-0.99,0.0,0.55,-2.93,-2.56,303,468,385,452,402,5
949,-0.04,-1.0,-0.01,-0.55,-3.36,-2.56,301,467,384,451,406,5
950,-0.03,-1.0,-0.0,0.0,-2.93,-2.81,301,471,384,455,400,5
951,-0.03,-0.99,0.0,0.79,-2.62,-2.56,299,464,383,451,403,5
952,-0.04,-0.99,0.0,-0.98,-3.11,-2.38,302,465,378,452,401,5
953,-0.04,-0.99,-0.0,0.85,-3.42,-2.32,298,465,380,452,404,5
954,-0.04,-1.0,-0.0,0.24,-3.36,-2.2,299,459,383,451,397,5
955,-0.04,-1.0,0.0,0.67,-2.93,-2.75,300,468,381,449,401,5
956,-0.04,-0.99,-0.0,1.1,-2.62,-2.26,303,464,391,454,403,5
957,-0.04,-0.99,0.01,-0.12,-3.17,-2.75,300,469,381,453,401,5
958,-0.04,-0.99,-0.0,0.24,-2.56,-2.56,299,465,381,451,401,5
959,-0.04,-0.99,-0.0,0.73,-3.42,-2.26,301,464,380,451,402,5
960,-0.04,-0.99,-0.0,-0.06,-3.05,-2.99,300,458,380,447,401,5
961,-0.04,-0.99,0.0,0.98,-2.87,-2.62,297,462,384,452,398,5
962,-0.04,-0.99,0.01,-0.61,-3.3,-2.32,301,460,381,455,400,5
963,-0.03,-0.99,-0.0,-0.12,-2.81,-2.81,301,460,376,454,401,5
964,-0.04,-1.0,-0.0,0.31,-2.75,-2.62,300,463,380,452,402,5
965,-0.03,-1.0,0.0,0.06,-3.23,-2.87,302,471,383,455,402,5
966,-0.04,-0.99,0.0,0.67,-3.23,-2.44,301,459,383,454,404,5
967,-0.04,-0.99,0.0,0.24,-2.81,-2.69,312,461,378,455,408,5
968,-0.04,-0.99,-0.0,0.61,-3.23,-2.2,303,467,380,448,402,5
969,-0.04,-0.99,0.01,1.77,-3.66,-3.23,300,460,384,454,403,5
970,-0.02,-0.99,0.01,1.89,-4.27,-2.38,301,468,379,453,397,5
971,-0.04,-0.99,0.04,-0.49,-1.46,0.79,300,463,380,450,401,5
972,-0.03,-1.0,0.02,0.67,-5.62,-5.13,303,468,379,451,401,5
973,-0.06,-0.99,0.0,-3.91,-3.42,-2.87,299,466,378,452,401,5
974,-0.04,-1.0,-0.01,0.37,-5.07,-2.38,302,467,379,451,403,5
975,-0.03,-1.0,-0.0,-2.01,-3.54,-1.53,303,480,381,453,402,5
976,-0.05,-0.99,-0.01,-1.46,-3.48,2.14,301,465,377,449,430,5
977,-0.04,-1.0,-0.01,1.22,-2.99,-1.95,300,466,376,453,400,5
978,-0.03,-1.0,-0.01,-1.71,-3.05,-3.6,304,459,375,451,402,5
979,-0.02,-0.99,-0.01,-1.1,-3.36,-3.05,302,468,379,453,402,5
980,-0.03,-1.01,-0.02,-1.22,-3.72,-3.36,302,464,379,451,398,5
981,-0.01,-1.0,-0.01,-1.77,-3.66,-3.11,301,463,378,452,402,5
982,-0.01,-0.99,-0.0,2.32,-0.67,-3.23,304,464,371,447,440,5
983,-0.03,-1.0,0.01,4.7,-1.46,-2.5,303,463,375,453,400,5
984,-0.03,-1.0,0.03,4.76,0.37,-2.08,299,463,376,449,401,5
985,0.01,-0.99,0.01,3.72,-0.49,-4.7,303,464,376,452,400,5
986,-0.01,-0.99,0.06,1.4,-2.14,-3.91,301,464,371,452,399,5
987,-0.0,-1.0,0.04,-3.78,-3.72,-4.09,302,465,372,454,403,5
988,0.01,-1.0,0.06,0.24,-3.66,-1.59,300,462,374,455,402,5
989,0.0,-1.0,0.04,1.77,-3.23,-1.95,304,464,374,451,402,5
990,-0.01,-1.0,0.05,2.56,-2.69,-2.08,298,466,373,451,398,5
991,0.01,-0.99,0.06,0.98,-2.87,-3.11,302,464,372,453,401,5
992,0.0,-0.99,0.06,1.1,-2.56,-2.08,302,468,376,447,400,5
993,-0.01,-1.0,0.06,-2.08,-2.5,-3.6,298,461,377,452,398,5
994,-0.01,-1.0,0.06,2.14,-3.11,-1.53,302,468,373,451,400,5
995,0.0,-1.0,0.06,1.04,-3.66,-2.08,304,467,372,453,402,5
996,-0.0,-1.0,0.06,0.92,-2.99,-2.01,301,467,374,452,400,5
997,-0.01,-0.99,0.06,2.08,-2.93,-2.56,298,461,376,448,400,5
998,-0.0,-0.99,0.07,-0.24,-2.62,-2.5,304,464,375,452,399,5
999,-0.0,-0.99,0.07,0.0,-1.77,-2.69,302,463,375,448,401,5
1000,-0.01,-1.0,0.06,0.0,-2.56,-2.75,305,464,374,450,401,5
1001,-0.0,-0.99,0.07,0.55,-3.05,-2.69,304,464,375,451,401,5
1002,-0.0,-1.0,0.07,-0.67,-3.78,-2.08,300,463,376,451,402,5
1003,-0.0,-1.0,0.07,-0.43,-3.72,-2.14,301,468,372,452,400,5
1004,-0.03,-0.99,0.05,-4.09,-3.48,-2.14,301,464,374,452,401,5
1005,-0.01,-1.0,0.03,-2.01,-2.99,-3.23,305,465,374,450,400,5
1006,-0.01,-1.0,0.02,-2.75,-2.5,-3.78,301,469,374,450,399,5
1007,-0.01,-0.99,-0.02,-1.04,-4.09,-2.2,304,461,373,453,402,5
1008,0.0,-0.99,-0.02,-0.31,-2.69,-2.99,303,463,373,450,399,5
1009,-0.0,-1.0,0.0,2.01,-0.98,-2.44,303,463,374,448,399,5
1010,0.01,-0.99,0.01,0.79,-3.48,-1.04,302,464,375,449,396,5
1011,-0.13,-0.87,0.49,-0.92,-4.21,-3.36,292,474,450,482,468,5
1012,-0.12,-0.88,0.46,-4.21,-2.01,-1.22,294,470,451,488,466,5
1013,-0.13,-0.88,0.47,-1.4,-2.81,-2.56,291,469,450,486,467,5
1014,-0.1,-0.88,0.45,-1.65,-5.25,-2.08,293,465,445,486,467,5
1015,-0.12,-0.88,0.46,-0.06,-4.03,-4.33,292,468,449,486,468,5
1016,-0.12,-0.88,0.46,3.05,-3.6,-3.11,291,464,450,489,467,5
1017,-0.13,-0.88,0.46,-0.67,-2.5,-3.05,295,471,449,489,475,5
1018,-0.14,-0.87,0.47,2.56,-2.01,-4.7,294,472,449,488,467,5
1019,-0.12,-0.88,0.45,4.7,-4.39,-3.85,302,470,449,485,469,5
1020,-0.12,-0.88,0.45,2.75,-2.44,-4.39,295,464,445,489,464,5
1021,-0.13,-0.88,0.47,-1.59,-2.5,-2.87,292,466,446,483,467,5
1022,-0.15,-0.88,0.47,-0.73,-1.59,-4.7,291,471,442,484,468,5
1023,-0.11,-0.89,0.45,-0.85,0.06,-4.03,294,469,447,485,468,5
1024,-0.11,-0.88,0.47,-0.98,-2.26,-2.87,297,465,441,487,467,5
1025,-0.11,-0.88,0.47,1.28,-4.27,-3.91,294,481,443,485,462,5
1026,-0.09,-0.88,0.5,15.56,-1.04,-1.28,294,469,443,487,463,5
1027,-0.14,-0.88,0.46,-6.59,-4.21,-2.2,293,481,444,484,466,5
1028,-0.12,-0.89,0.45,0.12,-2.81,-3.54,291,469,443,480,468,5
1029,-0.11,-0.88,0.45,-0.06,-4.46,-4.52,295,472,445,480,464,5
1030,-0.12,-0.88,0.49,2.38,-2.69,-1.89,294,463,439,483,462,5
1031,-0.08,-0.88,0.47,2.2,-3.97,0.0,293,472,440,483,468,5
1032,-0.09,-0.88,0.46,-1.89,-1.16,0.37,295,468,439,484,465,5
1033,-0.09,-0.88,0.45,0.0,-3.11,-2.75,291,463,443,490,466,5
1034,-0.1,-0.89,0.46,-1.34,-3.6,-3.42,298,466,440,482,464,5
1035,-0.09,-0.88,0.46,1.28,-4.39,-2.44,294,473,437,484,464,5
1036,-0.1,-0.89,0.45,-0.12,-3.05,-2.14,298,468,438,485,464,5
1037,-0.09,-0.89,0.45,-0.55,-2.14,-2.62,297,468,437,481,460,5
1038,-0.09,-0.9,0.45,-0.73,-2.2,-2.93,296,471,435,483,463,5
1039,-0.09,-0.89,0.44,1.34,-2.75,-3.23,295,467,435,482,484,5
1040,-0.1,-0.9,0.45,-0.49,0.67,-2.75,294,472,438,481,460,5
1041,-0.09,-0.89,0.44,2.08,-4.76,-2.38,294,468,440,483,465,5
1042,-0.09,-0.9,0.45,0.31,-3.17,-2.38,296,468,439,480,463,5
1043,-0.09,-0.9,0.44,-1.28,-3.23,-3.85,295,480,434,480,463,5
1044,-0.08,-0.9,0.44,-1.34,-2.01,-2.62,290,469,435,479,463,5
1045,-0.08,-0.9,0.43,0.55,-2.69,-2.38,293,463,443,482,487,5
1046,-0.08,-0.91,0.43,-0.24,-2.62,-3.11,296,467,436,478,461,5
1047,-0.08,-0.9,0.42,1.28,-2.69,-2.62,293,468,438,477,465,5
1048,-0.08,-0.9,0.42,0.73,-3.42,-2.69,296,468,434,480,466,5
1049,-0.08,-0.9,0.42,-0.37,-3.3,-2.99,296,471,437,477,461,5
1050,-0.09,-0.9,0.42,1.65,-2.2,-1.89,296,467,437,480,464,5
1051,-0.09,-0.91,0.42,1.34,-2.56,-2.56,290,468,434,481,462,5
1052,-0.09,-0.9,0.43,1.71,-1.34,-3.72,294,472,435,483,464,5
1053,-0.08,-0.91,0.42,-0.61,-2.26,-2.26,291,468,434,475,458,5
1054,-0.09,-0.9,0.41,0.18,-2.75,-2.38,292,472,434,480,463,5
1055,-0.09,-0.91,0.42,1.1,-2.01,-2.81,294,472,434,477,461,5
1056,-0.11,-0.9,0.42,2.56,-4.03,-7.57,295,473,435,478,462,5
1057,-0.09,-0.91,0.41,-0.49,-3.17,-1.53,293,469,436,477,463,5
1058,-0.09,-0.91,0.42,-0.67,-2.01,-2.01,292,466,435,478,460,5
1059,-0.08,-0.93,0.41,-0.85,-2.93,-5.68,293,464,436,479,460,5
1060,-0.09,-0.91,0.41,-1.22,-0.73,-1.16,301,464,441,477,460,5
1061,-0.1,-0.91,0.41,-0.24,-2.62,-2.32,293,472,432,476,461,5
1062,-0.1,-0.91,0.41,-0.61,-2.2,-1.89,291,467,435,480,461,5
1063,-0.1,-0.91,0.4,-1.53,-2.81,-3.05,293,474,431,474,460,5
1064,-0.1,-0.91,0.39,2.69,-5.92,-2.75,294,467,431,475,461,5
1065,-0.1,-0.91,0.39,0.18,-2.75,-2.69,292,468,428,475,459,5
1066,-0.1,-0.92,0.41,-4.03,-3.48,-3.11,294,467,431,476,457,5
1067,-0.1,-1.01,0.21,-31.74,8.54,3.78,295,469,436,476,459,5
1068,-0.14,-0.95,0.2,-10.38,1.46,0.85,294,468,432,477,456,5
1069,-0.22,-0.79,0.04,18.31,-19.04,-1.83,297,485,432,476,455,5
1070,-0.13,-0.84,-0.11,-37.6,2.38,-38.09,296,473,423,477,462,5
1071,-0.15,-0.98,0.09,-9.16,-8.3,-10.13,304,471,426,477,481,5
1072,-0.19,-0.98,0.18,7.69,-4.94,2.32,300,468,425,474,460,5
1073,-0.22,-0.97,0.09,-1.16,-3.05,-1.89,299,471,425,478,459,5
1074,-0.19,-0.99,0.13,-7.14,1.53,-5.62,300,467,426,475,455,5
1075,-0.16,-0.98,0.08,-2.5,-6.96,-3.3,298,471,426,479,459,5
1076,-0.17,-0.97,0.05,0.55,-9.7,0.61,296,471,426,475,457,5
1077,-0.19,-0.98,0.07,1.1,-3.23,-1.1,301,472,426,477,458,5
1078,-0.19,-0.97,0.01,-1.22,-2.14,-1.22,299,471,425,475,458,5
1079,-0.19,-0.97,0.0,3.91,-4.15,-0.92,302,475,422,481,469,5
1080,-0.2,-0.97,0.03,4.94,-3.97,-2.14,301,472,428,479,458,5
1081,-0.2,-0.98,0.06,-1.53,-2.38,-2.93,307,474,424,476,459,5
1082,-0.19,-0.98,0.02,-2.99,-3.11,-3.72,302,475,428,475,459,5
1083,-0.19,-0.97,0.02,2.32,-3.48,-1.59,301,469,423,480,454,5
1084,-0.19,-0.98,0.02,-1.34,-3.11,-1.59,300,476,426,479,457,5
1085,-0.2,-0.98,0.05,0.73,-2.26,-2.69,300,471,426,475,458,5
1086,-0.21,-0.98,0.06,2.01,-4.58,-1.65,302,472,422,473,457,5
1087,-0.2,-0.97,0.04,-0.55,-1.28,-2.62,303,471,424,475,455,5
1088,-0.21,-0.98,0.04,-2.08,-1.71,-1.53,302,476,423,476,456,5
1089,-0.21,-0.97,0.07,-3.48,-3.05,-6.59,304,473,424,477,452,5
1090,-0.19,-0.97,0.05,4.15,-6.41,-0.85,302,476,423,478,456,5
1091,-0.19,-0.98,0.05,0.18,0.12,-3.48,303,473,425,478,455,5
1092,-0.2,-0.97,0.06,1.59,0.18,-2.26,301,475,424,478,457,5
1093,-0.17,-0.98,0.05,0.98,-1.83,-4.39,300,471,419,478,457,5
1094,-0.16,-0.98,0.05,1.4,-3.54,-1.53,308,475,423,478,456,5
1095,-0.15,-0.98,0.1,-0.73,-2.93,-4.7,302,478,423,477,457,5
1096,-0.15,-0.99,0.09,5.31,-2.69,-9.95,312,471,421,475,464,5
1097,-0.11,-0.98,0.1,3.23,1.1,-2.56,322,469,421,475,463,5
1098,-0.15,-0.97,0.04,-1.04,4.33,0.79,308,475,419,485,465,5
1099,-0.13,-0.98,0.06,-1.1,-2.14,-5.37,303,469,422,478,465,5
1100,-0.08,-0.98,0.03,-7.87,-14.28,-4.58,302,472,417,475,464,5
1101,-0.1,-0.99,0.04,2.93,-1.95,-1.53,302,471,413,473,462,5
1102,-0.1,-0.99,0.03,-2.56,-1.34,-4.7,298,476,415,477,461,5
1103,-0.09,-1.0,0.02,1.16,1.65,-4.15,299,472,415,478,461,5
1104,-0.09,-0.99,0.02,0.24,1.34,-1.4,305,473,420,475,462,5
1105,-0.12,-1.01,0.06,-4.52,-4.58,2.32,301,476,417,477,461,5
1106,-0.1,-1.0,0.05,-6.16,-4.64,-1.1,301,471,413,474,472,5
1107,-0.1,-0.99,0.02,-2.99,-1.16,-2.87,301,472,418,471,462,5
1108,-0.11,-0.99,-0.0,2.26,-4.03,-2.26,299,474,414,477,460,5
1109,-0.11,-0.98,-0.0,0.85,-3.85,-1.53,301,476,412,475,461,5
1110,-0.12,-0.99,0.01,-0.31,-1.4,-2.93,301,473,414,477,460,5
1111,-0.12,-0.99,0.02,6.47,-4.21,0.49,294,472,415,473,464,5
1112,-0.15,-0.99,0.03,-0.43,-2.75,-3.05,299,467,417,474,458,5
1113,-0.13,-0.99,0.03,0.79,-4.58,-2.01,302,473,413,474,463,5
1114,-0.13,-0.99,-0.0,1.53,-3.36,-1.46,304,475,416,474,461,5
1115,-0.11,-0.99,0.01,0.98,-3.05,-3.42,301,472,413,474,461,5
1116,-0.13,-0.99,0.01,-0.49,-2.81,-2.38,301,472,412,475,463,5
1117,-0.15,-0.99,0.02,1.53,1.46,-0.55,297,474,415,473,460,5
1118,-0.18,-0.98,0.05,9.83,9.64,0.0,292,472,406,475,460,5
1119,-0.15,-0.98,0.06,0.61,-4.52,-3.42,296,475,410,476,457,5
1120,-0.12,-0.99,0.05,2.08,-12.21,-0.79,306,470,409,473,462,5
1121,-0.15,-0.98,0.04,-0.49,6.29,-3.42,318,474,411,476,464,5
1122,-0.13,-0.98,0.06,0.49,-1.89,-4.82,307,472,410,479,463,5
1123,-0.13,-0.98,0.07,1.95,-1.53,-1.77,304,472,410,482,457,5
1124,-0.14,-0.98,0.07,-0.06,-3.36,-1.4,307,467,406,473,459,5
1125,-0.13,-0.99,0.07,0.0,-3.97,-2.01,301,470,409,477,461,5
1126,-0.14,-0.99,0.07,-0.31,-3.36,-2.75,305,475,410,479,459,5
1127,-0.12,-0.99,0.06,-0.79,-4.94,-3.17,302,472,414,479,460,5
1128,-0.12,-0.98,0.05,-1.04,-3.48,-3.97,299,474,415,485,459,5
1129,-0.14,-0.99,0.06,0.67,-1.16,-2.75,304,472,413,481,463,5
1130,-0.13,-0.99,0.08,1.77,-4.09,-2.08,304,472,414,475,474,5
1131,-0.13,-0.99,0.07,-0.37,-4.33,-2.32,306,471,410,472,461,5
1132,-0.13,-0.99,0.07,-0.49,-1.65,-2.75,304,473,418,476,462,5
1133,-0.13,-0.98,0.06,0.06,-3.6,-2.08,301,475,412,477,462,5
1134,-0.14,-0.99,0.05,0.49,-3.3,-2.62,307,476,412,473,457,5
1135,-0.12,-0.98,0.06,1.53,-1.71,-2.44,307,473,411,476,460,5
1136,-0.14,-0.99,0.06,1.34,-3.78,-1.65,307,472,415,478,459,5
1137,-0.14,-0.98,0.07,-0.12,-1.04,-2.93,311,473,412,475,463,5
1138,-0.13,-0.98,0.07,0.43,-2.81,-2.38,301,467,412,475,461,5
1139,-0.13,-0.99,0.07,-0.43,-4.7,-2.08,306,470,415,476,460,5
1140,-0.14,-0.98,0.06,0.55,-2.5,-2.62,309,466,414,478,460,5
1141,-0.14,-0.99,0.06,-0.31,-2.5,-2.26,301,476,410,479,461,5
1142,-0.13,-0.99,0.06,-0.79,-2.69,-3.3,303,472,411,475,457,5
1143,-0.13,-0.99,0.06,0.43,-2.99,-2.38,307,472,411,475,462,5
1144,-0.12,-0.98,0.06,0.98,-2.87,-2.69,308,469,414,475,462,5
1145,-0.13,-0.98,0.06,1.16,-3.3,-2.2,306,468,414,475,460,5
1146,-0.14,-0.98,0.08,0.43,-2.69,-2.69,307,471,410,474,461,5
1147,-0.15,-0.99,0.07,0.37,-2.08,-2.62,306,468,412,475,461,5
1148,-0.14,-0.98,0.07,0.61,-2.14,-2.14,304,476,411,475,460,5
1149,-0.13,-0.99,0.07,0.06,-4.03,-2.93,308,478,413,477,491,5
1150,-0.13,-0.98,0.06,-0.55,-2.81,-2.69,309,471,411,476,462,5
1151,-0.14,-0.99,0.06,0.43,-3.11,-1.77,301,471,414,475,460,5
1152,-0.15,-0.98,0.08,-0.06,-3.54,-2.14,307,467,411,476,460,5
1153,-0.15,-0.99,0.06,0.67,-3.54,-2.32,308,474,414,471,458,5
1154,-0.14,-0.98,0.06,0.18,-2.69,-2.14,307,472,413,474,470,5
1155,-0.15,-0.98,0.06,1.34,-2.93,-2.26,308,472,414,479,458,5
1156,-0.13,-0.98,0.08,1.22,-2.5,-3.3,307,476,410,473,459,5
1157,-0.16,-0.98,0.05,0.49,-3.3,-2.32,304,475,411,476,456,5
1158,-0.14,-0.98,0.06,-0.61,-3.23,-4.27,308,470,413,475,462,5
1159,-0.15,-0.98,0.07,1.22,-2.87,-2.14,306,471,410,475,457,5
1160,-0.14,-0.98,0.06,-0.92,-3.17,-4.27,309,472,410,473,459,5
1161,-0.14,-0.98,0.06,0.43,-3.6,-2.5,308,477,407,471,460,5
1162,-0.14,-0.98,0.05,1.1,-3.54,0.0,308,472,411,475,461,5
1163,-0.13,-0.98,0.05,0.12,-2.44,-2.75,308,471,408,469,457,5
1164,-0.15,-0.98,0.07,-0.43,-5.19,-3.3,310,467,412,474,459,5
1165,-0.15,-0.98,0.06,-0.85,-0.37,-2.62,310,466,412,474,458,5
1166,-0.14,-0.99,0.06,0.0,-2.99,-2.26,308,473,412,476,459,5
1167,-0.14,-0.98,0.06,0.73,-3.54,-2.56,311,471,409,477,459,5
1168,-0.14,-0.99,0.06,0.43,-3.42,-2.5,312,476,407,474,460,5
1169,-0.14,-0.99,0.07,-0.12,-2.93,-2.69,316,472,410,475,456,5
1170,-0.13,-0.99,0.06,0.61,-2.14,-1.77,315,472,408,475,458,5
1171,-0.13,-0.98,0.06,0.98,-4.09,-1.71,308,470,409,470,459,5
1172,-0.14,-0.98,0.07,0.31,-3.78,-1.95,307,476,407,473,456,5
1173,-0.14,-0.98,0.06,0.73,-3.17,-2.2,311,471,407,475,458,5
1174,-0.15,-0.99,0.06,0.85,-3.48,-2.26,308,475,407,476,460,5
1175,-0.14,-0.98,0.05,0.49,-2.81,-2.32,309,482,409,475,459,5
1176,-0.14,-0.98,0.06,0.49,-3.48,-3.6,308,476,417,479,484,5
1177,-0.14,-0.98,0.06,0.55,-3.48,-2.32,310,471,408,473,457,5
1178,-0.14,-0.98,0.05,0.18,-3.17,-2.2,309,467,408,473,457,5
1179,-0.15,-0.99,0.05,-0.18,-2.56,-1.83,310,473,411,472,457,5
1180,-0.14,-0.99,0.06,-0.85,-3.97,-2.32,309,477,410,476,455,5
1181,-0.14,-0.98,0.06,-1.65,-3.23,-1.59,311,474,409,469,460,5
1182,-0.15,-0.98,0.06,-0.06,-2.44,-2.62,312,472,407,473,455,5
1183,-0.15,-0.98,0.05,0.85,-4.09,-2.87,312,476,407,470,457,5
1184,-0.16,-0.99,0.06,0.98,-3.72,-2.62,310,473,407,472,455,5
1185,-0.15,-0.98,0.07,0.43,-4.33,-3.54,312,470,410,471,460,5
1186,-0.15,-0.98,0.06,-0.43,-1.95,-2.62,314,471,407,471,458,5
1187,-0.15,-0.98,0.07,-0.18,-2.62,-2.44,311,473,408,475,459,5
1188,-0.15,-0.98,0.06,0.37,-2.44,-1.95,313,469,407,470,456,5
1189,-0.15,-0.98,0.07,-0.06,-2.99,-2.32,313,470,408,474,453,5
1190,-0.15,-0.98,0.05,0.24,-3.17,-3.66,311,468,407,474,455,5
1191,-0.14,-0.98,0.07,1.77,-2.56,-2.87,309,476,406,469,459,5
1192,-0.15,-0.98,0.07,-0.24,-3.66,-2.38,313,472,409,472,453,5
1193,-0.14,-0.98,0.07,-0.43,-2.44,-2.08,307,470,411,469,457,5
1194,-0.15,-0.98,0.07,0.49,-3.91,-1.46,310,471,409,472,460,5
1195,-0.15,-0.99,0.07,-0.43,-2.81,-2.75,315,471,407,471,456,5
1196,-0.15,-0.98,0.07,-0.37,-2.87,-2.32,313,482,407,471,458,5
1197,-0.16,-0.98,0.06,-0.37,-2.5,-3.17,314,472,409,471,452,5
1198,-0.14,-0.98,0.05,0.61,-4.27,-2.01,310,480,406,471,456,5
1199,-0.15,-0.98,0.07,0.85,-5.31,-1.28,314,467,410,471,459,5
1200,-0.15,-0.98,0.07,1.04,-3.42,-4.39,314,472,407,470,472,5
1201,-0.14,-0.98,0.07,-1.59,-2.08,-2.81,314,468,410,473,454,5
1202,-0.15,-0.98,0.08,-0.06,-2.99,-1.83,317,472,406,468,458,5
1203,-0.16,-0.98,0.07,-0.12,-2.81,-2.5,318,472,406,470,455,5
1204,-0.15,-0.98,0.07,-0.18,-3.05,-2.69,315,472,405,474,454,5
1205,-0.16,-0.98,0.06,0.18,-2.32,-2.62,312,467,404,472,457,5
1206,-0.15,-0.98,0.06,0.37,-3.05,-2.75,312,468,409,468,456,5
1207,-0.15,-0.98,0.06,0.31,-2.93,-2.56,312,476,407,468,457,5
1208,-0.14,-0.98,0.07,0.43,-2.26,-3.6,311,476,403,473,459,5
1209,-0.16,-0.98,0.07,0.55,-3.48,-2.69,312,472,406,470,455,5
1210,-0.15,-0.98,0.07,-0.06,-3.48,-2.08,312,473,406,471,456,5
1211,-0.15,-0.98,0.06,-0.73,-3.66,-2.5,312,466,407,469,454,5
1212,-0.15,-0.98,0.07,0.92,-2.99,-2.2,313,471,406,469,452,5
1213,-0.15,-0.98,0.07,-0.98,-2.2,-3.05,311,472,406,473,457,5
1214,-0.15,-0.98,0.07,0.43,-3.36,-2.87,312,471,409,471,455,5
1215,-0.15,-0.99,0.07,-0.73,-3.05,-2.99,313,469,408,470,456,5
1216,-0.15,-0.98,0.07,1.77,-3.36,-2.44,315,471,404,473,455,5
1217,-0.14,-0.98,0.07,0.61,-2.99,-2.5,314,476,405,470,452,5
1218,-0.17,-0.99,0.08,-0.43,-2.32,-2.62,316,471,413,470,455,5
1219,-0.15,-0.98,0.08,-0.37,-3.17,-3.05,314,473,406,470,458,5
1220,-0.15,-0.98,0.07,0.12,-2.99,-2.69,316,472,406,470,459,5
1221,-0.16,-0.98,0.07,0.43,-2.56,-2.32,313,475,411,473,457,5
1222,-0.15,-0.98,0.06,-0.61,-2.75,-2.14,315,475,417,469,453,5
1223,-0.15,-0.98,0.05,0.43,-4.09,-2.5,317,471,400,466,452,5
1224,-0.16,-0.98,0.08,0.49,-2.81,-2.38,316,468,407,466,454,5
1225,-0.16,-0.98,0.07,1.28,-3.42,-2.62,317,475,409,472,455,5
1226,-0.15,-0.98,0.08,-0.73,-2.99,-3.17,318,472,413,469,454,5
1227,-0.15,-0.98,0.07,-1.16,-3.17,-3.54,316,472,405,468,448,5
1228,-0.15,-0.98,0.06,0.85,-3.54,-1.95,313,471,400,466,453,5
1229,-0.15,-0.98,0.07,-0.31,-5.0,-2.01,319,477,406,471,452,5
1230,-0.15,-0.98,0.06,-0.12,-2.56,-1.95,322,473,403,472,452,5
1231,-0.14,-0.98,0.05,0.37,-1.95,-2.87,316,476,405,468,456,5
1232,-0.15,-0.98,0.03,0.67,-3.48,-2.32,315,473,400,472,454,5
1233,-0.15,-0.98,0.05,0.85,-2.62,-3.11,317,470,408,467,456,5
1234,-0.13,-0.98,0.06,1.16,-3.17,-2.26,314,471,403,471,454,5
1235,-0.16,-0.98,0.06,0.06,-2.38,-2.14,319,475,400,469,453,5
1236,-0.15,-0.98,0.06,0.55,-2.93,-2.08,319,469,404,468,456,5
1237,-0.16,-0.98,0.06,1.1,-3.11,-2.01,316,470,415,465,454,5
1238,-0.15,-0.98,0.07,0.12,-3.05,-2.5,318,475,411,472,454,5
1239,-0.16,-0.98,0.05,-0.18,-3.42,-2.32,315,467,403,468,457,5
1240,-0.15,-0.98,0.07,1.28,-2.99,-2.01,316,472,404,467,457,5
1241,-0.16,-0.98,0.07,0.61,-3.42,-3.17,314,474,401,472,453,5
1242,-0.17,-0.98,0.08,1.16,-2.87,-2.14,317,470,404,470,454,5
1243,-0.15,-0.98,0.08,-0.31,-2.01,-3.36,319,469,403,470,454,5
1244,-0.15,-0.98,0.07,0.18,-2.26,-2.01,317,474,403,467,455,5
1245,-0.15,-0.98,0.06,-0.98,-2.38,-3.6,311,472,405,468,454,5
1246,-0.15,-0.98,0.05,-0.37,-3.48,-2.81,314,471,404,464,454,5
1247,-0.14,-0.98,0.05,0.43,-4.09,-2.5,317,472,402,467,452,5
1248,-0.15,-0.98,0.05,1.53,-3.54,-1.53,315,468,404,469,456,5
1249,-0.14,-0.98,0.06,-0.85,-1.34,-6.96,315,472,403,466,453,5
1250,-0.14,-0.98,0.06,0.49,-2.44,-2.87,317,471,405,469,453,5
1251,-0.15,-0.98,0.05,-0.73,2.56,-2.93,315,465,403,471,454,5
1252,-0.15,-0.98,0.06,-0.92,-8.97,-3.17,313,474,402,471,455,5
1253,-0.14,-0.98,0.05,-0.49,-0.92,-2.87,313,471,400,471,454,5
1254,-0.15,-0.98,0.05,1.4,-3.11,-2.14,312,467,398,468,450,5
1255,-0.15,-0.98,0.05,1.22,-2.69,-2.08,310,472,401,465,456,5
1256,-0.15,-0.98,0.06,2.2,-2.01,-3.36,308,470,398,470,456,5
1257,-0.15,-0.99,0.07,1.65,-0.12,-2.81,302,466,398,470,455,5
1258,-0.15,-0.98,0.04,-2.5,-1.83,-5.25,306,470,394,469,453,5
1259,-0.16,-0.99,0.05,-4.03,-6.1,-6.1,305,469,399,466,456,5
1260,-0.13,-0.99,0.03,-6.59,-2.81,-3.66,308,467,396,463,449,5
1261,-0.12,-0.98,0.01,-3.36,-13.12,15.32,308,473,400,464,456,5
1262,-0.19,-0.98,0.01,2.44,2.32,-6.41,307,469,407,467,453,5
1263,-0.18,-0.98,0.02,3.48,-2.87,-2.75,306,470,406,467,453,5
1264,-0.17,-0.98,0.01,1.4,-4.46,-2.01,305,469,407,471,452,5
1265,-0.17,-0.98,0.02,2.87,-4.27,-1.59,305,470,416,468,454,5
1266,-0.16,-0.98,0.03,1.53,-5.25,-2.32,305,473,406,467,453,5
1267,-0.18,-0.98,0.04,8.3,0.12,-4.33,309,469,412,470,465,5
1268,-0.16,-0.98,0.04,2.08,0.92,15.5,308,469,406,465,453,5
1269,-0.23,-0.98,0.08,-9.34,-8.97,-9.52,305,463,410,465,454,5
1270,-0.16,-0.97,0.04,1.28,-4.76,-2.01,305,472,408,468,455,5
1271,-0.2,-0.98,0.06,4.52,-8.12,-0.12,305,473,407,468,455,5
1272,-0.21,-0.98,0.1,-4.7,0.98,-5.0,307,471,405,466,452,5
1273,-0.15,-0.98,-0.03,-12.15,-1.46,-11.72,305,466,409,468,452,5
1274,-0.17,-0.97,0.0,7.87,-5.92,-3.36,303,467,407,466,453,5
1275,-0.17,-0.98,0.04,0.0,-2.56,-3.36,304,468,406,467,452,5
1276,-0.17,-0.98,0.02,-0.43,-3.11,-3.17,303,467,405,465,452,5
1277,-0.18,-0.98,0.06,-1.34,-2.99,-3.11,303,470,402,465,453,5
1278,-0.16,-0.98,0.05,1.34,-2.99,-1.46,305,468,402,465,440,5
1279,-0.17,-0.98,0.02,2.01,-3.72,-1.65,307,467,406,465,453,5
1280,-0.16,-0.98,0.02,-1.04,-2.75,-3.23,303,469,407,469,455,5
1281,-0.17,-0.98,0.02,0.24,-2.75,-2.62,306,472,408,466,453,5
1282,-0.16,-0.98,0.03,-2.32,-2.56,-4.46,305,463,404,465,452,5
1283,-0.16,-0.98,0.02,2.32,-3.91,-1.53,315,473,405,465,452,5
1284,-0.17,-0.98,0.02,-0.24,-3.97,-2.01,304,471,405,464,454,5
1285,-0.16,-0.98,0.02,0.37,-4.03,-1.95,302,468,403,467,453,5
1286,-0.19,-0.98,0.04,0.73,-2.56,-2.62,306,467,408,469,452,5
1287,-0.18,-0.98,0.03,0.92,-3.48,-2.5,304,470,401,466,451,5
1288,-0.18,-0.98,0.02,-0.67,-2.44,-3.36,307,467,406,464,482,5
1289,-0.17,-0.98,0.03,0.98,-3.85,-2.14,306,470,405,465,452,5
1290,-0.16,-0.98,0.03,-0.67,-4.52,-2.99,303,466,405,466,452,5
1291,-0.16,-0.98,0.03,0.43,-2.87,-2.81,308,469,405,466,452,5
1292,-0.17,-0.98,0.03,0.73,-3.72,-2.44,305,469,408,468,455,5
1293,-0.16,-0.98,0.03,0.67,-4.09,-2.44,302,468,403,466,452,5
1294,-0.17,-0.98,0.04,0.43,-3.48,-2.93,304,470,405,463,450,5
1295,-0.17,-0.98,0.03,0.0,-2.93,-1.95,307,472,406,463,455,5
1296,-0.15,-0.98,0.02,0.06,-2.75,-3.17,306,467,406,467,452,5
1297,-0.16,-0.98,0.02,-0.92,-4.39,-3.3,308,471,406,464,450,5
1298,-0.17,-0.98,0.02,0.12,-1.04,-3.66,306,463,405,468,455,5
1299,-0.16,-0.98,0.01,-0.18,-3.17,-2.32,308,469,407,464,452,5
1300,-0.15,-0.98,0.02,-0.31,-3.42,-3.3,307,470,406,466,449,5
1301,-0.17,-0.98,0.02,2.62,-4.33,-1.16,304,465,409,463,452,5
1302,-0.16,-0.98,0.03,0.43,-2.44,-2.69,308,474,408,469,448,5
1303,-0.15,-0.98,0.01,2.32,-5.31,-1.04,305,471,414,467,453,5
1304,-0.16,-0.98,0.03,-1.28,-2.56,-3.17,308,469,402,467,452,5
1305,-0.18,-0.98,0.03,1.4,-4.15,-0.61,308,464,410,469,451,5
1306,-0.17,-0.98,0.02,0.18,-2.38,-3.23,307,469,402,466,455,5
1307,-0.18,-0.98,0.02,0.61,-2.26,-2.75,308,468,406,467,452,5
1308,-0.16,-0.99,0.03,0.79,-2.69,-2.93,308,463,407,468,453,5
1309,-0.18,-0.98,0.02,1.28,-4.33,-2.26,308,472,410,465,453,5
1310,-0.16,-0.98,0.03,1.1,-3.91,-1.83,309,469,410,469,454,5
1311,-0.17,-0.98,0.03,-1.28,-3.78,-4.03,307,464,407,469,455,5
1312,-0.18,-0.98,0.03,-0.37,-2.56,-1.95,308,469,408,471,454,5
1313,-0.15,-0.98,0.04,0.24,-2.01,-3.72,310,472,409,471,455,5
1314,-0.17,-0.98,0.03,1.89,-2.2,-1.83,308,470,412,469,452,5
1315,-0.17,-0.99,0.04,1.16,-4.7,-0.92,307,468,412,469,453,5
1316,-0.17,-0.98,0.03,0.31,-2.32,-2.01,310,469,411,470,452,5
1317,-0.18,-0.99,0.03,-1.1,-3.48,-2.38,309,467,410,470,453,5
1318,-0.17,-0.98,0.0,-0.49,-4.76,-3.78,306,464,409,468,452,5
1319,-0.18,-0.99,0.02,0.37,2.08,-2.56,309,472,411,470,460,5
1320,-0.16,-0.98,0.03,-1.22,-4.03,-3.66,309,470,409,472,452,5
1321,-0.17,-0.98,0.03,0.61,-2.62,-2.81,308,469,411,471,452,5
1322,-0.17,-0.98,0.03,0.98,-2.56,-2.38,312,472,410,472,452,5
1323,-0.17,-0.98,0.03,-1.53,-1.28,-3.17,305,470,409,468,453,5
1324,-0.17,-0.98,0.03,0.0,-3.72,-1.95,308,470,414,468,452,5
1325,-0.18,-0.98,0.03,-0.49,-2.75,-2.99,314,471,410,469,450,5
1326,-0.17,-0.98,0.03,-0.61,-2.32,-2.87,308,462,408,472,457,5
1327,-0.17,-0.98,0.03,0.37,-4.39,-1.77,308,466,411,472,444,5
1328,-0.18,-0.97,0.02,2.56,-1.95,-2.32,308,468,405,472,455,5
1329,-0.19,-0.98,0.03,0.37,-5.13,-2.26,311,468,408,477,453,5
1330,-0.17,-0.98,0.03,0.24,-2.44,-3.72,309,468,411,467,447,5
1331,-0.17,-0.98,0.03,-0.37,-2.75,-3.42,306,469,410,469,454,5
1332,-0.18,-0.99,0.04,-0.55,-1.1,-2.56,308,473,409,470,440,5
1333,-0.19,-0.98,0.03,0.43,-3.05,-1.1,309,469,412,470,452,5
1334,-0.18,-0.98,0.03,0.31,-3.3,-2.56,309,469,411,469,448,5
1335,-0.18,-0.98,0.03,-0.79,-2.75,-2.75,309,471,409,476,453,5
1336,-0.17,-0.98,0.02,1.53,-3.91,-2.08,310,469,410,469,452,5
1337,-0.17,-0.98,0.02,0.0,-3.85,-2.93,310,469,426,471,447,5
1338,-0.17,-0.98,0.04,1.04,-3.6,-2.69,309,463,407,469,452,5
1339,-0.18,-0.98,0.03,-0.49,-2.62,-3.48,311,466,407,467,454,5
1340,-0.18,-0.98,0.02,0.37,-3.23,-2.75,309,468,425,468,454,5
1341,-0.19,-0.98,0.04,0.06,-2.62,-1.83,308,466,407,472,446,5
1342,-0.19,-0.98,0.04,0.49,-2.56,-1.95,306,472,409,472,448,5
1343,-0.18,-0.98,0.02,0.18,-2.5,-2.38,307,468,412,470,451,5
1344,-0.18,-0.98,0.03,0.06,-3.11,-1.77,309,469,407,470,452,5
1345,-0.17,-0.98,0.02,2.2,-3.85,-1.95,321,474,409,472,449,5
1346,-0.17,-0.98,0.02,1.16,-3.85,-3.11,311,470,410,470,451,5
1347,-0.15,-0.98,0.01,-3.48,-1.77,-5.98,311,464,409,471,451,5
1348,-0.15,-0.98,-0.01,-3.42,-0.73,-8.24,308,473,409,472,446,5
1349,-0.16,-0.99,-0.01,-3.11,-2.44,-3.6,310,472,410,471,451,5
1350,-0.17,-0.99,0.05,5.74,-2.75,0.92,311,464,409,470,451,5
1351,-0.19,-0.98,-0.08,3.11,-2.5,4.39,308,470,410,471,451,5
1352,-0.17,-0.98,-0.02,4.46,-1.53,-0.49,312,469,406,470,449,5
1353,-0.17,-0.98,0.01,0.98,-2.99,-3.23,311,469,408,469,450,5
1354,-0.17,-0.98,0.02,1.77,-5.86,-6.71,313,464,411,473,451,5
1355,-0.15,-0.97,0.0,-3.42,-1.77,-4.76,315,469,410,467,450,5
1356,-0.15,-0.99,-0.0,2.01,-3.11,-3.72,308,470,410,466,452,5
1357,-0.16,-0.99,0.0,2.5,-5.86,0.06,308,471,410,470,453,5
1358,-0.15,-0.99,0.0,-0.18,-5.37,-4.94,313,464,409,472,450,5
1359,-0.15,-0.98,0.0,-1.89,-2.99,-6.41,312,470,413,467,450,5
1360,-0.16,-0.98,0.0,2.32,-4.58,-1.22,316,470,410,469,451,5
1361,-0.15,-0.98,0.01,0.92,-3.6,-2.75,315,474,414,472,450,5
1362,-0.14,-0.97,-0.01,-0.67,-2.44,-2.87,317,470,413,471,449,5
1363,-0.14,-0.99,0.0,1.04,-1.1,-3.66,316,473,411,465,452,5
1364,-0.16,-0.99,0.01,2.32,-6.47,-2.44,317,469,410,472,450,5
1365,-0.15,-0.99,0.0,-0.73,-3.05,-3.85,315,470,410,470,451,5
1366,-0.15,-0.98,0.01,1.28,-2.81,-3.05,320,472,410,472,450,5
1367,-0.13,-0.98,-0.02,1.53,-0.55,-4.94,317,466,413,469,447,5
1368,-0.12,-0.98,0.01,1.22,-3.11,-3.66,319,473,409,470,448,5
1369,-0.14,-0.98,0.02,0.12,-2.75,-2.26,318,470,409,467,450,5
1370,-0.15,-0.98,0.01,-0.73,-3.42,-2.93,317,469,410,467,450,5
1371,-0.14,-0.98,0.0,0.37,-5.19,-3.36,320,469,408,470,448,5
1372,-0.14,-0.98,-0.01,-1.34,-2.01,-3.11,319,470,414,468,449,5
1373,-0.13,-0.98,0.0,1.1,-0.85,-2.62,310,472,408,469,450,5
1374,-0.15,-0.98,0.01,3.17,-0.37,-1.34,304,464,405,467,451,5
1375,-0.16,-0.98,0.01,3.97,-1.34,-0.79,299,464,404,477,450,5
1376,-0.15,-0.98,0.01,2.44,-9.52,-1.65,297,467,403,469,448,5
1377,-0.15,-0.98,0.01,0.0,-0.12,-6.47,299,470,401,465,451,5
1378,-0.15,-0.99,0.05,-0.98,-2.81,-6.47,298,465,407,468,449,5
1379,-0.08,-1.0,0.06,-4.46,-10.44,-4.94,304,484,405,471,448,5
1380,-0.06,-0.96,0.07,14.47,0.79,-7.08,305,467,404,470,452,5
1381,-0.06,-1.0,0.1,-2.56,-5.19,-5.62,301,470,406,471,450,5
1382,-0.09,-0.98,0.05,-3.48,-1.34,-1.59,307,467,408,467,445,5
1383,-0.11,-1.0,-0.01,6.16,3.42,3.36,307,468,411,471,447,5
1384,-0.13,-0.98,0.04,1.28,3.72,-2.5,304,469,407,470,448,5
1385,-0.14,-0.98,0.01,1.89,-3.36,2.01,308,468,408,464,445,5
1386,-0.16,-0.97,0.04,0.67,-6.84,-1.83,307,473,404,471,448,5
1387,-0.19,-0.98,0.01,0.79,-4.58,-5.19,308,470,405,470,448,5
1388,-0.18,-0.97,0.0,3.42,-3.78,-1.46,308,472,404,468,449,5
1389,-0.19,-0.98,0.02,-0.24,-0.31,-2.81,308,473,408,467,443,5
1390,-0.18,-0.97,0.04,2.38,-3.3,-1.34,308,469,410,470,446,5
1391,-0.2,-0.98,0.04,-1.34,-0.92,-2.81,308,468,407,463,449,5
1392,-0.21,-0.96,0.03,3.42,-1.4,-2.2,309,470,407,470,445,5
1393,-0.19,-0.97,0.03,-0.18,-4.27,-2.93,311,473,408,478,446,5
1394,-0.19,-0.97,0.03,-0.73,-3.23,-1.95,308,468,407,467,448,5
1395,-0.2,-0.98,0.04,1.1,-2.75,-2.01,311,467,410,470,446,5
1396,-0.2,-0.98,0.04,0.06,-1.83,-2.75,308,468,410,468,447,5
1397,-0.2,-0.98,0.03,-0.67,-2.56,-3.17,309,470,406,469,449,5
1398,-0.2,-0.97,0.02,-0.55,-2.62,-2.93,311,466,409,466,449,5
1399,-0.2,-0.98,0.03,-1.16,-2.38,-3.6,310,469,409,467,448,5
1400,-0.18,-0.97,0.01,1.22,-1.53,-1.4,311,468,405,466,448,5
1401,-0.17,-0.98,-0.01,-10.07,1.53,-4.88,311,467,410,468,448,5
1402,-0.18,-0.97,-0.01,-0.06,-2.5,-2.62,308,469,414,465,447,5
1403,-0.18,-0.98,-0.01,-1.04,-2.38,-3.36,311,471,409,467,446,5
1404,-0.18,-0.98,-0.01,-0.73,-3.42,-2.08,310,468,409,464,447,5
1405,-0.18,-0.98,-0.02,0.67,-2.99,-3.11,313,468,412,467,450,5
1406,-0.19,-0.97,-0.01,0.43,-3.72,-2.14,309,468,409,471,447,5
1407,-0.18,-0.97,0.0,-2.56,-2.75,-4.33,313,473,408,471,454,5
1408,-0.17,-0.98,-0.01,-0.43,-3.91,-3.42,308,469,405,465,446,5
1409,-0.18,-0.98,-0.04,-0.49,-3.42,-2.87,311,465,410,466,449,5
1410,-0.18,-0.98,-0.01,1.4,-2.62,-2.99,306,471,407,470,436,5
1411,-0.16,-0.97,-0.02,2.38,-1.46,-5.13,306,468,405,467,443,5
1412,-0.17,-0.98,0.01,0.06,-2.44,-1.28,308,463,406,465,448,5
1413,-0.16,-0.98,-0.01,-4.15,-0.92,-5.13,304,471,407,467,448,5
1414,-0.17,-0.98,-0.01,-2.32,-0.98,-5.74,306,466,409,467,443,5
1415,-0.13,-0.98,-0.04,0.31,-3.78,-2.44,310,467,405,463,446,5
1416,-0.15,-0.99,-0.01,0.61,-3.91,-2.44,308,461,404,466,444,5
1417,-0.15,-0.98,-0.01,0.85,-4.03,-1.77,309,467,408,467,444,5
1418,-0.15,-0.98,-0.03,0.55,1.77,-3.91,306,463,407,467,444,5
1419,-0.14,-0.98,-0.04,0.31,-2.01,-2.26,306,469,416,466,446,5
1420,-0.15,-0.98,-0.02,-2.5,-1.77,-5.0,308,467,405,465,446,5
1421,-0.15,-0.98,-0.09,-3.6,-6.84,-1.46,306,468,403,464,450,5
1422,-0.14,-0.98,-0.02,4.15,3.05,-0.67,304,467,409,470,445,5
1423,-0.13,-0.98,-0.02,1.04,-0.24,-3.78,305,472,405,467,447,5
1424,-0.15,-0.98,-0.03,3.23,-2.38,-4.09,310,469,409,463,448,5
1425,-0.16,-0.99,-0.01,0.55,-6.16,-1.95,311,472,406,465,450,5
1426,-0.13,-0.99,-0.0,1.53,-3.97,-4.27,309,469,406,463,447,5
1427,-0.12,-0.99,-0.01,0.43,-0.79,-3.72,309,471,412,457,444,5
1428,-0.15,-0.99,0.0,0.31,-3.36,-2.32,309,467,403,466,451,5
1429,-0.15,-0.99,-0.03,0.31,-6.04,-2.56,310,471,402,470,444,5
1430,-0.13,-0.98,-0.0,-1.59,-5.37,-1.28,307,472,408,466,450,5
1431,-0.14,-0.99,-0.01,-0.67,-2.5,-3.23,314,468,409,465,447,5
1432,-0.15,-0.99,-0.01,1.1,-2.81,-1.46,309,467,407,468,447,5
1433,-0.14,-0.98,-0.01,0.61,-1.59,-2.32,311,467,412,466,448,5
1434,-0.14,-0.99,-0.01,-0.06,-4.39,-2.26,309,465,406,465,445,5
1435,-0.14,-0.98,-0.02,-0.55,-2.2,-2.56,311,465,407,466,447,5
1436,-0.14,-0.98,-0.03,0.98,-3.72,-2.62,310,470,406,462,448,5
1437,-0.14,-0.98,-0.03,-0.06,-2.87,-2.26,311,467,400,467,454,5
1438,-0.15,-0.98,-0.04,0.0,-3.17,-2.26,311,467,407,467,445,5
1439,-0.15,-0.98,-0.02,-0.18,-4.15,-2.14,311,469,402,468,475,5
1440,-0.16,-0.98,-0.02,0.0,-5.37,-2.44,306,466,394,464,443,5
1441,-0.15,-0.98,-0.03,0.79,-2.08,-2.14,312,464,408,467,446,5
1442,-0.14,-0.98,-0.03,0.61,0.67,-2.38,312,468,408,466,444,5
1443,-0.14,-0.98,-0.04,0.61,-0.67,-2.5,310,469,405,465,446,5
1444,-0.15,-0.98,-0.04,0.92,-3.36,-2.26,309,471,403,466,447,5
1445,-0.15,-0.98,-0.03,0.06,-3.54,-2.44,313,469,413,464,446,5
1446,-0.14,-0.98,-0.04,0.06,-3.3,-2.44,309,468,407,460,446,5
1447,-0.15,-0.98,-0.04,0.55,-3.78,-1.77,313,470,404,465,447,5
1448,-0.14,-0.98,-0.04,0.12,-2.14,-3.17,310,471,407,465,442,5
1449,-0.16,-0.98,-0.04,0.12,-4.15,-2.62,311,463,406,465,443,5
1450,-0.17,-0.98,-0.03,0.79,-4.64,0.43,312,463,396,464,443,5
1451,-0.14,-0.98,-0.03,1.77,-5.92,-1.1,310,471,410,461,448,5
1452,-0.15,-0.98,-0.04,0.55,-3.11,-1.77,309,467,406,460,445,5
1453,-0.16,-0.98,-0.04,-0.92,-3.05,-2.01,310,467,403,465,446,5
1454,-0.16,-0.98,-0.04,0.73,-2.75,-3.17,312,468,404,464,445,5
1455,-0.17,-0.98,-0.04,0.61,-3.85,-1.59,306,467,405,463,447,5
1456,-0.15,-0.98,-0.04,0.49,-3.17,-2.38,313,468,403,464,446,5
1457,-0.16,-0.98,-0.05,2.14,-3.91,-2.99,307,469,402,461,445,5
1458,-0.17,-0.98,-0.04,0.43,-3.66,-2.14,311,466,405,467,447,5
1459,-0.16,-0.98,-0.04,0.49,-2.75,-2.26,311,468,405,460,445,5
1460,-0.17,-0.98,-0.03,-0.92,-1.95,-3.23,311,467,403,465,442,5
1461,-0.16,-0.98,-0.03,-1.59,-1.65,-3.23,311,471,402,463,445,5
1462,-0.16,-0.98,-0.02,0.55,-4.21,-1.53,308,466,400,462,448,5
1463,-0.15,-0.98,-0.03,0.12,-3.36,-3.05,310,467,405,462,446,5
1464,-0.17,-0.98,-0.03,-0.55,-2.08,-2.62,311,467,406,464,445,5
1465,-0.16,-0.98,-0.04,1.53,-4.27,-2.38,311,471,400,464,448,5
1466,-0.16,-0.99,-0.03,0.92,-2.93,-2.5,311,464,405,462,447,5
1467,-0.16,-0.98,-0.04,0.18,-3.72,-2.38,311,470,405,469,438,5
1468,-0.15,-0.98,-0.04,1.16,-3.54,-2.01,309,461,403,464,445,5
1469,-0.17,-0.98,-0.04,0.18,-3.17,-2.2,310,464,403,466,487,5
1470,-0.16,-0.98,-0.04,0.43,-3.36,-2.08,314,468,405,463,445,5
1471,-0.16,-0.98,-0.04,-0.73,-2.56,-2.87,307,467,401,464,446,5
1472,-0.16,-0.98,-0.05,0.79,-2.32,-2.26,307,466,404,464,445,5
1473,-0.17,-0.98,-0.04,0.37,-3.42,-2.44,310,467,405,466,445,5
1474,-0.18,-0.98,-0.04,0.43,-3.11,-1.89,310,466,401,464,448,5
1475,-0.17,-0.98,-0.04,0.31,-3.6,-3.05,312,466,401,466,442,5
1476,-0.17,-0.98,-0.05,2.32,-3.11,-1.59,311,470,402,464,439,5
1477,-0.17,-0.98,-0.06,-1.95,-2.93,-2.93,309,465,404,459,441,5
1478,-0.16,-0.98,-0.03,2.32,-2.08,-2.69,311,467,402,464,447,5
1479,-0.19,-0.98,-0.02,0.55,-4.64,-1.65,314,466,403,460,445,5
1480,-0.18,-0.98,-0.02,2.14,-4.33,-0.24,311,467,404,463,445,5
1481,-0.19,-0.97,-0.02,1.28,-4.27,-2.26,312,471,403,466,445,5
1482,-0.19,-0.97,-0.01,-0.49,-4.33,-2.32,311,467,402,466,444,5
1483,-0.2,-0.97,-0.01,0.12,-3.11,-1.4,313,466,402,472,445,5
1484,-0.2,-0.98,-0.0,-1.04,-3.54,-2.93,314,474,402,465,442,5
1485,-0.19,-0.97,-0.01,-0.73,-3.42,-2.14,312,462,403,462,443,5
1486,-0.2,-0.97,-0.01,0.06,-3.3,-3.23,313,467,405,464,444,5
1487,-0.19,-0.98,-0.02,-0.49,-1.95,-2.5,314,467,402,469,440,5
1488,-0.2,-0.98,-0.01,-2.14,-2.75,-1.89,311,467,399,466,441,5
1489,-0.19,-0.97,-0.05,-0.85,-1.34,-3.48,313,461,402,465,454,5
1490,-0.2,-0.98,-0.02,0.73,-2.69,-2.26,311,469,402,464,442,5
1491,-0.2,-0.97,-0.03,0.06,-0.49,-2.14,311,457,395,465,445,5
1492,-0.18,-0.98,-0.05,0.55,-3.42,-2.38,310,462,397,460,445,5
1493,-0.19,-0.98,-0.03,-3.54,-0.24,-6.59,305,468,400,466,441,5
1494,-0.19,-0.98,-0.04,-1.1,-1.1,-3.23,303,466,407,465,441,5
1495,-0.18,-0.98,-0.05,-0.24,-1.77,-3.23,303,468,406,465,445,5
1496,-0.17,-0.98,-0.05,-0.12,-1.89,-6.96,304,465,406,460,444,5
1497,-0.16,-0.97,-0.07,0.85,-4.88,-2.26,307,467,406,467,444,5
1498,-0.17,-0.98,-0.05,-0.31,-2.2,-2.44,308,466,405,463,445,5
1499,-0.17,-0.98,-0.05,0.49,-4.21,-2.32,303,469,405,466,444,5
1500,-0.17,-0.98,-0.06,-0.31,-3.23,-2.62,305,469,406,463,442,5
1501,-0.18,-0.98,-0.05,0.43,-2.75,-2.5,307,468,406,463,447,5
1502,-0.18,-0.98,-0.05,0.61,-3.6,-2.62,304,467,408,464,447,5
1503,-0.18,-0.98,-0.06,0.12,-3.66,-2.69,307,461,406,464,445,5
1504,-0.17,-0.97,-0.05,0.43,-3.72,-2.81,309,465,407,468,448,5
1505,-0.18,-0.98,-0.04,0.85,-3.54,-3.05,309,460,405,464,441,5
1506,-0.18,-0.98,-0.05,0.12,-3.36,-2.5,310,461,405,464,442,5
1507,-0.17,-0.98,-0.04,0.06,-3.48,-2.44,308,470,405,464,444,5
1508,-0.2,-0.99,-0.04,1.34,-3.36,-2.26,310,468,401,462,447,5
1509,-0.18,-0.98,-0.05,-0.24,-3.42,-2.08,312,462,407,465,445,5
1510,-0.17,-0.97,-0.04,-0.43,-1.59,-3.17,309,462,407,468,487,5
1511,-0.2,-0.98,-0.02,-0.55,-4.58,-4.21,313,467,408,466,446,5
1512,-0.16,-0.9,0.23,69.09,-42.36,-47.18,465,485,440,485,335,5
1513,-0.11,-0.88,0.5,26.12,-14.1,20.02,467,489,445,485,343,5
1514,-0.14,-0.83,0.55,11.17,-5.25,6.29,468,490,445,482,348,5
1515,-0.22,-0.75,0.37,-6.59,-21.97,-4.94,472,487,442,489,346,5
1516,-0.15,-0.82,0.53,9.46,3.05,-13.92,492,492,441,488,321,5
1517,-0.13,-0.91,0.45,-10.86,7.14,-8.97,464,491,436,486,300,5
1518,-0.11,-0.88,0.37,5.43,-1.22,-2.69,462,488,437,490,301,5
1519,0.01,-0.93,0.32,-40.28,1.65,-33.94,459,489,435,480,303,5
1520,-0.04,-0.95,0.24,5.31,-7.2,0.37,459,488,434,483,299,5
1521,-0.05,-0.99,0.32,6.23,5.37,-4.33,458,489,424,482,282,5
1522,-0.02,-0.91,0.26,8.91,-5.98,0.73,459,493,421,478,282,5
1523,-0.05,-0.95,0.33,2.01,0.12,-0.43,458,489,417,480,289,5
1524,-0.07,-0.95,0.35,4.88,-4.03,-0.67,461,490,422,484,291,5
1525,-0.04,-0.92,0.29,4.46,-0.92,0.37,459,489,431,483,328,5
1526,-0.08,-0.95,0.32,-14.53,-2.75,0.37,461,489,430,483,304,5
1527,-0.08,-0.96,0.3,4.58,-2.56,-3.97,455,488,402,474,279,5
1528,-0.09,-0.93,0.31,3.6,-7.63,-8.24,461,489,412,476,295,5
1529,0.01,-0.97,0.24,-2.14,-2.87,0.79,454,491,422,482,332,5
1530,-0.11,-0.95,0.27,5.62,-2.2,1.4,456,490,427,479,326,5
1531,-0.07,-0.94,0.27,0.55,-5.13,-4.15,458,491,430,478,328,5
1532,-0.15,-0.93,0.39,-7.32,-3.6,-0.92,454,491,428,482,328,5
1533,-0.16,-0.94,0.38,6.1,-5.0,0.18,454,492,430,481,320,5
1534,-0.15,-0.91,0.37,2.01,-4.09,-1.71,454,494,433,483,324,5
1535,-0.16,-0.91,0.36,-1.16,-1.59,-2.69,456,490,433,476,325,5
1536,-0.16,-0.93,0.41,-1.53,-5.31,-1.34,448,493,431,483,332,5
1537,-0.19,-0.91,0.41,-0.61,-1.28,-0.92,450,494,437,478,333,5
1538,-0.17,-0.9,0.34,3.78,-3.91,0.06,455,491,437,481,332,5
1539,-0.19,-0.9,0.37,0.43,-4.76,-5.19,453,509,438,485,332,5
1540,-0.22,-0.92,0.42,1.04,8.06,-2.08,458,494,441,482,334,5
1541,-0.19,-0.89,0.38,2.26,-9.34,-4.27,456,494,439,476,331,5
1542,-0.24,-0.91,0.42,-0.67,-2.87,-2.2,459,492,444,484,329,5
1543,-0.21,-0.89,0.38,4.21,-3.05,-1.28,461,492,444,482,332,5
1544,-0.19,-0.89,0.39,1.59,-3.36,-2.2,455,494,438,487,332,5
1545,-0.19,-0.93,0.42,-0.92,-3.78,-2.26,459,494,443,486,333,5
1546,-0.19,-0.93,0.41,0.37,-4.33,-3.48,457,495,439,481,329,5
1547,-0.18,-0.91,0.39,2.56,-0.92,-1.53,458,497,436,483,330,5
1548,-0.18,-0.9,0.36,2.38,-1.65,-1.95,457,498,439,483,328,5
1549,-0.18,-0.9,0.36,3.66,-3.91,-0.85,458,493,439,487,331,5
1550,-0.19,-0.92,0.38,-1.95,-2.87,-3.23,458,494,441,484,332,5
1551,-0.17,-0.93,0.4,-5.98,-1.53,-4.52,457,496,437,484,329,5
1552,-0.14,-0.94,0.28,-24.48,-3.72,-11.29,457,496,435,482,328,5
1553,-0.16,-0.94,0.22,0.06,-9.28,-1.28,456,493,436,486,330,5
1554,-0.13,-0.96,0.25,0.67,-6.47,-4.33,456,497,434,479,331,5
1555,-0.13,-0.96,0.25,1.53,-3.48,-3.05,456,497,441,483,331,5
1556,-0.12,-0.95,0.22,2.14,-1.83,-2.14,459,493,436,486,330,5
1557,-0.14,-0.96,0.25,1.46,-5.43,-2.32,458,493,442,483,332,5
1558,-0.13,-0.96,0.28,1.16,-3.23,-2.99,456,496,436,483,332,5
1559,-0.15,-0.96,0.27,0.79,-2.14,-2.2,464,495,441,485,332,5
1560,-0.13,-0.94,0.25,3.23,-2.81,-1.65,456,496,440,483,333,5
1561,-0.12,-0.96,0.27,0.24,-3.85,-3.05,456,495,443,480,332,5
1562,-0.13,-0.96,0.26,0.79,-3.54,-2.81,457,494,440,477,334,5
1563,-0.13,-0.95,0.26,3.42,-3.42,-1.04,457,496,441,481,332,5
1564,-0.12,-0.95,0.25,2.75,-1.71,-1.83,455,492,443,485,329,5
1565,-0.13,-0.94,0.25,3.54,-5.68,-2.56,455,495,438,485,333,5
1566,-0.13,-0.95,0.28,0.18,-4.15,-1.16,456,494,439,487,333,5
1567,-0.15,-0.95,0.27,-0.37,-2.93,-3.05,456,493,438,486,332,5
1568,-0.14,-0.95,0.26,1.22,-6.53,0.61,458,494,437,479,332,5
1569,-0.15,-0.94,0.27,2.26,-4.94,0.43,453,494,438,482,331,5
1570,-0.15,-0.96,0.29,-1.04,-3.85,-3.17,454,494,441,485,334,5
1571,-0.14,-0.94,0.28,4.52,-2.44,0.37,456,489,440,484,332,5
1572,-0.04,-0.94,0.24,-4.33,1.71,-12.94,459,490,437,482,332,5
1573,-0.13,-0.96,0.27,-0.55,0.12,-5.68,457,493,439,481,333,5
1574,-0.09,-0.96,0.24,-0.73,0.24,-4.94,455,492,440,492,333,5
1575,-0.08,-0.96,0.24,0.31,-4.09,-3.11,455,491,434,483,333,5
1576,-0.11,-0.98,0.27,-2.01,-0.61,-3.91,454,493,438,481,332,5
1577,-0.13,-0.96,0.26,0.43,-2.69,-2.26,455,493,440,481,331,5
1578,-0.13,-0.95,0.24,2.99,-2.26,-1.59,457,494,433,480,329,5
1579,-0.12,-0.96,0.25,-1.34,-2.69,-3.48,454,494,438,482,330,5
1580,-0.08,-0.96,0.22,-2.38,-3.6,-4.09,454,495,437,486,327,5
1581,-0.09,-0.98,0.23,-2.38,-0.85,-8.85,455,493,432,480,328,5
1582,-0.08,-0.97,0.24,0.06,-1.04,-4.94,456,493,435,484,329,5
1583,-0.07,-0.97,0.23,-0.61,-2.14,-4.03,455,496,437,478,329,5
1584,-0.07,-0.97,0.24,0.92,-6.35,-1.83,452,495,437,477,329,5
1585,-0.08,-0.97,0.24,1.34,-4.09,-2.2,453,495,435,480,330,5
1586,-0.09,-0.97,0.25,0.49,-3.23,-2.56,455,495,436,483,330,5
1587,-0.09,-0.97,0.25,0.92,-3.72,-2.75,457,493,434,484,330,5
1588,-0.1,-0.97,0.26,-0.18,-2.75,-2.26,455,491,435,479,328,5
1589,-0.09,-0.97,0.26,-0.67,-2.44,-3.54,451,497,434,483,331,5
1590,-0.08,-0.96,0.24,2.56,-2.2,-1.28,454,505,439,482,329,5
1591,-0.07,-0.96,0.23,1.71,-7.51,-2.75,454,491,436,481,326,5
1592,-0.09,-0.97,0.24,0.73,-2.69,-2.87,456,493,435,484,327,5
1593,-0.09,-0.97,0.27,-0.37,-1.1,-3.23,451,494,436,480,329,5
1594,-0.09,-0.97,0.26,0.43,-7.14,-3.72,452,496,443,485,327,5
1595,-0.08,-0.96,0.23,0.55,-1.34,-3.11,453,501,437,481,332,5
1596,-0.07,-0.97,0.25,0.98,-3.6,-2.87,457,493,436,481,330,5
1597,-0.08,-0.97,0.27,-1.95,-3.48,-4.21,456,494,437,476,330,5
1598,-0.08,-0.97,0.25,0.43,-4.64,-0.85,454,496,435,484,332,5
1599,-0.08,-0.96,0.24,2.32,-4.52,-1.65,457,491,436,483,329,5
1600,-0.08,-0.95,0.25,4.52,-2.75,-0.79,452,494,435,477,326,5
1601,-0.08,-0.95,0.26,0.24,-3.91,-3.05,456,497,437,480,330,5
1602,-0.08,-0.96,0.27,-1.34,-3.05,-2.62,453,493,437,489,328,5
1603,-0.07,-0.96,0.26,2.87,-2.08,-1.83,453,492,436,481,328,5
1604,-0.09,-0.96,0.25,1.53,-2.38,-1.95,457,489,439,482,329,5
1605,-0.09,-0.96,0.25,0.85,-2.44,-2.26,453,492,441,475,331,5
1606,-0.09,-0.96,0.25,0.31,-0.73,-2.56,452,492,435,483,332,5
1607,-0.09,-0.96,0.25,0.18,-1.59,-3.66,453,498,431,483,330,5
1608,-0.09,-0.96,0.24,-0.06,-2.81,-3.36,453,493,435,480,331,5
1609,-0.1,-0.97,0.26,-1.59,0.0,-3.11,453,496,433,484,329,5
1610,-0.09,-0.96,0.25,1.04,-2.44,-2.2,457,496,436,481,333,5
1611,-0.07,-0.97,0.23,0.31,-4.94,-2.44,455,489,435,482,329,5
1612,-0.07,-0.96,0.24,1.77,-4.58,-2.32,450,495,434,476,329,5
1613,-0.09,-0.97,0.25,0.49,-4.27,-3.48,453,495,435,483,331,5
1614,-0.08,-0.96,0.23,1.1,-1.34,-2.62,455,510,431,480,332,5
1615,-0.11,-0.98,0.24,0.92,5.86,-9.4,450,498,438,481,330,5
1616,-0.0,-0.97,0.2,-1.04,-0.67,-5.37,453,493,435,481,331,5
1617,0.01,-0.97,0.2,-1.04,-0.79,-5.74,452,492,435,482,331,5
1618,-0.0,-0.97,0.2,1.46,-4.94,-0.98,453,493,434,480,330,5
1619,-0.01,-0.99,0.23,-1.71,-2.5,-3.85,454,491,437,475,328,5
1620,-0.02,-0.97,0.22,-0.06,-3.66,-2.69,452,492,434,480,324,5
1621,0.0,-0.98,0.21,0.55,-2.32,-3.3,449,493,433,485,330,5
1622,-0.01,-0.98,0.22,0.55,-3.91,-1.34,455,492,435,482,325,5
1623,-0.02,-0.98,0.22,0.12,-4.88,-1.28,455,495,435,483,325,5
1624,-0.02,-0.97,0.23,-0.55,-3.72,-2.62,460,496,437,479,332,5
1625,-0.01,-0.98,0.21,1.89,-4.82,-1.71,452,502,433,480,333,5
1626,-0.02,-0.97,0.22,2.26,-1.89,-1.1,452,494,438,481,330,5
1627,-0.04,-0.97,0.22,-4.27,-3.11,4.76,452,496,433,477,332,5
1628,-0.05,-0.97,0.24,1.83,-1.46,-1.65,453,492,434,484,329,5
1629,-0.12,-0.96,0.23,3.91,15.14,2.62,450,489,431,483,331,5
1630,-0.09,-1.0,0.24,0.24,-4.58,-2.99,452,493,434,475,331,5
1631,-0.1,-0.97,0.25,-0.55,-4.88,-2.14,451,496,436,485,334,5
1632,-0.11,-0.97,0.25,-0.49,-0.18,-3.48,451,493,434,481,335,5
1633,-0.08,-0.96,0.23,1.4,-14.28,-4.94,452,492,436,485,330,5
1634,-0.08,-0.97,0.24,-2.87,-3.85,-2.62,449,493,434,480,331,5
1635,-0.07,-0.96,0.23,-0.79,-3.36,-3.11,450,492,433,483,331,5
1636,-0.06,-0.96,0.22,0.43,-2.44,-2.38,452,491,434,477,332,5
1637,-0.08,-0.97,0.24,-0.49,-3.23,-3.11,450,495,431,479,333,5
1638,-0.07,-0.97,0.24,0.49,-3.23,-3.05,451,495,432,481,331,5
1639,-0.08,-0.97,0.24,0.79,-3.17,-2.26,452,491,432,489,331,5
1640,-0.08,-0.97,0.25,-0.18,-3.72,-3.11,453,492,433,480,331,5
1641,-0.08,-0.97,0.27,0.79,-6.16,-2.26,450,495,442,484,330,5
1642,-0.08,-0.96,0.26,1.77,-4.64,-1.77,453,492,434,474,331,5
1643,-0.07,-0.96,0.25,0.24,-3.72,-2.56,453,492,433,481,333,5
1644,-0.08,-0.96,0.27,0.37,-2.38,-3.23,454,492,433,484,333,5
1645,-0.06,-0.98,0.26,-0.24,-3.23,-3.11,454,487,436,480,333,5
1646,-0.06,-0.97,0.26,1.59,2.44,-3.66,452,494,434,479,327,5
1647,-0.08,-0.97,0.25,-0.92,-3.85,-2.99,449,490,432,474,332,5
1648,-0.07,-0.97,0.25,1.59,-1.28,-2.87,452,489,435,493,331,5
1649,-0.07,-0.97,0.25,2.44,-4.76,-0.98,451,491,428,480,328,5
1650,-0.07,-0.96,0.25,0.12,-4.27,-1.89,449,499,427,479,328,5
1651,-0.07,-0.97,0.25,2.26,-3.54,-0.92,453,490,431,483,327,5
1652,-0.07,-0.96,0.25,-0.31,-0.92,-4.46,453,492,434,482,328,5
1653,-0.05,-0.97,0.26,-0.85,-2.93,-5.37,451,491,430,480,333,5
1654,-0.02,-0.97,0.21,3.66,-7.87,2.08,454,498,432,473,329,5
1655,-0.12,-0.95,0.33,3.78,-3.36,-0.43,450,492,427,482,329,5
1656,-0.1,-0.95,0.28,0.73,-3.11,-1.22,448,492,430,483,332,5
1657,-0.13,-0.94,0.3,1.95,-3.91,-1.89,451,492,428,478,328,5
1658,-0.11,-0.94,0.29,-0.06,-3.66,-3.78,453,492,426,479,327,5
1659,-0.11,-0.95,0.3,0.0,-5.07,-3.97,451,493,435,480,327,5
1660,-0.1,-0.95,0.3,1.22,-5.19,-1.65,452,490,429,479,328,5
1661,-0.08,-0.94,0.28,2.14,-2.44,-0.61,453,492,426,483,325,5
1662,-0.12,-0.95,0.32,2.93,-3.66,0.85,445,491,431,478,332,5
1663,-0.11,-0.96,0.3,0.79,0.61,-3.11,448,494,425,480,329,5
1664,-0.11,-0.95,0.3,-0.18,-2.75,-1.59,451,490,431,481,330,5
1665,-0.08,-0.95,0.28,0.55,-4.58,-4.52,452,492,424,481,329,5
1666,-0.08,-0.95,0.29,1.16,-4.33,-4.82,450,492,431,483,333,5
1667,-0.06,-0.95,0.3,1.4,-1.71,-1.89,454,489,429,479,326,5
1668,-0.1,-0.95,0.29,-2.62,-0.61,-4.21,450,492,428,473,338,5
1669,-0.1,-0.95,0.3,1.16,-4.46,-2.14,451,495,426,474,332,5
1670,-0.08,-0.95,0.29,0.85,-3.11,-1.22,450,489,429,473,332,5
1671,-0.1,-0.95,0.29,-1.16,-2.99,-2.69,450,490,426,480,330,5
1672,-0.08,-0.95,0.3,-1.28,-3.85,-2.69,450,491,430,483,332,5
1673,-0.07,-0.95,0.3,1.89,-3.3,-1.28,453,491,428,477,331,5
1674,-0.09,-0.95,0.3,-1.46,-2.87,-5.55,482,496,430,484,332,5
1675,-0.12,-0.94,0.32,0.55,-0.85,-3.05,450,491,430,481,330,5
1676,-0.1,-0.96,0.29,1.28,-4.03,-1.46,452,491,430,479,332,5
1677,-0.09,-0.94,0.32,2.32,-5.92,-0.92,451,489,427,481,328,5
1678,-0.11,-0.95,0.32,-2.87,-3.91,-5.62,450,491,424,492,330,5
1679,-0.09,-0.95,0.3,-0.12,-2.99,-2.38,446,489,426,482,335,5
1680,-0.09,-0.95,0.29,-1.95,-3.23,-4.64,463,492,429,478,332,5
1681,-0.08,-0.95,0.28,0.24,-2.93,-4.03,446,490,427,474,330,5
1682,-0.08,-0.95,0.29,0.73,-2.44,-2.62,449,489,432,483,331,5
1683,-0.08,-0.96,0.29,-0.73,-2.93,-3.66,449,494,424,475,328,5
1684,-0.08,-0.95,0.29,-0.18,-3.42,-2.99,448,492,424,482,326,5
1685,-0.09,-0.95,0.3,-0.67,-3.48,-3.97,448,494,429,480,328,5
1686,-0.09,-0.95,0.31,2.26,-4.27,-0.98,449,489,429,479,330,5
1687,-0.08,-0.95,0.32,2.38,-3.66,-0.24,445,491,430,474,330,5
1688,-0.07,-0.95,0.3,-1.1,-2.2,-5.0,449,493,429,479,332,5
1689,-0.09,-0.95,0.31,-0.12,-2.75,-2.14,452,491,427,483,329,5
1690,-0.1,-0.95,0.3,-0.61,-1.46,-2.75,452,492,427,485,329,5
1691,-0.1,-0.95,0.31,1.46,-3.3,0.0,449,491,427,477,331,5
1692,-0.1,-0.95,0.29,-4.21,-1.95,-6.35,450,491,427,480,333,5
1693,-0.06,-0.95,0.28,-0.24,-5.25,-1.1,451,492,428,479,332,5
1694,-0.07,-0.96,0.25,0.37,-1.77,-3.42,451,490,426,479,331,5
1695,-0.06,-0.98,0.25,-19.53,6.04,-10.19,449,494,427,473,326,5
1696,-0.04,-0.97,0.2,3.48,-5.43,-1.59,452,493,422,476,325,5
1697,-0.05,-0.97,0.22,1.71,-3.72,-2.81,447,493,421,480,324,5
1698,-0.04,-0.98,0.22,-0.12,-2.99,-3.54,452,490,423,475,328,5
1699,-0.05,-0.98,0.21,-8.91,-2.2,-3.17,451,488,412,470,300,5
1700,-0.05,-0.99,0.13,-4.15,2.93,1.22,451,490,416,470,307,5
1701,-0.04,-0.99,0.12,0.24,-5.0,-3.23,463,493,421,474,310,5
1702,-0.04,-1.0,0.11,-0.37,-5.74,-2.62,451,489,422,471,311,5
1703,-0.06,-0.99,0.1,1.59,-4.03,-1.83,451,492,421,471,309,5
1704,-0.04,-0.99,0.11,0.37,-3.11,-2.93,451,486,424,470,308,5
1705,-0.04,-1.0,0.1,-0.31,-3.78,-3.23,451,492,418,474,310,5
1706,-0.03,-0.99,0.09,-1.28,-1.46,-3.48,450,488,420,469,312,5
1707,-0.01,-0.99,0.03,4.27,-4.03,-1.04,446,486,418,462,307,5
1708,-0.03,-1.0,0.04,0.92,-3.6,-4.09,444,488,420,465,307,5
1709,-0.02,-0.99,0.05,-2.62,-6.35,0.12,446,489,417,462,302,5
1710,-0.05,-0.99,0.03,-0.49,-2.93,-2.38,449,493,422,461,307,5
1711,-0.06,-1.02,0.09,14.04,-2.08,2.5,447,492,427,469,309,5
1712,-0.15,-0.97,-0.11,-39.67,-5.31,16.17,447,490,421,466,314,5
1713,-0.03,-0.99,-0.06,4.15,-17.09,-0.79,441,491,426,461,313,5
1714,-0.37,-0.89,0.22,36.19,-25.15,24.48,444,487,428,466,314,5
1715,-0.34,-0.9,0.31,10.86,-3.36,3.48,438,490,435,467,324,5
1716,-0.35,-0.93,0.25,-4.03,-0.49,-4.94,448,488,429,456,330,5
1717,-0.34,-0.91,0.23,3.17,-8.06,-2.26,451,499,435,458,336,5
1718,-0.46,-0.96,0.24,-10.38,12.7,5.74,450,493,441,469,334,5
1719,-0.16,-0.98,0.2,-11.6,19.1,-12.94,448,492,438,468,333,5
1720,0.09,-0.95,-0.02,-24.84,13.31,-19.17,446,493,433,471,333,5
1721,-0.04,-1.02,0.03,2.38,-4.88,-2.38,449,490,432,474,335,5
1722,-0.0,-0.99,-0.04,-4.33,2.01,-5.8,449,488,435,471,335,5
1723,0.03,-1.0,-0.03,-2.32,5.07,-3.11,447,491,428,469,326,5
1724,0.02,-0.98,0.01,19.23,3.6,2.08,448,495,421,468,298,5
1725,0.03,-0.98,0.1,9.46,-1.77,-0.85,448,495,422,465,295,5
1726,0.03,-0.98,0.08,-2.99,-6.23,-2.99,451,489,418,469,301,5
1727,0.02,-1.0,0.12,3.85,-2.08,-1.16,449,493,419,469,299,5
1728,0.02,-1.0,0.13,-0.31,-3.6,-2.32,448,495,422,466,301,5
1729,0.02,-0.99,0.12,-1.83,-4.88,-2.14,448,489,423,465,300,5
1730,0.01,-0.99,0.12,-0.18,-3.05,-3.36,448,497,420,462,302,5
1731,0.02,-0.99,0.11,1.22,-2.87,-1.83,448,492,421,467,301,5
1732,0.02,-1.01,0.13,-0.12,-3.42,-2.5,448,492,417,468,301,5
1733,0.02,-0.98,0.12,1.71,-5.92,-1.77,451,500,421,468,301,5
1734,0.01,-0.99,0.12,-0.98,-3.72,-2.69,449,493,419,468,304,5
1735,0.02,-0.99,0.12,1.1,-3.17,-2.44,448,502,419,467,303,5
1736,0.0,-0.99,0.14,-0.37,-3.11,-2.38,447,492,420,468,305,5
1737,0.01,-1.0,0.13,-0.92,-2.32,-2.2,448,488,419,470,312,5
1738,0.01,-0.99,0.13,1.65,-3.72,-2.26,456,490,418,466,311,5
1739,0.01,-0.98,0.13,-0.85,-1.46,-3.42,449,490,416,466,311,5
1740,0.01,-0.99,0.13,2.44,-4.33,-1.71,443,493,418,470,312,5
1741,-0.01,-1.0,0.15,0.55,-3.48,-2.81,444,491,422,471,314,5
1742,-0.01,-0.99,0.15,-1.22,-4.09,-2.81,444,493,420,474,311,5
1743,-0.01,-0.99,0.16,0.43,-3.11,-3.05,446,501,420,470,314,5
1744,-0.02,-1.0,0.16,-4.64,-3.78,-3.66,441,495,420,475,313,5
1745,-0.06,-0.98,0.18,2.38,-4.7,-1.46,432,489,427,478,317,5
1746,-0.04,-0.97,0.15,-0.98,-1.95,-2.38,444,489,427,472,318,5
1747,-0.04,-0.97,0.18,-0.67,-4.27,-2.2,445,491,428,474,318,5
1748,-0.02,-0.98,0.19,-1.77,-3.11,-3.66,444,492,428,472,322,5
1749,-0.05,-0.98,0.18,-0.92,-2.87,-2.32,444,491,431,478,320,5
1750,-0.01,-0.98,0.15,-0.92,-5.0,-2.93,449,491,430,479,322,5
1751,-0.02,-0.99,0.14,-1.83,6.35,-4.94,448,498,432,478,322,5
1752,-0.03,-0.99,0.17,2.5,-3.54,-0.85,441,493,428,475,321,5
1753,-0.04,-0.98,0.17,0.24,-6.16,-1.83,442,493,433,473,323,5
1754,-0.02,-0.97,0.16,1.53,-2.14,-2.01,445,495,431,476,323,5
1755,-0.04,-0.98,0.16,3.11,-3.97,-2.56,442,490,433,473,325,5
1756,-0.03,-0.99,0.19,-0.73,-0.92,-3.78,443,493,429,476,326,5
1757,-0.04,-1.0,0.21,-0.49,-5.0,-2.87,440,493,429,479,326,5
1758,-0.05,-0.99,0.2,0.61,-1.22,-3.17,444,494,435,480,323,5
1759,-0.04,-0.99,0.19,-0.31,-2.69,-3.11,445,493,431,477,323,5
1760,-0.03,-0.98,0.16,-0.85,-2.93,-3.66,443,495,433,473,322,5
1761,-0.03,-0.99,0.18,0.43,-2.99,-2.75,443,493,433,479,322,5
1762,-0.02,-1.0,0.19,-0.37,-2.56,-3.05,445,496,436,476,325,5
1763,-0.02,-0.98,0.15,2.69,-3.11,-1.4,443,497,429,475,327,5
1764,-0.02,-0.98,0.15,-0.31,-3.72,-2.32,442,493,430,475,321,5
1765,-0.03,-0.98,0.15,3.23,-1.16,-1.34,444,492,427,469,325,5
1766,-0.03,-0.98,0.14,2.01,-4.7,-1.59,444,492,432,474,318,5
1767,-0.0,-0.99,0.19,-0.06,-4.15,-3.36,445,493,430,473,323,5
1768,0.01,-0.98,0.15,1.89,-6.16,-1.77,444,494,430,474,320,5
1769,-0.02,-0.98,0.15,0.73,-3.72,-2.81,444,493,429,474,323,5
1770,-0.03,-1.0,0.17,-2.2,-2.26,-2.81,447,494,429,471,323,5
1771,-0.02,-0.98,0.17,-0.37,-3.72,-2.56,442,494,426,478,321,5
1772,-0.02,-0.98,0.15,-1.1,-1.71,-2.99,460,495,430,471,322,5
1773,-0.02,-0.99,0.17,-0.73,-2.93,-2.87,444,493,431,479,321,5
1774,-0.02,-0.98,0.16,0.92,-2.2,-2.69,448,497,431,474,320,5
1775,-0.0,-0.98,0.13,-0.31,-2.75,-2.44,445,494,437,475,322,5
1776,-0.02,-0.99,0.17,-0.24,-2.56,-3.36,448,496,427,476,323,5
1777,-0.03,-0.99,0.16,1.28,-3.36,-1.95,446,493,428,476,319,5
1778,-0.03,-0.98,0.14,2.93,-4.58,-0.61,443,492,430,479,324,5
1779,-0.02,-0.97,0.14,3.05,-3.3,-2.08,444,493,430,472,325,5
1780,-0.02,-0.98,0.15,0.06,-2.62,-2.99,442,496,430,474,321,5
1781,-0.02,-0.99,0.16,-0.06,-2.38,-2.87,444,495,426,468,317,5
1782,-0.04,-0.99,0.14,-1.22,-2.2,-4.21,444,503,424,476,308,5
1783,-0.04,-0.99,0.14,-0.49,-5.25,-2.2,447,490,423,476,309,5
1784,-0.03,-0.99,0.13,1.04,-3.42,-1.59,445,494,424,471,313,5
1785,-0.04,-0.99,0.15,-0.12,-2.87,-1.89,445,493,424,473,314,5
1786,-0.04,-0.99,0.15,2.08,-2.87,-2.14,444,495,423,473,313,5
1787,-0.03,-0.97,0.13,0.61,-2.14,-2.87,447,492,427,471,314,5
1788,-0.05,-0.98,0.13,-0.12,-3.97,-2.14,445,492,427,475,313,5
1789,-0.04,-0.99,0.15,-0.31,-4.09,-3.23,446,496,430,475,311,5
1790,-0.04,-0.98,0.14,0.92,-3.48,-2.14,443,492,426,470,316,5
1791,-0.04,-0.98,0.13,1.65,-1.95,-1.4,446,493,423,474,311,5
1792,-0.04,-0.97,0.15,2.38,-3.85,-1.83,444,490,426,478,315,5
1793,-0.04,-0.99,0.19,0.92,-3.3,-2.38,440,494,427,474,317,5
1794,-0.02,-0.98,0.17,0.18,-2.01,-3.23,455,494,424,470,311,5
1795,-0.03,-0.98,0.17,-0.73,-5.55,-2.08,447,492,427,471,314,5
1796,-0.05,-0.97,0.16,0.61,-2.44,-2.5,446,493,423,468,318,5
1797,-0.04,-0.98,0.15,1.04,-2.75,-2.32,445,494,422,477,316,5
1798,-0.05,-0.98,0.17,-0.92,-3.97,-2.69,444,492,423,472,316,5
1799,-0.04,-0.98,0.16,-0.61,-2.08,-2.56,443,493,430,475,315,5
1800,-0.03,-0.98,0.15,1.53,-5.13,-2.01,447,490,434,477,312,5
1801,-0.02,-0.99,0.14,-0.06,-3.05,-2.69,444,489,425,477,316,5
1802,-0.03,-0.99,0.16,0.18,-2.62,-3.05,446,492,423,473,315,5
1803,-0.04,-0.99,0.17,-0.79,-2.44,-3.11,444,492,423,478,318,5
1804,-0.04,-0.98,0.17,1.1,-3.48,-3.05,446,495,427,473,317,5
1805,-0.04,-0.99,0.17,-1.71,-4.15,-3.78,447,493,420,473,316,5
1806,-0.04,-0.98,0.16,-0.55,-2.14,-3.36,444,495,425,474,315,5
1807,-0.04,-0.98,0.16,-0.49,-1.34,-3.48,444,493,428,474,313,5
1808,-0.05,-0.99,0.17,-0.73,-1.4,-2.69,444,495,424,477,315,5
1809,-0.04,-0.99,0.16,-1.34,-0.92,-2.87,443,494,424,473,316,5
1810,-0.04,-0.99,0.16,0.79,-3.54,-1.59,444,494,427,475,317,5
1811,-0.04,-0.99,0.13,-0.06,-1.83,-2.56,444,496,423,470,312,5
1812,-0.03,-0.99,0.13,0.73,-3.6,-3.23,459,494,424,477,317,5
1813,-0.03,-0.98,0.13,1.53,-4.39,-2.2,447,495,432,474,315,5
1814,-0.03,-0.98,0.13,1.34,-2.2,-2.2,446,489,423,476,315,5
1815,-0.03,-0.99,0.13,0.43,-2.81,-2.81,444,492,422,473,311,5
1816,-0.03,-0.99,0.14,-0.98,-2.2,-3.17,444,496,419,472,316,5
1817,-0.03,-0.99,0.14,0.31,-4.21,-1.71,437,492,423,469,319,5
1818,-0.04,-1.0,0.13,-1.53,-1.95,-2.14,448,495,423,472,317,5
1819,-0.03,-0.99,0.12,-1.59,-3.85,-2.93,447,496,423,474,316,5
1820,-0.03,-0.99,0.11,-0.18,-0.98,-2.81,444,490,422,467,317,5
1821,-0.03,-0.99,0.1,-1.22,-3.48,-3.66,445,495,421,477,315,5
1822,-0.03,-1.0,0.1,-2.32,-2.26,-3.85,446,495,425,474,318,5
1823,-0.01,-0.99,0.08,2.32,-3.48,-1.95,444,494,421,474,320,5
1824,-0.03,-0.99,0.1,1.4,-2.81,-2.44,442,492,421,472,319,5
1825,-0.02,-1.0,0.11,1.89,-4.46,-1.22,446,492,423,473,318,5
1826,-0.04,-0.99,0.12,-0.06,-1.83,-2.56,442,491,426,473,319,5
1827,-0.02,-1.0,0.12,-0.12,-2.38,-2.81,450,494,422,472,318,5
1828,-0.04,-0.99,0.12,-1.04,-3.48,-2.69,460,489,420,473,320,5
1829,-0.03,-0.99,0.11,-0.85,-2.2,-3.05,445,499,429,474,320,5
1830,-0.03,-0.99,0.1,-1.95,-3.11,-3.85,446,489,423,473,319,5
1831,-0.04,-0.99,0.08,0.79,-0.31,-1.89,439,493,423,474,319,5
1832,-0.01,-0.99,0.08,0.0,-2.87,-3.48,440,488,423,473,314,5
1833,-0.03,-0.99,0.08,-0.98,-3.11,-3.17,445,494,425,472,313,5
1834,-0.02,-0.99,0.08,-0.67,-4.27,-2.62,444,491,422,472,317,5
1835,-0.03,-0.99,0.08,1.95,-4.03,-2.32,443,492,421,477,320,5
1836,-0.03,-0.99,0.09,2.44,-2.14,-1.77,440,490,425,473,318,5
1837,-0.03,-0.98,0.07,-2.2,2.87,0.43,444,489,422,473,318,5
1838,-0.03,-0.99,0.07,1.65,-4.64,-1.46,442,496,424,485,315,5
1839,-0.05,-1.0,0.08,-1.53,-2.87,-2.69,443,492,424,472,318,5
1840,-0.04,-1.0,0.08,0.61,-3.17,-2.5,445,506,423,477,321,5
1841,-0.03,-0.99,0.06,1.1,-5.92,-2.38,444,504,425,474,317,5
1842,-0.04,-0.99,0.07,0.06,-1.77,-2.87,444,493,427,475,320,5
1843,-0.04,-1.0,0.08,-1.04,-2.26,-3.54,443,494,419,470,320,5
1844,-0.04,-1.0,0.07,-0.98,-2.62,-3.3,445,492,423,473,320,5
1845,-0.03,-1.0,0.07,-0.43,-2.38,-2.87,443,493,427,468,319,5
1846,-0.02,-0.99,0.05,4.33,-5.25,-3.97,442,493,421,475,320,5
1847,-0.03,-0.99,0.08,-1.04,-3.3,-2.08,440,491,421,473,317,5
1848,-0.03,-1.0,0.06,-0.37,-4.09,-2.32,445,488,423,476,317,5
1849,-0.04,-0.99,0.05,1.95,-4.15,-2.14,441,492,424,475,321,5
1850,-0.04,-0.99,0.07,1.04,-4.39,-2.14,441,492,419,472,320,5
1851,-0.05,-0.99,0.08,-0.55,-5.13,-2.32,445,493,425,476,314,5
1852,-0.03,-0.99,0.07,0.18,-2.5,-2.62,445,495,424,471,318,5
1853,-0.03,-1.0,0.09,0.31,-2.5,-2.26,443,496,419,473,321,5
1854,-0.03,-0.99,0.07,0.18,-3.42,-2.56,445,495,423,474,317,5
1855,-0.04,-1.0,0.07,-0.55,-2.26,-3.48,450,491,422,470,316,5
1856,-0.04,-1.0,0.07,-0.67,-2.81,-2.5,444,493,424,475,318,5
1857,-0.03,-1.0,0.06,-1.65,-3.42,-3.05,442,488,426,466,317,5
1858,-0.04,-1.0,0.05,0.43,-2.99,-2.99,443,494,422,476,317,5
1859,-0.05,-1.0,0.05,-0.37,-3.6,-2.93,444,492,420,475,321,5
1860,-0.02,-0.99,0.05,-1.16,-4.15,-3.36,442,488,421,473,322,5
1861,-0.02,-0.99,0.05,-1.1,-5.31,-2.2,442,490,422,473,321,5
1862,-0.03,-0.99,0.05,1.04,-3.85,-1.95,439,490,426,475,318,5
1863,-0.04,-0.99,0.06,0.12,-2.01,-2.93,442,494,422,472,318,5
1864,-0.03,-0.99,0.04,0.43,-1.34,-1.89,443,490,424,474,313,5
1865,-0.03,-0.99,0.05,0.12,-2.32,-2.5,441,493,421,477,317,5
1866,-0.03,-0.99,0.04,-0.43,-3.17,-2.44,441,490,422,472,317,5
1867,-0.03,-1.01,0.03,-2.87,-3.97,-3.3,441,490,418,465,317,5
1868,-0.02,-1.0,-0.01,-0.67,-2.5,-2.38,439,492,423,472,317,5
1869,-0.03,-1.0,-0.01,-0.24,-2.2,-1.83,442,492,423,470,316,5
1870,-0.04,-0.99,-0.01,2.14,-1.65,-2.75,439,491,422,473,318,5
1871,-0.04,-1.0,-0.01,0.73,-2.62,-2.32,443,493,423,476,317,5
1872,-0.01,-0.99,0.01,2.2,-7.45,-0.43,444,492,427,472,312,5
1873,-0.03,-0.99,-0.01,0.67,-5.13,-1.71,440,494,423,471,314,5
1874,-0.05,-1.0,0.0,-2.87,-2.69,-2.56,444,491,423,466,312,5
1875,-0.04,-1.0,-0.0,-0.49,-4.58,-2.5,442,492,425,470,318,5
1876,-0.05,-1.0,0.02,-0.55,-1.04,-3.66,453,490,424,472,313,5
1877,-0.04,-0.99,0.0,0.79,-4.52,-2.2,444,491,419,471,316,5
1878,-0.04,-1.0,0.0,0.06,-3.78,-1.77,441,493,418,474,315,5
1879,-0.04,-1.0,-0.01,0.12,-3.17,-2.26,438,492,422,474,314,5
1880,-0.03,-1.0,-0.02,-1.34,-3.23,-2.87,442,494,424,476,319,5
1881,-0.05,-0.99,-0.01,1.65,-3.42,-2.08,442,495,420,471,314,5
1882,-0.03,-1.0,-0.02,0.67,-3.05,-2.26,473,492,423,472,321,5
1883,-0.04,-1.0,-0.01,2.81,-3.91,-1.16,441,497,424,473,319,5
1884,-0.04,-1.0,0.02,0.55,-2.81,-2.69,438,491,422,471,317,5
1885,-0.04,-1.0,0.01,-1.46,-2.99,-3.78,439,489,423,474,317,5
1886,-0.04,-1.0,0.01,-1.77,-3.3,-3.05,458,492,426,479,314,5
1887,-0.04,-0.99,-0.0,-1.04,-3.05,-2.56,436,495,420,471,317,5
1888,-0.03,-0.99,-0.01,1.22,-2.69,-2.32,441,490,429,472,316,5
1889,-0.03,-1.0,-0.01,-2.14,-5.31,-2.38,444,488,426,470,318,5
1890,-0.04,-1.0,-0.01,-1.28,-2.01,-2.99,440,491,424,472,316,5
1891,-0.01,-0.99,-0.02,-0.79,-2.14,-3.97,441,488,423,473,316,5
1892,-0.03,-1.0,-0.03,0.85,-4.39,-1.53,437,494,423,470,313,5
1893,-0.03,-1.0,-0.01,1.22,-4.15,-1.65,440,492,426,471,314,5
1894,-0.04,-1.0,-0.01,3.42,-4.09,-1.53,442,492,424,472,317,5
1895,-0.05,-1.0,0.02,1.16,-3.48,-2.01,472,489,422,475,318,5
1896,-0.05,-1.0,0.02,0.18,-3.3,-2.38,441,491,423,472,318,5
1897,-0.04,-0.99,0.01,0.12,-2.32,-2.87,441,492,422,475,315,5
1898,-0.04,-0.99,0.01,-2.44,-4.39,-2.56,438,497,424,472,319,5
1899,-0.04,-0.99,-0.0,2.93,-2.81,-1.83,440,491,426,472,322,5
1900,-0.04,-0.99,-0.0,0.73,-4.03,-3.23,443,488,425,475,323,5
1901,-0.04,-1.0,0.0,-0.12,-2.26,-2.93,443,493,421,476,318,5
1902,-0.05,-1.0,0.0,-0.55,-5.55,-2.81,440,493,426,473,316,5
1903,-0.03,-1.0,-0.01,-0.12,-3.91,-2.75,440,491,425,476,316,5
1904,-0.03,-0.99,-0.01,-0.61,-4.15,-3.48,441,490,423,471,317,5
1905,-0.04,-0.99,-0.02,-1.04,-3.97,-2.2,446,492,425,471,322,5
1906,-0.04,-1.0,-0.01,1.22,-4.7,-1.95,462,491,421,466,318,5
1907,-0.04,-1.0,-0.0,1.46,-2.62,-2.99,437,494,423,471,318,5
1908,-0.04,-0.99,-0.01,2.93,-4.21,-1.83,440,491,425,471,318,5
1909,-0.04,-1.0,-0.01,0.37,-2.38,-2.26,440,490,425,471,320,5
1910,-0.04,-0.99,-0.01,1.16,-3.6,-1.77,440,493,424,479,317,5
1911,-0.04,-0.99,-0.01,0.43,-1.71,-2.62,438,494,418,471,320,5
1912,-0.04,-0.99,-0.02,-0.73,-1.77,-2.26,441,490,424,475,316,5
1913,-0.04,-0.99,-0.02,0.55,-3.97,-1.65,441,491,421,474,318,5
1914,-0.04,-0.99,-0.03,-0.06,-2.08,-2.69,443,491,421,471,318,5
1915,-0.04,-0.99,-0.01,0.49,-3.66,-2.08,440,491,419,469,318,5
1916,-0.04,-1.0,0.0,-0.18,-3.17,-2.87,439,491,427,473,320,5
1917,-0.04,-0.99,-0.02,0.73,-3.11,-2.75,440,488,421,474,320,5
1918,-0.04,-0.99,-0.02,1.71,-3.05,-2.5,439,491,425,475,318,5
1919,-0.04,-1.0,-0.0,2.14,-3.05,-2.2,438,491,422,474,319,5
1920,-0.04,-0.99,0.0,3.72,-2.26,-2.14,439,494,423,476,316,5
1921,-0.05,-1.0,0.01,0.06,-2.62,-2.62,439,493,423,476,321,5
1922,-0.04,-0.99,-0.0,0.06,-3.78,-2.5,439,490,424,475,319,5
1923,-0.04,-0.99,0.01,1.95,-3.91,-1.59,438,493,420,474,318,5
1924,-0.04,-0.99,-0.01,-0.37,-3.48,-3.05,433,492,423,471,318,5
1925,-0.04,-0.99,-0.01,-0.06,-3.05,-3.42,441,504,426,472,317,5
1926,-0.04,-0.99,0.01,-0.37,-3.78,-3.54,439,490,421,468,320,5
1927,-0.04,-1.0,0.01,0.12,-3.3,-2.62,436,492,417,472,316,5
1928,-0.05,-0.99,-0.0,0.73,-3.23,-2.81,440,492,422,474,318,5
1929,-0.03,-1.0,0.0,-0.98,-2.93,-3.66,439,492,421,471,320,5
1930,-0.04,-1.0,0.01,-0.06,-2.87,-3.17,441,494,421,469,318,5
1931,-0.05,-1.0,0.0,0.06,-4.15,-2.62,441,491,421,470,320,5
1932,-0.04,-1.0,-0.0,1.28,-3.17,-1.95,440,490,422,470,321,5
1933,-0.05,-1.0,0.0,-0.12,-1.53,-2.32,439,490,424,466,320,5
1934,-0.04,-1.0,-0.0,1.65,-2.32,-2.32,441,494,422,471,320,5
1935,-0.04,-0.99,-0.0,1.53,-3.6,-2.62,441,495,421,469,319,5
1936,-0.02,-0.99,-0.01,1.77,-4.21,-1.77,439,492,424,467,319,5
1937,-0.05,-1.0,0.02,0.55,-2.14,-2.5,439,490,424,473,318,5
1938,-0.05,-1.0,-0.0,0.37,-3.36,-2.93,440,490,421,466,321,5
1939,-0.04,-0.99,-0.01,0.85,-0.98,-2.08,436,494,420,470,314,5
1940,-0.04,-1.01,0.01,-1.1,-6.16,-2.08,439,491,421,472,317,5
1941,-0.04,-1.0,0.01,-0.85,-3.72,-2.93,438,491,421,476,318,5
1942,-0.04,-0.99,0.0,0.85,-2.75,-2.5,439,492,422,472,320,5
1943,-0.05,-0.99,-0.0,0.31,-2.62,-2.44,442,501,421,472,317,5
1944,-0.04,-1.0,-0.0,0.37,-3.11,-2.2,439,490,421,474,315,5
1945,-0.04,-1.0,-0.0,0.49,-3.72,-2.5,440,493,419,475,316,5
1946,-0.05,-1.01,0.01,-0.18,-2.81,-2.87,438,490,422,475,316,5
1947,-0.04,-0.99,-0.0,0.79,-2.93,-2.93,442,491,421,466,316,5
1948,-0.04,-0.99,0.01,1.46,-3.54,-2.44,439,491,421,471,326,5
1949,-0.06,-1.0,-0.0,1.04,-3.54,-2.14,439,495,423,474,321,5
1950,-0.05,-0.97,-0.0,0.98,-2.93,-2.14,438,492,423,475,320,5
1951,-0.05,-0.99,-0.0,-0.61,-3.72,-3.36,438,490,420,475,314,5
1952,-0.04,-1.0,0.01,-0.43,-2.44,-2.56,437,491,421,471,320,5
1953,-0.05,-1.0,0.0,-1.1,-2.99,-2.75,435,494,423,482,318,5
1954,-0.05,-1.01,0.0,-0.18,-1.95,-2.56,438,491,419,475,317,5
1955,-0.05,-0.99,-0.01,-0.18,-2.75,-2.75,440,491,421,472,319,5
1956,-0.05,-0.98,-0.03,1.28,-3.3,-1.59,438,493,420,475,317,5
1957,-0.04,-1.0,-0.0,0.49,-2.56,-2.2,440,490,420,472,315,5
1958,-0.05,-1.0,-0.01,-0.06,-2.93,-3.05,439,501,420,475,319,5
1959,-0.05,-1.0,-0.02,-0.24,-2.99,-3.54,441,491,425,467,318,5
1960,-0.05,-1.0,-0.01,0.73,-4.52,-2.32,439,490,420,471,317,5
1961,-0.05,-1.0,-0.01,1.16,-2.75,-2.26,438,493,420,471,316,5
1962,-0.05,-1.0,0.0,1.53,-1.89,-2.38,445,492,427,473,317,5
1963,-0.06,-1.0,0.0,-0.55,-2.14,-2.62,439,491,420,476,321,5
1964,-0.05,-1.0,0.0,-0.49,-3.54,-2.32,436,491,423,473,320,5
1965,-0.04,-1.0,-0.01,0.0,-3.48,-2.5,437,506,420,470,317,5
1966,-0.05,-1.0,-0.0,1.28,-3.48,-2.08,435,493,435,473,314,5
1967,-0.05,-1.0,-0.01,0.31,-0.55,-2.99,438,490,419,465,319,5
1968,-0.04,-1.0,-0.02,0.12,-3.48,-3.36,445,491,420,468,319,5
1969,-0.05,-0.99,-0.03,0.24,-3.48,-2.32,439,490,416,469,315,5
1970,-0.06,-0.99,-0.02,0.12,-2.38,-2.62,440,489,418,471,315,5
1971,-0.04,-0.99,-0.03,1.65,-3.3,-1.65,438,491,424,471,319,5
1972,-0.05,-0.99,-0.02,1.22,-2.81,-2.26,440,491,420,468,318,5
1973,-0.04,-1.0,-0.01,1.95,-3.36,-2.14,439,488,423,475,318,5
1974,-0.06,-0.99,-0.01,2.08,-1.71,-2.62,437,497,421,472,320,5
1975,-0.09,-1.01,0.02,-3.91,2.99,5.25,438,494,419,471,320,5
1976,-0.08,-0.98,-0.12,-14.16,-2.93,-0.43,439,492,419,474,316,5
1977,-0.09,-0.99,-0.07,4.76,7.93,-7.93,440,490,420,466,316,5
1978,-0.1,-1.02,-0.11,-1.16,-4.33,-1.16,436,487,423,467,318,5
1979,-0.14,-0.99,-0.04,-1.1,-3.66,-3.66,434,498,426,465,321,5
1980,-0.12,-1.0,-0.04,-0.73,-2.01,-4.76,435,491,423,469,323,5
1981,-0.1,-0.99,-0.06,0.49,-5.0,-2.62,436,492,433,467,322,5
1982,-0.1,-0.99,-0.06,0.37,-3.85,-3.54,435,494,421,466,320,5
1983,-0.1,-1.0,-0.04,0.31,-3.11,-1.83,437,492,421,469,320,5
1984,-0.11,-1.0,-0.02,-0.85,-2.44,-2.08,436,488,419,469,320,5
1985,-0.1,-0.99,-0.05,-1.04,-2.14,-3.42,438,491,418,471,319,5
1986,-0.1,-0.99,-0.06,0.06,-0.61,-2.32,456,491,422,470,320,5
1987,-0.11,-0.99,-0.05,0.98,-0.85,-1.77,459,492,420,467,322,5
1988,-0.1,-0.98,-0.06,1.53,-1.34,-1.53,436,495,419,473,320,5
1989,-0.11,-0.99,-0.07,-0.92,-2.01,-3.36,439,493,423,469,320,5
