,aX,aY,aZ,gX,gY,gZ,little,ring,middle,index,thumb,number
0,0.4,0.65,0.62,-31.25,73.67,-131.84,180,260,376,441,314,6
1,0.08,0.73,0.83,-6.9,9.89,-3.85,210,257,385,440,313,6
2,0.12,0.5,0.86,-5.86,0.31,6.41,197,261,375,446,313,6
3,0.05,0.55,0.89,5.19,-0.31,-10.44,186,260,372,445,316,6
4,0.15,0.63,0.9,-47.67,71.66,-105.41,184,263,370,453,322,6
5,0.08,0.49,0.82,-3.66,-0.06,1.89,188,265,378,446,320,6
6,0.08,0.59,0.85,16.91,-4.52,-15.81,190,264,374,446,322,6
7,0.05,0.55,0.84,-0.61,-0.85,-3.36,187,264,373,440,316,6
8,0.01,0.58,0.86,0.31,-8.48,3.11,192,263,371,450,322,6
9,-0.01,0.6,0.85,4.58,-2.32,-0.79,192,266,369,449,324,6
10,0.03,0.58,0.81,13.12,-1.65,-7.57,190,265,370,447,321,6
11,0.02,0.61,0.8,-1.16,-3.3,-1.46,190,269,367,449,323,6
12,0.04,0.61,0.81,0.18,-3.66,-3.05,193,269,373,449,324,6
13,0.04,0.6,0.81,-2.5,-3.36,-3.66,191,278,374,449,325,6
14,0.05,0.58,0.81,0.06,-2.87,-3.97,206,269,372,448,325,6
15,0.02,0.59,0.81,3.54,0.18,-4.7,195,268,369,451,323,6
16,0.05,0.61,0.8,-4.15,-4.46,-1.53,200,276,371,447,322,6
17,0.02,0.59,0.82,-0.18,-0.18,-5.49,194,271,371,443,326,6
18,-0.06,0.62,0.82,2.32,5.55,-5.62,187,257,368,455,328,6
19,-0.06,0.6,0.81,0.98,-3.17,-7.87,197,257,368,433,335,6
20,0.01,0.53,0.81,0.31,-9.58,15.81,181,259,368,444,320,6
21,0.26,0.54,0.76,11.29,-47.49,83.25,184,258,369,443,318,6
22,0.04,0.64,0.8,4.58,3.72,-11.29,187,256,366,442,324,6
23,0.02,0.59,0.76,-9.64,-0.31,-7.39,180,254,371,446,334,6
24,0.03,0.59,0.79,-10.31,0.85,8.54,183,254,370,449,331,6
25,-0.04,0.61,0.8,0.85,4.39,-14.59,184,259,370,442,331,6
26,-0.03,0.61,0.8,2.14,-7.51,2.38,185,262,371,449,331,6
27,-0.05,0.61,0.79,2.81,-4.21,-2.44,185,262,367,443,330,6
28,-0.07,0.63,0.77,9.03,1.83,-22.34,185,265,370,450,328,6
29,-0.07,0.63,0.71,23.56,-4.58,11.41,186,262,370,446,325,6
30,-0.1,0.8,0.66,1.77,-10.74,3.54,184,263,369,450,331,6
31,-0.13,0.82,0.64,26.49,-8.61,23.07,190,264,375,450,331,6
32,-0.01,0.84,0.55,1.1,47.49,-28.2,188,266,369,454,332,6
33,0.03,0.93,0.56,-14.16,-14.83,2.5,187,263,372,447,333,6
34,0.02,0.84,0.55,-3.78,-12.39,1.65,185,263,369,450,332,6
35,-0.01,0.68,0.61,-18.62,-11.96,-2.69,183,265,370,442,333,6
36,0.04,0.98,0.68,23.56,-12.82,18.62,191,267,368,446,331,6
37,0.06,0.79,0.61,3.42,-2.87,-1.04,190,272,368,450,335,6
38,0.09,1.07,0.63,7.81,-32.29,19.78,189,266,370,446,333,6
39,0.09,0.92,0.67,0.92,21.91,-30.76,191,270,370,449,333,6
40,-0.13,0.8,0.63,4.7,-22.89,7.93,190,269,367,446,333,6
41,-0.06,0.81,0.66,0.55,5.98,-2.26,193,267,368,450,336,6
42,-0.09,0.78,0.7,13.37,-16.66,12.27,188,266,372,447,337,6
43,-0.12,0.79,0.6,-2.26,-4.52,2.62,190,274,369,455,333,6
44,-0.06,0.81,0.59,1.53,-1.83,-7.87,190,267,373,456,339,6
45,-0.1,0.79,0.61,2.56,-2.87,-0.06,194,269,372,455,338,6
46,-0.1,0.85,0.65,6.59,0.85,-4.58,201,267,369,455,337,6
47,-0.01,0.84,0.66,-4.64,-40.04,32.78,194,270,368,451,338,6
48,-0.09,0.7,0.61,-5.74,45.9,-47.0,188,267,369,452,337,6
49,-0.22,0.69,0.59,-12.15,-26.61,13.85,192,270,369,451,340,6
50,-0.09,0.78,0.68,-11.72,-29.66,26.73,191,271,368,445,338,6
51,-0.04,0.76,0.7,14.34,1.28,-3.11,190,270,372,450,336,6
52,0.11,0.76,0.64,-6.71,14.89,-19.47,194,269,370,451,340,6
53,0.14,0.73,0.64,12.08,-0.24,-9.58,196,271,374,449,337,6
54,-0.02,0.72,0.64,0.92,-7.69,6.47,194,270,367,454,341,6
55,0.09,0.79,0.64,-6.04,-1.89,-5.07,195,272,368,449,337,6
56,0.06,0.77,0.66,-2.14,-0.73,-4.94,192,272,367,455,340,6
57,0.06,0.76,0.65,0.49,-3.17,-4.39,194,270,367,452,339,6
58,0.04,0.78,0.66,3.05,-2.56,-4.7,193,272,367,452,335,6
59,0.04,0.76,0.66,0.37,-1.89,-2.32,194,274,370,447,336,6
60,0.04,0.75,0.66,1.1,-5.13,-1.22,192,275,370,453,333,6
61,0.06,0.76,0.65,-4.64,-5.68,-0.31,224,279,372,453,335,6
62,0.06,0.76,0.65,7.39,-5.8,-2.56,194,274,372,449,337,6
63,0.06,0.77,0.64,0.98,-1.22,-3.85,197,271,370,451,338,6
64,0.06,0.77,0.64,0.49,-4.15,-3.36,197,273,369,449,338,6
65,0.08,0.78,0.63,-0.43,-4.33,-1.83,203,271,371,451,337,6
66,0.07,0.78,0.64,0.06,-4.09,-2.2,198,275,371,451,338,6
67,0.06,0.77,0.63,1.04,-3.23,-3.17,211,276,370,451,337,6
68,0.06,0.78,0.64,0.98,-3.17,-2.5,195,273,372,451,334,6
69,0.06,0.77,0.64,0.85,-1.77,-3.72,198,279,370,451,338,6
70,0.06,0.79,0.64,1.22,-3.17,-2.99,195,274,371,451,340,6
71,0.06,0.77,0.63,0.49,-2.69,-3.11,199,277,373,454,338,6
72,0.07,0.77,0.63,4.64,-1.1,-4.15,194,275,371,452,338,6
73,0.04,0.78,0.64,-1.46,-3.48,-0.31,223,277,370,452,337,6
74,0.07,0.79,0.6,-2.08,-2.14,-4.52,197,288,370,455,338,6
75,0.09,0.8,0.61,-3.17,-2.87,-3.17,197,273,368,454,336,6
76,0.09,0.78,0.62,-1.89,-3.48,-2.99,196,271,368,453,338,6
77,0.08,0.79,0.61,0.43,-5.13,-1.46,207,277,370,456,338,6
78,0.1,0.8,0.63,0.18,-0.73,-4.7,198,273,371,452,337,6
79,0.07,0.76,0.61,1.65,-4.46,-4.88,198,278,370,450,337,6
80,0.03,0.77,0.61,-3.97,-5.0,15.08,196,276,371,452,338,6
81,0.04,0.77,0.61,1.95,-7.14,1.65,199,278,370,449,336,6
82,0.1,0.73,0.58,13.55,-2.14,-2.2,196,279,369,455,340,6
83,0.11,0.77,0.65,3.48,-4.33,-2.62,197,276,372,455,338,6
84,0.1,0.79,0.63,1.16,-2.87,-2.99,198,277,374,452,337,6
85,0.09,0.78,0.62,-1.28,-2.01,-3.17,201,279,368,456,338,6
86,0.09,0.78,0.63,0.12,-3.11,-2.75,206,275,373,452,338,6
87,0.09,0.76,0.62,-2.99,-4.7,1.16,194,279,373,449,337,6
88,0.04,0.77,0.63,-0.85,12.82,-16.36,196,279,371,453,339,6
89,-0.07,0.77,0.62,-4.88,-8.54,-8.97,197,272,370,451,338,6
90,-0.14,0.76,0.68,-9.77,3.11,-19.41,199,275,373,451,333,6
91,-0.14,0.75,0.68,-4.03,-3.97,-8.73,196,275,372,446,336,6
92,-0.13,0.69,0.68,2.69,-2.62,0.31,198,276,370,452,338,6
93,-0.29,0.77,0.72,5.37,-25.57,47.06,198,276,370,453,344,6
94,-0.08,0.74,0.67,2.81,-5.92,-9.22,201,276,374,449,337,6
95,-0.11,0.74,0.68,-2.62,-13.43,4.21,200,279,372,456,335,6
96,-0.05,0.72,0.67,-0.31,-2.2,-5.43,197,278,371,449,338,6
97,-0.08,0.75,0.68,-2.5,-0.49,-6.04,197,276,370,451,338,6
98,-0.07,0.74,0.68,4.39,-4.46,6.16,200,279,371,453,339,6
99,-0.06,0.72,0.66,-2.01,-4.52,-5.92,198,277,371,456,336,6
100,-0.07,0.82,0.7,1.22,-6.59,0.67,198,278,368,452,334,6
101,-0.05,0.67,0.65,1.59,-6.23,-4.58,202,277,369,453,337,6
102,-0.04,0.73,0.66,-5.0,-9.58,-6.04,198,280,368,453,340,6
103,-0.06,0.62,0.72,-2.08,-5.98,-3.11,198,280,373,452,341,6
104,-0.03,0.73,0.68,-9.34,-3.85,-7.69,201,278,369,452,339,6
105,-0.03,0.71,0.74,-2.08,3.23,4.76,200,278,372,456,339,6
106,-0.04,0.65,0.71,-12.39,-8.48,-2.81,196,278,372,452,339,6
107,-0.04,0.58,0.66,11.17,-5.74,10.74,201,277,370,455,341,6
108,-0.07,0.76,0.72,0.18,1.46,-2.81,200,280,371,453,338,6
109,-0.03,0.79,0.74,7.81,4.21,-15.14,202,279,372,455,338,6
110,-0.05,0.77,0.68,-2.14,13.98,-16.78,199,282,367,453,349,6
111,-0.14,0.72,0.69,-8.48,-2.2,-3.6,202,280,370,456,342,6
112,-0.14,0.6,0.69,-3.85,-11.11,6.9,212,278,368,457,338,6
113,-0.03,0.65,0.7,8.73,-16.72,10.38,200,278,372,453,341,6
114,0.24,0.68,0.63,9.03,-14.34,12.15,204,283,370,452,341,6
115,0.04,0.7,0.71,-6.77,26.31,-32.96,200,276,370,448,346,6
116,-0.07,0.72,0.71,3.78,-23.5,11.78,203,279,371,457,342,6
117,-0.05,0.71,0.71,-1.34,-8.0,2.75,200,278,370,458,343,6
118,-0.05,0.71,0.72,2.14,-2.38,2.56,198,276,371,453,340,6
119,-0.13,0.65,0.69,-2.75,-5.19,-3.48,202,278,374,455,339,6
120,-0.09,0.68,0.68,-0.73,-8.85,1.16,203,278,373,455,338,6
121,-0.12,0.71,0.72,7.08,0.43,-9.7,199,279,376,458,340,6
122,-0.0,0.72,0.72,-1.89,6.9,-6.1,201,280,370,452,340,6
123,-0.1,0.71,0.73,-1.71,-19.78,14.4,202,278,372,458,338,6
124,-0.03,0.74,0.75,1.59,-8.18,-1.04,199,277,367,454,341,6
125,-0.06,0.71,0.75,1.59,-6.23,3.66,200,280,373,455,340,6
126,-0.07,0.71,0.73,2.14,-5.19,1.4,200,281,370,457,341,6
127,-0.06,0.68,0.71,-0.24,-7.51,-0.73,201,281,372,449,343,6
128,-0.04,0.7,0.72,1.77,0.18,-3.66,201,282,369,454,340,6
129,-0.07,0.7,0.72,-0.24,-1.46,-2.26,211,281,371,456,339,6
130,-0.08,0.7,0.72,0.0,-6.71,0.73,209,276,367,453,340,6
131,-0.05,0.69,0.71,-0.55,-1.95,-0.12,225,281,367,453,340,6
132,-0.05,0.71,0.72,-0.24,-2.01,-1.71,202,281,371,453,339,6
133,-0.04,0.7,0.72,1.4,-6.1,-1.89,204,281,366,453,340,6
134,-0.02,0.71,0.72,-0.06,-2.75,-2.81,196,280,371,458,336,6
135,-0.04,0.7,0.71,1.16,-2.69,-3.17,201,285,371,450,341,6
136,-0.01,0.73,0.72,2.75,-3.72,0.92,202,281,370,450,341,6
137,-0.04,0.72,0.7,1.95,-2.01,-3.97,202,281,373,462,341,6
138,-0.04,0.72,0.7,1.89,-5.55,-1.46,202,279,374,457,343,6
139,-0.06,0.76,0.72,0.0,10.68,-16.54,215,281,372,454,340,6
140,-0.04,0.74,0.71,1.04,-0.92,-6.9,200,283,373,457,340,6
141,-0.05,0.72,0.69,0.24,-4.33,-0.37,202,280,370,457,337,6
142,-0.05,0.72,0.7,-0.49,-2.38,-4.46,202,281,371,453,342,6
143,-0.04,0.73,0.7,0.67,-3.85,-1.65,202,283,371,453,342,6
144,-0.05,0.72,0.69,-0.79,-4.52,-0.06,202,278,370,453,340,6
145,-0.04,0.74,0.69,1.16,-2.75,-2.75,201,280,370,452,341,6
146,-0.05,0.73,0.68,1.53,-3.97,-2.5,204,280,372,456,338,6
147,-0.04,0.74,0.68,1.28,-1.89,-2.32,203,278,372,449,341,6
148,-0.07,0.74,0.68,2.26,-2.44,-2.87,202,280,368,453,341,6
149,-0.06,0.76,0.67,3.97,1.59,-5.74,201,280,372,455,339,6
150,-0.09,0.75,0.66,2.32,-4.64,-0.18,199,279,369,452,337,6
151,-0.09,0.75,0.67,0.0,-2.69,1.46,202,281,367,458,341,6
152,-0.13,0.74,0.66,1.53,-6.96,-0.67,200,280,374,450,333,6
153,-0.06,0.73,0.65,-1.22,-5.25,-1.1,202,284,375,449,340,6
154,-0.08,0.75,0.67,-0.55,-5.31,-2.2,204,280,370,449,340,6
155,-0.05,0.79,0.71,-0.61,1.71,0.12,205,283,371,453,340,6
156,-0.21,0.7,0.78,-9.58,29.97,-35.16,203,283,369,453,339,6
157,-0.19,0.63,0.76,2.32,-2.56,1.46,202,281,372,452,340,6
158,-0.22,0.73,0.76,-7.45,-9.64,-16.66,205,284,371,450,340,6
159,-0.26,0.69,0.78,-12.94,-3.91,-2.62,202,281,369,453,344,6
160,-0.16,0.6,0.78,-6.9,-11.05,-10.74,203,283,371,457,341,6
161,-0.05,0.55,0.75,1.77,-16.54,1.83,202,282,372,449,340,6
162,-0.05,0.69,0.84,13.18,9.83,5.19,202,284,371,459,340,6
163,-0.09,0.63,0.74,5.8,-6.59,-3.48,204,284,369,454,337,6
164,-0.08,0.7,0.75,3.72,-3.91,-2.99,202,282,366,456,341,6
165,-0.1,0.7,0.74,2.2,-4.94,-1.22,205,284,368,457,340,6
166,-0.1,0.67,0.71,-0.79,-0.73,-2.2,201,284,370,451,343,6
167,-0.13,0.7,0.72,-0.12,-2.01,-2.44,201,280,366,455,336,6
168,-0.11,0.7,0.72,0.06,-2.69,-3.23,203,284,369,453,344,6
169,-0.13,0.7,0.72,2.69,-2.69,-1.53,205,286,369,457,343,6
170,-0.14,0.69,0.72,2.56,-2.26,-3.11,205,289,366,458,342,6
171,-0.12,0.7,0.72,1.59,-1.4,-2.01,211,282,371,454,341,6
172,-0.11,0.69,0.7,-0.37,-3.72,-1.53,203,283,370,453,342,6
173,-0.12,0.69,0.71,0.24,-3.17,-1.59,202,283,366,453,343,6
174,-0.13,0.7,0.72,-0.49,-0.98,-3.72,206,282,372,452,340,6
175,-0.13,0.7,0.71,-0.24,-5.25,0.18,204,282,370,452,342,6
176,-0.13,0.69,0.7,-0.06,-2.2,-0.12,203,283,365,452,338,6
177,-0.13,0.71,0.71,1.04,-2.93,-3.78,201,284,371,451,333,6
178,-0.14,0.7,0.7,-0.24,-1.59,-2.81,206,285,370,456,341,6
179,-0.14,0.7,0.71,-5.86,-1.71,-3.78,202,284,370,448,338,6
180,-0.15,0.69,0.72,3.36,-3.11,-2.08,198,289,368,457,347,6
181,-0.14,0.72,0.73,1.83,-3.48,-3.05,203,284,372,453,339,6
182,-0.13,0.68,0.71,1.04,-5.13,-2.14,212,283,368,452,343,6
183,-0.13,0.72,0.71,-1.89,-1.71,-0.73,204,284,370,455,336,6
184,-0.1,0.74,0.74,-5.98,-2.26,-0.18,200,284,369,448,343,6
185,-0.04,0.72,0.74,-7.32,0.18,10.62,205,282,366,456,343,6
186,-0.09,0.64,0.72,-8.18,7.45,-2.26,204,286,368,455,342,6
187,-0.08,0.66,0.71,4.09,-3.85,-2.32,208,285,370,453,336,6
188,-0.07,0.7,0.73,0.12,0.12,0.79,205,292,371,453,339,6
189,-0.11,0.84,0.79,-4.27,-7.32,-2.5,204,287,373,449,340,6
190,-0.08,0.58,0.69,6.1,-9.89,7.69,208,284,372,456,336,6
191,-0.03,0.72,0.75,1.16,-5.49,3.11,206,286,371,456,337,6
192,-0.04,0.69,0.74,-0.79,-0.37,-2.99,203,285,369,453,345,6
193,0.0,0.68,0.74,-1.77,-7.26,-4.88,202,285,373,454,342,6
194,-0.05,0.67,0.76,-1.65,-0.37,-2.75,204,281,370,453,340,6
195,-0.04,0.68,0.75,0.55,-1.59,-2.38,204,284,369,456,340,6
196,-0.05,0.68,0.75,1.1,-2.5,-2.2,204,286,371,452,341,6
197,-0.04,0.67,0.74,1.53,-3.11,-2.87,205,284,372,455,340,6
198,-0.03,0.67,0.74,3.66,-5.68,-3.91,205,283,372,453,340,6
199,-0.17,0.64,0.75,9.28,-4.58,-1.1,205,282,373,456,338,6
200,-0.01,0.72,0.71,-1.28,-8.24,-4.64,200,284,370,451,340,6
201,-0.03,0.72,0.71,0.49,-3.11,-1.04,205,286,367,454,342,6
202,-0.0,0.71,0.68,3.11,-2.87,-1.59,207,284,373,458,336,6
203,-0.04,0.75,0.7,2.44,-0.18,1.22,205,286,370,453,341,6
204,-0.04,0.73,0.65,-0.24,1.77,-7.51,206,283,370,454,341,6
205,-0.05,0.75,0.65,-4.21,-1.1,-4.58,205,283,373,452,339,6
206,-0.08,0.71,0.66,0.55,7.57,-11.41,208,280,368,455,339,6
207,-0.13,0.7,0.67,-4.94,-3.48,-4.76,203,283,373,452,339,6
208,-0.12,0.75,0.68,0.79,-3.23,-5.37,207,286,370,449,343,6
209,-0.12,0.66,0.66,0.43,-3.48,-0.18,208,283,371,454,341,6
210,-0.13,0.74,0.67,-1.59,-2.56,-1.04,206,283,371,453,340,6
211,-0.12,0.72,0.7,5.31,-3.78,-0.55,208,287,371,456,340,6
212,-0.12,0.74,0.68,8.24,-4.39,1.83,204,283,371,455,343,6
213,-0.13,0.78,0.67,-1.46,-4.03,-4.52,209,284,371,450,341,6
214,-0.13,0.68,0.67,-8.79,-3.05,-20.2,207,283,373,457,341,6
215,-0.23,0.8,0.75,-2.81,-12.39,15.81,213,284,373,456,337,6
216,-0.05,0.69,0.58,-0.85,-13.12,28.08,197,286,373,452,341,6
217,-0.05,0.79,0.68,-2.69,2.69,-8.48,206,281,372,454,343,6
218,0.24,0.93,0.59,-0.55,37.17,-5.25,208,281,374,453,344,6
219,-0.11,0.62,0.7,2.62,-4.88,33.69,206,288,373,445,341,6
220,-0.01,0.67,0.71,17.27,23.86,-43.64,205,288,373,453,342,6
221,-0.17,1.02,0.72,-13.31,-15.14,14.04,208,283,369,454,341,6
222,0.17,0.68,0.41,0.92,0.06,43.76,210,285,372,449,340,6
223,-0.03,0.87,0.61,-12.82,-66.83,13.79,202,285,373,454,341,6
224,0.12,1.02,0.55,44.43,-21.85,-66.47,205,288,371,456,340,6
225,-0.03,0.74,0.46,5.49,24.41,-29.42,207,286,367,458,339,6
226,-0.26,0.96,0.37,3.54,-47.3,16.78,205,283,371,454,339,6
227,0.14,0.89,0.34,6.53,-23.8,-29.24,205,294,368,454,341,6
228,-0.12,0.98,0.36,-7.26,1.83,12.51,209,285,368,457,344,6
229,0.14,0.97,0.31,8.91,3.78,-4.58,204,289,373,454,342,6
230,-0.06,0.93,0.35,-19.23,16.3,-15.87,206,284,370,462,341,6
231,0.12,0.98,0.32,-18.13,-6.41,-10.8,204,285,373,457,342,6
232,-0.07,0.82,0.57,-14.22,-6.04,-34.3,207,287,370,458,338,6
233,-0.17,0.78,0.6,6.16,-0.55,2.93,206,290,371,450,342,6
234,-0.06,0.82,0.61,1.53,-7.08,-8.85,208,287,371,455,343,6
235,-0.05,0.89,0.58,8.3,5.43,-0.24,204,285,367,454,337,6
236,-0.01,0.83,0.47,-2.75,-6.35,3.97,213,284,371,456,342,6
237,-0.09,0.82,0.68,1.28,-15.5,-2.99,207,289,371,455,343,6
238,-0.03,0.73,0.6,-11.47,21.24,-12.15,209,284,373,459,342,6
239,-0.11,0.76,0.56,8.18,0.85,0.43,207,281,369,450,343,6
240,-0.11,0.8,0.59,2.38,2.26,-5.55,207,284,373,451,341,6
241,-0.11,0.81,0.53,4.76,2.75,-5.98,210,285,373,455,341,6
242,-0.14,0.85,0.51,9.95,0.49,-3.72,208,283,373,456,344,6
243,-0.17,0.9,0.49,2.14,1.1,-4.52,209,283,371,459,339,6
244,-0.13,0.85,0.47,-0.12,-5.55,-3.72,210,285,371,456,343,6
245,-0.14,0.89,0.5,-0.61,-5.13,-4.21,211,283,371,458,342,6
246,-0.14,0.8,0.51,-10.93,-16.17,-3.85,209,282,372,456,342,6
247,0.0,0.82,0.6,-1.34,26.61,9.95,211,283,372,461,342,6
248,-0.05,0.85,0.55,2.75,8.79,10.07,211,282,368,455,342,6
249,-0.0,0.82,0.55,-0.24,-15.93,-19.41,218,282,371,459,339,6
250,0.03,0.77,0.55,0.67,-15.63,-0.67,208,280,368,460,335,6
251,-0.02,0.83,0.57,1.95,-3.6,-1.65,209,283,370,455,340,6
252,-0.03,0.84,0.57,3.11,-0.92,-0.49,212,285,368,459,341,6
253,-0.04,0.82,0.55,-0.24,-6.65,-1.71,211,280,369,456,342,6
254,-0.03,0.85,0.57,2.2,-4.15,-2.69,209,284,371,455,345,6
255,-0.03,0.83,0.57,-1.89,-1.34,-0.12,209,283,371,465,342,6
256,0.01,0.84,0.53,3.54,-2.93,-6.59,237,291,371,452,343,6
257,-0.02,0.87,0.53,5.49,-1.89,-3.05,211,284,373,454,337,6
258,-0.02,0.86,0.52,-0.37,-1.4,-4.03,209,284,371,454,342,6
259,-0.03,0.86,0.52,2.62,-5.68,-1.34,214,288,374,459,343,6
260,-0.02,0.86,0.51,1.83,-3.05,-1.77,210,285,373,460,341,6
261,-0.02,0.86,0.52,-0.79,-3.05,-4.15,210,282,374,456,341,6
262,-0.03,0.87,0.52,2.01,-1.4,-5.8,211,282,372,458,341,6
263,-0.03,0.86,0.51,0.12,-4.52,-0.79,209,286,368,459,339,6
264,-0.03,0.86,0.52,-0.31,-3.97,-5.37,210,286,372,457,338,6
265,-0.01,0.86,0.51,-0.18,-2.32,-3.3,211,288,374,459,339,6
266,-0.02,0.86,0.5,-0.79,1.71,-8.06,208,287,374,456,343,6
267,-0.05,0.85,0.52,0.85,-5.25,-0.98,211,285,371,457,338,6
268,-0.04,0.86,0.51,0.06,-4.09,-2.62,210,285,372,458,344,6
269,-0.03,0.86,0.52,1.65,-4.09,-5.49,210,287,371,457,340,6
270,-0.04,0.86,0.51,1.4,-2.56,-3.91,212,288,371,453,341,6
271,-0.1,0.93,0.49,5.98,0.06,-9.64,210,287,370,457,345,6
272,-0.1,0.81,0.49,-1.4,-9.95,-14.53,211,283,372,456,343,6
273,-0.18,0.73,0.54,-15.01,2.69,9.7,213,289,371,457,341,6
274,-0.12,0.91,0.5,-17.94,27.89,15.69,209,288,373,461,341,6
275,0.04,0.91,0.61,-5.31,21.42,4.21,210,284,370,459,344,6
276,-0.02,0.67,0.63,-26.37,14.71,-8.54,211,286,373,456,342,6
277,-0.07,0.76,0.68,-14.4,8.67,-15.69,213,285,372,452,342,6
278,-0.16,0.76,0.77,16.91,-3.78,25.45,212,284,373,460,343,6
279,0.02,0.71,0.69,-4.15,-21.18,-2.26,210,289,369,460,340,6
280,-0.01,0.59,0.83,-15.08,-15.08,13.12,210,289,371,456,342,6
281,0.11,0.61,0.92,-7.75,32.1,17.03,211,284,371,455,340,6
282,-0.01,0.45,0.91,-21.61,-27.4,30.64,211,286,369,459,342,6
283,-0.01,0.45,0.91,-3.17,-24.96,-15.26,208,286,371,451,342,6
284,0.27,0.29,0.89,-8.0,-35.58,-13.12,210,289,372,458,344,6
285,0.33,0.49,0.94,-11.47,2.32,-6.41,208,287,372,458,342,6
286,0.37,0.3,0.89,-3.78,-7.93,3.72,209,287,369,455,345,6
287,0.3,0.3,0.91,-0.12,-13.92,2.5,210,294,372,458,344,6
288,0.33,0.31,0.91,3.36,-0.31,-2.38,211,291,371,461,345,6
289,0.32,0.33,0.9,3.72,-0.43,-5.13,212,289,369,458,340,6
290,0.28,0.34,0.85,-2.14,-1.59,-8.3,210,286,370,453,342,6
291,0.21,0.37,0.84,20.75,26.86,-4.21,207,289,371,455,345,6
292,0.01,0.79,0.75,6.23,6.77,-37.72,202,285,373,455,339,6
293,-0.13,0.69,0.74,17.94,-15.56,-7.69,202,279,371,443,330,6
294,-0.08,0.53,0.96,-3.54,-5.74,0.12,187,264,359,434,299,6
295,0.14,0.56,0.67,-8.42,-19.9,-10.99,181,264,361,439,293,6
296,-0.05,0.55,0.61,-20.02,8.61,-9.16,190,273,378,440,303,6
297,-0.07,0.63,0.67,-27.65,-2.99,-6.77,189,268,338,448,304,6
298,-0.09,0.73,0.76,33.63,-19.65,39.18,182,254,252,451,325,6
299,0.05,0.78,0.71,-10.74,19.1,-22.09,183,254,331,450,290,6
300,-0.05,0.72,0.7,13.61,-7.02,-7.57,175,258,373,446,291,6
301,-0.07,0.77,0.65,14.89,-13.18,2.2,187,257,370,454,297,6
302,0.02,0.83,0.65,0.12,-17.64,-1.22,186,259,372,453,304,6
303,0.02,0.78,0.65,-11.05,7.57,-18.92,212,261,372,454,306,6
304,-0.13,0.72,0.63,-1.95,-4.58,-4.7,191,264,370,458,307,6
305,-0.06,0.73,0.65,4.33,-2.32,-0.98,194,277,370,451,310,6
306,-0.11,0.71,0.63,5.62,-9.4,-2.81,202,266,366,451,306,6
307,-0.09,0.7,0.64,-7.87,-14.59,3.97,190,267,364,455,309,6
308,-0.02,0.78,0.7,-19.35,-7.02,14.34,188,263,360,446,311,6
309,-0.04,0.73,0.73,1.04,-3.42,-4.46,188,265,366,452,315,6
310,0.01,0.76,0.72,1.59,-2.69,-4.33,191,265,366,452,313,6
311,-0.02,0.71,0.71,-1.65,-2.87,-1.4,194,268,363,456,314,6
312,-0.0,0.72,0.7,3.91,0.67,-0.31,192,265,363,448,315,6
313,0.01,0.73,0.72,-0.55,-5.74,-3.48,191,268,361,446,315,6
314,-0.0,0.74,0.71,6.16,-3.72,-1.77,191,267,365,446,315,6
315,0.01,0.72,0.69,-2.32,-1.89,-1.53,192,265,366,445,318,6
316,0.03,0.75,0.68,4.94,-4.39,-1.34,192,269,362,451,315,6
317,-0.01,0.72,0.67,0.18,-0.43,0.43,196,267,365,455,313,6
318,0.01,0.74,0.69,-0.31,-4.09,-3.91,192,270,363,456,315,6
319,0.02,0.73,0.68,-1.65,-3.23,-1.71,193,267,365,452,317,6
320,0.02,0.73,0.69,0.61,-1.83,-2.32,195,267,363,453,315,6
321,0.02,0.74,0.69,-0.55,-2.38,-3.05,190,263,365,449,314,6
322,0.01,0.73,0.69,0.79,-3.97,-3.11,195,267,362,453,313,6
323,-0.01,0.73,0.68,2.62,-6.47,-4.58,197,268,358,453,312,6
324,0.03,0.74,0.69,-1.59,-3.54,-2.26,192,270,359,452,314,6
325,0.04,0.73,0.68,-0.73,-7.45,-3.17,194,269,366,452,314,6
326,0.07,0.74,0.68,1.59,-5.8,-1.04,215,269,361,458,316,6
327,0.06,0.74,0.68,0.43,-2.87,-2.99,198,267,358,456,319,6
328,0.08,0.74,0.67,0.61,-2.69,-2.69,196,264,363,452,321,6
329,0.08,0.75,0.67,0.79,-5.62,-2.32,197,265,357,455,317,6
330,0.09,0.74,0.66,2.44,-8.61,6.65,199,268,363,455,317,6
331,0.09,0.78,0.69,1.71,5.0,-6.9,195,275,360,451,319,6
332,0.06,0.73,0.66,-1.77,-5.86,-3.91,193,275,360,456,317,6
333,-0.12,0.74,0.77,18.98,18.37,-8.06,197,268,360,455,317,6
334,-0.11,0.71,0.78,9.03,-8.18,13.67,196,270,360,456,318,6
335,0.04,0.69,0.72,-4.76,-14.65,6.59,197,270,362,456,320,6
336,-0.04,0.62,0.78,15.32,8.54,-5.31,199,271,363,462,321,6
337,-0.03,0.76,0.78,23.32,-16.85,1.46,199,267,366,454,318,6
338,0.05,0.86,0.69,-9.46,-18.62,1.59,198,267,361,451,316,6
339,0.29,0.59,0.68,-1.1,-11.47,1.16,195,263,367,444,319,6
340,0.29,0.48,0.78,-15.87,5.25,-3.72,199,265,365,443,320,6
341,0.4,0.76,0.82,-3.6,-11.72,-5.98,200,262,371,439,322,6
342,0.37,0.69,0.77,9.52,-6.96,-6.53,200,264,371,433,321,6
343,0.28,0.58,0.76,2.69,9.22,-3.66,202,269,368,437,326,6
344,0.19,0.64,0.77,1.65,4.58,-6.77,203,264,369,437,324,6
345,0.2,0.67,0.79,1.28,-2.93,-1.1,212,263,369,439,327,6
346,0.2,0.62,0.78,-0.49,-2.93,-2.87,205,265,370,444,329,6
347,0.18,0.6,0.79,-2.75,-1.77,-1.22,202,265,366,440,329,6
348,0.16,0.59,0.8,-1.83,-3.17,-2.08,199,267,369,435,328,6
349,0.17,0.6,0.81,-1.83,0.73,-3.36,205,268,368,438,334,6
350,0.17,0.58,0.82,-4.64,-3.66,-4.27,205,266,367,440,328,6
351,0.19,0.56,0.81,-3.05,-5.98,-1.59,202,264,369,435,331,6
352,0.23,0.55,0.8,-2.87,2.08,-10.38,203,268,369,442,330,6
353,0.2,0.55,0.82,0.61,-5.92,0.0,206,266,366,438,330,6
354,0.2,0.56,0.82,0.73,-2.5,-3.3,202,266,368,437,331,6
355,0.18,0.56,0.82,-0.18,-4.21,-2.2,204,267,374,441,331,6
356,0.2,0.56,0.82,0.12,-4.39,-3.17,206,267,369,433,332,6
357,0.19,0.56,0.82,-0.12,-1.1,-2.32,206,268,367,437,331,6
358,0.17,0.57,0.82,-0.98,-4.33,-3.42,203,264,369,431,329,6
359,0.18,0.57,0.82,1.34,-3.54,-0.79,202,267,370,432,328,6
360,0.18,0.58,0.83,0.31,-3.36,-2.38,205,267,367,437,332,6
361,0.19,0.56,0.82,-0.55,-1.77,-4.88,204,266,370,441,331,6
362,0.17,0.56,0.82,-1.22,-2.81,-4.46,234,267,373,446,325,6
363,0.18,0.56,0.83,-1.34,-5.49,-1.4,217,269,371,439,331,6
364,0.19,0.55,0.83,1.65,-5.31,-1.28,206,266,366,433,334,6
365,0.19,0.56,0.82,1.83,-3.3,-2.81,207,268,380,435,334,6
366,0.2,0.57,0.83,1.77,-2.69,-3.42,208,267,372,432,333,6
367,0.2,0.57,0.81,0.85,-3.42,-3.42,206,279,372,431,333,6
368,0.17,0.6,0.8,10.5,1.22,-3.23,204,274,371,439,334,6
369,0.17,0.61,0.79,-0.12,-1.46,-3.91,208,272,370,452,332,6
370,0.17,0.61,0.79,0.31,-3.17,-1.34,205,270,373,443,335,6
371,0.17,0.61,0.8,0.61,-4.33,-2.08,215,272,373,453,337,6
372,0.18,0.61,0.79,2.56,-3.23,0.92,207,269,370,448,333,6
373,0.18,0.6,0.79,-10.01,-3.91,-4.39,210,272,380,448,336,6
374,0.17,0.6,0.8,1.28,-2.08,-3.54,211,270,373,448,335,6
375,0.19,0.59,0.8,-8.61,-4.15,-4.82,210,272,371,449,335,6
376,0.21,0.59,0.8,3.3,-2.2,-0.79,208,272,374,453,336,6
377,0.19,0.57,0.79,3.78,-0.67,-5.25,216,272,374,453,338,6
378,0.19,0.61,0.8,-10.5,-5.25,-5.49,209,265,374,453,334,6
379,0.18,0.58,0.79,-0.98,-2.87,-2.81,210,270,375,447,334,6
380,0.19,0.59,0.8,-3.05,-2.2,-3.91,206,265,381,455,336,6
381,0.2,0.58,0.8,0.31,-3.23,-1.95,208,267,376,448,338,6
382,0.21,0.6,0.79,4.82,-5.0,-1.22,210,268,374,449,339,6
383,0.19,0.59,0.8,-3.54,-4.09,-2.32,213,270,375,450,337,6
384,0.19,0.59,0.8,0.98,-3.66,-2.14,213,268,375,445,340,6
385,0.2,0.61,0.79,1.1,-2.56,-2.75,206,268,379,451,343,6
386,0.21,0.6,0.79,-0.98,-3.78,-3.78,212,271,376,450,341,6
387,0.21,0.61,0.78,1.59,-1.46,-2.38,209,265,377,451,343,6
388,0.23,0.61,0.79,0.98,-5.43,-2.5,209,265,374,455,336,6
389,0.23,0.59,0.78,-1.28,-1.65,-3.05,211,273,378,452,340,6
390,0.23,0.58,0.78,-0.49,-2.87,-3.42,210,268,375,455,342,6
391,0.29,0.6,0.75,3.97,-1.59,4.58,210,267,372,456,337,6
392,0.23,0.64,0.79,2.99,-0.73,-4.39,208,270,370,448,339,6
393,0.22,0.62,0.78,-0.18,-0.24,-4.58,218,272,373,450,336,6
394,0.23,0.6,0.76,-0.37,-2.56,2.2,209,270,373,449,337,6
395,0.2,0.67,0.68,-0.55,-38.76,-5.68,209,272,375,450,340,6
396,-0.0,0.66,0.9,10.44,-16.85,5.86,211,272,373,452,334,6
397,0.32,0.57,0.77,7.63,19.71,-2.26,211,273,375,455,337,6
398,0.28,0.49,0.75,7.14,6.16,-4.27,211,268,375,452,338,6
399,0.5,0.57,0.74,-17.52,-7.14,-16.54,206,265,375,451,336,6
400,-0.11,0.33,0.69,21.97,-1.71,-32.71,203,263,370,452,336,6
401,0.14,0.67,0.69,-50.54,-11.9,-19.29,203,270,370,440,336,6
402,0.08,0.7,0.82,4.15,6.04,16.85,204,270,373,450,324,6
403,0.04,0.68,0.74,13.98,-11.11,-11.54,227,273,376,456,324,6
404,0.01,0.65,0.7,-13.55,5.43,-4.88,208,271,371,452,328,6
405,0.03,0.81,0.7,-1.53,1.46,-9.03,208,273,374,451,329,6
406,-0.01,0.73,0.71,2.38,-3.11,0.49,208,272,376,456,328,6
407,-0.01,0.7,0.73,5.68,-17.52,-7.32,210,271,377,455,329,6
408,0.05,0.69,0.6,-8.67,-16.78,0.61,208,276,374,457,329,6
409,0.08,0.8,0.64,21.06,-8.0,-6.53,209,274,375,457,325,6
410,0.12,0.72,0.6,-8.0,-0.92,-5.25,206,273,376,459,333,6
411,0.13,0.79,0.6,24.05,-0.61,4.58,211,274,374,455,327,6
412,0.02,0.84,0.61,-4.52,-5.49,-0.49,208,276,376,453,334,6
413,0.19,0.9,0.59,3.05,-2.08,-12.15,208,273,374,449,331,6
414,0.06,0.7,0.46,10.99,-9.64,5.8,211,272,375,456,333,6
415,0.21,0.95,0.53,-24.9,-34.24,-41.69,213,279,377,455,333,6
416,0.01,0.56,0.69,-26.92,-24.29,8.73,212,277,378,457,331,6
417,0.16,0.27,0.62,-0.24,4.03,-15.2,212,275,381,452,333,6
418,-0.04,1.07,0.86,-30.64,12.21,3.54,210,274,385,459,330,6
419,0.14,0.79,0.75,36.8,14.34,-9.16,212,275,383,455,336,6
420,-0.06,0.23,0.54,-9.22,5.68,24.6,214,275,377,455,333,6
421,-0.04,0.68,0.63,-24.96,-1.28,21.36,213,275,380,453,336,6
422,-0.22,1.3,0.96,9.28,3.78,-2.69,214,275,383,456,335,6
423,0.03,0.5,0.6,28.93,-18.07,-36.19,210,276,382,459,335,6
424,0.01,0.25,0.53,-22.58,-27.04,1.83,213,277,380,457,330,6
425,-0.11,0.74,0.77,-25.21,-40.28,3.42,202,278,378,456,328,6
426,0.17,1.23,1.11,16.24,8.79,-34.18,212,278,379,456,334,6
427,-0.05,0.2,0.74,21.48,-16.11,-28.08,213,278,379,456,334,6
428,0.21,0.23,0.61,-14.95,-18.92,31.19,215,274,381,458,330,6
429,0.15,0.52,0.68,4.27,20.39,19.96,215,277,380,455,334,6
430,0.08,0.7,0.75,2.99,-1.71,12.39,223,274,381,455,334,6
431,-0.17,0.78,0.78,18.86,16.97,-22.58,212,277,379,458,335,6
432,-0.1,0.83,0.64,18.25,-0.18,0.98,213,276,379,456,336,6
433,0.18,0.7,0.46,-6.04,-12.08,13.24,215,277,378,458,332,6
434,0.17,0.69,0.49,-34.3,11.72,-28.38,215,279,377,461,336,6
435,0.04,0.84,0.65,19.04,-34.18,28.99,214,281,380,462,337,6
436,0.06,0.84,0.56,3.48,4.33,-12.88,220,277,380,454,336,6
437,0.01,0.81,0.55,-3.23,2.5,-3.23,224,279,380,462,338,6
438,0.01,0.82,0.56,1.46,-2.62,-4.39,213,278,378,453,338,6
439,-0.0,0.82,0.56,1.28,-3.23,-0.67,214,281,377,460,338,6
440,-0.02,0.85,0.55,13.92,-1.95,23.01,225,279,382,454,335,6
441,-0.04,0.82,0.55,-30.52,5.98,-32.29,215,278,381,457,339,6
442,-0.08,0.94,0.7,-9.16,-9.52,5.92,214,279,380,458,339,6
443,-0.05,0.82,0.59,11.35,-9.46,9.28,215,278,376,457,338,6
444,-0.03,0.74,0.54,11.35,-9.7,13.79,216,280,379,459,334,6
445,-0.06,0.52,0.46,-1.83,-32.23,25.88,214,280,382,460,338,6
446,-0.03,0.81,0.57,-1.04,-5.86,3.97,215,282,382,457,339,6
447,0.0,0.86,0.6,0.0,-19.41,23.01,213,282,377,456,340,6
448,-0.1,0.85,0.66,3.23,0.31,7.39,218,282,377,452,336,6
449,-0.03,0.81,0.56,-2.2,9.95,-19.9,215,284,381,460,338,6
450,-0.14,0.78,0.57,1.77,-8.61,4.88,217,278,377,451,337,6
451,-0.17,0.79,0.6,2.56,-7.02,-1.4,216,282,380,459,339,6
452,0.18,0.8,0.54,11.84,-30.82,52.25,215,281,376,454,334,6
453,0.04,0.79,0.59,-5.68,-0.43,-7.75,216,282,381,452,334,6
454,0.03,0.82,0.61,-1.04,-0.79,-8.54,216,283,381,452,339,6
455,-0.01,0.83,0.62,-1.65,-3.36,-5.19,216,279,380,457,335,6
456,-0.01,0.8,0.63,1.22,-7.63,-2.14,216,280,384,454,339,6
457,-0.01,0.79,0.61,2.32,-7.45,0.73,217,283,383,452,337,6
458,-0.03,0.79,0.61,5.25,-10.44,-1.22,218,282,384,458,341,6
459,0.05,0.81,0.58,1.22,-8.0,2.14,214,283,382,455,341,6
460,0.08,0.83,0.57,1.89,5.0,-9.46,223,281,382,450,340,6
461,0.08,0.83,0.57,-0.61,-1.77,-3.91,217,288,386,454,339,6
462,0.08,0.83,0.58,-4.64,1.34,-7.45,216,286,382,459,341,6
463,-0.01,0.8,0.6,-4.39,-0.06,-1.28,219,280,381,450,342,6
464,0.0,0.8,0.6,-0.79,1.77,-6.35,219,279,384,451,341,6
465,-0.01,0.77,0.59,-1.46,-3.85,-11.35,217,279,384,456,341,6
466,0.03,0.81,0.61,-1.28,-3.23,-2.81,220,281,381,456,342,6
467,0.01,0.8,0.61,1.04,-4.52,-0.06,215,278,384,456,340,6
468,0.01,0.79,0.62,0.0,1.95,-0.61,217,279,381,455,334,6
469,0.02,0.73,0.61,-7.02,-7.87,-7.39,215,280,381,461,339,6
470,0.07,0.79,0.61,5.74,-5.68,0.18,216,277,377,456,339,6
471,0.02,0.77,0.62,3.72,1.77,5.0,217,279,381,453,339,6
472,-0.01,0.8,0.62,-3.17,0.67,-8.24,216,281,380,456,336,6
473,-0.02,0.77,0.63,-4.09,1.53,-7.02,230,283,380,461,339,6
474,-0.04,0.78,0.63,2.44,-4.64,1.71,219,281,380,457,338,6
475,-0.01,0.76,0.63,6.1,-8.3,0.43,220,278,381,459,341,6
476,-0.02,0.78,0.64,0.24,-3.42,-4.82,216,282,379,458,340,6
477,-0.03,0.78,0.64,0.12,-5.37,-1.89,217,283,377,456,340,6
478,-0.01,0.77,0.62,3.11,-1.46,-6.53,219,283,380,459,340,6
479,0.04,0.73,0.61,0.12,0.98,0.79,216,286,378,451,335,6
480,0.02,0.82,0.68,-1.77,8.06,-12.45,222,284,379,453,341,6
481,0.02,0.77,0.67,6.53,11.29,-19.47,218,287,381,455,336,6
482,-0.08,0.77,0.72,7.81,7.57,-1.95,217,285,380,460,340,6
483,-0.12,0.77,0.64,-11.29,29.42,-26.92,231,288,381,459,340,6
484,-0.1,0.82,0.67,1.89,-9.83,13.06,219,287,387,461,338,6
485,-0.2,0.72,0.67,-2.32,-11.35,-21.97,222,287,382,457,340,6
486,-0.04,0.83,0.69,3.23,-16.48,0.73,218,286,380,461,341,6
487,-0.23,0.63,0.65,-2.93,14.16,-4.03,217,285,381,456,337,6
488,-0.04,0.64,0.64,-22.34,1.1,-21.85,219,285,380,456,341,6
489,-0.09,0.68,0.69,-4.03,-2.75,-5.92,218,289,383,457,341,6
490,-0.13,0.67,0.72,-1.34,-0.85,-0.55,222,283,380,457,337,6
491,-0.13,0.69,0.71,3.3,-6.16,5.37,216,286,381,456,344,6
492,-0.13,0.72,0.7,-10.68,1.16,-16.05,234,286,380,458,344,6
493,-0.25,0.88,0.91,26.31,30.94,-40.1,224,285,381,455,344,6
494,-0.15,0.74,0.72,15.81,-7.51,7.39,218,286,379,452,345,6
495,-0.21,0.72,0.8,2.38,-36.32,17.46,223,288,381,459,344,6
496,0.25,0.71,0.39,4.33,-16.24,19.1,223,288,381,458,342,6
497,0.0,0.91,0.63,-1.59,0.0,-16.42,223,293,381,456,342,6
498,-0.16,0.83,0.46,1.77,44.98,19.78,220,288,384,463,343,6
499,-0.01,0.9,0.52,15.01,1.1,2.81,221,284,384,470,343,6
500,-0.04,0.83,0.51,-4.27,-0.49,-0.31,221,287,381,465,342,6
501,-0.03,0.89,0.52,6.1,-8.67,-0.24,222,288,381,460,342,6
502,-0.0,0.84,0.5,-9.03,-3.48,-0.73,220,286,377,462,343,6
503,-0.02,0.84,0.54,3.36,-6.29,-2.44,225,284,382,464,343,6
504,-0.02,0.87,0.53,6.9,1.65,-2.08,223,285,382,459,343,6
505,-0.04,0.88,0.5,0.37,-1.34,-1.1,222,283,380,459,343,6
506,0.25,0.93,0.24,0.55,-4.21,-1.95,320,456,400,250,201,6
507,0.25,0.93,0.24,1.59,-2.62,-1.34,320,458,398,251,199,6
508,0.27,0.94,0.25,1.4,-2.62,-2.81,323,454,395,250,197,6
509,0.25,0.94,0.24,0.55,-3.05,-2.75,319,459,397,254,204,6
510,0.26,0.94,0.24,0.67,-2.2,-2.62,320,448,393,253,200,6
511,0.25,0.93,0.23,1.83,-1.16,-2.32,323,449,398,253,200,6
512,0.25,0.94,0.24,-0.55,-3.48,-2.62,321,455,398,257,202,6
513,0.25,0.93,0.23,0.31,-2.81,-2.01,323,453,395,252,203,6
514,0.25,0.94,0.25,-1.22,-3.23,-3.36,317,454,395,252,204,6
515,0.25,0.93,0.23,1.65,-3.85,-1.89,322,457,394,254,201,6
516,0.25,0.93,0.23,0.98,-3.85,-3.42,322,463,395,251,206,6
517,0.26,0.95,0.23,0.43,-4.7,-3.6,322,454,390,256,203,6
518,0.25,0.93,0.23,1.04,-2.38,-1.1,324,451,392,254,207,6
519,0.26,0.93,0.23,0.73,-3.85,-2.62,323,450,395,254,205,6
520,0.25,0.94,0.23,-0.92,-2.62,-3.72,321,460,395,267,201,6
521,0.25,0.94,0.23,0.31,-2.75,-2.87,325,454,395,253,202,6
522,0.25,0.93,0.23,0.55,-4.15,-2.38,316,449,400,254,202,6
523,0.25,0.94,0.23,-0.49,-3.42,-2.44,325,458,396,256,202,6
524,0.25,0.94,0.23,0.49,-3.05,-2.38,323,459,395,258,202,6
525,0.26,0.94,0.22,0.18,-3.85,-2.14,323,454,408,255,201,6
526,0.25,0.94,0.23,0.43,-2.81,-2.32,323,450,394,257,202,6
527,0.25,0.94,0.23,-15.56,-4.03,-2.26,323,455,395,256,205,6
528,0.25,0.94,0.23,0.79,-3.85,-1.95,324,454,397,252,203,6
529,0.25,0.94,0.24,1.22,-3.48,-1.83,330,451,394,257,205,6
530,0.26,0.93,0.23,0.12,-5.68,-1.34,324,456,398,256,206,6
531,0.28,0.93,0.22,-1.59,-9.03,0.49,324,455,393,258,206,6
532,0.28,0.96,0.24,3.36,5.92,-3.23,325,457,393,255,204,6
533,0.26,0.92,0.26,-1.77,-5.43,0.24,323,454,389,254,208,6
534,0.31,0.92,0.25,-1.22,-1.95,-3.3,326,454,391,259,206,6
535,0.2,0.94,0.25,3.48,8.97,-10.44,324,455,395,260,206,6
536,0.26,0.93,0.24,-0.37,-5.98,-0.37,323,454,386,262,209,6
537,0.28,0.93,0.23,0.61,-2.5,-3.17,324,449,383,256,208,6
538,0.29,0.93,0.23,0.37,-2.26,-2.81,324,459,377,261,206,6
539,0.24,0.94,0.23,0.06,-4.88,-1.83,324,458,378,255,206,6
540,0.28,0.93,0.24,3.23,-1.89,-3.54,324,454,384,260,204,6
541,0.27,0.93,0.25,0.43,-1.95,-2.08,324,450,386,260,205,6
542,0.27,0.93,0.26,-0.18,-4.27,-1.59,322,454,387,260,209,6
543,0.27,0.93,0.26,-1.53,-4.64,-3.42,326,451,385,258,207,6
544,0.26,0.93,0.27,-0.85,-4.21,-1.46,324,460,386,258,209,6
545,0.25,0.98,0.28,3.11,2.93,-3.54,328,454,387,260,205,6
546,0.22,0.95,0.25,-0.67,-1.34,-0.73,327,454,394,258,219,6
547,0.26,0.93,0.25,-10.01,-17.64,-1.83,328,450,387,259,206,6
548,0.29,0.91,0.26,-3.72,-6.47,-1.95,325,453,392,262,210,6
549,0.29,0.92,0.27,1.04,-1.46,-2.14,324,459,385,258,210,6
550,0.3,0.91,0.27,-0.31,-4.15,-2.38,328,459,384,259,209,6
551,0.3,0.92,0.28,1.59,-2.81,-2.14,327,458,379,258,207,6
552,0.29,0.91,0.28,-1.1,0.24,-2.26,325,455,384,257,207,6
553,0.27,0.94,0.28,-3.78,-6.96,-0.49,322,455,384,267,209,6
554,0.29,0.93,0.29,-2.87,-1.77,-3.85,326,453,381,260,220,6
555,0.29,0.9,0.28,-0.18,-1.22,-2.93,326,455,379,263,210,6
556,0.29,0.9,0.28,-0.67,-5.13,-2.93,327,458,380,261,208,6
557,0.29,0.9,0.28,5.19,-0.67,-0.55,326,454,379,259,209,6
558,0.29,0.91,0.3,0.98,-3.6,-2.69,326,457,384,261,211,6
559,0.3,0.91,0.29,-1.28,-4.09,-3.66,326,450,390,260,212,6
560,0.3,0.91,0.27,4.76,-2.75,-1.46,324,450,388,263,212,6
561,0.3,0.91,0.28,0.12,-2.69,-2.62,329,458,388,259,209,6
562,0.32,0.93,0.29,-0.43,-5.55,1.28,325,458,387,262,210,6
563,0.32,0.91,0.29,0.37,-2.2,-1.77,323,455,388,260,210,6
564,0.32,0.91,0.28,-0.55,-4.52,-2.62,327,454,391,259,238,6
565,0.32,0.91,0.28,0.49,-4.46,-1.95,326,457,387,256,210,6
566,0.32,0.9,0.29,-0.79,-4.03,-2.69,329,454,385,260,209,6
567,0.32,0.89,0.28,0.0,-2.93,-2.75,326,454,386,263,210,6
568,0.32,0.9,0.29,0.43,-3.05,-2.75,327,455,387,263,212,6
569,0.32,0.9,0.29,-1.71,-4.09,-2.08,327,455,384,264,210,6
570,0.32,0.9,0.29,0.79,-3.6,-2.2,326,455,387,263,213,6
571,0.33,0.9,0.29,0.43,-2.38,-3.6,327,454,383,264,211,6
572,0.31,0.89,0.29,1.4,-2.69,-2.87,331,454,386,263,213,6
573,0.36,0.89,0.25,11.17,15.01,-22.46,328,458,383,266,213,6
574,0.28,0.92,0.29,3.42,-2.93,-2.32,329,454,387,257,211,6
575,0.23,0.98,0.24,-10.62,-17.82,-9.16,328,449,389,258,214,6
576,0.3,0.93,0.29,-0.12,-7.63,-4.15,331,454,391,264,214,6
577,0.28,0.88,0.29,-0.18,-2.5,-3.23,329,455,391,265,213,6
578,0.26,0.92,0.29,3.05,0.18,-2.44,328,455,388,262,211,6
579,0.26,0.92,0.29,-0.73,-4.21,-1.59,329,452,388,261,214,6
580,0.28,0.92,0.29,-0.31,-3.6,-2.99,327,454,392,265,208,6
581,0.28,0.92,0.28,0.06,-3.54,-1.59,323,456,390,262,215,6
582,0.29,0.92,0.28,-1.04,-1.53,-3.78,330,454,389,260,211,6
583,0.28,0.91,0.28,0.43,-3.66,-1.71,328,449,389,264,213,6
584,0.28,0.92,0.28,-0.79,-2.56,-2.56,327,454,389,266,213,6
585,0.28,0.91,0.29,0.12,-3.78,-1.59,328,456,388,265,210,6
586,0.28,0.92,0.29,-0.49,-2.75,-3.42,328,458,391,263,214,6
587,0.29,0.9,0.29,-0.67,-4.52,-1.65,327,457,389,260,208,6
588,0.29,0.91,0.29,-0.31,-2.75,-3.6,329,456,390,262,215,6
589,0.29,0.91,0.28,-0.37,-4.7,-2.44,325,451,392,265,215,6
590,0.3,0.92,0.28,0.12,-2.26,-2.81,331,459,388,264,212,6
591,0.29,0.91,0.29,0.31,-1.89,-2.5,326,455,389,264,215,6
592,0.29,0.91,0.28,0.12,-3.36,-2.56,331,449,385,266,216,6
593,0.29,0.91,0.28,1.04,-2.5,-1.89,328,449,384,263,213,6
594,0.3,0.91,0.29,1.4,-2.93,-2.44,329,454,383,263,213,6
595,0.3,0.91,0.28,-0.55,-2.87,-2.75,325,461,384,265,217,6
596,0.29,0.91,0.29,0.98,-2.99,-2.2,331,448,387,266,214,6
597,0.29,0.91,0.29,1.04,-2.99,-2.87,328,454,385,263,213,6
598,0.3,0.91,0.28,0.06,-3.11,-1.89,328,452,386,264,212,6
599,0.31,0.91,0.28,0.12,-1.83,-3.05,329,452,389,263,214,6
600,0.3,0.91,0.28,0.24,-2.56,-2.87,328,458,387,263,214,6
601,0.3,0.92,0.29,1.28,-2.69,-2.56,326,455,385,265,215,6
602,0.3,0.91,0.29,0.06,-3.23,-2.44,327,457,386,266,214,6
603,0.3,0.91,0.29,0.18,-2.08,-3.6,331,456,384,265,212,6
604,0.29,0.91,0.29,1.77,-2.99,-2.2,328,453,385,266,214,6
605,0.31,0.91,0.3,-0.18,-2.87,-2.56,328,458,386,266,216,6
606,0.31,0.91,0.29,0.55,-2.14,-2.87,328,460,385,266,218,6
607,0.3,0.91,0.3,1.04,-2.99,-2.56,330,453,386,267,218,6
608,0.3,0.91,0.3,-0.24,-3.72,-2.5,330,450,387,261,215,6
609,0.3,0.91,0.3,-0.06,-2.99,-2.26,328,453,385,267,223,6
610,0.3,0.91,0.29,0.06,-3.36,-2.62,329,454,386,267,212,6
611,0.31,0.91,0.29,-0.24,-4.03,-2.93,330,454,382,260,217,6
612,0.29,0.9,0.29,0.55,-2.62,-1.83,325,454,386,267,221,6
613,0.3,0.91,0.3,1.53,-3.78,-2.99,328,450,386,267,218,6
614,0.31,0.91,0.29,0.43,-2.32,-3.36,325,458,386,263,218,6
615,0.29,0.9,0.29,0.12,-1.95,-2.32,326,457,388,264,214,6
616,0.29,0.9,0.29,0.92,-2.32,-1.95,329,457,391,263,218,6
617,0.29,0.91,0.29,0.43,-3.3,-2.38,325,454,392,262,218,6
618,0.29,0.91,0.29,-0.12,-3.54,-2.62,328,453,390,262,216,6
619,0.29,0.91,0.28,-0.79,-3.54,-2.26,329,457,389,267,214,6
620,0.3,0.9,0.29,1.1,-3.11,-2.26,326,459,393,265,218,6
621,0.3,0.91,0.28,2.14,-2.2,-2.2,328,454,392,267,216,6
622,0.3,0.91,0.29,0.61,-2.87,-2.69,324,457,390,268,211,6
623,0.3,0.91,0.29,-1.83,-2.62,-3.11,331,449,394,267,217,6
624,0.3,0.9,0.29,-1.16,-2.69,-2.62,329,452,389,266,217,6
625,0.31,0.91,0.3,0.0,-1.83,-2.44,325,459,387,266,217,6
626,0.3,0.9,0.3,-0.49,-2.93,-2.99,325,458,390,265,216,6
627,0.3,0.9,0.3,-0.06,-1.77,-3.11,328,455,392,266,216,6
628,0.3,0.9,0.3,0.73,-3.42,-2.87,330,455,393,266,219,6
629,0.29,0.91,0.29,1.59,-3.54,-1.59,328,454,401,267,218,6
630,0.3,0.91,0.29,-0.06,-2.69,-2.14,331,455,386,265,215,6
631,0.3,0.9,0.28,4.46,-3.42,-1.1,329,452,389,263,216,6
632,0.3,0.91,0.3,-0.31,-2.87,-3.17,331,450,389,266,215,6
633,0.3,0.91,0.29,-0.73,-3.48,-3.11,329,452,385,269,216,6
634,0.29,0.9,0.28,2.32,-3.11,-1.77,328,457,386,264,216,6
635,0.3,0.91,0.29,0.92,-3.72,-2.2,330,460,386,268,226,6
636,0.3,0.91,0.3,-1.16,-2.5,-3.3,330,450,389,266,218,6
637,0.29,0.91,0.3,-0.31,-3.11,-2.38,330,457,383,266,219,6
638,0.29,0.92,0.3,0.18,-3.05,-2.93,328,448,385,271,218,6
639,0.3,0.91,0.29,0.49,-3.42,-2.81,331,452,386,267,216,6
640,0.29,0.92,0.29,1.46,-1.46,-2.81,327,455,390,269,216,6
641,0.29,0.91,0.29,0.24,-3.3,-2.99,326,452,388,266,217,6
642,0.29,0.9,0.29,0.55,-3.3,-2.38,329,461,390,272,219,6
643,0.29,0.91,0.29,0.43,-2.5,-2.44,326,447,386,263,220,6
644,0.3,0.91,0.29,0.61,-4.27,-3.17,332,451,382,266,216,6
645,0.3,0.91,0.3,1.22,-2.44,-2.62,325,456,385,267,220,6
646,0.29,0.91,0.29,0.79,-2.87,-1.77,328,453,384,269,237,6
647,0.3,0.91,0.29,1.53,-2.87,-2.38,328,446,384,265,217,6
648,0.3,0.91,0.29,0.0,-3.3,-2.32,329,459,387,266,217,6
649,0.3,0.9,0.29,0.06,-3.36,-2.44,329,456,385,270,214,6
650,0.3,0.91,0.29,-0.12,-2.93,-2.81,330,464,389,264,218,6
651,0.29,0.91,0.29,1.04,-2.14,-2.44,330,461,385,268,219,6
652,0.29,0.91,0.28,0.98,-3.36,-3.05,329,453,383,270,217,6
653,0.3,0.91,0.29,-0.18,-2.38,-2.75,329,451,383,267,217,6
654,0.29,0.91,0.29,-0.31,-4.46,-2.99,329,454,385,264,217,6
655,0.3,0.92,0.29,0.12,-2.32,-3.36,327,456,385,265,217,6
656,0.29,0.9,0.29,1.16,-2.44,-2.08,329,452,385,270,219,6
657,0.3,0.91,0.3,-0.79,-3.97,-3.17,336,468,388,278,218,6
658,0.29,0.91,0.3,0.31,-2.75,-2.2,326,457,388,269,218,6
659,0.3,0.9,0.3,-0.06,-4.88,-2.08,328,454,390,267,219,6
660,0.3,0.9,0.29,0.73,-2.5,-1.59,328,449,390,269,218,6
661,0.3,0.91,0.31,0.73,-2.32,-1.89,329,447,387,269,221,6
662,0.3,0.9,0.3,-0.06,-3.17,-1.46,328,453,388,272,219,6
663,0.31,0.9,0.3,0.67,-3.36,-2.5,330,454,387,271,217,6
664,0.3,0.9,0.3,0.06,-2.62,-2.08,327,456,386,260,222,6
665,0.31,0.91,0.3,0.55,-2.87,-3.66,325,461,389,267,217,6
666,0.29,0.9,0.3,1.1,-2.5,-1.89,325,453,384,268,239,6
667,0.31,0.91,0.31,0.49,-2.87,-3.23,328,458,387,264,222,6
668,0.3,0.9,0.31,0.85,-2.69,-2.2,330,458,388,269,219,6
669,0.3,0.91,0.31,1.1,-2.32,-2.81,329,453,390,270,218,6
670,0.29,0.9,0.3,0.61,-4.09,-3.11,328,453,386,267,223,6
671,0.3,0.9,0.31,0.79,-2.32,-2.75,326,453,387,267,216,6
672,0.3,0.9,0.31,0.79,-3.11,-3.23,332,454,384,267,219,6
673,0.3,0.91,0.31,0.85,-2.38,-2.93,330,452,387,269,221,6
674,0.29,0.9,0.31,0.55,-3.6,-3.23,333,452,384,269,219,6
675,0.31,0.91,0.32,0.67,-1.71,-3.66,330,454,390,269,221,6
676,0.29,0.9,0.31,1.16,-3.36,-2.69,326,455,387,270,223,6
677,0.3,0.91,0.32,0.79,-2.44,-3.3,330,450,389,270,219,6
678,0.29,0.9,0.31,0.79,-3.66,-2.56,329,457,387,271,223,6
679,0.31,0.91,0.31,0.92,-3.6,-3.48,331,466,387,269,222,6
680,0.29,0.9,0.31,0.49,-3.3,-2.69,331,451,386,267,219,6
681,0.3,0.91,0.31,0.0,-3.36,-2.69,329,450,387,267,220,6
682,0.29,0.9,0.3,-0.55,-3.72,-1.95,332,454,389,268,220,6
683,0.3,0.9,0.31,1.28,-2.01,-2.26,330,453,386,270,233,6
684,0.29,0.9,0.3,-0.06,-2.87,-2.08,328,453,387,280,219,6
685,0.3,0.9,0.31,0.98,-3.42,-2.69,329,452,386,272,219,6
686,0.3,0.91,0.31,15.56,-1.71,-3.05,331,454,386,268,222,6
687,0.29,0.91,0.31,0.12,-2.62,-2.62,330,453,387,269,222,6
688,0.3,0.91,0.31,0.61,-3.23,-3.42,334,453,388,271,257,6
689,0.29,0.9,0.3,0.37,-2.75,-2.81,332,454,386,272,218,6
690,0.29,0.9,0.31,0.92,-3.11,-2.38,331,453,385,270,222,6
691,0.29,0.9,0.3,0.18,-2.69,-2.38,327,454,386,270,222,6
692,0.29,0.91,0.31,0.24,-3.42,-2.38,331,457,387,270,230,6
693,0.29,0.91,0.31,-0.24,-2.99,-2.62,326,458,388,269,223,6
694,0.29,0.91,0.3,1.1,-1.89,-2.56,326,458,390,269,220,6
695,0.29,0.91,0.3,-0.61,-3.72,-2.32,331,454,390,269,215,6
696,0.28,0.91,0.3,0.85,-2.32,-1.95,331,455,396,271,219,6
697,0.29,0.91,0.3,0.92,-3.85,-1.77,327,456,387,269,221,6
698,0.29,0.91,0.3,0.92,-3.48,-1.28,331,457,387,269,220,6
699,0.3,0.91,0.3,1.34,-2.5,-2.26,328,447,387,269,221,6
700,0.29,0.9,0.3,0.55,-3.42,-2.2,330,454,389,269,222,6
701,0.3,0.91,0.31,0.37,-2.99,-2.56,332,456,388,273,224,6
702,0.29,0.91,0.3,1.16,-2.56,-2.44,331,454,387,270,222,6
703,0.3,0.9,0.31,0.0,-3.36,-2.38,333,449,387,266,223,6
704,0.28,0.91,0.3,0.61,-2.2,-2.32,341,454,387,269,216,6
705,0.3,0.91,0.31,-0.06,-3.6,-2.69,338,449,388,270,228,6
706,0.29,0.9,0.3,0.55,-2.87,-2.14,329,458,383,269,221,6
707,0.31,0.91,0.31,0.24,-3.66,-2.93,343,456,388,268,223,6
708,0.3,0.9,0.3,0.92,-1.1,-1.04,330,457,391,273,225,6
709,0.28,0.91,0.31,0.43,-1.95,-2.56,329,449,391,271,217,6
710,0.3,0.9,0.3,-0.98,-5.74,-1.4,329,453,390,269,223,6
711,0.28,0.92,0.3,1.59,-2.38,0.18,327,454,391,273,223,6
712,0.33,0.92,0.3,1.1,1.46,2.44,330,450,394,270,222,6
713,0.23,0.9,0.31,-7.2,-4.76,4.33,327,457,391,269,223,6
714,0.3,0.84,0.29,-1.59,-5.37,-12.76,327,456,390,271,263,6
715,0.37,0.92,0.33,0.98,3.91,-6.16,331,451,391,273,225,6
716,0.28,0.91,0.31,-3.78,-3.23,7.02,330,457,389,270,223,6
717,0.31,0.89,0.33,-2.14,-3.05,-3.3,327,449,391,273,223,6
718,0.31,0.9,0.31,-1.4,-3.6,-1.59,331,454,384,270,224,6
719,0.31,0.89,0.32,-0.24,-2.69,-4.33,333,455,390,271,224,6
720,0.3,0.89,0.31,1.1,1.22,-2.56,330,455,393,275,223,6
721,0.29,0.9,0.32,0.24,-2.62,-2.87,329,458,390,271,226,6
722,0.29,0.89,0.32,-0.43,-1.77,-1.89,330,454,391,269,225,6
723,0.3,0.9,0.32,0.12,-3.6,-2.81,330,452,392,277,220,6
724,0.29,0.89,0.32,0.61,-3.17,-2.62,329,458,392,272,224,6
725,0.3,0.9,0.32,0.98,-3.54,-3.05,330,454,394,266,222,6
726,0.29,0.9,0.31,0.61,-3.54,-1.83,328,457,393,272,223,6
727,0.31,0.9,0.32,-0.61,-3.17,-3.11,330,454,389,272,225,6
728,0.3,0.9,0.32,0.61,-3.36,-1.77,331,454,391,272,223,6
729,0.31,0.9,0.31,0.24,-3.72,-2.87,328,455,390,270,222,6
730,0.3,0.9,0.32,0.85,-3.11,-1.83,329,455,400,273,228,6
731,0.3,0.9,0.32,0.49,-2.32,-2.75,331,452,391,270,223,6
732,0.3,0.9,0.32,1.1,-3.42,-1.77,329,453,389,271,220,6
733,0.3,0.9,0.31,0.37,-2.32,-2.38,328,456,390,270,220,6
734,0.3,0.9,0.32,0.79,-3.11,-2.32,331,454,387,270,222,6
735,0.3,0.9,0.31,0.43,-2.81,-2.32,330,455,391,271,220,6
736,0.3,0.9,0.31,0.79,-3.17,-2.62,329,458,392,271,226,6
737,0.29,0.9,0.31,0.61,-2.56,-2.62,332,454,388,272,222,6
738,0.3,0.9,0.31,1.16,-2.81,-2.32,330,458,391,271,220,6
739,0.3,0.9,0.3,0.06,-2.56,-2.44,332,455,388,275,225,6
740,0.3,0.9,0.31,0.85,-3.23,-2.2,330,457,388,273,223,6
741,0.3,0.9,0.3,0.18,-1.46,-2.56,330,455,393,270,225,6
742,0.28,0.93,0.31,3.3,-0.18,-2.87,317,455,394,271,253,6
743,0.29,0.85,0.28,-3.36,-1.46,-5.74,336,451,391,271,222,6
744,0.27,0.92,0.31,6.53,2.69,-2.38,328,454,391,271,221,6
745,0.26,0.93,0.29,-2.2,-7.81,-2.81,333,453,393,268,222,6
746,0.27,0.91,0.29,-0.85,-5.86,-0.67,330,454,394,273,224,6
747,0.29,0.92,0.3,0.06,-3.91,-3.42,333,453,400,270,224,6
748,0.27,0.92,0.29,-0.31,-4.21,-2.56,330,450,390,271,225,6
749,0.28,0.91,0.3,0.18,-2.44,-3.23,330,456,389,274,231,6
750,0.28,0.92,0.3,-0.31,-2.56,-2.14,331,452,391,273,224,6
751,0.28,0.9,0.31,-1.83,-6.35,-2.99,333,452,393,273,225,6
752,0.29,0.91,0.32,-0.37,-0.98,-3.17,329,456,394,268,225,6
753,0.29,0.9,0.31,0.43,-2.69,-2.32,329,449,390,272,225,6
754,0.28,0.91,0.32,0.98,-1.16,-3.3,330,455,387,267,235,6
755,0.28,0.9,0.31,1.53,-1.4,-1.95,333,457,393,271,226,6
756,0.28,0.91,0.31,-0.92,-4.27,-2.2,330,457,387,274,225,6
757,0.26,0.9,0.31,-5.55,-10.86,-2.2,330,454,394,274,222,6
758,0.33,0.89,0.34,-2.44,0.12,-2.87,334,454,391,270,223,6
759,0.27,0.94,0.37,-2.81,-9.34,-0.79,332,452,391,273,221,6
760,0.32,0.88,0.31,4.82,3.91,-7.69,332,454,391,274,224,6
761,0.28,0.91,0.33,0.61,-1.77,-1.53,330,454,389,271,222,6
762,0.32,0.89,0.36,-1.46,1.59,-2.26,337,450,392,273,223,6
763,0.27,0.92,0.36,-9.77,-4.58,-2.5,330,454,390,268,223,6
764,0.29,0.94,0.35,8.06,-3.6,-3.11,331,454,394,275,224,6
765,0.29,0.92,0.37,-1.46,-3.48,-10.44,333,453,391,273,223,6
766,0.31,0.8,0.31,-2.69,-3.6,3.85,332,458,394,277,222,6
767,0.24,0.85,0.27,5.13,10.68,-9.16,333,455,392,274,223,6
768,0.27,0.85,0.35,15.01,-0.92,3.36,332,449,389,271,224,6
769,0.34,0.86,0.36,3.42,-5.43,-1.46,332,451,392,272,225,6
770,0.34,0.88,0.35,-1.34,-4.7,-3.6,334,455,388,275,225,6
771,0.31,0.87,0.36,1.71,-1.83,-1.4,330,454,391,272,223,6
772,0.3,0.88,0.37,-0.98,-1.71,-2.69,333,454,391,272,226,6
773,0.31,0.87,0.37,-0.67,-4.58,-1.95,330,448,394,275,226,6
774,0.32,0.88,0.36,0.73,-4.52,-1.95,332,450,392,272,224,6
775,0.32,0.89,0.36,0.18,-3.17,-2.81,329,457,392,279,223,6
776,0.32,0.88,0.36,-0.73,-3.97,-2.38,331,454,397,274,224,6
777,0.32,0.88,0.36,0.12,-1.22,-3.23,331,453,390,270,225,6
778,0.32,0.89,0.37,8.61,3.72,-10.56,332,457,389,273,226,6
779,0.31,0.86,0.34,-1.83,-3.36,-4.64,333,454,391,273,225,6
780,0.31,0.85,0.32,-8.36,-2.26,-4.03,331,458,392,273,230,6
781,0.31,0.89,0.38,4.7,-2.69,-3.05,330,456,392,275,226,6
782,0.3,0.88,0.34,-2.5,-3.3,-2.93,327,453,387,272,223,6
783,0.32,0.88,0.36,-0.43,-5.25,-1.16,330,449,390,274,222,6
784,0.3,0.88,0.35,-1.34,-1.46,-2.62,331,454,390,269,225,6
785,0.31,0.88,0.36,0.24,-2.75,-2.5,331,454,390,273,225,6
786,0.31,0.88,0.36,-0.43,-3.05,-2.69,332,454,390,269,225,6
787,0.31,0.87,0.37,0.06,-2.2,-1.65,331,456,392,272,224,6
788,0.31,0.88,0.36,1.77,-3.85,-3.3,331,445,390,276,224,6
789,0.31,0.89,0.37,1.04,-1.71,-3.11,332,455,390,270,226,6
790,0.3,0.87,0.36,0.67,-2.38,-2.5,329,454,391,272,224,6
791,0.3,0.88,0.36,-0.24,-2.01,-2.26,331,448,397,273,221,6
792,0.3,0.89,0.37,-0.55,-2.69,-3.3,332,454,391,270,223,6
793,0.29,0.88,0.36,-0.73,-3.05,-2.44,332,458,390,275,220,6
794,0.3,0.88,0.37,-0.24,-3.85,-2.87,329,454,393,270,227,6
795,0.3,0.89,0.36,-0.55,-3.17,-2.32,328,453,393,272,227,6
796,0.3,0.88,0.37,2.87,-0.37,-0.85,332,452,390,275,228,6
797,0.29,0.89,0.37,0.79,-2.01,-2.38,331,448,386,274,224,6
798,0.3,0.88,0.37,-0.49,-4.58,-1.65,327,457,390,275,224,6
799,0.3,0.88,0.37,0.06,-3.91,-2.62,329,454,394,273,225,6
800,0.3,0.88,0.38,-1.71,-5.74,-1.46,330,457,389,272,222,6
801,0.3,0.88,0.39,1.28,-3.17,-0.92,327,457,390,275,236,6
802,0.35,0.88,0.38,-8.42,-2.62,-8.42,329,457,386,271,223,6
803,0.34,0.87,0.41,3.23,-4.88,-2.32,330,456,392,273,229,6
804,0.32,0.87,0.39,-2.14,-4.33,-5.25,334,448,389,272,224,6
805,0.32,0.84,0.38,0.31,-5.31,-1.77,331,461,392,277,227,6
806,0.31,0.86,0.41,3.6,-3.42,0.31,333,453,389,272,221,6
807,0.32,0.87,0.39,-1.04,-4.21,-3.48,333,454,389,274,226,6
808,0.32,0.87,0.39,0.92,-2.56,-2.56,329,457,392,270,226,6
809,0.32,0.87,0.38,-0.12,-4.58,-2.75,332,453,388,273,228,6
810,0.33,0.87,0.38,0.43,-2.93,-2.56,331,452,391,276,228,6
811,0.32,0.86,0.38,-0.31,-3.3,-2.26,329,457,386,273,228,6
812,0.32,0.87,0.38,-0.55,-3.6,-3.17,334,454,392,273,225,6
813,0.32,0.87,0.38,1.04,-2.99,-3.48,330,458,389,274,227,6
814,0.32,0.86,0.38,0.49,-4.03,-2.32,334,454,392,273,225,6
815,0.33,0.86,0.38,0.85,-3.54,-1.46,332,453,391,277,225,6
816,0.33,0.87,0.38,0.31,-2.75,-3.17,330,458,390,272,227,6
817,0.31,0.87,0.38,0.98,-2.93,-2.56,335,451,386,271,225,6
818,0.32,0.88,0.39,-0.85,-4.03,-2.2,332,458,389,273,225,6
819,0.32,0.86,0.39,-1.1,-2.56,-2.08,331,454,387,273,225,6
820,0.33,0.86,0.39,-0.12,-2.81,-2.26,333,457,388,273,226,6
821,0.32,0.87,0.39,0.06,-3.23,-2.69,333,454,389,278,223,6
822,0.32,0.86,0.38,0.18,-3.78,-2.14,330,456,385,273,226,6
823,0.32,0.87,0.38,1.16,-2.26,-1.89,333,452,385,274,224,6
824,0.32,0.86,0.38,0.79,-2.01,-3.11,333,453,387,276,226,6
825,0.31,0.88,0.39,1.04,-2.2,-1.95,330,452,390,272,224,6
826,0.34,0.87,0.4,-0.18,-1.83,-2.75,329,457,393,277,227,6
827,0.31,0.84,0.38,0.61,-2.69,-1.34,331,454,387,277,225,6
828,0.34,0.87,0.4,0.24,-2.08,-2.08,333,455,387,277,226,6
829,0.33,0.85,0.39,0.43,-4.27,-2.32,333,454,386,274,226,6
830,0.33,0.86,0.4,-0.61,-3.05,-4.03,331,450,388,276,225,6
831,0.33,0.85,0.39,-1.1,-4.21,-2.62,331,452,390,275,223,6
832,0.33,0.86,0.4,1.71,-2.75,-1.77,331,455,389,273,225,6
833,0.32,0.86,0.39,0.79,-2.93,-2.56,335,449,388,275,233,6
834,0.32,0.87,0.4,-0.24,-3.66,-2.44,334,454,391,274,224,6
835,0.32,0.86,0.39,0.61,-2.26,-2.93,333,457,387,275,225,6
836,0.33,0.86,0.39,0.06,-4.15,-3.11,339,457,387,276,228,6
837,0.34,0.87,0.38,-0.79,-2.93,-3.54,334,453,389,278,223,6
838,0.33,0.86,0.38,-0.06,-3.11,-3.11,333,450,389,275,231,6
839,0.33,0.87,0.38,0.31,-2.93,-2.99,330,456,386,278,225,6
840,0.32,0.86,0.38,1.34,-0.12,-1.71,328,453,391,275,224,6
841,0.32,0.87,0.38,0.73,-2.2,-2.75,333,454,389,274,225,6
842,0.32,0.87,0.38,0.12,-3.05,-2.26,331,450,394,283,228,6
843,0.32,0.87,0.39,0.37,-3.48,-2.44,335,456,391,274,219,6
844,0.33,0.87,0.38,0.79,-3.42,-2.08,336,457,391,273,226,6
845,0.33,0.88,0.39,1.04,-3.3,-2.14,331,457,394,276,228,6
846,0.33,0.86,0.38,0.06,-2.87,-2.14,333,452,390,275,225,6
847,0.31,0.87,0.38,-0.55,-5.07,-2.44,332,450,390,279,227,6
848,0.32,0.89,0.39,-1.53,-3.97,-2.2,332,452,391,278,226,6
849,0.33,0.85,0.38,-0.61,-5.19,-2.87,336,452,389,276,226,6
850,0.33,0.86,0.38,3.05,-1.59,-2.69,334,457,387,278,223,6
851,0.33,0.87,0.37,0.43,-2.99,-2.01,336,455,391,274,225,6
852,0.31,0.87,0.37,-0.55,-2.75,-2.44,332,455,391,276,227,6
853,0.33,0.87,0.37,-2.01,-2.75,-6.04,332,455,392,276,228,6
854,0.33,0.86,0.37,2.99,-3.11,-2.08,333,452,391,275,228,6
855,0.33,0.87,0.4,-1.83,-1.71,-1.83,335,454,391,278,225,6
856,0.32,0.86,0.38,0.61,-4.27,-2.87,336,458,392,277,221,6
857,0.33,0.86,0.38,0.37,-4.82,-2.62,334,466,390,274,229,6
858,0.33,0.87,0.37,1.34,-4.09,-2.81,334,449,392,275,226,6
859,0.33,0.87,0.37,-1.4,-4.52,-2.5,336,452,389,273,226,6
860,0.33,0.88,0.38,0.73,-3.3,-3.11,333,454,389,271,232,6
861,0.33,0.87,0.37,-0.12,-3.3,-2.08,332,457,389,274,227,6
862,0.32,0.87,0.38,-0.37,-3.17,-2.93,330,454,387,278,226,6
863,0.32,0.87,0.38,0.67,-1.46,-2.38,332,454,390,278,226,6
864,0.31,0.87,0.39,0.49,-2.56,-2.01,336,454,385,274,228,6
865,0.34,0.87,0.39,-0.61,-3.6,-3.05,333,453,392,275,227,6
866,0.32,0.86,0.38,1.16,-2.69,-1.89,333,453,392,277,223,6
867,0.33,0.87,0.39,0.67,-3.05,-2.62,336,453,390,278,227,6
868,0.32,0.86,0.38,-0.49,-2.32,-2.38,335,456,391,276,241,6
869,0.33,0.87,0.39,0.73,-2.75,-2.69,339,456,391,277,226,6
870,0.33,0.86,0.39,0.43,-2.2,-3.23,334,458,391,277,228,6
871,0.33,0.86,0.38,2.75,-1.71,-3.17,334,454,392,276,228,6
872,0.32,0.87,0.38,2.2,-3.6,-1.77,334,454,388,274,230,6
873,0.33,0.88,0.39,3.6,-1.04,-1.04,331,458,388,278,228,6
874,0.32,0.87,0.38,-1.04,-3.17,-3.54,334,448,388,273,228,6
875,0.31,0.87,0.38,-0.49,-3.11,-2.99,332,453,398,278,232,6
876,0.32,0.88,0.38,0.49,-1.71,-3.85,334,450,392,274,229,6
877,0.31,0.87,0.37,1.59,-3.36,-1.89,335,454,390,278,226,6
878,0.31,0.87,0.4,0.85,-5.13,-1.95,334,457,388,279,228,6
879,0.31,0.87,0.38,-0.06,-3.3,-1.4,335,452,390,275,224,6
880,0.32,0.85,0.39,1.16,-4.52,-0.43,336,455,390,274,226,6
881,0.36,0.87,0.39,2.38,1.04,-2.01,334,456,390,277,226,6
882,0.33,0.86,0.38,1.34,-1.59,0.61,335,454,392,279,227,6
883,0.35,0.87,0.38,-1.16,-2.75,-3.66,333,449,390,273,229,6
884,0.32,0.86,0.37,-1.34,-3.11,-3.78,337,453,391,275,229,6
885,0.32,0.87,0.39,-1.1,-3.05,-2.93,333,455,391,275,225,6
886,0.33,0.86,0.39,0.12,-0.06,-2.69,343,453,402,275,229,6
887,0.31,0.87,0.38,2.69,-0.67,-2.14,333,454,391,274,230,6
888,0.31,0.87,0.39,0.06,-3.6,-3.66,334,454,392,279,237,6
889,0.31,0.88,0.38,-0.37,-4.21,-1.95,334,454,390,278,230,6
890,0.31,0.87,0.39,0.61,-4.21,-2.93,333,453,391,276,228,6
891,0.3,0.87,0.38,-1.28,-3.91,-2.99,333,454,393,275,225,6
892,0.32,0.87,0.39,0.37,-3.97,-3.11,334,453,387,277,230,6
893,0.31,0.87,0.38,0.18,-3.3,-2.2,335,451,394,276,228,6
894,0.32,0.87,0.37,0.61,-3.48,-2.44,334,453,394,281,227,6
895,0.31,0.87,0.38,0.73,-1.95,-2.99,333,469,394,277,227,6
896,0.3,0.88,0.37,2.62,-2.87,-2.2,336,451,389,276,228,6
897,0.32,0.88,0.38,-0.43,-2.38,-3.97,335,458,399,274,235,6
898,0.3,0.87,0.38,1.16,-3.17,-2.62,332,454,394,278,228,6
899,0.31,0.87,0.38,0.85,-2.62,-2.44,334,458,398,275,227,6
900,0.31,0.87,0.37,0.67,-2.93,-2.26,335,454,392,274,230,6
901,0.31,0.87,0.38,0.98,-2.93,-2.75,335,454,399,277,230,6
902,0.31,0.87,0.38,0.12,-2.99,-3.17,336,455,393,275,228,6
903,0.3,0.88,0.38,-1.71,-3.17,-2.14,333,458,387,279,225,6
904,0.3,0.88,0.39,0.98,-3.42,-2.44,332,454,394,285,227,6
905,0.31,0.87,0.38,0.67,-3.6,-2.93,334,455,387,273,230,6
906,0.31,0.87,0.38,0.31,-4.33,-2.14,332,453,388,275,228,6
907,0.33,0.88,0.39,-1.16,-3.6,-1.53,340,451,392,276,230,6
908,0.37,0.87,0.4,-0.18,-3.78,-4.58,336,454,393,274,227,6
909,0.31,0.9,0.36,4.09,-5.62,-6.04,332,450,391,278,228,6
910,0.33,0.89,0.34,-0.06,-1.1,-0.49,331,458,392,277,228,6
911,0.31,0.89,0.35,-3.72,-10.74,-1.95,334,450,391,276,227,6
912,0.28,0.92,0.36,6.35,-1.16,-1.53,333,452,392,277,229,6
913,0.29,0.89,0.33,1.1,-3.85,-3.36,335,459,393,275,227,6
914,0.27,0.9,0.33,-1.34,-5.8,-2.93,332,450,392,273,227,6
915,0.3,0.9,0.34,-0.67,-6.96,-2.44,334,454,391,275,229,6
916,0.28,0.9,0.35,-0.49,-5.31,-3.05,335,450,390,278,230,6
917,0.28,0.9,0.34,-0.12,-5.49,-3.17,337,454,393,276,229,6
918,0.29,0.9,0.34,0.0,-4.09,-2.99,332,452,391,278,228,6
919,0.3,0.88,0.32,-2.14,-5.13,-2.62,334,458,390,276,228,6
920,0.29,0.9,0.33,1.04,-3.42,-2.75,333,455,391,278,227,6
921,0.29,0.89,0.34,-0.12,-3.11,-1.77,333,458,390,276,229,6
922,0.3,0.9,0.33,0.55,-4.21,-3.17,333,457,393,276,230,6
923,0.3,0.91,0.33,0.98,-3.11,-3.42,333,456,393,276,227,6
924,0.31,0.9,0.32,0.98,-3.11,-1.83,330,458,392,277,229,6
925,0.3,0.9,0.33,0.67,-3.48,-2.08,337,457,392,276,231,6
926,0.3,0.9,0.32,0.12,-2.44,-2.32,332,453,393,275,227,6
927,0.3,0.9,0.34,0.67,-3.3,-2.75,330,454,402,287,228,6
928,0.3,0.89,0.33,0.55,-3.23,-2.14,334,458,389,278,228,6
929,0.29,0.89,0.33,0.31,-2.75,-2.08,333,457,389,274,230,6
930,0.3,0.9,0.33,1.46,-2.69,-2.69,333,454,388,275,226,6
931,0.3,0.9,0.34,-0.43,-3.36,-2.93,334,456,391,278,227,6
932,0.29,0.9,0.33,0.79,-2.44,-2.93,333,449,393,278,230,6
933,0.3,0.9,0.33,0.61,-4.46,-2.75,334,457,389,278,228,6
934,0.29,0.89,0.33,0.61,-2.2,-2.32,336,457,391,278,223,6
935,0.29,0.9,0.33,0.43,-3.23,-2.5,334,453,390,286,230,6
936,0.3,0.89,0.33,0.67,-2.62,-2.32,333,459,388,278,225,6
937,0.3,0.89,0.33,0.18,-2.62,-2.99,333,450,391,278,227,6
938,0.29,0.89,0.33,0.92,-2.38,-2.56,330,455,391,276,227,6
939,0.29,0.9,0.33,0.67,-2.75,-2.32,334,454,392,278,223,6
940,0.29,0.9,0.33,0.18,-2.2,-2.08,333,454,388,278,231,6
941,0.29,0.9,0.33,0.92,-2.62,-2.69,330,458,390,279,227,6
942,0.3,0.9,0.34,-1.28,-3.97,-4.52,336,450,388,276,228,6
943,0.28,0.89,0.34,-0.06,-0.73,-4.15,331,459,389,277,225,6
944,0.27,0.89,0.35,2.32,-3.78,-1.89,333,455,393,278,230,6
945,0.29,0.89,0.34,0.37,-2.2,-0.37,333,453,390,276,230,6
946,0.28,0.9,0.33,2.01,-1.95,-2.5,332,458,390,277,227,6
947,0.29,0.89,0.33,0.61,-2.81,-1.34,330,455,393,280,226,6
948,0.28,0.9,0.33,0.24,-3.23,-3.05,335,455,390,279,229,6
949,0.28,0.9,0.33,-0.55,-1.71,-1.77,335,455,402,277,227,6
950,0.28,0.9,0.33,1.16,-2.62,-2.93,333,455,389,279,230,6
951,0.28,0.9,0.34,-0.92,-3.11,-3.17,333,457,388,280,225,6
952,0.28,0.9,0.33,0.85,-3.72,-2.69,335,454,390,278,228,6
953,0.28,0.91,0.34,1.04,-1.65,-2.56,333,457,393,278,226,6
954,0.26,0.9,0.34,-0.49,-4.76,-3.54,330,450,391,276,229,6
955,0.28,0.9,0.35,-2.14,-2.38,-2.5,330,454,390,276,238,6
956,0.26,0.9,0.35,-0.31,-1.95,-2.56,332,454,392,278,231,6
957,0.27,0.9,0.35,0.18,-2.75,-2.93,331,449,392,278,227,6
958,0.26,0.9,0.35,-2.62,-2.08,-2.87,330,452,393,277,227,6
959,0.27,0.9,0.35,1.04,-3.85,-3.11,331,457,390,277,236,6
960,0.26,0.9,0.34,0.31,-3.78,-2.99,332,455,393,274,228,6
961,0.26,0.91,0.36,-1.77,-5.86,-3.05,332,450,393,274,230,6
962,0.26,0.9,0.34,3.17,-0.92,-3.66,332,455,390,280,230,6
963,0.25,0.88,0.32,-5.8,-5.43,-3.23,335,458,392,276,237,6
964,0.26,0.91,0.35,-2.26,-3.3,-3.72,333,454,393,280,226,6
965,0.25,0.9,0.36,2.14,-0.12,-2.14,337,451,393,278,228,6
966,0.24,0.91,0.34,0.43,-2.75,-2.56,329,450,391,279,228,6
967,0.25,0.9,0.35,0.98,-3.36,-2.5,332,451,389,276,228,6
968,0.25,0.91,0.34,-0.43,-3.11,-3.11,335,452,391,276,229,6
969,0.25,0.91,0.35,0.18,-3.42,-3.05,336,453,390,279,225,6
970,0.25,0.91,0.34,0.61,-2.2,-3.3,331,457,388,278,257,6
971,0.24,0.9,0.35,-0.31,-2.56,-2.38,335,454,392,279,227,6
972,0.25,0.9,0.35,0.24,-2.44,-2.69,336,458,392,285,231,6
973,0.24,0.9,0.34,-0.98,-3.66,-2.99,331,452,390,280,240,6
974,0.25,0.9,0.34,-0.06,-3.54,-2.81,335,450,393,279,228,6
975,0.24,0.9,0.35,0.24,-3.36,-2.69,333,458,390,279,257,6
976,0.24,0.9,0.34,0.12,-2.75,-2.32,330,454,387,278,227,6
977,0.24,0.9,0.34,0.67,-3.42,-2.62,334,452,393,280,228,6
978,0.24,0.9,0.35,0.06,-2.44,-2.08,335,460,394,276,229,6
979,0.23,0.91,0.35,0.31,-3.78,-2.62,336,454,392,280,229,6
980,0.24,0.91,0.34,0.55,-3.78,-2.01,334,459,390,274,226,6
981,0.24,0.91,0.34,0.98,-2.5,-3.23,335,459,392,277,230,6
982,0.24,0.92,0.34,0.18,-5.13,-2.5,332,454,393,276,231,6
983,0.24,0.91,0.34,-0.43,-6.16,-5.25,334,452,388,275,230,6
984,0.23,0.91,0.34,0.55,-4.7,-2.87,335,452,391,278,236,6
985,0.23,0.91,0.34,0.06,-4.09,-1.89,331,459,389,279,230,6
986,0.23,0.91,0.35,-0.43,-2.26,-2.5,341,455,386,277,232,6
987,0.23,0.91,0.34,0.85,-1.95,-1.65,336,464,389,277,228,6
988,0.22,0.91,0.35,2.32,-0.31,0.0,333,455,390,279,226,6
989,0.2,0.91,0.39,-0.61,1.53,1.22,333,454,386,278,227,6
990,0.26,0.89,0.34,0.0,1.77,2.69,334,453,388,280,238,6
991,0.28,0.9,0.37,-1.34,2.38,1.53,337,451,392,277,230,6
992,0.31,0.87,0.36,2.32,2.56,-6.96,331,449,390,277,230,6
993,0.27,0.89,0.36,-1.59,0.55,-2.26,336,452,390,275,226,6
994,0.27,0.9,0.39,2.99,-0.61,-2.5,334,454,391,276,231,6
995,0.28,0.88,0.37,-0.79,-3.6,-2.26,331,453,390,277,229,6
996,0.27,0.89,0.38,1.16,-2.01,-2.2,334,449,389,275,228,6
997,0.26,0.87,0.38,1.34,-1.16,-0.92,331,458,389,275,227,6
998,0.26,0.89,0.38,2.14,-2.87,-3.17,335,449,402,281,227,6
999,0.27,0.88,0.37,0.79,0.31,-5.55,336,449,389,274,231,6
1000,0.21,0.92,0.39,-0.92,-0.92,-7.81,333,457,389,280,229,6
1001,0.22,0.87,0.38,4.39,0.49,-0.06,336,458,397,277,230,6
1002,0.26,0.9,0.35,0.18,-0.31,-8.36,332,464,392,280,232,6
1003,0.18,0.87,0.38,-3.78,-7.02,-3.3,336,457,390,279,231,6
1004,0.19,0.91,0.42,-2.26,-2.5,-2.87,330,451,389,277,229,6
1005,0.19,0.89,0.43,-0.98,-4.09,-4.52,334,454,390,278,230,6
1006,0.19,0.88,0.43,-1.46,-3.72,-2.93,336,454,390,275,229,6
1007,0.18,0.88,0.44,-1.4,-4.7,-2.38,328,451,389,279,231,6
1008,0.19,0.88,0.44,-1.83,-4.7,-3.3,336,455,390,277,230,6
1009,0.19,0.87,0.44,-0.37,-2.93,-2.62,332,457,389,277,226,6
1010,0.19,0.88,0.45,-0.37,-3.11,-3.05,335,451,391,276,232,6
1011,0.19,0.88,0.45,-0.55,-4.52,-2.93,336,454,385,279,230,6
1012,0.2,0.88,0.45,2.75,-2.93,-1.83,331,455,390,287,228,6
1013,0.19,0.87,0.45,-0.67,-3.54,-2.93,330,453,389,280,230,6
1014,0.19,0.87,0.45,0.37,-3.17,-2.08,334,458,390,278,237,6
1015,0.19,0.88,0.45,1.34,-2.81,-3.05,334,458,389,277,230,6
1016,0.19,0.88,0.45,0.18,-2.81,-2.81,334,450,390,277,231,6
1017,0.2,0.91,0.44,-0.24,-2.62,-3.23,337,453,387,276,229,6
1018,0.19,0.87,0.44,-0.67,-3.78,-0.98,334,455,387,278,231,6
1019,0.25,0.85,0.45,0.61,-16.11,1.71,337,454,386,344,289,6
1020,0.32,0.86,0.47,7.02,15.75,-5.19,341,403,292,387,326,6
1021,0.32,0.83,0.43,11.23,3.36,-1.46,341,345,246,356,318,6
1022,0.34,0.85,0.36,1.1,-3.17,-4.88,345,430,315,398,346,6
1023,0.3,0.86,0.4,-6.77,6.1,-8.73,346,446,338,430,374,6
1024,0.58,0.51,0.37,-61.4,-342.65,6.96,343,335,219,299,297,6
1025,0.18,0.95,0.26,-2.14,1.65,-9.09,346,447,402,244,192,6
1026,0.11,0.95,0.29,-0.12,3.05,-6.23,344,446,406,243,192,6
1027,0.15,0.95,0.27,0.43,-0.31,-3.78,344,447,401,256,195,6
1028,0.16,0.95,0.27,1.4,-4.27,-0.79,347,450,405,247,194,6
1029,0.14,0.94,0.27,0.55,-3.48,-1.22,341,453,402,243,196,6
1030,0.14,0.96,0.27,2.2,-3.85,-4.03,348,454,408,248,198,6
1031,0.13,0.95,0.26,6.84,-1.65,-4.09,343,450,413,249,195,6
1032,0.14,0.94,0.27,0.61,-3.66,-3.6,345,445,402,246,194,6
1033,0.15,0.97,0.29,0.0,-8.48,-7.63,343,443,405,246,195,6
1034,0.11,0.98,0.26,-2.14,-5.74,-10.07,346,448,405,245,200,6
1035,0.12,0.96,0.26,-0.98,-10.99,-6.9,346,454,406,247,196,6
1036,0.08,0.91,0.26,8.18,3.91,-7.87,346,451,407,249,200,6
1037,0.08,0.96,0.27,1.22,2.93,-4.7,346,454,409,247,198,6
1038,0.09,0.96,0.29,2.14,-1.95,-1.4,348,454,408,249,200,6
1039,0.09,0.94,0.28,-5.49,-4.76,0.43,342,453,405,248,200,6
1040,0.08,0.95,0.3,-0.61,-3.72,-3.6,346,449,405,251,196,6
1041,0.08,0.95,0.3,-1.28,-3.23,-2.44,345,455,407,248,197,6
1042,0.08,0.95,0.31,-0.18,-2.81,-3.3,341,455,408,252,197,6
1043,0.09,0.93,0.29,-1.89,-3.97,-2.69,345,453,406,251,196,6
1044,0.09,0.96,0.3,0.12,-3.36,-3.6,346,451,405,249,201,6
1045,0.08,0.95,0.3,-0.18,-1.83,-3.23,355,454,404,252,198,6
1046,0.08,0.95,0.29,-0.37,-3.6,-1.04,346,455,402,249,199,6
1047,0.1,0.94,0.3,-1.59,-4.39,-2.26,342,448,407,249,199,6
1048,0.1,0.95,0.32,1.22,-3.23,-3.23,343,455,404,250,204,6
1049,0.08,0.95,0.31,2.93,-3.05,-1.4,344,449,408,251,201,6
1050,0.08,0.95,0.29,0.67,-0.92,-1.95,344,452,409,252,202,6
1051,0.08,0.94,0.31,0.85,-2.99,-3.85,349,445,405,249,200,6
1052,0.09,0.94,0.31,-0.98,-3.72,-1.89,345,454,402,248,201,6
1053,0.08,0.93,0.3,-1.04,-3.3,-3.3,346,454,405,250,201,6
1054,0.09,0.96,0.31,0.61,-1.77,-4.7,349,450,407,250,202,6
1055,0.06,0.95,0.31,0.73,-2.14,-1.77,347,450,410,250,228,6
1056,0.05,0.95,0.32,0.55,-2.62,-3.23,346,447,404,249,200,6
1057,0.08,0.95,0.32,1.4,-4.09,-3.3,350,452,407,254,201,6
1058,0.07,0.94,0.3,-1.04,-1.28,-1.71,347,451,403,248,203,6
1059,0.07,0.94,0.31,0.79,-2.99,-2.14,349,453,402,248,202,6
1060,0.07,0.95,0.31,0.61,-2.93,-2.56,347,447,406,252,201,6
1061,0.08,0.96,0.32,-0.79,-2.75,-3.11,346,452,409,251,204,6
1062,0.08,0.95,0.31,0.73,-4.33,-2.14,347,454,406,251,204,6
1063,0.08,0.94,0.32,1.83,-5.98,-5.0,347,451,406,251,204,6
1064,0.05,0.95,0.32,0.61,-0.55,-4.46,349,452,403,254,204,6
1065,0.05,0.94,0.32,0.67,-0.31,-0.92,351,456,408,253,202,6
1066,0.08,0.94,0.31,-2.38,-2.38,-0.43,347,447,402,253,201,6
1067,0.06,0.95,0.34,0.49,-4.33,-9.52,347,447,407,253,203,6
1068,0.01,0.93,0.35,4.27,-0.92,-2.62,350,455,405,254,207,6
1069,0.0,0.94,0.31,3.6,2.44,-0.79,347,456,403,257,203,6
1070,0.05,0.98,0.3,9.28,-8.54,1.04,341,455,414,251,200,6
1071,0.09,0.99,0.3,5.74,-1.28,6.84,347,453,405,253,204,6
1072,0.13,0.98,0.33,-4.39,0.31,2.5,346,447,401,253,204,6
1073,0.11,0.96,0.23,-1.89,-1.1,-1.95,351,456,406,253,206,6
1074,0.12,0.92,0.26,-1.71,-1.4,-4.09,347,446,407,256,205,6
1075,0.08,1.06,0.34,-2.08,-2.69,-7.63,348,453,401,254,208,6
1076,0.12,0.96,0.29,-4.94,-4.7,3.05,347,454,406,256,209,6
1077,0.09,0.93,0.25,-5.37,-5.07,-1.83,350,453,403,263,208,6
1078,0.09,0.95,0.32,-1.95,-10.13,5.31,350,454,405,261,207,6
1079,0.11,0.96,0.32,2.75,-6.84,-2.2,344,451,403,260,207,6
1080,0.05,0.93,0.3,2.26,-5.31,-0.85,350,454,403,258,209,6
1081,0.09,0.95,0.34,-7.93,-5.68,-1.1,346,445,401,261,205,6
1082,0.03,0.94,0.35,-0.92,-4.09,-2.81,346,458,401,259,208,6
1083,0.08,0.88,0.31,4.82,-2.99,2.26,346,450,403,259,208,6
1084,0.04,0.94,0.37,-1.28,-7.69,0.43,345,455,405,262,209,6
1085,0.05,0.91,0.35,-5.62,-3.85,-3.17,347,452,406,262,205,6
1086,0.06,0.92,0.37,0.18,-4.7,-1.22,347,449,403,259,208,6
1087,0.06,0.92,0.33,1.16,-2.01,0.12,347,448,406,263,210,6
1088,0.04,0.94,0.34,-2.2,-4.94,-0.12,346,451,404,260,210,6
1089,0.09,0.92,0.36,2.38,-0.24,-0.98,347,451,411,261,208,6
1090,0.08,0.93,0.35,2.26,-3.36,-2.5,346,450,404,262,208,6
1091,0.07,0.93,0.36,0.73,-3.6,-1.46,345,455,402,261,213,6
1092,0.07,0.94,0.36,-1.89,-3.97,-3.6,350,446,407,261,211,6
1093,0.07,0.91,0.35,0.49,-3.42,-4.76,343,448,406,264,207,6
1094,0.09,0.93,0.36,-1.89,-3.23,-0.85,345,452,405,261,208,6
1095,0.07,0.9,0.41,-6.35,-2.32,1.83,345,452,406,264,209,6
1096,0.13,0.91,0.39,1.04,0.24,1.34,344,455,407,265,209,6
1097,0.11,0.92,0.38,1.59,-5.07,-3.72,346,451,410,265,207,6
1098,0.11,0.9,0.38,-1.95,-4.39,-0.61,347,452,400,263,211,6
1099,0.13,0.91,0.4,-0.61,-3.05,-2.01,346,453,404,261,212,6
1100,0.13,0.92,0.39,3.72,-2.2,-5.0,347,455,403,260,212,6
1101,0.12,0.92,0.38,3.05,0.61,-5.43,347,453,401,263,207,6
1102,0.13,0.92,0.39,2.5,-2.08,0.12,346,446,404,261,209,6
1103,0.13,0.9,0.37,1.53,-4.27,-1.95,349,453,404,263,210,6
1104,0.12,0.91,0.38,-0.92,-2.81,-1.59,345,453,406,264,212,6
1105,0.14,0.91,0.37,0.37,-4.03,-5.62,347,455,402,266,211,6
1106,0.13,0.9,0.38,-2.26,-3.11,-1.4,343,456,408,277,213,6
1107,0.15,0.91,0.38,-0.06,-2.81,-0.67,345,453,406,263,209,6
1108,0.15,0.91,0.39,1.22,-2.62,-2.08,342,449,403,264,205,6
1109,0.15,0.91,0.39,0.61,-2.38,-1.95,346,456,403,263,214,6
1110,0.15,0.91,0.4,-0.43,-2.69,-2.5,345,446,403,266,213,6
1111,0.16,0.91,0.39,2.99,-2.62,-2.75,346,453,405,266,211,6
1112,0.14,0.9,0.39,-1.83,-2.01,-2.08,345,452,404,266,212,6
1113,0.14,0.9,0.4,-2.75,-3.48,-2.38,347,452,399,266,208,6
1114,0.13,0.9,0.41,-1.95,-2.26,-3.48,347,455,400,264,209,6
1115,0.16,0.91,0.4,0.67,-1.95,-2.01,346,453,402,266,212,6
1116,0.14,0.91,0.41,0.79,-3.78,-2.81,349,448,401,264,210,6
1117,0.15,0.9,0.4,0.31,-4.15,-0.92,344,453,401,265,213,6
1118,0.15,0.9,0.41,2.62,-1.65,-3.42,342,450,401,266,212,6
1119,0.13,0.9,0.4,0.98,0.98,-4.39,346,450,407,267,215,6
1120,0.13,0.91,0.39,0.61,-2.99,-2.38,344,451,403,263,206,6
1121,0.13,0.9,0.4,0.12,-3.91,-1.53,344,448,400,267,214,6
1122,0.13,0.9,0.4,-0.98,-3.91,-2.01,344,450,405,267,210,6
1123,0.13,0.89,0.41,-1.53,-3.78,-1.77,346,450,404,265,213,6
1124,0.13,0.9,0.4,-3.11,-3.3,-4.39,346,442,403,263,213,6
1125,0.14,0.9,0.41,1.95,-3.78,-0.37,345,448,399,268,209,6
1126,0.14,0.89,0.41,1.04,-2.62,-1.71,345,450,399,267,210,6
1127,0.12,0.91,0.4,0.24,-3.6,-2.44,341,448,401,265,209,6
1128,0.13,0.91,0.41,-1.53,-2.69,-3.42,346,451,397,266,214,6
1129,0.12,0.9,0.42,-0.67,-4.76,-2.32,345,449,397,266,212,6
1130,0.12,0.88,0.42,-1.46,-1.28,-0.06,347,446,393,264,214,6
1131,0.15,0.85,0.44,-1.59,-7.32,-1.4,338,449,404,266,210,6
1132,0.15,0.87,0.45,-1.53,-4.15,-2.5,345,449,401,265,215,6
1133,0.14,0.88,0.45,0.24,-3.05,-1.65,341,449,400,266,212,6
1134,0.15,0.87,0.45,-1.16,-2.5,-0.37,346,449,400,267,212,6
1135,0.15,0.87,0.45,-5.74,-4.7,-3.48,345,447,397,265,214,6
1136,0.16,0.88,0.48,-3.17,-8.18,-2.99,347,450,399,267,211,6
1137,0.15,0.89,0.48,-4.52,-5.86,-3.54,346,449,399,267,215,6
1138,0.15,0.88,0.46,5.37,-5.92,-3.54,348,445,401,269,214,6
1139,0.15,0.87,0.49,-6.77,-11.54,-1.1,344,449,414,269,213,6
1140,0.18,0.85,0.48,1.34,-3.11,-1.28,347,448,397,266,212,6
1141,0.2,0.86,0.48,2.62,-3.05,-2.62,345,452,403,275,214,6
1142,0.19,0.86,0.48,-2.26,4.7,-2.62,344,454,400,270,212,6
1143,0.19,0.87,0.49,1.77,-3.91,0.49,346,449,401,269,217,6
1144,0.21,0.86,0.49,-4.27,-4.64,-2.56,343,449,401,269,214,6
1145,0.2,0.85,0.5,-0.43,-2.75,-2.99,347,450,403,269,214,6
1146,0.21,0.86,0.51,1.04,-2.56,-1.83,345,452,400,266,213,6
1147,0.2,0.85,0.51,2.26,-3.42,-2.38,347,449,399,263,222,6
1148,0.2,0.84,0.51,1.1,-2.08,-0.92,347,451,400,270,214,6
1149,0.21,0.84,0.52,2.2,-2.69,-2.2,348,454,397,269,213,6
1150,0.2,0.83,0.53,-2.62,-1.77,-1.89,344,450,402,269,214,6
1151,0.21,0.82,0.53,-1.95,-4.58,-4.39,348,447,401,268,216,6
1152,0.21,0.81,0.53,-0.73,-0.85,0.73,344,451,402,267,214,6
1153,0.2,0.82,0.55,-1.28,-2.56,-5.49,345,445,403,269,216,6
1154,0.2,0.81,0.56,-1.59,-3.05,-2.2,345,453,399,269,213,6
1155,0.2,0.79,0.56,1.53,-3.23,-2.44,345,451,401,267,216,6
1156,0.19,0.82,0.57,-0.18,-0.92,-2.81,345,453,400,271,217,6
1157,0.18,0.8,0.57,-0.12,-3.72,-2.26,348,450,403,268,232,6
1158,0.19,0.8,0.57,0.18,-2.08,-3.23,346,451,400,269,208,6
1159,0.2,0.8,0.58,0.0,-2.69,-1.53,344,450,400,270,211,6
1160,0.18,0.8,0.58,0.31,-2.69,-3.17,341,454,401,268,216,6
1161,0.19,0.79,0.58,0.43,-2.69,-2.38,345,445,399,270,213,6
1162,0.18,0.81,0.57,1.4,-4.15,-4.09,342,449,406,269,214,6
1163,0.17,0.82,0.55,5.19,-1.71,-3.78,347,450,400,268,216,6
1164,0.16,0.84,0.51,7.57,-1.95,-8.0,345,453,397,266,216,6
1165,0.15,0.84,0.42,9.09,-9.58,-4.52,344,449,401,268,217,6
1166,0.11,0.98,0.45,16.3,-1.04,-5.62,344,446,401,272,217,6
1167,0.12,0.89,0.37,-2.75,-5.55,1.89,341,449,402,268,223,6
1168,0.13,0.9,0.42,-5.31,-2.81,-2.08,341,454,400,270,215,6
1169,0.13,0.89,0.44,0.24,-4.58,-2.44,345,452,399,270,217,6
1170,0.14,0.88,0.45,-1.46,-3.05,-1.65,342,449,401,274,235,6
1171,0.14,0.86,0.47,-3.54,-2.81,-1.77,341,444,398,269,213,6
1172,0.14,0.87,0.48,-0.55,-4.09,-2.38,344,455,403,271,215,6
1173,0.14,0.86,0.48,0.0,-2.62,-1.77,344,454,399,265,216,6
1174,0.14,0.86,0.49,-1.53,-2.87,-1.83,346,450,402,271,217,6
1175,0.15,0.85,0.49,-0.85,-3.72,-1.71,344,454,397,271,214,6
1176,0.14,0.85,0.5,0.18,-2.14,-1.89,344,452,403,270,214,6
1177,0.15,0.85,0.5,-0.73,-3.11,-3.23,347,452,407,269,215,6
1178,0.15,0.86,0.51,-0.55,-3.23,-2.32,346,447,401,268,215,6
1179,0.14,0.85,0.5,2.93,-2.75,-2.75,346,444,402,271,217,6
1180,0.15,0.85,0.5,0.55,-1.89,-0.85,344,451,401,268,216,6
1181,0.14,0.85,0.49,-0.55,-2.5,-2.75,345,449,402,275,217,6
1182,0.14,0.85,0.5,-0.18,-3.42,-2.38,347,449,401,269,213,6
1183,0.15,0.85,0.51,-1.59,-2.26,-0.37,347,452,415,269,213,6
1184,0.15,0.84,0.51,0.49,-1.71,-1.4,342,453,399,268,218,6
1185,0.15,0.84,0.51,-0.79,-4.03,-2.01,348,452,399,269,214,6
1186,0.16,0.85,0.52,0.73,-1.4,-0.43,344,454,400,266,223,6
1187,0.17,0.83,0.51,0.55,-4.03,-2.5,345,454,400,270,213,6
1188,0.16,0.85,0.52,-0.73,-2.56,-2.08,348,452,400,270,215,6
1189,0.15,0.83,0.52,0.85,-3.3,-2.56,340,452,400,268,217,6
1190,0.17,0.85,0.52,-1.95,-3.85,-0.98,345,452,400,268,213,6
1191,0.17,0.83,0.52,0.24,-3.66,-1.34,343,450,398,269,216,6
1192,0.16,0.82,0.53,0.43,-2.56,-2.44,343,457,400,267,218,6
1193,0.17,0.83,0.53,-0.37,-2.38,-2.26,343,451,396,272,216,6
1194,0.19,0.84,0.54,0.98,-3.48,-1.1,341,453,402,271,216,6
1195,0.17,0.83,0.54,0.55,-2.26,-1.89,341,452,403,267,214,6
1196,0.17,0.82,0.54,0.37,-2.44,-3.05,348,453,400,268,218,6
1197,0.17,0.83,0.53,2.56,-2.75,-2.44,345,450,402,271,246,6
1198,0.16,0.84,0.52,4.94,-0.61,-3.42,345,447,403,272,217,6
1199,0.14,0.86,0.48,4.82,0.92,-2.81,343,449,403,269,216,6
1200,0.14,0.88,0.47,3.78,-3.36,-2.38,345,449,398,277,216,6
1201,0.14,0.89,0.46,1.77,-1.95,-1.89,344,449,399,271,215,6
1202,0.14,0.89,0.48,4.03,-2.75,-0.85,347,450,402,272,216,6
1203,0.15,0.85,0.44,-0.24,-0.73,-6.96,345,450,406,266,219,6
1204,0.13,0.88,0.46,-0.12,-4.58,0.18,342,454,400,269,219,6
1205,0.14,0.89,0.47,-2.2,-2.81,-1.95,344,452,401,272,216,6
1206,0.16,0.88,0.47,-0.31,-2.69,-2.75,340,454,399,274,217,6
1207,0.13,0.87,0.46,-2.99,-3.05,-5.25,347,452,399,270,216,6
1208,0.14,0.85,0.49,-0.92,-4.58,-2.32,346,451,403,273,215,6
1209,0.14,0.86,0.5,1.04,-3.36,-1.59,344,449,399,273,218,6
1210,0.14,0.85,0.49,0.37,-3.17,-2.69,347,449,403,270,217,6
1211,0.14,0.86,0.49,0.49,-1.89,-3.05,345,449,397,273,215,6
1212,0.14,0.87,0.49,2.56,-1.28,-3.66,347,452,399,269,218,6
1213,0.14,0.86,0.49,0.31,-5.68,-0.98,345,450,400,270,217,6
1214,0.13,0.88,0.47,0.67,-3.11,-1.71,343,448,397,273,217,6
1215,0.15,0.87,0.47,1.46,-3.42,-2.44,347,449,396,269,216,6
1216,0.15,0.89,0.47,2.38,-3.97,-3.05,347,454,402,270,215,6
1217,0.15,0.88,0.46,1.4,-3.11,-2.32,344,444,406,273,216,6
1218,0.16,0.88,0.45,3.54,-2.87,-2.01,347,444,403,274,219,6
1219,0.12,0.91,0.43,0.24,1.46,-7.32,347,453,405,269,218,6
1220,0.17,0.89,0.39,4.21,-5.92,-4.27,346,452,400,270,219,6
1221,0.18,0.9,0.4,-2.99,-10.07,-2.38,343,444,403,274,219,6
1222,0.09,0.94,0.41,-5.25,-6.77,-9.46,347,450,403,269,218,6
1223,0.1,0.86,0.43,-2.62,-10.19,-3.11,343,450,397,271,216,6
1224,0.1,0.92,0.39,2.44,-5.8,-2.81,344,457,397,268,219,6
1225,0.09,0.92,0.44,-2.14,1.53,-5.43,345,449,401,268,219,6
1226,0.08,0.88,0.43,3.11,-2.01,-1.65,346,449,400,266,219,6
1227,0.08,0.93,0.44,-0.24,-1.83,-2.87,340,449,400,272,219,6
1228,0.09,0.89,0.45,-0.73,-2.5,-2.32,345,451,401,271,219,6
1229,0.11,0.87,0.45,-0.61,-3.48,-2.08,340,450,402,270,226,6
1230,0.09,0.89,0.46,-0.55,-2.81,-1.65,347,451,403,273,218,6
1231,0.12,0.88,0.46,2.2,-2.44,0.67,343,453,402,273,219,6
1232,0.1,0.87,0.48,0.85,-1.89,-1.46,345,449,400,268,220,6
1233,0.11,0.88,0.47,-2.87,-4.82,-3.42,347,448,404,273,220,6
1234,0.1,0.86,0.47,-0.43,-3.42,0.92,344,447,401,274,207,6
1235,0.13,0.85,0.46,4.03,-6.04,-6.04,346,450,397,271,216,6
1236,0.1,0.88,0.47,1.34,-1.53,-2.26,345,453,400,268,216,6
1237,0.11,0.89,0.48,-0.67,-1.46,-1.04,344,445,397,274,218,6
1238,0.13,0.88,0.49,0.79,-2.99,-1.89,345,458,399,274,219,6
1239,0.17,0.89,0.46,-2.01,-5.98,-1.65,343,451,397,271,220,6
1240,0.14,0.86,0.48,2.08,-2.69,-0.85,344,452,401,275,220,6
1241,0.13,0.86,0.49,-1.83,-3.54,-4.09,344,448,403,272,217,6
1242,0.13,0.86,0.49,-1.22,-2.69,-3.17,342,448,401,271,219,6
1243,0.14,0.89,0.48,2.81,-2.93,-3.85,343,450,402,274,220,6
1244,0.14,0.87,0.44,17.4,-2.99,-2.75,343,454,401,275,220,6
1245,0.13,0.9,0.44,-0.12,-6.53,-0.92,345,452,400,271,218,6
1246,0.13,0.87,0.42,1.16,-7.45,-2.99,347,452,403,275,216,6
1247,0.13,0.91,0.43,3.97,-2.14,-2.75,344,449,401,269,215,6
1248,0.15,0.92,0.42,-2.26,-1.71,-1.22,344,449,401,273,219,6
1249,0.15,0.91,0.43,0.31,-3.78,-1.77,345,452,407,272,215,6
1250,0.13,0.9,0.43,-0.06,-4.64,-2.08,347,451,402,272,218,6
1251,0.13,0.89,0.43,-0.98,-2.2,-2.69,345,455,400,271,217,6
1252,0.15,0.9,0.43,-0.31,-2.5,-3.72,346,449,417,272,216,6
1253,0.15,0.9,0.44,2.2,-1.95,-1.4,344,451,400,272,218,6
1254,0.15,0.88,0.42,0.85,-1.28,-4.33,345,449,398,269,217,6
1255,0.14,0.9,0.43,-0.12,-2.56,-3.36,344,449,403,274,220,6
1256,0.16,0.91,0.43,1.22,-2.26,-2.44,344,448,400,275,219,6
1257,0.15,0.9,0.43,0.43,-2.14,-2.5,345,444,402,275,219,6
1258,0.15,0.9,0.43,1.71,-2.14,-1.71,347,449,397,274,218,6
1259,0.15,0.89,0.42,3.42,-5.37,-0.24,340,450,413,273,221,6
1260,0.16,0.89,0.43,1.46,-2.14,-1.71,345,453,400,273,215,6
1261,0.17,0.89,0.43,1.53,-3.42,-1.1,344,456,397,276,220,6
1262,0.21,0.93,0.43,1.83,-1.83,-0.12,346,449,402,273,218,6
1263,0.17,0.91,0.43,1.53,-0.73,-2.32,347,445,397,275,217,6
1264,0.19,0.89,0.42,3.48,-4.21,-2.99,341,447,396,273,218,6
1265,0.17,0.88,0.41,-1.28,-3.3,-3.54,344,449,401,274,220,6
1266,0.16,0.88,0.42,1.22,-2.26,-1.59,347,448,406,273,223,6
1267,0.16,0.89,0.41,1.16,-2.87,-5.49,346,448,400,275,220,6
1268,0.12,0.9,0.37,3.54,1.4,-9.83,347,443,400,273,220,6
1269,0.1,0.92,0.38,-0.18,-3.11,-2.75,341,449,409,275,217,6
1270,0.1,0.9,0.38,-0.92,-7.32,-1.95,346,449,400,272,221,6
1271,0.1,0.92,0.37,4.76,-3.66,-3.05,345,447,402,272,220,6
1272,0.08,0.93,0.38,-1.89,-0.67,-6.59,343,453,403,277,244,6
1273,0.05,0.92,0.38,2.5,-4.82,-5.68,342,449,399,282,218,6
1274,0.1,0.92,0.38,2.99,-3.3,-1.28,345,453,404,275,218,6
1275,0.09,0.92,0.41,-4.21,-6.59,-5.8,342,454,400,273,248,6
1276,0.07,0.93,0.4,-1.22,-2.5,-1.71,340,452,403,275,219,6
1277,0.09,0.92,0.41,1.1,-4.64,-2.14,340,448,402,274,218,6
1278,0.1,0.9,0.38,-2.56,-1.95,-4.64,343,449,401,276,219,6
1279,0.09,0.9,0.4,-0.79,-2.87,-2.5,342,445,400,273,217,6
1280,0.08,0.93,0.41,1.16,-4.09,-0.24,340,453,401,275,217,6
1281,0.08,0.91,0.41,-0.24,-2.14,-2.01,340,449,405,277,218,6
1282,0.09,0.91,0.4,-1.53,-3.3,-2.56,341,449,399,271,220,6
1283,0.08,0.91,0.41,0.55,-3.6,-1.65,342,461,404,274,216,6
1284,0.08,0.91,0.4,0.67,-2.69,-1.65,342,443,401,277,220,6
1285,0.1,0.91,0.41,-0.73,-3.54,-1.59,340,448,403,276,220,6
1286,0.1,0.91,0.4,0.0,-3.48,-2.56,341,448,401,277,216,6
1287,0.1,0.91,0.4,0.67,-3.11,-2.44,343,452,403,274,218,6
1288,0.1,0.91,0.4,-0.92,-3.97,-2.38,343,453,400,272,216,6
1289,0.11,0.9,0.4,0.49,-2.87,-1.77,345,449,399,276,228,6
1290,0.09,0.9,0.41,0.24,-3.66,-2.5,342,452,404,275,216,6
1291,0.11,0.9,0.4,1.83,-2.81,-0.49,345,448,400,273,230,6
1292,0.11,0.91,0.41,-0.37,-2.87,-3.54,342,445,400,274,218,6
1293,0.1,0.91,0.42,-1.95,-2.81,-0.98,342,446,403,275,220,6
1294,0.12,0.9,0.42,1.1,-4.64,-2.44,349,451,401,274,221,6
1295,0.11,0.9,0.42,-0.73,-2.87,-2.62,344,448,406,274,220,6
1296,0.12,0.91,0.43,5.43,-2.62,-2.2,342,446,401,274,221,6
1297,0.13,0.9,0.41,1.28,-2.44,-1.89,343,449,400,277,218,6
1298,0.11,0.9,0.41,-2.99,-2.93,-2.99,343,452,401,276,220,6
1299,0.11,0.89,0.41,-0.67,-2.08,-2.26,341,446,401,277,219,6
1300,0.17,0.92,0.43,1.53,-1.65,5.07,337,451,404,276,218,6
1301,0.16,0.9,0.42,1.16,-4.64,-4.88,344,450,403,274,218,6
1302,0.14,0.89,0.42,-1.71,-5.07,-2.56,338,449,403,278,224,6
1303,0.13,0.9,0.41,3.05,-3.3,-2.14,338,448,400,274,222,6
1304,0.12,0.9,0.4,0.61,-3.54,-3.54,346,449,397,275,216,6
1305,0.1,0.9,0.4,1.65,-2.14,-3.97,345,452,402,271,243,6
1306,0.11,0.91,0.39,0.85,-6.16,-8.3,342,445,401,274,220,6
1307,0.05,0.9,0.42,6.59,-6.96,1.4,343,447,397,274,221,6
1308,0.05,0.91,0.41,0.0,-4.03,-1.04,343,442,402,276,218,6
1309,0.06,0.9,0.41,-0.92,-3.54,-3.23,340,443,400,271,222,6
1310,0.06,0.9,0.43,-0.49,-3.48,-1.95,344,449,405,275,221,6
1311,0.07,0.92,0.41,-0.98,-3.17,-2.81,345,452,403,275,220,6
1312,0.05,0.92,0.42,-5.07,-1.83,-2.44,343,451,398,275,216,6
1313,0.08,0.92,0.46,2.62,-2.14,-0.06,344,449,400,277,218,6
1314,0.12,0.89,0.42,8.48,-5.25,5.43,343,444,400,275,252,6
1315,0.07,0.87,0.44,-0.49,-3.3,-2.75,341,451,400,275,217,6
1316,0.07,0.9,0.45,-1.22,-3.36,-2.62,343,450,400,272,219,6
1317,0.06,0.88,0.44,-0.49,-2.62,-1.34,342,448,399,278,220,6
1318,0.07,0.87,0.44,-1.59,-1.89,-2.62,342,444,400,274,221,6
1319,0.09,0.9,0.45,2.93,-2.87,-0.73,345,448,401,276,219,6
1320,0.09,0.88,0.45,0.61,-2.69,-3.97,340,449,402,275,222,6
1321,0.1,0.89,0.45,-1.22,-3.05,-3.17,343,453,398,274,222,6
1322,0.08,0.87,0.45,-0.12,-2.81,-2.32,343,451,400,282,220,6
1323,0.07,0.9,0.43,6.04,-3.48,-0.55,345,453,400,272,220,6
1324,0.09,0.88,0.43,1.04,-3.36,-2.56,344,450,401,275,221,6
1325,0.1,0.88,0.43,0.79,-2.14,-1.04,339,448,401,278,221,6
1326,0.09,0.89,0.44,1.22,-1.77,-1.59,342,452,408,277,227,6
1327,0.09,0.89,0.45,0.49,-3.54,-2.5,345,445,401,276,220,6
1328,0.1,0.89,0.45,-1.83,-3.54,-2.75,342,445,402,274,233,6
1329,0.1,0.91,0.44,1.65,-3.91,-1.77,348,448,401,272,220,6
1330,0.1,0.89,0.43,-0.43,-5.49,-1.71,346,448,402,277,220,6
1331,0.09,0.89,0.43,-0.98,-0.49,-3.48,340,449,397,277,220,6
1332,0.08,0.88,0.44,-3.11,4.21,-11.29,341,444,402,275,221,6
1333,0.06,0.87,0.45,1.83,-5.19,-2.87,346,443,400,278,219,6
1334,0.01,0.89,0.46,-2.2,-2.01,-7.2,343,449,398,275,220,6
1335,0.05,0.92,0.46,-0.06,-2.81,-1.16,344,458,400,276,219,6
1336,0.06,0.89,0.46,-0.61,-7.39,-5.86,343,447,401,281,217,6
1337,0.05,0.88,0.48,-0.18,-0.49,0.55,343,448,399,273,220,6
1338,0.07,0.89,0.48,2.75,-5.92,-2.08,344,449,403,278,218,6
1339,0.05,0.87,0.49,1.1,-5.19,0.0,350,449,400,274,221,6
1340,0.1,0.84,0.47,-3.17,-7.75,-2.5,344,450,400,274,218,6
1341,0.1,0.88,0.48,1.46,-2.62,-2.01,344,448,403,274,222,6
1342,0.14,0.9,0.47,5.8,-14.77,8.48,344,444,400,277,220,6
1343,0.1,0.87,0.47,-1.77,3.11,-11.72,343,452,401,278,222,6
1344,0.02,0.86,0.49,-1.34,-2.99,-2.14,342,449,394,277,221,6
1345,0.02,0.87,0.49,1.22,-1.95,-2.08,343,447,402,284,222,6
1346,0.02,0.85,0.5,-0.79,-1.28,-3.85,341,449,401,276,222,6
1347,0.03,0.87,0.49,-1.28,2.2,-8.0,344,447,397,276,218,6
1348,0.03,0.88,0.5,-0.18,-4.15,-1.16,343,449,400,279,221,6
1349,0.02,0.88,0.51,0.43,-4.03,-3.23,343,442,402,272,221,6
1350,0.02,0.88,0.51,0.49,-2.5,-1.89,342,448,404,280,219,6
1351,0.02,0.88,0.52,-1.53,-2.81,-2.56,344,444,397,278,236,6
1352,0.03,0.85,0.5,-0.73,-1.4,-3.54,344,444,400,273,223,6
1353,0.04,0.86,0.52,-0.73,-3.17,-2.75,344,446,402,279,221,6
1354,0.02,0.87,0.53,2.26,-1.71,-4.46,343,446,402,275,223,6
1355,0.03,0.85,0.5,3.48,-3.05,-2.26,345,448,402,275,220,6
1356,0.02,0.85,0.5,-2.44,-3.6,-2.93,342,450,401,283,221,6
1357,0.03,0.87,0.52,0.85,-3.6,-2.08,343,450,401,276,224,6
1358,0.04,0.86,0.5,-0.18,-2.69,0.37,346,453,403,279,211,6
1359,0.01,0.85,0.49,-0.06,-2.44,-5.43,344,450,403,277,222,6
1360,0.02,0.85,0.5,4.82,7.87,-1.71,344,446,397,274,218,6
1361,0.03,0.87,0.49,1.65,3.66,-11.05,346,443,403,277,218,6
1362,0.06,0.84,0.49,16.54,-9.16,-5.07,343,442,396,278,223,6
1363,0.01,0.94,0.39,-7.81,-3.05,-13.92,341,451,400,274,222,6
1364,-0.13,0.87,0.43,13.61,6.84,-8.06,338,447,403,275,231,6
1365,-0.01,0.91,0.41,8.67,-8.3,-1.89,345,443,401,276,218,6
1366,-0.08,0.88,0.44,-6.84,-1.71,-6.1,342,440,400,275,216,6
1367,-0.1,0.87,0.44,0.67,-4.27,-3.17,342,444,401,278,221,6
1368,-0.04,0.93,0.45,0.18,16.05,4.39,339,446,403,274,216,6
1369,0.05,0.94,0.39,-3.17,9.03,-0.18,344,443,403,278,235,6
1370,-0.04,0.81,0.47,-8.54,-6.35,4.33,340,447,401,278,219,6
1371,-0.0,0.92,0.47,-9.16,1.22,-1.22,342,438,402,274,216,6
1372,-0.01,0.9,0.46,0.06,-4.82,-5.07,346,446,401,276,219,6
1373,-0.03,0.89,0.47,4.33,-3.17,-1.28,344,448,401,279,222,6
1374,-0.01,0.85,0.49,-2.62,-5.55,-4.33,347,443,401,280,249,6
1375,0.0,0.85,0.5,3.48,-3.78,1.4,347,448,399,278,218,6
1376,0.05,0.91,0.45,8.97,-6.84,-3.42,343,444,404,276,222,6
1377,0.05,0.87,0.46,2.01,-3.66,-0.24,347,439,397,275,220,6
1378,0.06,0.89,0.47,-0.61,-2.99,-1.34,346,439,404,276,223,6
1379,0.05,0.87,0.49,2.5,-3.6,0.0,347,437,401,277,221,6
1380,0.05,0.88,0.49,-1.65,-5.07,-0.98,343,442,401,277,221,6
1381,0.05,0.87,0.5,-1.59,-3.85,-3.91,346,444,397,279,220,6
1382,0.04,0.87,0.5,-1.71,-1.4,-1.4,347,446,411,273,221,6
1383,0.07,0.86,0.5,0.0,-4.27,-3.11,345,443,398,275,221,6
1384,0.08,0.87,0.49,0.61,-3.48,0.06,341,444,402,278,222,6
1385,0.07,0.87,0.49,0.67,-4.58,-1.77,343,442,403,276,223,6
1386,0.08,0.86,0.49,0.55,-3.11,-2.81,348,442,400,277,219,6
1387,0.07,0.87,0.5,-1.28,-0.98,-4.7,344,444,401,286,220,6
1388,0.07,0.87,0.48,-0.12,-3.78,-1.46,345,442,401,275,223,6
1389,0.07,0.87,0.49,-0.06,-2.87,-2.75,347,442,399,280,222,6
1390,0.07,0.88,0.49,0.98,-1.53,-2.87,346,439,404,276,220,6
1391,0.07,0.88,0.5,0.79,-4.15,0.18,345,439,402,278,223,6
1392,0.09,0.87,0.5,-0.55,-2.87,-2.32,349,442,400,278,232,6
1393,0.06,0.87,0.49,0.43,-0.43,-2.2,346,446,402,280,220,6
1394,0.08,0.87,0.48,0.85,-4.09,-0.49,343,445,401,280,221,6
1395,0.08,0.87,0.48,-1.1,-3.97,-2.26,346,442,402,278,223,6
1396,0.08,0.87,0.49,-1.4,-2.14,-2.81,344,442,398,278,218,6
1397,0.09,0.87,0.49,0.92,-4.94,-2.08,345,442,401,280,221,6
1398,0.08,0.86,0.49,0.12,-2.56,-2.62,351,443,400,284,219,6
1399,0.07,0.87,0.49,1.34,-2.2,-2.08,348,445,403,278,223,6
1400,0.08,0.86,0.48,5.49,-1.16,-3.11,346,443,401,280,221,6
1401,0.07,0.87,0.48,2.14,-0.85,-3.23,346,441,404,278,222,6
1402,0.07,0.89,0.47,-1.95,-3.97,-5.92,344,444,401,277,220,6
1403,0.05,0.87,0.49,0.61,-3.85,-1.16,344,437,404,278,220,6
1404,0.06,0.87,0.48,0.85,-2.93,-4.21,345,446,400,279,220,6
1405,0.06,0.88,0.49,-1.34,-3.23,-1.53,345,446,401,278,223,6
1406,0.06,0.87,0.49,-0.31,-3.85,-1.34,338,444,406,278,221,6
1407,0.07,0.87,0.5,0.24,-4.64,-1.65,343,441,403,277,222,6
1408,0.07,0.86,0.49,-2.99,-3.23,-1.04,341,441,401,278,223,6
1409,0.07,0.85,0.51,0.06,-4.58,-3.36,345,439,400,278,223,6
1410,0.06,0.86,0.51,-0.67,-1.77,-4.64,345,438,406,274,224,6
1411,0.07,0.86,0.52,1.28,-2.38,-2.2,342,443,400,278,222,6
1412,0.03,0.85,0.51,-0.61,-0.73,-4.76,344,443,400,280,224,6
1413,0.04,0.87,0.5,1.1,0.0,-1.59,345,445,400,279,224,6
1414,0.03,0.86,0.5,-1.34,-4.33,-5.86,347,446,400,275,221,6
1415,0.01,0.88,0.5,4.94,0.18,-4.33,346,443,401,281,222,6
1416,0.02,0.88,0.5,-0.67,-2.08,-2.99,348,440,402,277,224,6
1417,-0.0,0.88,0.5,0.55,-3.54,-4.33,344,445,400,274,224,6
1418,0.0,0.87,0.5,-0.61,-6.1,-9.95,343,439,405,279,222,6
1419,-0.05,0.86,0.46,4.76,-3.42,-9.4,347,448,403,284,223,6
1420,-0.1,0.87,0.47,2.62,0.12,-9.28,345,448,404,280,221,6
1421,-0.1,0.9,0.51,-2.32,-8.97,-6.16,344,443,402,280,220,6
1422,-0.1,0.87,0.5,-3.11,-4.88,-5.0,345,442,403,277,219,6
1423,-0.11,0.87,0.5,0.12,-2.26,-1.53,343,442,400,278,223,6
1424,-0.08,0.85,0.49,0.37,-5.98,-0.31,346,445,398,278,220,6
1425,-0.08,0.85,0.49,-2.2,-2.81,-1.71,345,442,399,279,222,6
1426,-0.08,0.87,0.49,-0.49,-1.46,-1.59,345,444,397,281,223,6
1427,-0.08,0.87,0.49,0.55,-3.91,-3.23,347,446,400,275,228,6
1428,-0.07,0.89,0.49,0.49,-3.78,-1.16,346,446,399,281,221,6
1429,-0.08,0.86,0.47,-2.75,-3.3,-1.59,345,443,405,277,223,6
1430,-0.08,0.86,0.48,-2.32,-3.36,-2.14,345,443,398,280,221,6
1431,-0.08,0.86,0.49,-0.61,-2.81,-2.26,345,446,400,278,221,6
1432,-0.08,0.88,0.5,0.24,-2.87,-1.77,347,443,397,279,222,6
1433,-0.09,0.87,0.5,-0.06,-2.93,-2.26,343,443,396,280,220,6
1434,-0.08,0.87,0.49,-0.31,-2.14,-2.93,345,444,404,281,221,6
1435,-0.08,0.86,0.49,-0.73,-3.78,-3.36,344,437,402,279,224,6
1436,-0.07,0.88,0.5,-0.06,-2.93,-1.28,347,443,403,284,221,6
1437,-0.06,0.85,0.5,1.22,-5.0,0.24,347,443,399,270,221,6
1438,-0.03,0.86,0.49,0.0,-3.3,-1.95,344,442,398,281,221,6
1439,-0.06,0.86,0.51,-1.4,-3.85,-0.92,348,444,402,279,221,6
1440,-0.02,0.87,0.52,1.22,-3.11,0.43,347,444,399,279,221,6
1441,-0.03,0.87,0.51,-1.22,-2.81,-1.4,345,446,400,278,219,6
1442,-0.02,0.86,0.52,-0.37,-3.23,-4.33,345,443,401,276,222,6
1443,-0.03,0.85,0.52,1.46,-3.05,-2.08,345,445,399,278,222,6
1444,-0.02,0.85,0.51,0.61,-4.27,-1.95,348,447,403,281,220,6
1445,-0.04,0.87,0.51,0.61,-2.56,-2.44,346,443,404,279,217,6
1446,-0.04,0.85,0.51,2.32,-3.6,-0.31,345,440,399,275,221,6
1447,-0.02,0.86,0.49,1.46,-1.59,-3.66,348,446,397,280,221,6
1448,-0.02,0.87,0.49,2.32,-3.91,-2.93,345,443,399,277,222,6
1449,-0.01,0.89,0.48,4.7,-2.62,-0.49,346,443,404,278,223,6
1450,-0.0,0.88,0.47,-0.79,-5.31,-1.53,346,448,399,280,222,6
1451,0.01,0.89,0.49,-0.49,-2.26,-1.83,348,445,398,278,221,6
1452,-0.01,0.83,0.51,-4.33,-2.44,-3.23,342,446,399,278,221,6
1453,-0.05,0.82,0.48,8.85,1.46,-8.67,346,440,398,282,222,6
1454,-0.06,0.91,0.51,2.01,-10.44,-4.64,345,445,400,278,242,6
1455,-0.01,0.79,0.52,-10.93,-9.46,-5.31,347,445,403,282,222,6
1456,-0.03,0.88,0.5,5.98,-0.18,-1.53,344,444,400,279,224,6
1457,-0.03,0.91,0.48,-1.53,-4.46,0.85,345,449,398,285,230,6
1458,-0.03,0.89,0.5,-5.62,-4.21,-1.1,347,435,397,281,218,6
1459,-0.02,0.91,0.53,-4.09,-2.81,-8.48,345,449,396,278,225,6
1460,0.0,0.88,0.49,-5.37,-6.29,-6.77,345,448,401,282,218,6
1461,-0.02,0.89,0.46,13.31,8.24,-0.37,346,444,399,279,219,6
1462,0.01,0.86,0.47,-0.43,1.46,-3.36,342,440,403,281,222,6
1463,0.0,0.86,0.49,-2.32,-4.39,-2.14,346,441,400,278,222,6
1464,-0.03,0.9,0.49,0.49,-5.68,1.04,346,445,403,279,235,6
1465,-0.02,0.86,0.48,-7.02,-3.97,1.16,346,457,400,279,222,6
1466,0.01,0.85,0.49,-0.24,3.17,-1.95,347,446,401,280,221,6
1467,0.01,0.86,0.52,-1.1,-4.52,-2.62,347,444,400,278,224,6
1468,-0.0,0.88,0.5,4.21,-0.37,0.24,346,441,402,280,222,6
1469,0.0,0.86,0.5,-2.87,-3.36,-1.34,346,441,403,279,222,6
1470,0.0,0.88,0.5,-2.62,-2.5,-1.34,345,443,399,277,229,6
1471,0.03,0.85,0.48,1.71,-3.23,-0.55,348,446,400,280,224,6
1472,0.03,0.88,0.48,-5.62,-3.42,-3.6,348,441,400,281,222,6
1473,0.03,0.87,0.49,-0.31,-1.71,-0.43,342,443,403,281,222,6
1474,0.04,0.88,0.5,-1.04,-0.55,-3.05,345,443,400,278,223,6
1475,0.04,0.88,0.51,-3.91,-2.69,3.91,343,444,401,281,224,6
1476,0.08,0.88,0.52,0.18,-4.15,-6.53,350,443,402,278,222,6
1477,0.05,0.91,0.54,2.32,-3.11,-2.32,343,444,402,289,222,6
1478,0.03,0.86,0.5,0.24,-2.5,-4.03,349,447,403,279,225,6
1479,0.03,0.89,0.51,2.01,-3.11,-3.97,346,445,397,276,225,6
1480,0.05,0.86,0.51,-1.34,-2.2,-3.05,347,445,403,282,225,6
1481,0.06,0.88,0.51,4.27,-2.87,-1.46,345,441,398,278,224,6
1482,0.06,0.86,0.48,-8.18,-5.19,-0.79,349,440,402,281,223,6
1483,0.05,0.86,0.47,-3.23,-3.17,-1.65,346,447,402,278,222,6
1484,0.04,0.89,0.5,1.28,0.06,-2.14,344,440,402,281,221,6
1485,0.04,0.83,0.51,-6.77,-5.49,-7.51,354,445,400,281,224,6
1486,0.01,0.88,0.5,-2.14,-2.75,-2.01,343,446,400,278,222,6
1487,0.05,0.95,0.52,4.58,2.26,-4.64,340,443,398,278,221,6
1488,-0.0,0.86,0.49,-3.42,-7.39,-5.55,336,449,400,276,216,6
1489,-0.01,0.84,0.52,-2.26,-5.68,-0.67,336,450,405,280,222,6
1490,0.03,0.92,0.54,-9.89,-0.85,-6.59,338,440,400,275,223,6
1491,-0.0,0.82,0.53,1.16,2.44,-3.66,336,449,400,280,224,6
1492,0.04,0.85,0.52,1.22,0.67,-2.26,337,447,396,277,222,6
1493,0.02,0.87,0.55,-0.55,-2.38,-3.36,338,442,398,286,224,6
1494,0.01,0.85,0.55,1.71,-2.75,-1.34,339,448,400,280,223,6
1495,0.0,0.86,0.54,0.18,-2.75,-1.34,335,444,398,276,224,6
1496,0.01,0.84,0.53,-1.04,-5.68,-1.04,340,446,399,281,223,6
1497,0.03,0.84,0.55,0.24,-1.46,-2.75,338,444,402,281,222,6
1498,0.02,0.83,0.55,-0.85,-2.69,-2.69,340,444,399,279,222,6
1499,0.02,0.84,0.54,-1.83,-2.14,-2.32,340,442,399,280,220,6
1500,0.03,0.84,0.54,2.99,-2.69,-3.78,340,445,396,282,225,6
1501,0.03,0.84,0.54,3.48,-4.27,-0.31,341,442,400,277,222,6
1502,0.03,0.82,0.52,1.34,-1.59,-2.44,343,443,398,281,222,6
1503,0.04,0.84,0.53,0.12,-4.94,-2.2,341,435,398,283,221,6
1504,0.02,0.86,0.55,2.44,-2.69,-0.18,341,444,398,283,237,6
1505,0.03,0.83,0.54,-0.24,-2.87,-2.01,341,443,395,286,221,6
1506,0.04,0.84,0.55,-0.18,-3.3,-0.85,343,435,400,279,225,6
1507,0.03,0.85,0.54,-0.67,-2.75,-3.11,341,440,397,279,222,6
1508,0.04,0.86,0.54,-1.1,-1.28,-2.14,339,443,401,281,223,6
1509,0.03,0.84,0.55,-2.5,-3.05,-4.09,341,443,400,281,225,6
1510,0.02,0.85,0.56,0.79,-2.99,-1.34,344,434,400,277,224,6
1511,0.03,0.84,0.55,0.61,-4.64,-0.49,338,444,394,279,223,6
1512,0.03,0.85,0.56,-1.59,-2.69,-2.56,338,439,394,281,222,6
1513,0.02,0.82,0.56,0.85,-2.14,-2.5,343,434,397,280,226,6
1514,0.02,0.83,0.56,-1.65,-3.42,-1.77,342,439,398,279,248,6
1515,0.01,0.82,0.57,-0.49,-2.93,-1.53,341,441,400,282,225,6
1516,0.03,0.83,0.57,1.28,-3.17,-1.71,350,443,399,283,222,6
1517,0.04,0.82,0.56,1.53,-2.2,-1.95,341,439,397,281,223,6
1518,0.05,0.83,0.57,-0.61,-0.73,-3.66,343,439,396,280,229,6
1519,0.03,0.86,0.59,4.39,-2.44,-2.38,342,440,397,282,231,6
1520,0.04,0.81,0.58,0.06,-2.44,-0.79,342,439,396,282,256,6
1521,0.06,0.81,0.58,-1.28,-4.33,-2.08,338,441,397,282,221,6
1522,0.06,0.81,0.59,-2.62,-2.32,0.06,342,450,397,278,220,6
1523,0.06,0.81,0.59,1.59,-3.78,-0.24,348,440,397,279,223,6
1524,0.04,0.81,0.59,-1.89,-4.09,-2.75,340,437,397,281,224,6
1525,0.07,0.81,0.6,-0.43,-4.82,0.49,345,435,394,282,222,6
1526,0.05,0.8,0.59,-0.24,-2.75,-2.2,344,442,397,276,214,6
1527,0.16,0.94,0.31,22.09,19.35,-12.88,230,305,427,462,380,6
1528,0.23,0.89,0.32,9.03,7.26,3.85,230,310,427,463,378,6
1529,0.22,0.92,0.26,4.94,-1.34,-5.19,230,312,435,470,383,6
1530,0.13,0.93,0.33,-3.11,9.77,5.37,243,315,421,461,382,6
1531,0.15,0.91,0.39,6.41,-6.35,-4.52,239,314,423,468,389,6
1532,0.09,0.89,0.41,8.24,-4.52,-3.78,232,315,425,465,386,6
1533,0.19,0.89,0.37,6.29,-7.69,-0.79,233,315,423,466,385,6
1534,0.28,1.05,0.05,-2.26,-11.66,-24.6,235,319,423,472,399,6
1535,0.24,0.98,0.16,52.98,-55.97,-32.35,209,292,421,465,360,6
1536,0.26,0.88,-0.0,13.31,9.22,1.59,215,297,425,466,356,6
1537,0.24,0.9,0.0,-11.6,36.62,-16.3,216,303,431,465,354,6
1538,0.34,0.96,0.07,-1.4,-19.04,30.27,222,304,422,470,359,6
1539,0.11,1.12,0.44,-35.58,-29.36,-22.58,226,299,430,466,380,6
1540,0.19,0.65,0.43,37.72,33.45,1.22,226,301,429,468,381,6
1541,0.23,0.99,0.31,3.3,-16.17,22.95,231,306,432,465,382,6
1542,-0.02,1.01,0.28,-7.39,-13.92,26.61,262,306,429,467,383,6
1543,0.22,0.91,0.25,-20.08,-21.85,-12.82,234,308,431,465,384,6
1544,0.25,0.85,0.43,-12.21,6.16,11.47,235,313,434,464,392,6
1545,0.13,0.89,0.44,7.02,9.83,8.36,236,310,432,465,388,6
1546,0.23,0.93,0.39,-3.91,-7.32,-13.73,235,311,433,471,391,6
1547,0.18,0.87,0.41,3.11,-5.0,-1.95,234,311,431,469,388,6
1548,0.19,0.87,0.41,-0.98,-6.65,-5.25,234,314,434,461,391,6
1549,0.18,0.88,0.43,-2.99,-4.94,-3.11,232,314,435,466,390,6
1550,0.21,0.89,0.42,-6.23,-10.13,-4.27,233,313,435,469,394,6
1551,0.19,0.85,0.43,3.11,-5.0,-0.43,233,315,433,461,391,6
1552,0.18,0.87,0.44,4.27,-4.7,-1.65,233,313,432,466,387,6
1553,0.17,0.87,0.45,-1.16,-5.31,-2.38,234,315,432,466,388,6
1554,0.11,0.9,0.42,5.74,0.31,-3.05,231,316,434,467,391,6
1555,0.19,0.91,0.39,0.12,-3.05,-1.59,236,315,430,466,387,6
1556,0.18,0.9,0.37,3.91,-3.48,-2.26,236,314,433,464,387,6
1557,0.13,0.92,0.4,-5.31,-1.59,-0.43,239,321,432,467,391,6
1558,0.16,0.9,0.4,-3.11,-1.71,-4.76,239,322,430,466,391,6
1559,0.16,0.93,0.36,5.13,-4.58,-0.43,242,322,430,466,390,6
1560,0.17,0.91,0.39,-1.16,-1.83,-2.62,243,325,430,465,389,6
1561,0.16,0.9,0.39,-1.28,-2.87,-1.34,243,326,431,462,381,6
1562,0.16,0.88,0.41,-7.69,-6.04,2.14,243,324,429,461,376,6
1563,0.18,0.89,0.43,-1.22,-8.67,-9.09,247,330,428,470,374,6
1564,0.14,0.88,0.44,-2.5,-5.92,2.14,247,333,426,467,374,6
1565,0.14,0.88,0.43,10.44,0.85,-4.15,244,338,427,464,375,6
1566,0.14,0.9,0.42,-3.36,-2.32,-1.65,248,343,428,469,373,6
1567,0.15,0.88,0.41,-1.59,-3.91,1.04,252,341,431,459,368,6
1568,0.17,0.88,0.42,4.7,1.95,-4.09,251,339,425,470,374,6
1569,0.15,0.9,0.43,-5.43,-3.72,0.31,253,345,430,462,379,6
1570,0.15,0.85,0.42,2.75,-4.82,1.04,251,343,428,463,376,6
1571,0.17,0.91,0.41,1.53,16.36,2.01,251,345,424,462,377,6
1572,0.21,0.92,0.46,-2.56,-36.13,12.15,254,342,428,459,379,6
1573,0.1,0.71,0.53,-81.73,39.61,-26.73,245,346,421,448,367,6
1574,-0.01,0.55,0.7,15.32,-46.2,42.3,248,351,417,455,362,6
1575,-0.06,0.97,0.68,-3.17,-30.52,-6.84,246,342,425,458,360,6
1576,0.21,0.8,0.51,34.3,7.26,6.1,248,352,425,454,362,6
1577,0.21,0.83,0.45,2.93,6.77,-11.78,244,348,422,460,369,6
1578,0.17,0.85,0.44,3.36,4.27,-4.33,250,350,427,458,377,6
1579,0.18,0.87,0.46,-24.17,13.06,-19.9,248,349,423,457,378,6
1580,0.16,0.88,0.52,-8.91,-3.78,-0.67,251,346,428,453,382,6
1581,0.24,0.8,0.52,3.42,-5.49,-0.06,252,351,431,459,379,6
1582,0.16,0.95,0.45,7.51,-7.81,2.08,255,347,427,452,381,6
1583,0.18,0.86,0.45,-6.53,-4.7,-1.16,252,347,426,448,382,6
1584,0.22,0.83,0.47,-3.11,-6.23,1.77,254,347,423,457,381,6
1585,0.21,0.95,0.47,-1.28,3.66,-8.3,246,352,424,452,373,6
1586,0.21,0.89,0.48,-6.47,-3.6,-5.55,254,354,427,453,378,6
1587,0.22,0.93,0.45,0.55,-0.85,-1.83,253,350,421,455,380,6
1588,0.25,0.86,0.45,-5.25,-9.64,14.34,261,351,424,451,379,6
1589,0.2,0.91,0.44,1.1,2.32,-4.52,257,350,426,456,383,6
1590,0.15,0.9,0.43,6.53,4.27,-14.4,256,348,422,453,385,6
1591,0.17,0.86,0.43,-3.05,-5.68,-3.91,257,355,424,448,383,6
1592,0.17,0.87,0.42,7.02,-4.82,1.95,260,350,426,454,385,6
1593,0.12,0.89,0.39,3.91,-13.0,-2.26,257,361,428,451,382,6
1594,0.11,0.9,0.4,3.85,-4.58,-0.31,257,351,429,457,382,6
1595,0.13,0.88,0.41,-4.76,-2.01,-4.58,256,351,429,456,385,6
1596,0.15,0.9,0.42,-4.82,-1.83,-2.26,260,353,426,455,384,6
1597,0.15,0.92,0.39,5.31,-0.79,-4.58,258,356,426,457,383,6
1598,0.13,0.91,0.42,-0.79,-3.97,-1.28,261,353,429,457,382,6
1599,0.14,0.9,0.38,3.36,-2.62,-2.26,262,354,427,454,384,6
1600,0.16,0.9,0.39,1.1,-3.72,-1.34,262,358,427,453,379,6
1601,0.15,0.9,0.39,-1.16,-2.14,-2.81,264,353,425,452,383,6
1602,0.14,0.9,0.41,-0.37,-1.89,-3.85,259,355,426,452,384,6
1603,0.14,0.91,0.41,1.16,-3.11,-2.56,261,358,428,449,385,6
1604,0.1,0.88,0.42,-4.15,8.36,-16.05,264,359,426,455,386,6
1605,0.13,0.89,0.41,-0.79,-3.05,-1.4,265,356,429,463,389,6
1606,0.11,0.9,0.43,0.0,-3.42,-2.87,265,356,423,445,385,6
1607,0.1,0.9,0.43,-5.31,-4.39,-3.54,262,354,425,451,384,6
1608,0.13,0.89,0.43,-6.23,-1.89,-5.19,263,357,422,456,387,6
1609,0.1,0.89,0.46,6.96,-2.69,-8.67,263,365,427,450,385,6
1610,0.1,0.84,0.46,-4.58,-1.04,1.53,265,360,427,454,381,6
1611,0.09,0.88,0.5,1.04,-1.59,-3.11,267,355,426,453,383,6
1612,0.12,0.87,0.5,-1.4,-10.5,13.37,268,357,428,457,379,6
1613,0.14,0.84,0.49,2.87,-4.15,-1.1,260,357,425,452,379,6
1614,0.13,0.85,0.5,2.5,-1.77,-2.01,265,354,426,451,382,6
1615,0.15,0.86,0.48,-0.31,-3.78,-2.01,266,356,426,451,384,6
1616,0.14,0.86,0.49,-1.4,-2.38,-2.99,266,359,428,453,382,6
1617,0.14,0.86,0.5,0.06,-3.91,-2.08,265,358,429,453,380,6
1618,0.14,0.86,0.49,-0.67,-3.85,-0.98,261,360,424,449,381,6
1619,0.15,0.86,0.5,1.71,-3.66,-3.54,267,354,426,449,383,6
1620,0.15,0.85,0.49,0.73,-2.69,-3.23,267,357,427,443,383,6
1621,0.15,0.85,0.49,1.89,-3.48,-1.89,266,361,426,448,379,6
1622,0.14,0.87,0.5,-0.49,-2.38,-3.05,273,359,424,446,383,6
1623,0.14,0.86,0.5,-0.31,-3.97,-2.32,268,358,426,451,385,6
1624,0.13,0.86,0.51,-2.56,-2.56,-3.66,268,355,426,464,385,6
1625,0.13,0.86,0.5,1.83,-1.89,-3.3,267,357,425,449,387,6
1626,0.14,0.86,0.49,1.77,-3.17,-2.56,268,361,427,449,383,6
1627,0.13,0.85,0.5,0.61,-2.87,-2.75,269,362,426,452,386,6
1628,0.13,0.85,0.5,-0.18,-2.44,-2.14,275,358,426,450,384,6
1629,0.13,0.86,0.5,2.14,-2.99,-1.16,268,358,422,449,383,6
1630,0.13,0.86,0.5,-0.67,-3.54,-3.36,277,359,424,453,382,6
1631,0.14,0.86,0.5,0.18,-3.11,-1.89,295,357,422,449,379,6
1632,0.14,0.85,0.5,0.79,-3.3,-1.28,280,360,426,453,384,6
1633,0.13,0.85,0.5,-0.98,-2.44,-3.78,270,361,439,449,380,6
1634,0.13,0.85,0.51,0.31,-1.95,-2.56,271,361,427,450,383,6
1635,0.14,0.86,0.51,2.81,-4.46,-2.32,269,361,427,447,383,6
1636,0.12,0.84,0.51,-5.13,-2.32,-4.15,268,361,427,453,382,6
1637,0.12,0.85,0.52,4.27,-2.69,-3.3,270,360,425,449,382,6
1638,0.11,0.84,0.53,0.18,-1.34,-4.33,270,361,429,448,386,6
1639,0.1,0.84,0.49,8.91,-2.08,-5.49,265,363,432,450,382,6
1640,0.1,0.83,0.49,1.4,-3.54,-0.73,267,359,428,451,380,6
1641,0.11,0.87,0.51,-0.06,-4.33,-1.71,292,358,426,454,380,6
1642,0.07,0.79,0.57,0.37,0.37,15.2,266,359,427,453,381,6
1643,0.12,0.84,0.53,1.95,-2.5,-8.79,271,359,425,451,377,6
1644,0.12,0.86,0.53,4.21,-1.34,-2.99,266,361,423,451,380,6
1645,0.12,0.85,0.51,0.67,-1.95,-2.38,269,363,427,450,382,6
1646,0.12,0.86,0.5,0.37,-3.3,-2.81,269,360,427,456,381,6
1647,0.11,0.84,0.51,-1.95,-1.77,-3.6,268,359,424,451,382,6
1648,0.12,0.85,0.51,1.77,-4.88,-1.4,272,361,427,450,382,6
1649,0.14,0.86,0.51,-0.31,-3.85,-1.34,271,360,426,450,382,6
1650,0.11,0.85,0.52,-1.34,-1.53,-4.27,264,363,428,449,381,6
1651,0.11,0.85,0.52,1.34,-2.56,-2.75,270,361,426,452,381,6
1652,0.12,0.85,0.51,1.59,-2.44,-2.44,269,376,426,448,382,6
1653,0.12,0.85,0.51,-0.85,-3.36,-2.08,270,371,425,443,385,6
1654,0.13,0.85,0.51,-0.06,-3.6,-2.44,271,361,427,451,385,6
1655,0.12,0.85,0.52,0.43,-2.81,-3.42,272,362,429,454,385,6
1656,0.12,0.86,0.52,-0.85,-2.44,-2.56,273,364,431,451,387,6
1657,0.14,0.85,0.51,4.46,-3.17,1.95,270,360,430,449,385,6
1658,0.12,0.84,0.51,2.08,-3.78,-2.62,269,365,425,450,384,6
1659,0.13,0.84,0.51,-0.98,-3.85,-0.18,268,361,430,450,382,6
1660,0.14,0.86,0.5,1.28,-5.49,-1.16,264,362,427,446,382,6
1661,0.14,0.83,0.48,-1.4,-2.87,0.24,269,362,426,451,382,6
1662,0.18,0.88,0.51,1.28,-8.0,-5.13,272,362,427,450,378,6
1663,0.15,0.86,0.49,0.98,-1.89,-0.85,270,361,432,445,384,6
1664,0.15,0.86,0.5,0.31,-3.6,-2.99,271,364,427,453,379,6
1665,0.15,0.84,0.49,0.43,-3.05,-2.5,272,362,425,453,385,6
1666,0.14,0.85,0.51,-2.26,-2.99,-2.14,268,365,426,454,380,6
1667,0.15,0.85,0.5,1.16,-3.05,-2.5,309,360,426,453,382,6
1668,0.16,0.84,0.49,9.46,-3.85,1.77,272,365,426,450,385,6
1669,0.16,0.88,0.48,-0.43,-3.48,-5.19,270,362,430,453,383,6
1670,0.17,0.88,0.48,2.01,-3.91,-1.34,277,362,427,451,381,6
1671,0.15,0.87,0.48,0.37,-5.19,-0.31,269,365,426,445,384,6
1672,0.18,0.88,0.47,1.95,-4.7,-2.01,273,367,422,462,382,6
1673,0.14,0.88,0.47,-2.56,-1.4,-3.97,297,363,423,449,381,6
1674,0.15,0.89,0.47,-0.43,-0.49,-3.11,272,363,428,453,384,6
1675,0.13,0.87,0.46,2.93,-3.66,-2.14,270,364,424,453,382,6
1676,0.14,0.89,0.46,0.31,0.49,-6.41,269,362,428,450,381,6
1677,0.12,0.87,0.46,-0.92,-2.93,-1.59,267,364,427,447,383,6
1678,0.11,0.87,0.45,4.82,-1.28,-2.5,269,363,426,451,384,6
1679,0.14,0.89,0.46,-1.59,-3.66,-3.85,268,362,426,446,385,6
1680,0.11,0.91,0.47,2.99,-4.09,-0.06,268,361,424,450,386,6
1681,0.06,0.83,0.46,6.53,-3.66,-6.41,269,362,427,447,380,6
1682,0.13,0.95,0.46,-11.29,5.49,-14.65,257,352,426,443,378,6
1683,0.12,0.89,0.45,-7.75,5.37,15.44,263,353,427,457,379,6
1684,0.15,0.81,0.54,4.58,-9.09,-0.79,266,355,428,449,381,6
1685,0.26,0.75,0.51,0.61,2.93,-14.34,265,357,436,455,375,6
1686,0.18,0.74,0.59,-3.11,-2.69,-8.61,263,354,420,460,375,6
1687,0.13,0.79,0.6,-1.83,5.49,-7.63,264,353,424,459,381,6
1688,0.17,0.81,0.57,-0.37,3.85,1.46,263,364,422,462,378,6
1689,0.12,0.81,0.58,20.14,5.49,-5.43,265,354,425,463,372,6
1690,0.09,0.85,0.57,5.62,2.56,0.55,257,353,423,468,376,6
1691,0.12,0.85,0.56,-2.32,-1.22,-1.46,264,352,423,460,377,6
1692,0.13,0.83,0.57,1.53,-7.69,-1.22,263,357,426,462,379,6
1693,0.14,0.86,0.54,7.14,-5.86,-2.5,267,354,423,464,379,6
1694,0.18,0.76,0.47,-6.29,38.51,-41.08,264,355,427,464,376,6
1695,0.06,0.86,0.5,3.11,-3.72,-0.37,266,358,424,462,379,6
1696,0.06,0.86,0.51,-0.06,-0.85,-1.95,265,357,422,457,380,6
1697,0.07,0.84,0.56,-9.95,-6.59,-3.54,268,353,424,460,376,6
1698,0.06,0.83,0.53,3.97,-2.38,-1.16,270,358,428,464,380,6
1699,0.1,0.84,0.54,4.7,-4.52,-0.18,266,359,428,463,382,6
1700,0.09,0.86,0.54,-2.87,-3.17,-5.86,270,357,426,462,378,6
1701,0.11,0.86,0.5,5.62,-5.0,-1.34,270,356,429,464,381,6
1702,0.11,0.88,0.46,4.09,-8.79,-3.11,269,353,427,462,380,6
1703,0.09,0.87,0.5,-1.53,-1.28,-4.52,268,360,426,465,383,6
1704,0.07,0.85,0.5,1.95,-2.08,-0.73,269,355,431,459,383,6
1705,0.09,0.87,0.48,3.54,-0.92,-2.14,272,362,429,464,379,6
1706,0.09,0.87,0.48,1.59,-4.82,-1.83,269,362,427,457,381,6
1707,0.1,0.89,0.47,-2.26,-0.85,-3.78,270,359,426,462,382,6
1708,0.08,0.87,0.47,-1.28,-3.48,-2.99,269,361,426,466,380,6
1709,0.09,0.88,0.49,-3.54,-3.85,-2.14,267,357,429,455,381,6
1710,0.09,0.87,0.46,1.65,-2.56,-2.62,270,359,425,459,384,6
1711,0.1,0.82,0.44,1.22,-10.56,10.5,267,361,427,453,381,6
1712,0.14,0.87,0.44,0.0,-8.85,6.29,270,360,427,461,384,6
1713,0.16,0.89,0.44,5.07,-5.25,-4.21,275,355,427,455,383,6
1714,0.15,0.89,0.43,-0.43,-2.87,-2.93,273,358,426,458,381,6
1715,0.14,0.9,0.43,0.92,-2.69,-4.03,289,357,427,458,385,6
1716,0.13,0.89,0.44,-0.92,-3.17,-2.69,271,359,427,458,377,6
1717,0.14,0.9,0.43,1.59,-3.48,-2.87,271,359,427,458,380,6
1718,0.14,0.89,0.42,2.62,-2.62,-2.26,273,362,429,459,388,6
1719,0.16,1.04,0.51,-3.48,1.65,-7.45,273,358,426,459,384,6
1720,0.1,0.72,0.49,-16.24,1.1,-11.17,269,359,423,457,385,6
1721,0.1,0.73,0.53,11.78,-5.92,2.32,273,360,436,455,383,6
1722,0.14,0.9,0.47,18.37,-15.44,13.98,272,359,428,460,385,6
1723,0.17,0.92,0.42,1.95,-4.58,-3.78,270,357,427,460,381,6
1724,0.17,0.95,0.5,-17.58,5.13,-6.84,269,361,431,459,383,6
1725,0.14,0.76,0.53,-12.15,-3.3,-9.83,268,358,428,459,384,6
1726,0.12,0.79,0.57,2.26,-0.85,-3.72,274,362,426,454,382,6
1727,0.1,0.83,0.58,3.78,-3.6,-2.44,263,359,426,454,382,6
1728,0.13,0.83,0.55,3.97,-3.78,-3.54,274,358,427,452,383,6
1729,0.11,0.82,0.55,-0.06,-3.78,-2.5,271,363,427,460,384,6
1730,0.15,0.81,0.56,0.61,-4.21,-2.08,276,362,429,456,381,6
1731,0.08,0.81,0.5,7.75,-1.65,5.74,277,356,429,453,382,6
1732,0.13,0.96,0.54,-2.38,-30.76,-10.19,269,360,429,453,335,6
1733,0.44,0.84,0.45,7.57,-23.38,14.95,271,349,426,455,306,6
1734,0.29,0.77,0.43,14.34,-17.82,1.59,273,354,426,445,309,6
1735,0.18,0.84,0.5,-4.88,-11.17,-14.83,269,357,426,453,364,6
1736,0.19,0.82,0.49,-9.95,-0.61,10.68,272,356,427,452,365,6
1737,-0.07,0.99,0.64,99.43,12.08,82.4,272,363,427,458,365,6
1738,0.25,1.04,0.29,-8.91,3.23,5.8,273,358,426,462,366,6
1739,-0.35,0.6,0.62,-97.41,-47.24,48.52,272,364,427,461,366,6
1740,-0.17,0.62,1.13,58.65,35.28,22.03,277,364,427,457,366,6
1741,0.15,0.74,0.56,-13.37,-3.17,-14.34,278,368,430,463,364,6
1742,0.34,0.54,0.8,-20.75,-36.74,2.2,280,368,429,455,366,6
1743,0.16,0.66,0.73,2.81,9.34,-1.71,278,369,433,458,367,6
1744,0.06,0.45,0.77,-47.97,-57.37,-11.41,278,372,429,448,368,6
1745,0.26,0.41,0.84,-12.02,0.37,-18.37,281,368,428,449,365,6
1746,0.6,0.82,0.67,35.16,19.84,-25.57,281,372,440,445,368,6
1747,0.26,0.51,0.86,-0.18,3.66,-23.01,281,370,440,444,369,6
1748,0.27,0.64,0.72,33.81,-2.93,-9.58,276,364,429,444,369,6
1749,0.18,0.61,0.8,7.81,-0.55,3.23,280,372,430,446,369,6
1750,0.21,0.65,0.79,0.73,-1.77,-3.97,280,369,432,445,369,6
1751,0.21,0.59,0.76,-1.59,-4.33,0.43,280,366,430,446,369,6
1752,0.18,0.63,0.75,10.62,-0.67,-7.02,280,367,430,451,370,6
1753,0.2,0.63,0.78,-1.53,-4.88,-1.83,280,370,430,450,369,6
1754,0.18,0.64,0.78,-0.92,-1.04,-2.38,280,369,431,448,372,6
1755,0.18,0.64,0.77,1.1,-1.89,-2.81,277,369,427,442,370,6
1756,0.18,0.61,0.76,4.58,-2.99,-2.75,282,373,431,448,371,6
1757,0.17,0.6,0.75,0.67,-4.64,-0.79,278,370,429,450,368,6
1758,0.18,0.64,0.78,-1.59,-2.87,-2.56,280,369,431,447,365,6
1759,0.2,0.63,0.76,-0.18,-1.28,-6.59,282,370,429,451,370,6
1760,0.21,0.59,0.77,7.14,-1.04,-0.98,279,372,430,449,369,6
1761,0.22,0.64,0.79,-3.97,-2.62,-1.1,281,368,427,445,367,6
1762,0.21,0.61,0.68,24.9,25.15,-2.14,278,369,433,453,372,6
1763,0.2,0.63,0.6,37.66,-22.28,-8.06,262,371,422,451,376,6
1764,0.21,0.73,0.67,-3.54,-21.06,11.9,257,360,416,457,342,6
1765,0.2,0.86,0.51,39.92,1.1,-1.28,260,361,424,454,343,6
1766,0.2,0.82,0.52,-5.86,5.74,-5.86,264,362,427,455,348,6
1767,0.11,0.87,0.51,22.52,12.51,-6.65,262,360,429,456,351,6
1768,-0.06,0.9,0.53,-10.62,-11.23,-5.98,291,360,432,450,355,6
1769,0.05,0.86,0.51,-6.9,0.06,-1.4,266,360,427,451,357,6
1770,0.1,0.88,0.49,-0.92,-2.08,-0.98,266,360,429,451,359,6
1771,0.11,0.88,0.47,6.59,0.49,0.0,264,363,429,449,361,6
1772,0.1,0.89,0.49,-2.32,-4.88,-3.42,266,359,433,449,363,6
1773,0.12,0.88,0.48,-3.66,-6.16,-2.44,269,360,428,450,360,6
1774,0.11,0.87,0.47,-1.83,-1.53,-3.48,266,362,430,447,357,6
1775,0.12,0.87,0.48,-1.71,-4.64,-3.3,268,362,433,446,361,6
1776,0.11,0.86,0.48,-0.61,-3.17,-1.16,268,369,431,447,364,6
1777,0.11,0.89,0.45,13.12,15.26,-5.19,265,355,432,446,363,6
1778,0.07,0.89,0.46,-0.67,-3.17,-2.26,269,361,433,452,362,6
1779,0.1,0.89,0.46,-0.61,-5.37,-0.98,269,361,442,451,362,6
1780,0.08,0.88,0.46,-3.11,-5.13,-0.73,279,360,430,447,367,6
1781,0.07,0.87,0.47,-3.85,-0.43,-4.76,271,365,433,448,366,6
1782,0.06,0.87,0.48,-3.23,-0.98,-6.29,273,364,430,452,363,6
1783,0.08,0.88,0.45,0.79,-2.38,-1.46,275,367,433,448,365,6
1784,0.08,0.89,0.46,3.3,-2.75,-3.3,274,364,432,444,369,6
1785,0.07,0.9,0.47,0.92,-2.75,-1.77,271,368,447,442,369,6
1786,0.08,0.88,0.48,-9.4,-3.05,-6.23,273,368,430,448,368,6
1787,0.06,0.85,0.47,0.73,-1.16,-0.73,274,372,434,445,372,6
1788,0.08,0.87,0.47,-4.39,-4.88,-1.46,271,369,431,449,367,6
1789,0.06,0.87,0.48,-3.48,-1.22,-2.93,276,371,431,452,363,6
1790,0.05,0.87,0.47,5.13,-5.74,0.37,274,368,429,451,367,6
1791,0.09,0.89,0.47,-1.34,-2.93,-4.46,275,369,426,447,370,6
1792,0.07,0.88,0.48,-1.28,-3.36,-2.14,275,367,432,454,368,6
1793,0.1,0.87,0.49,-4.7,-4.09,-2.93,277,371,431,454,366,6
1794,0.08,0.86,0.5,-4.64,-3.05,-4.27,273,369,431,451,369,6
1795,0.08,0.85,0.53,-1.83,-2.38,-2.87,275,366,433,452,368,6
1796,0.06,0.86,0.49,4.88,-3.54,0.18,277,368,430,455,368,6
1797,0.1,0.87,0.52,-5.74,-1.95,-3.78,273,370,431,452,368,6
1798,0.07,0.87,0.52,-3.11,-1.46,-3.85,272,367,431,452,371,6
1799,0.11,0.88,0.49,-1.16,-5.31,-1.89,278,370,434,452,370,6
1800,0.08,0.86,0.49,2.75,-1.1,-3.11,279,372,428,451,369,6
1801,0.1,0.86,0.5,-3.36,-6.35,0.61,276,369,431,467,369,6
1802,0.1,0.87,0.48,1.77,-2.87,-2.81,305,370,431,449,368,6
1803,0.1,0.87,0.5,0.18,-2.5,-3.36,277,373,431,455,370,6
1804,0.11,0.87,0.48,0.37,-3.66,-2.32,277,371,433,449,366,6
1805,0.1,0.88,0.5,0.18,-3.54,-2.93,279,369,431,446,370,6
1806,0.08,0.86,0.51,-1.22,-2.38,-2.93,277,372,429,447,369,6
1807,0.08,0.87,0.5,2.99,-2.01,-2.56,279,372,433,449,370,6
1808,0.1,0.87,0.48,0.92,-3.48,-2.56,289,370,431,456,371,6
1809,0.09,0.85,0.49,0.37,-2.2,-3.3,277,373,433,452,367,6
1810,0.11,0.87,0.49,-0.55,-5.19,-1.22,277,367,430,451,369,6
1811,0.09,0.86,0.51,-1.59,-0.49,-3.91,278,372,431,456,373,6
1812,0.09,0.86,0.49,3.6,-3.11,-2.08,277,373,434,450,368,6
1813,0.09,0.87,0.49,1.77,-2.32,-2.38,279,371,435,448,372,6
1814,0.1,0.87,0.49,1.53,-2.69,0.49,279,371,431,455,372,6
1815,0.06,0.86,0.49,2.38,-3.72,-4.33,280,372,428,453,369,6
1816,0.11,0.86,0.47,2.38,-2.69,-4.21,271,373,433,452,372,6
1817,0.09,0.92,0.48,0.31,3.48,-5.74,275,367,433,451,369,6
1818,-0.01,0.77,0.5,-9.4,0.18,5.0,279,373,434,453,373,6
1819,0.14,0.82,0.49,4.64,-5.74,-3.3,279,376,432,452,373,6
1820,0.03,0.85,0.48,-1.22,5.25,7.75,282,374,431,455,369,6
1821,0.07,0.86,0.51,3.3,-2.69,-6.04,298,375,429,452,372,6
1822,0.03,0.87,0.5,3.91,-4.64,-2.81,282,370,433,458,373,6
1823,0.05,0.85,0.51,4.09,-5.43,-3.97,279,372,431,453,372,6
1824,0.08,0.89,0.44,4.33,-3.97,-6.23,281,373,430,451,372,6
1825,0.0,0.85,0.46,-2.14,-13.85,-7.08,282,375,431,449,373,6
1826,-0.02,0.85,0.49,-2.99,-5.98,-3.66,287,377,429,451,371,6
1827,0.08,0.9,0.55,-13.24,0.73,6.1,288,374,429,453,373,6
1828,0.12,0.82,0.51,3.78,5.25,-1.59,285,377,431,451,372,6
1829,0.05,0.83,0.51,-5.31,-6.16,19.35,282,376,434,453,370,6
1830,0.12,0.87,0.53,14.89,-2.2,-9.03,283,376,430,453,368,6
1831,0.08,0.88,0.5,1.1,-5.25,-4.46,282,373,432,451,369,6
1832,0.12,0.86,0.5,-1.22,-8.06,-3.36,286,378,433,452,374,6
1833,0.1,0.87,0.51,1.71,-6.59,-3.85,284,377,428,448,373,6
1834,0.12,0.82,0.52,-0.37,-5.13,-6.77,283,377,429,454,368,6
1835,0.15,0.83,0.54,-2.32,-5.0,-3.54,283,373,433,456,369,6
1836,0.1,0.84,0.54,1.46,0.49,-5.68,285,376,431,452,374,6
1837,0.16,0.86,0.53,-1.89,-2.44,-1.04,284,379,441,455,370,6
1838,0.14,0.86,0.53,4.52,-3.17,-2.44,275,374,429,457,373,6
1839,0.17,0.85,0.55,-14.04,-3.78,-2.62,291,378,431,447,367,6
1840,0.2,0.85,0.47,10.5,-16.54,18.98,282,376,433,454,371,6
1841,0.2,0.83,0.51,-5.0,-4.03,-5.49,281,375,432,454,373,6
1842,0.16,0.84,0.51,2.01,0.37,-4.58,284,378,430,457,373,6
1843,0.17,0.84,0.53,-0.79,-2.62,-2.69,288,377,433,454,373,6
1844,0.2,0.82,0.52,-1.53,-0.79,0.55,285,375,432,454,382,6
1845,0.18,0.82,0.5,-6.1,-6.59,-0.79,293,376,438,453,373,6
1846,0.15,0.82,0.58,-12.33,-3.05,0.49,285,376,430,452,374,6
1847,0.15,0.83,0.56,2.38,-3.3,-3.6,283,377,431,450,375,6
1848,0.15,0.85,0.57,-5.74,-3.91,-2.93,283,377,433,456,373,6
1849,0.13,0.85,0.56,5.07,-3.3,-5.43,286,379,432,456,375,6
1850,0.13,0.81,0.55,1.1,-1.4,-0.92,284,379,431,459,369,6
1851,0.15,0.84,0.55,-5.98,-4.39,-3.17,287,376,433,449,373,6
1852,0.15,0.83,0.54,-0.67,-2.44,-2.32,290,379,433,452,369,6
1853,0.13,0.83,0.55,1.16,-2.87,-2.81,283,379,446,455,376,6
1854,0.12,0.85,0.53,3.05,-1.59,-1.46,303,377,433,453,373,6
1855,0.15,0.84,0.51,4.15,-3.48,-2.99,286,377,434,452,373,6
1856,0.15,0.84,0.52,2.99,-2.75,-3.48,282,377,435,453,374,6
1857,0.12,0.86,0.52,-0.06,-7.45,0.43,286,377,431,454,371,6
1858,0.12,0.86,0.5,2.38,-4.21,-1.34,287,377,429,453,371,6
1859,0.12,0.85,0.53,-0.37,-2.81,-2.99,285,375,431,459,373,6
1860,0.13,0.85,0.52,-0.92,-4.21,-1.71,286,376,431,451,373,6
1861,0.11,0.85,0.49,16.48,-2.38,4.64,284,377,433,455,374,6
1862,0.13,0.89,0.5,-1.53,-5.37,1.22,284,377,436,453,371,6
1863,0.12,0.86,0.5,-1.83,-3.85,-3.48,292,380,432,457,371,6
1864,0.16,0.86,0.51,-3.05,-3.05,-0.43,288,378,431,457,369,6
1865,0.14,0.85,0.5,-0.61,-2.38,-4.21,284,376,433,458,373,6
1866,0.16,0.86,0.51,-0.79,-2.87,-2.01,284,387,432,459,372,6
1867,0.12,0.85,0.51,1.1,-1.1,-4.58,280,379,431,454,372,6
1868,0.14,0.86,0.51,0.31,-2.87,-1.77,287,377,426,455,373,6
1869,0.13,0.86,0.51,1.04,-4.33,-2.75,286,378,431,455,371,6
1870,0.15,0.85,0.51,0.67,-2.56,-2.44,284,376,431,456,373,6
1871,0.13,0.86,0.5,4.09,-4.7,-0.24,287,376,432,460,373,6
1872,0.13,0.85,0.51,-0.73,-2.2,-3.23,284,377,427,458,374,6
1873,0.12,0.85,0.49,3.78,-2.93,-2.69,314,376,432,458,370,6
1874,0.13,0.85,0.51,-3.05,-2.56,-2.56,289,375,432,454,372,6
1875,0.1,0.85,0.5,0.24,0.55,-7.39,286,379,432,452,370,6
1876,0.12,0.85,0.52,-3.05,-3.78,-1.71,284,380,434,454,370,6
1877,0.12,0.86,0.51,1.46,-3.3,-1.59,287,378,432,451,374,6
1878,0.14,0.85,0.52,-3.72,-3.78,-2.81,284,379,432,457,373,6
1879,0.14,0.86,0.51,0.85,-2.62,-2.26,285,378,432,455,369,6
1880,0.15,0.85,0.52,-5.0,-3.48,-3.72,288,377,431,453,372,6
1881,0.13,0.84,0.52,-1.28,-2.38,-3.3,284,378,432,455,369,6
1882,0.13,0.85,0.51,2.5,-2.56,-0.67,287,382,427,455,369,6
1883,0.14,0.86,0.5,1.71,-3.72,-2.01,287,377,429,450,372,6
1884,0.14,0.85,0.5,0.0,-0.85,-4.21,286,377,433,458,372,6
1885,0.12,0.88,0.52,1.46,-2.08,-2.75,287,373,428,458,368,6
1886,0.13,0.84,0.5,0.43,-3.23,-3.11,285,378,433,450,372,6
1887,0.13,0.85,0.51,1.46,-2.2,-3.23,284,375,432,460,375,6
1888,0.13,0.84,0.5,0.06,-3.97,-1.46,285,378,441,458,374,6
1889,0.14,0.86,0.5,-4.39,-3.17,-3.05,288,378,432,454,373,6
1890,0.14,0.85,0.51,-1.83,-2.69,-1.65,285,380,434,452,372,6
1891,0.14,0.86,0.52,4.82,-2.56,-1.89,288,378,432,455,372,6
1892,0.16,0.86,0.5,2.2,-2.81,-0.55,286,378,432,456,373,6
1893,0.14,0.86,0.51,-1.83,-2.69,-2.32,287,379,431,455,368,6
1894,0.14,0.85,0.51,-0.92,-2.01,-4.52,284,376,435,461,375,6
1895,0.14,0.85,0.51,4.27,-2.5,-0.06,285,376,432,452,372,6
1896,0.15,0.88,0.5,-0.67,-5.13,-3.6,284,378,431,456,373,6
1897,0.14,0.85,0.5,2.62,-2.08,-3.05,285,377,431,459,372,6
1898,0.15,0.85,0.49,1.65,-3.11,-3.36,282,379,433,455,369,6
1899,0.15,0.85,0.49,0.92,-2.44,-2.2,284,375,431,455,373,6
1900,0.14,0.84,0.48,-4.27,-3.97,-0.92,281,379,433,455,373,6
1901,0.14,0.85,0.48,3.11,-3.11,-0.98,285,379,434,450,374,6
1902,0.16,0.86,0.49,1.71,-1.65,-3.05,286,379,430,458,374,6
1903,0.17,0.86,0.5,-1.59,-5.43,-1.59,282,380,428,457,374,6
1904,0.17,0.85,0.52,-4.46,-1.22,-4.82,287,380,430,455,375,6
1905,0.14,0.84,0.51,-2.69,-3.85,-4.39,284,373,430,451,376,6
1906,0.17,0.84,0.52,1.1,-2.75,-4.09,285,378,436,457,370,6
1907,0.14,0.87,0.52,4.15,-2.56,-1.95,287,380,432,458,371,6
1908,0.15,0.84,0.51,0.31,-2.69,-3.17,285,377,434,458,373,6
1909,0.13,0.85,0.5,4.64,-2.87,-3.42,284,380,434,457,374,6
1910,0.15,0.87,0.49,-0.79,-1.28,-2.75,288,381,433,457,371,6
1911,0.16,0.87,0.49,4.52,-4.39,-0.92,286,377,432,460,369,6
1912,0.14,0.87,0.48,8.73,-1.65,-6.9,285,375,428,454,375,6
1913,0.13,0.86,0.47,-1.83,-2.93,-2.99,285,379,434,456,374,6
1914,0.1,0.89,0.48,4.88,-3.36,-5.8,288,378,431,459,369,6
1915,0.12,0.94,0.47,-6.04,-15.14,0.43,283,378,433,457,368,6
1916,0.09,0.89,0.41,5.19,-1.89,-0.85,285,381,430,457,370,6
1917,0.06,0.92,0.44,1.34,-1.16,-4.09,285,379,428,460,370,6
1918,0.08,0.9,0.41,0.79,-1.46,-2.81,290,378,426,451,374,6
1919,0.07,0.9,0.41,1.83,-2.01,-2.08,288,378,429,456,372,6
1920,0.08,0.91,0.41,1.28,-3.85,-2.14,285,375,429,456,374,6
1921,0.07,0.9,0.42,3.3,-1.16,-3.11,289,380,437,456,372,6
1922,0.1,0.98,0.47,-6.47,0.24,3.6,293,379,432,455,372,6
1923,0.08,0.77,0.49,-6.9,9.58,-3.6,286,377,430,457,372,6
1924,0.14,0.87,0.5,-6.53,-13.12,-8.73,285,376,431,454,372,6
1925,0.05,0.95,0.56,3.97,2.69,3.66,286,381,428,453,372,6
1926,0.2,0.76,0.51,7.39,-11.96,-7.63,286,377,431,458,372,6
1927,0.08,0.89,0.59,15.32,16.97,-17.94,287,378,429,453,373,6
1928,0.17,0.81,0.47,3.97,-5.55,5.68,290,380,434,459,373,6
1929,0.1,0.89,0.58,-1.95,-0.06,-2.87,286,379,430,452,370,6
1930,0.13,0.85,0.51,4.39,-3.78,-2.87,288,377,432,455,370,6
1931,0.11,0.87,0.48,5.74,-12.57,11.9,286,377,427,455,372,6
1932,0.13,0.86,0.49,-4.03,-10.86,5.74,281,379,437,457,370,6
1933,0.09,0.85,0.49,0.92,-8.3,8.24,285,377,431,456,373,6
1934,0.19,0.89,0.5,0.79,-8.12,-5.31,288,379,431,459,374,6
1935,0.14,0.87,0.5,-2.87,-1.89,-1.4,300,376,429,458,371,6
1936,0.15,0.86,0.49,-0.12,-2.75,-1.65,300,376,429,459,372,6
1937,0.13,0.85,0.5,-2.69,-3.36,-4.09,285,377,428,457,372,6
1938,0.14,0.87,0.49,-1.1,-3.54,-0.55,285,379,428,457,372,6
1939,0.18,0.89,0.5,-2.38,-6.9,1.59,286,376,435,455,374,6
1940,0.15,0.87,0.44,0.31,-10.62,4.88,286,380,432,456,372,6
1941,0.19,0.87,0.46,-1.71,-3.54,-2.87,289,378,433,456,370,6
1942,0.17,0.88,0.47,-4.94,-2.81,-4.94,283,378,428,460,372,6
1943,0.13,0.85,0.47,-9.89,0.49,-8.54,285,377,430,457,373,6
1944,0.2,0.88,0.45,2.2,-3.48,-7.81,289,377,430,453,372,6
1945,0.17,0.88,0.45,0.79,-1.71,-4.76,286,379,435,455,372,6
1946,0.18,0.91,0.44,6.04,-3.42,-1.46,288,376,429,459,372,6
1947,0.16,0.88,0.45,2.56,-2.69,-2.38,285,378,432,456,373,6
1948,0.16,0.88,0.45,0.49,-2.62,-3.97,288,378,431,458,372,6
1949,0.16,0.87,0.45,-0.67,-2.5,-2.2,310,379,427,461,374,6
1950,0.16,0.86,0.44,0.31,-4.09,-2.08,290,378,433,458,372,6
1951,0.16,0.87,0.44,0.43,-3.11,-2.26,289,379,430,460,373,6
1952,0.15,0.87,0.45,0.24,-7.2,-0.18,287,379,434,455,373,6
1953,0.15,0.87,0.45,-0.18,-1.71,-2.93,286,379,427,458,378,6
1954,0.15,0.9,0.45,-4.03,-4.21,-8.18,290,373,426,453,369,6
1955,0.15,0.9,0.44,1.95,-1.71,-2.62,283,376,430,457,369,6
1956,0.15,0.87,0.44,1.65,-3.85,-1.28,280,374,426,453,369,6
1957,0.17,0.91,0.42,2.93,-2.81,-3.05,280,373,430,459,367,6
1958,0.17,0.87,0.46,-19.04,-1.83,-3.17,280,375,429,451,370,6
1959,0.15,0.88,0.47,-10.86,-3.05,-2.75,308,374,430,454,369,6
1960,0.17,0.88,0.48,-4.76,-1.65,-1.22,280,374,431,449,369,6
1961,0.16,0.87,0.47,-3.85,-2.2,-2.62,281,374,433,451,369,6
1962,0.17,0.87,0.46,2.38,-1.77,-2.81,279,374,433,454,367,6
1963,0.16,0.88,0.46,-1.28,-2.5,-4.09,284,377,427,456,371,6
1964,0.15,0.85,0.48,-8.0,-4.15,-7.08,285,377,431,451,370,6
1965,0.14,0.88,0.47,2.87,-1.95,-3.48,281,375,432,451,371,6
1966,0.15,0.85,0.47,-8.54,-4.58,-1.1,286,379,430,456,368,6
1967,0.16,0.87,0.46,2.44,-4.46,-2.32,285,371,432,455,369,6
1968,0.16,0.87,0.47,-0.79,-2.08,-3.05,283,377,431,459,372,6
1969,0.13,0.86,0.45,3.54,-3.3,-1.34,288,381,431,458,372,6
1970,0.15,0.89,0.46,-0.79,-3.36,-3.48,285,379,434,458,370,6
1971,0.15,0.9,0.42,1.04,-3.66,-0.92,288,377,433,457,372,6
1972,0.15,0.88,0.44,-3.48,-4.15,-2.81,284,379,430,458,371,6
1973,0.16,0.89,0.42,1.34,-3.66,-3.85,286,375,432,463,372,6
1974,0.15,0.91,0.45,2.44,-3.23,-2.62,289,378,432,458,374,6
1975,0.14,0.94,0.46,-12.51,-0.31,-14.95,283,376,430,452,374,6
1976,0.13,0.82,0.47,0.12,-11.54,10.01,282,376,430,456,369,6
1977,0.21,0.83,0.49,-1.71,-7.39,-5.13,282,379,432,459,372,6
1978,0.14,0.82,0.52,1.59,0.85,-0.79,282,377,430,456,369,6
1979,0.16,0.83,0.5,-1.1,-4.21,-1.71,283,376,430,459,374,6
1980,0.18,0.85,0.53,-2.01,-2.44,-2.5,286,376,430,454,372,6
1981,0.15,0.85,0.53,5.0,-1.77,-2.2,284,378,427,456,372,6
1982,0.17,0.84,0.56,-3.3,-3.66,-3.17,284,375,430,457,373,6
1983,0.17,0.83,0.52,0.55,-4.39,-1.46,287,375,432,459,369,6
1984,0.16,0.83,0.53,-0.73,-3.05,-2.69,283,379,428,454,374,6
1985,0.15,0.86,0.54,-0.92,-2.5,-4.39,288,375,427,455,373,6
1986,0.14,0.83,0.54,0.37,-3.6,-1.53,284,379,431,451,374,6
1987,0.13,0.82,0.54,-4.15,-4.21,0.0,307,378,428,451,372,6
1988,0.16,0.83,0.53,1.28,-2.87,-1.89,284,379,440,455,372,6
1989,0.14,0.85,0.54,0.73,-0.18,-3.66,320,377,430,460,373,6
1990,0.15,0.84,0.53,-1.59,-1.22,-4.03,287,377,429,454,374,6
1991,0.14,0.83,0.52,5.43,-3.3,-1.89,289,380,431,455,373,6
1992,0.16,0.85,0.52,3.6,-2.5,-2.2,294,374,425,458,373,6
1993,0.16,0.83,0.52,0.12,-3.48,-2.93,282,378,427,454,380,6
1994,0.14,0.84,0.52,0.85,-2.5,-2.87,285,381,428,453,373,6
1995,0.15,0.84,0.52,-4.88,-3.97,-2.26,287,378,427,458,377,6
1996,0.13,0.86,0.52,1.46,-2.81,-3.23,288,381,432,453,374,6
1997,0.15,0.85,0.49,9.64,-3.97,-0.37,287,378,432,450,370,6
1998,0.15,0.86,0.5,3.91,-1.28,-3.11,286,378,428,454,377,6
1999,0.15,0.87,0.5,3.11,-0.92,-3.3,291,378,431,454,374,6
2000,0.15,0.89,0.49,1.4,-4.03,-1.34,290,379,428,453,375,6
2001,0.13,0.86,0.48,2.2,-2.44,-3.66,289,383,428,452,375,6
2002,0.14,0.86,0.48,0.55,-3.85,-1.89,289,380,428,455,373,6
2003,0.14,0.85,0.48,3.11,-3.6,-2.5,292,381,422,452,377,6
2004,0.13,0.88,0.49,-7.51,-0.98,-2.87,289,380,428,455,372,6
2005,0.13,0.86,0.49,-3.36,-3.3,-2.99,308,380,426,451,375,6
2006,0.13,0.89,0.47,0.0,-2.26,-3.66,291,389,425,449,376,6
2007,0.13,0.87,0.48,-2.2,-5.13,-1.59,304,381,420,451,374,6
2008,0.14,0.87,0.48,-0.31,-3.66,-1.77,291,385,428,452,375,6
2009,0.13,0.87,0.48,-0.98,-3.3,-2.38,291,382,425,454,376,6
2010,0.13,0.87,0.48,1.22,-3.72,-1.77,290,384,424,456,373,6
2011,0.13,0.87,0.48,-0.06,-2.2,-2.38,292,386,426,455,372,6
2012,0.15,0.88,0.48,0.12,-2.56,-3.17,291,383,428,455,376,6
2013,0.13,0.86,0.47,2.99,-3.3,-2.2,291,380,426,446,375,6
2014,0.13,0.87,0.47,2.26,-4.33,-1.83,296,382,427,455,376,6
2015,0.14,0.87,0.48,4.76,-3.11,-2.93,292,382,430,451,376,6
2016,0.12,0.84,0.47,-2.38,-4.03,-2.44,292,387,427,462,374,6
2017,0.14,0.86,0.46,8.06,-0.06,-2.99,290,384,428,451,375,6
2018,0.1,0.93,0.46,0.06,-4.82,-1.16,289,386,425,451,375,6
2019,0.14,0.91,0.43,-0.31,-2.69,-3.48,291,384,427,446,377,6
2020,0.15,0.9,0.41,2.87,-3.36,-3.05,288,384,429,453,379,6
2021,0.15,0.89,0.41,2.62,-3.97,-2.5,293,385,425,452,375,6
2022,0.16,0.9,0.42,3.42,-3.54,-2.99,289,390,428,452,375,6
2023,0.14,0.89,0.42,-1.04,-2.75,-2.32,289,388,427,467,376,6
2024,0.13,0.92,0.44,-0.12,-2.01,-3.91,291,387,427,452,377,6
2025,0.13,0.9,0.43,-2.32,-2.69,-2.26,290,388,426,451,377,6
2026,0.13,0.88,0.42,2.38,-4.82,-2.81,292,390,424,453,377,6
2027,0.13,0.88,0.43,0.85,-3.97,-3.05,291,390,437,453,373,6
2028,0.14,0.91,0.43,2.81,-1.16,-3.66,290,384,426,447,373,6
2029,0.1,0.89,0.43,-2.26,-4.52,-5.86,292,391,426,454,378,6
2030,0.11,0.85,0.45,-0.79,-0.31,-2.32,290,391,427,456,376,6
2031,0.16,0.89,0.43,-2.5,-4.39,-1.65,290,390,428,451,374,6
2032,0.12,0.88,0.46,-0.92,-0.49,-7.39,289,392,429,451,376,6
2033,0.11,0.88,0.43,3.3,-3.85,-3.05,290,390,425,455,379,6
2034,0.12,0.88,0.45,-1.22,-2.2,-3.17,290,385,423,452,376,6
2035,0.1,0.89,0.46,-1.65,-3.3,-3.72,291,391,427,456,375,6
2036,0.11,0.87,0.45,-0.98,-2.99,-1.77,292,390,426,452,374,6
