,aX,aY,aZ,gX,gY,gZ,little,ring,middle,index,thumb,number
0,-0.35,-0.85,0.15,-31.8,-0.79,18.07,387,418,347,291,338,7
1,-0.32,-0.92,0.14,4.7,1.1,0.12,407,425,359,303,321,7
2,-0.31,-0.93,0.19,2.08,-1.22,-2.44,408,430,363,307,328,7
3,-0.3,-0.96,0.2,-15.93,-8.97,-17.94,409,427,362,308,332,7
4,-0.27,-0.95,0.03,-2.81,-11.05,-7.08,414,433,369,307,333,7
5,-0.1,-0.95,0.22,29.42,-12.94,9.77,413,429,366,311,336,7
6,-0.1,-0.97,0.07,1.16,-5.0,-1.22,413,436,368,313,339,7
7,-0.13,-0.98,0.13,1.28,-9.83,0.79,414,432,367,316,342,7
8,-0.14,-0.99,0.1,-4.64,-6.16,-1.22,413,433,366,314,337,7
9,-0.13,-0.98,0.09,0.92,-4.94,4.39,415,437,367,313,340,7
10,-0.19,-0.97,0.07,-2.32,-1.83,-2.38,416,430,368,309,338,7
11,-0.21,-0.97,0.07,0.67,-3.3,-3.11,414,439,370,319,339,7
12,-0.18,-0.98,0.05,0.37,-3.85,-2.87,411,434,369,316,340,7
13,-0.21,-0.97,0.07,-0.55,-3.17,-3.48,413,434,367,316,338,7
14,-0.19,-0.97,0.06,-0.67,-1.4,-3.17,412,433,365,315,339,7
15,-0.18,-0.98,0.05,-0.49,-2.26,-2.69,416,434,367,310,341,7
16,-0.17,-0.97,0.09,4.64,-4.76,-3.48,429,435,368,318,341,7
17,-0.19,-0.97,0.06,-1.4,-4.64,-2.2,414,433,367,320,342,7
18,-0.18,-0.98,0.06,2.2,-1.77,-3.23,411,433,368,319,343,7
19,-0.19,-0.98,0.05,2.87,-3.48,-3.11,412,432,369,319,340,7
20,-0.19,-0.97,0.1,7.87,-3.11,-3.42,410,433,369,320,342,7
21,-0.24,-0.96,0.09,1.65,4.21,-4.94,408,435,366,319,342,7
22,-0.22,-0.96,0.19,21.79,6.53,1.4,414,441,366,314,344,7
23,-0.24,-0.96,0.35,13.55,11.84,-6.41,434,446,372,319,342,7
24,-0.22,-0.94,0.25,0.85,-2.5,-6.65,438,450,377,315,343,7
25,-0.18,-0.93,0.33,-12.51,-5.37,-4.39,439,452,377,325,343,7
26,-0.22,-0.89,0.2,-8.61,-6.29,2.2,396,449,380,329,346,7
27,-0.23,-0.92,0.24,5.13,-2.14,-4.15,398,452,376,326,343,7
28,-0.2,-0.94,0.26,1.22,-5.0,-3.72,404,452,376,323,341,7
29,-0.2,-0.94,0.26,-1.16,-3.66,-3.11,412,452,376,325,344,7
30,-0.21,-0.94,0.25,-1.53,-4.21,-3.48,408,453,384,329,343,7
31,-0.2,-0.94,0.25,-1.46,-2.56,-2.69,412,454,379,328,341,7
32,-0.2,-0.93,0.25,1.95,-5.07,-2.87,411,453,382,322,343,7
33,-0.2,-0.94,0.25,1.1,-4.33,-2.44,420,454,380,330,344,7
34,-0.2,-0.94,0.26,0.85,-4.7,-2.5,413,452,380,316,346,7
35,-0.21,-0.95,0.26,-0.43,-2.32,-1.46,421,449,377,325,344,7
36,-0.2,-0.95,0.26,-3.36,-1.04,-2.87,428,457,379,320,346,7
37,-0.22,-0.95,0.2,-4.52,0.55,-2.81,429,456,372,320,342,7
38,-0.2,-0.95,0.21,-7.02,-6.96,-3.72,437,452,374,319,345,7
39,-0.19,-0.96,0.2,3.11,-1.83,-2.5,439,459,374,323,342,7
40,-0.26,-0.96,0.24,-4.09,-0.73,12.88,439,457,376,318,343,7
41,-0.22,-0.95,0.42,-12.21,10.74,-0.92,436,457,375,327,350,7
42,-0.06,-0.95,0.18,-15.14,-0.73,-20.51,430,462,381,320,350,7
43,-0.01,-0.99,0.05,4.03,20.45,-7.81,434,459,375,324,348,7
44,-0.17,-0.97,0.05,-0.06,0.85,5.74,430,458,380,326,350,7
45,-0.15,-0.98,0.15,-2.44,2.38,-2.44,430,456,381,326,355,7
46,-0.25,-0.95,0.24,3.91,-0.37,6.04,430,456,378,323,355,7
47,-0.24,-0.96,0.18,-4.58,-2.69,-0.37,432,455,374,329,354,7
48,-0.2,-0.95,0.18,-3.72,-30.27,-3.66,430,458,374,335,351,7
49,-0.24,-0.93,0.23,0.24,-15.5,-3.54,433,455,379,330,349,7
50,-0.17,-0.93,0.33,16.3,10.25,11.17,432,457,379,326,341,7
51,-0.18,-0.92,0.38,12.33,4.46,-9.64,432,455,379,325,339,7
52,-0.18,-0.91,0.42,-2.93,-6.96,-4.15,434,458,382,326,339,7
53,-0.09,-0.93,0.26,-2.01,-15.99,-7.32,430,460,380,323,332,7
54,-0.14,-0.93,0.33,-4.46,-9.34,-9.52,434,455,380,325,328,7
55,0.08,-1.04,0.58,44.98,68.24,5.92,437,458,382,329,337,7
56,-0.33,-0.93,0.56,19.41,2.81,23.56,435,455,377,327,338,7
57,-0.08,-0.89,0.37,13.43,-1.28,-9.46,432,456,380,327,335,7
58,-0.06,-0.97,0.41,-10.99,-1.34,-10.31,435,457,378,324,340,7
59,-0.05,-0.88,0.45,-1.59,5.07,-2.56,434,455,381,329,335,7
60,0.07,-0.88,0.56,-2.08,-8.3,-7.87,431,454,383,330,335,7
61,-0.05,-0.83,0.58,-6.84,-2.56,3.11,435,455,382,326,339,7
62,-0.05,-0.86,0.48,-0.37,-4.52,-5.25,435,454,384,323,340,7
63,-0.03,-0.86,0.54,-11.78,0.79,-6.1,433,454,378,323,342,7
64,-0.09,-0.87,0.49,7.14,3.54,6.23,437,455,380,326,342,7
65,-0.04,-0.85,0.58,2.32,-12.7,-2.14,435,453,379,326,341,7
66,-0.05,-0.88,0.52,-0.18,-3.85,-0.43,430,455,377,331,345,7
67,0.0,-0.86,0.49,-7.63,-8.97,-10.01,434,457,383,321,341,7
68,-0.02,-0.88,0.51,2.99,-3.3,0.55,434,464,382,326,343,7
69,-0.04,-0.85,0.52,-4.94,-1.46,0.49,434,456,381,328,339,7
70,-0.04,-0.86,0.5,1.46,1.34,0.98,435,456,384,324,341,7
71,-0.1,-0.88,0.45,-9.77,-2.5,3.66,433,455,383,324,347,7
72,-0.18,-0.89,0.4,-23.13,-1.53,16.11,433,455,383,325,342,7
73,-0.29,-0.91,0.18,-22.64,-3.97,11.84,432,456,381,330,342,7
74,-0.29,-0.92,0.18,4.64,-2.56,-6.84,433,452,379,328,342,7
75,-0.28,-0.93,0.23,-0.92,-2.08,-4.27,433,453,378,325,345,7
76,-0.26,-0.93,0.23,1.46,-3.23,-3.97,435,454,382,328,346,7
77,-0.25,-0.93,0.24,0.18,-8.42,-5.37,443,456,380,321,342,7
78,-0.26,-0.93,0.25,-0.12,-3.23,-5.8,430,452,379,325,343,7
79,-0.23,-0.94,0.25,0.06,-3.78,-2.44,435,454,379,326,344,7
80,-0.23,-0.94,0.24,-0.49,-2.62,-3.36,433,454,378,326,340,7
81,-0.24,-0.94,0.23,0.79,-0.98,-2.62,435,459,380,321,345,7
82,-0.23,-0.94,0.23,0.37,-2.75,-2.69,433,453,379,330,342,7
83,-0.23,-0.94,0.23,0.79,-3.3,-2.69,436,453,383,324,342,7
84,-0.23,-0.94,0.24,0.92,-2.5,-2.14,433,450,382,325,345,7
85,-0.24,-0.94,0.21,1.1,-1.89,-2.99,433,454,379,326,345,7
86,-0.25,-0.94,0.22,0.85,-4.88,-1.22,434,471,379,329,343,7
87,-0.25,-0.94,0.23,2.44,-5.13,-2.32,433,452,382,333,344,7
88,-0.25,-0.94,0.24,0.61,-3.48,-2.44,436,452,380,326,343,7
89,-0.25,-0.94,0.25,0.85,-2.26,-2.87,433,455,379,323,343,7
90,-0.24,-0.94,0.22,-1.65,-2.01,-4.88,430,453,382,332,343,7
91,-0.23,-0.94,0.23,0.49,-2.32,-2.81,435,451,380,327,342,7
92,-0.24,-0.94,0.23,-0.61,-2.81,-2.87,432,456,380,331,342,7
93,-0.24,-0.94,0.23,1.4,-2.75,-2.08,435,450,378,330,339,7
94,-0.24,-0.94,0.24,0.24,-2.2,-2.81,433,452,385,331,343,7
95,-0.24,-0.94,0.23,-0.06,-3.91,-1.71,440,454,377,330,342,7
96,-0.24,-0.94,0.23,0.31,-4.03,-3.17,438,457,381,323,343,7
97,-0.25,-0.94,0.25,1.4,-3.85,-2.32,430,455,378,322,346,7
98,-0.24,-0.94,0.24,1.22,-7.26,-1.65,430,453,379,327,343,7
99,-0.26,-0.93,0.26,1.89,-2.5,-1.16,434,451,379,327,346,7
100,-0.24,-0.93,0.24,-0.06,-1.46,-3.85,436,455,382,327,340,7
101,-0.24,-0.93,0.25,1.59,-2.5,-2.75,432,454,379,328,343,7
102,-0.25,-0.93,0.25,-0.37,-1.95,-3.17,434,450,379,332,344,7
103,-0.25,-0.93,0.24,0.55,-3.42,-2.2,433,455,380,328,345,7
104,-0.25,-0.93,0.24,1.95,-1.95,-4.09,432,453,380,331,342,7
105,-0.24,-0.93,0.24,4.52,-6.53,-5.98,433,453,381,328,346,7
106,-0.23,-0.93,0.25,0.98,-2.93,-3.6,430,456,376,331,343,7
107,-0.23,-0.94,0.26,-0.37,-3.3,-3.05,428,454,377,332,345,7
108,-0.22,-0.94,0.26,0.79,-5.62,-2.93,433,453,381,331,346,7
109,-0.22,-0.94,0.26,-0.55,-2.62,-3.05,430,453,379,332,344,7
110,-0.23,-0.93,0.25,1.28,-3.72,-0.79,435,452,380,332,345,7
111,-0.23,-0.94,0.26,0.37,-3.17,-2.87,433,451,378,330,342,7
112,-0.24,-0.93,0.26,0.06,-0.55,-1.95,433,455,376,330,345,7
113,-0.24,-0.93,0.25,-0.67,-2.44,-3.23,435,455,378,332,342,7
114,-0.23,-0.93,0.25,0.24,-2.62,-2.93,434,452,379,325,343,7
115,-0.24,-0.93,0.26,0.37,-2.99,-2.5,433,452,377,333,346,7
116,-0.24,-0.94,0.25,1.16,-3.48,-2.44,435,457,379,329,344,7
117,-0.24,-0.93,0.25,0.55,-2.2,-2.69,437,453,379,332,347,7
118,-0.24,-0.93,0.25,0.0,-4.27,-1.4,430,452,381,332,343,7
119,-0.24,-0.93,0.25,0.92,-2.69,-2.5,430,453,378,328,343,7
120,-0.24,-0.93,0.27,-0.06,-2.99,-3.11,432,452,377,330,343,7
121,-0.24,-0.93,0.25,0.37,-2.93,-2.75,431,453,382,328,343,7
122,-0.25,-0.93,0.25,-1.46,-3.78,-1.71,432,455,381,328,342,7
123,-0.24,-0.93,0.26,-1.53,-2.5,-3.05,434,452,375,333,344,7
124,-0.24,-0.94,0.24,0.06,-3.36,-3.11,433,454,379,330,343,7
125,-0.24,-0.93,0.23,0.37,-3.05,-2.5,434,456,379,329,343,7
126,-0.24,-0.94,0.25,-2.5,-3.85,-2.38,432,450,378,328,346,7
127,-0.23,-0.94,0.24,-0.24,-2.62,-2.44,435,454,380,334,344,7
128,-0.25,-0.93,0.25,0.79,-3.36,-1.77,432,453,378,331,344,7
129,-0.25,-0.93,0.24,0.92,-4.7,-2.14,433,453,377,329,344,7
130,-0.24,-0.93,0.25,2.26,-3.36,-1.59,431,451,379,329,344,7
131,-0.24,-0.93,0.25,3.42,-3.17,-3.36,432,454,381,327,345,7
132,-0.25,-0.93,0.26,0.06,-2.38,-3.3,434,449,378,328,342,7
133,-0.25,-0.94,0.25,-0.55,-2.56,-3.66,433,450,376,334,342,7
134,-0.24,-0.94,0.25,0.0,-1.16,-3.23,431,451,382,333,344,7
135,-0.25,-0.93,0.23,-0.79,-3.85,-2.93,429,454,381,329,344,7
136,-0.24,-0.94,0.24,-0.49,-2.87,-3.23,432,451,377,334,346,7
137,-0.23,-0.94,0.24,1.1,-4.15,-2.14,433,448,383,344,344,7
138,-0.25,-0.93,0.25,0.06,-4.09,-2.01,431,453,375,326,353,7
139,-0.26,-0.93,0.26,1.4,-4.58,-1.04,462,462,378,333,344,7
140,-0.26,-0.92,0.26,1.04,-6.41,-1.1,431,449,380,328,343,7
141,-0.25,-0.93,0.29,-0.37,-1.65,-2.75,430,451,378,332,345,7
142,-0.25,-0.93,0.26,-1.83,-2.69,-3.17,426,451,375,329,343,7
143,-0.25,-0.93,0.27,0.12,-1.89,-2.93,432,447,380,329,346,7
144,-0.24,-0.93,0.26,-1.28,-2.75,-3.3,431,452,377,335,346,7
145,-0.25,-0.93,0.26,0.31,-3.3,-2.81,433,452,379,329,343,7
146,-0.26,-0.93,0.26,-0.31,-2.62,-2.87,434,451,379,333,343,7
147,-0.25,-0.93,0.25,0.12,-3.97,-2.56,435,454,380,326,344,7
148,-0.24,-0.93,0.28,0.73,-3.78,-2.87,430,448,381,331,342,7
149,-0.24,-0.93,0.27,0.61,-4.03,-2.26,433,455,381,332,344,7
150,-0.25,-0.93,0.27,1.04,-2.87,-2.01,431,448,381,330,344,7
151,-0.25,-0.93,0.29,1.1,-2.99,-2.69,430,453,374,330,345,7
152,-0.25,-0.93,0.28,-0.43,-1.77,-3.3,430,451,376,324,341,7
153,-0.25,-0.93,0.28,0.37,-2.87,-3.17,448,451,380,332,344,7
154,-0.24,-0.93,0.27,-0.24,-1.71,-2.75,428,458,378,325,346,7
155,-0.25,-0.93,0.25,0.12,-3.48,-1.77,432,449,380,334,341,7
156,-0.24,-0.93,0.25,0.79,-2.62,-3.66,434,451,376,331,346,7
157,-0.24,-0.93,0.26,-1.04,-2.62,-3.11,430,449,377,329,345,7
158,-0.26,-0.93,0.28,1.77,-3.05,-1.77,432,449,376,324,343,7
159,-0.26,-0.92,0.27,1.34,-2.5,-2.5,436,453,379,326,344,7
160,-0.24,-0.93,0.27,1.04,-3.97,-2.38,427,451,375,330,344,7
161,-0.25,-0.92,0.28,1.1,-3.3,-2.01,436,453,378,332,344,7
162,-0.26,-0.92,0.28,0.67,0.79,-4.33,429,452,377,333,343,7
163,-0.27,-0.92,0.31,-0.73,-2.56,-3.66,459,453,390,329,342,7
164,-0.24,-0.93,0.24,-0.49,-3.78,-6.35,429,454,378,329,346,7
165,-0.2,-0.95,0.28,0.98,0.67,-1.53,430,454,378,333,340,7
166,-0.2,-0.92,0.32,-0.12,2.75,-6.71,432,449,382,331,344,7
167,-0.19,-0.95,0.3,-2.81,2.5,-2.99,428,451,378,326,341,7
168,-0.2,-0.94,0.18,-8.24,-0.18,-20.39,432,451,378,331,342,7
169,-0.2,-0.97,0.07,-2.14,-14.83,6.53,427,451,377,331,345,7
170,-0.19,-0.93,0.24,15.5,-0.12,6.41,433,451,383,335,345,7
171,-0.14,-0.97,0.14,5.31,8.36,-9.09,425,453,380,331,345,7
172,-0.17,-0.97,0.17,-7.45,13.49,-13.55,432,453,378,335,348,7
173,-0.18,-0.97,0.27,6.04,-8.06,14.22,429,452,377,333,347,7
174,-0.18,-0.95,0.22,5.55,-2.32,-4.27,430,451,378,332,345,7
175,-0.16,-0.95,0.25,0.98,-3.23,-2.75,430,451,378,336,339,7
176,-0.16,-0.94,0.31,3.72,-3.66,-1.83,431,448,379,332,344,7
177,-0.18,-0.94,0.29,1.83,-6.04,0.67,430,451,377,327,343,7
178,-0.18,-0.95,0.3,0.85,-2.87,-0.98,429,450,378,333,344,7
179,-0.2,-0.93,0.28,0.98,-4.82,-2.93,428,451,378,335,345,7
180,-0.2,-0.93,0.31,0.18,-3.48,-2.87,430,449,377,336,342,7
181,-0.17,-0.94,0.29,0.79,-1.28,-2.2,432,452,374,330,345,7
182,-0.18,-0.93,0.31,0.79,-2.5,-4.03,453,447,379,331,344,7
183,-0.19,-0.94,0.31,-0.67,-3.97,-3.97,429,447,380,328,343,7
184,-0.18,-0.94,0.28,0.31,-3.17,-2.62,430,450,381,328,344,7
185,-0.19,-0.94,0.3,-0.06,-2.26,-2.5,427,450,379,330,344,7
186,-0.2,-0.93,0.29,-0.43,-3.36,-2.93,429,450,379,332,341,7
187,-0.19,-0.94,0.3,1.46,-3.66,-2.08,431,450,377,330,342,7
188,-0.18,-0.93,0.29,-0.43,-4.76,-2.87,429,452,377,333,344,7
189,-0.17,-0.94,0.29,-4.88,-7.63,-8.54,429,453,377,329,345,7
190,-0.17,-0.95,0.44,-2.26,19.71,15.26,432,447,374,335,345,7
191,-0.17,-0.96,0.2,-9.22,-2.32,-8.42,429,446,380,332,343,7
192,-0.14,-0.96,0.21,3.54,-5.68,2.5,429,449,377,332,346,7
193,-0.25,-0.99,0.45,21.85,4.09,-4.76,427,453,376,332,343,7
194,-0.14,-0.94,0.32,-0.92,8.67,-15.01,427,450,379,329,344,7
195,-0.16,-0.93,0.35,5.0,9.03,-2.69,436,451,378,332,343,7
196,-0.17,-0.94,0.29,-2.01,-4.82,0.24,440,448,377,331,342,7
197,-0.18,-0.92,0.28,-3.48,-1.34,-6.71,427,449,379,331,344,7
198,-0.2,-0.94,0.26,-11.47,-8.85,0.73,429,453,384,332,345,7
199,-0.16,-0.94,0.3,-3.48,-5.25,-8.3,427,451,378,327,344,7
200,-0.22,-0.94,0.21,-5.74,-6.59,-6.04,426,452,378,331,345,7
201,-0.08,-0.96,0.3,4.76,-5.07,6.04,427,450,374,333,345,7
202,-0.16,-0.95,0.29,-1.89,1.46,-4.27,427,452,378,331,345,7
203,-0.12,-0.95,0.26,2.26,-4.82,-5.68,431,453,378,335,343,7
204,-0.12,-0.96,0.26,-2.14,-2.81,-1.59,427,452,384,332,345,7
205,-0.09,-0.92,0.3,-0.79,-3.05,-7.26,428,449,379,333,345,7
206,-0.12,-0.96,0.27,0.98,-5.55,1.83,428,451,377,336,345,7
207,-0.12,-0.94,0.29,0.73,-2.81,-2.2,428,450,380,330,341,7
208,-0.13,-0.95,0.28,0.85,-2.69,-1.95,428,456,379,335,345,7
209,-0.15,-0.95,0.27,0.24,-3.23,0.37,430,451,376,331,345,7
210,-0.12,-0.95,0.23,-9.58,1.1,-2.69,430,449,379,333,345,7
211,-0.13,-0.96,0.25,-0.06,-5.68,-1.16,424,450,378,332,343,7
212,-0.16,-0.96,0.25,1.22,-3.05,-3.6,425,450,378,333,347,7
213,-0.11,-0.97,0.22,-2.99,-8.73,-9.03,426,449,375,332,345,7
214,-0.13,-0.95,0.26,1.71,-4.58,-1.22,426,452,380,336,341,7
215,-0.1,-0.97,0.18,-0.79,3.17,-3.17,428,453,379,328,343,7
216,-0.07,-0.97,0.29,2.75,-5.86,-10.25,427,449,376,335,340,7
217,-0.06,-0.97,0.24,-2.5,-2.99,-5.98,428,449,381,331,347,7
218,-0.07,-0.96,0.25,6.53,3.36,-0.73,427,453,380,342,348,7
219,-0.1,-0.95,0.27,-4.82,-6.53,-2.44,424,452,379,333,347,7
220,-0.05,-0.97,0.23,-0.85,-4.21,-10.86,427,446,380,332,345,7
221,-0.0,-0.97,0.2,1.34,-3.66,0.06,427,451,390,333,347,7
222,-0.16,-0.95,0.3,-0.18,-7.69,0.18,428,450,378,343,345,7
223,-0.08,-0.96,0.25,-3.36,-4.21,-8.61,427,449,378,327,345,7
224,-0.06,-0.98,0.21,0.12,-2.44,-2.81,425,447,378,337,344,7
225,-0.08,-0.96,0.24,0.0,-5.8,2.93,426,450,381,331,343,7
226,-0.02,-0.96,0.22,-3.78,-7.26,-4.33,426,456,379,336,347,7
227,-0.08,-0.97,0.22,3.05,-10.5,2.26,427,445,377,334,348,7
228,0.0,-0.97,0.24,-1.95,-13.18,-5.07,426,449,374,330,346,7
229,-0.13,-0.97,0.34,-0.79,-3.05,-1.28,425,448,379,322,341,7
230,-0.03,-0.97,0.25,-0.24,-3.36,-0.85,424,446,376,314,346,7
231,-0.08,-0.96,0.28,0.24,-4.7,-4.58,432,453,374,317,345,7
232,-0.05,-0.95,0.29,-2.87,-6.84,-1.65,427,443,377,331,343,7
233,-0.11,-0.96,0.27,1.04,-4.82,-3.23,426,445,374,332,338,7
234,-0.11,-0.96,0.27,-0.61,-2.01,-1.77,428,447,374,336,343,7
235,-0.11,-0.96,0.28,-2.69,-2.26,-2.93,425,453,375,336,338,7
236,-0.11,-0.95,0.25,-2.81,-6.23,-1.46,425,450,383,339,332,7
237,-0.12,-0.96,0.27,1.04,-4.21,-1.59,425,447,378,331,324,7
238,-0.13,-0.95,0.27,-0.49,1.16,-2.56,425,447,373,329,321,7
239,-0.12,-0.95,0.26,-0.73,-2.69,-0.85,428,449,370,330,332,7
240,-0.12,-0.96,0.27,0.85,-7.93,-2.44,429,448,371,314,324,7
241,-0.11,-0.96,0.27,1.53,-2.93,-3.48,428,444,373,324,311,7
242,-0.11,-0.95,0.27,0.61,-1.28,-2.81,428,446,372,313,306,7
243,-0.11,-0.96,0.3,1.4,-2.56,-0.61,419,445,370,323,313,7
244,-0.11,-0.96,0.27,-1.77,0.37,-2.93,411,450,377,324,319,7
245,-0.12,-0.98,0.24,-5.74,-0.67,-2.56,412,449,380,332,321,7
246,-0.13,-0.96,0.25,0.06,-2.5,-2.38,407,451,384,339,322,7
247,-0.11,-0.96,0.25,1.04,-5.07,-1.46,400,450,383,335,323,7
248,-0.11,-0.95,0.25,0.98,-4.64,-2.56,400,456,385,334,323,7
249,-0.13,-0.96,0.25,-1.16,-3.54,-3.78,406,451,386,334,323,7
250,-0.12,-0.96,0.25,1.28,-2.75,-3.3,420,457,388,332,327,7
251,-0.12,-0.96,0.24,0.61,-3.85,-3.36,425,455,387,332,326,7
252,-0.11,-0.96,0.23,2.32,-0.06,-2.44,432,456,384,333,329,7
253,-0.11,-0.96,0.23,1.46,-3.54,-2.44,432,457,388,332,327,7
254,-0.1,-0.97,0.25,-0.98,-1.95,-3.66,434,454,383,333,327,7
255,-0.11,-0.97,0.23,-1.65,-3.23,-3.23,437,458,386,345,327,7
256,-0.11,-0.96,0.22,-0.55,-3.48,-3.23,434,448,388,329,327,7
257,-0.11,-0.96,0.22,0.0,-2.08,-2.38,425,461,388,329,328,7
258,-0.1,-0.96,0.23,1.77,-2.93,-2.01,426,456,387,332,326,7
259,-0.11,-0.96,0.24,1.71,-3.66,-1.46,426,454,384,334,329,7
260,-0.11,-0.96,0.26,1.83,-0.06,-3.54,422,454,385,334,326,7
261,-0.11,-0.96,0.24,3.78,-7.14,1.83,413,451,381,331,329,7
262,-0.14,-0.94,0.34,6.04,-3.42,1.28,411,448,379,331,329,7
263,-0.15,-0.94,0.3,1.46,-4.58,-1.83,418,448,381,339,330,7
264,-0.1,-0.95,0.28,-2.5,-3.48,-2.81,415,447,378,339,329,7
265,-0.18,-0.93,0.32,-1.46,-2.2,-4.58,417,449,383,337,331,7
266,-0.14,-0.94,0.3,-1.77,-6.71,-1.71,417,443,379,344,331,7
267,-0.15,-0.95,0.31,-0.92,-17.09,-3.17,415,449,379,336,332,7
268,-0.13,-0.94,0.29,0.06,-3.48,-3.66,417,449,382,331,333,7
269,-0.13,-0.95,0.29,0.67,-3.54,-3.6,416,443,379,338,333,7
270,-0.13,-0.95,0.29,0.79,-3.54,-2.2,416,447,386,337,334,7
271,-0.13,-0.94,0.3,0.67,-3.91,-2.44,415,449,380,333,332,7
272,-0.13,-0.95,0.3,1.89,-2.87,-2.93,416,446,375,328,329,7
273,-0.14,-0.94,0.29,-0.06,-3.72,-3.54,425,446,380,335,334,7
274,-0.13,-0.95,0.29,0.92,-1.77,-2.26,418,447,380,330,333,7
275,-0.12,-0.95,0.28,0.37,-2.75,-2.26,416,445,379,338,333,7
276,-0.12,-0.95,0.29,-0.06,-2.62,-3.11,417,444,379,330,335,7
277,-0.13,-0.95,0.3,1.77,-2.93,-2.44,417,444,381,338,329,7
278,-0.14,-0.94,0.3,-0.61,-4.03,-2.62,417,446,374,332,329,7
279,-0.13,-0.94,0.3,0.61,-2.38,-3.23,415,446,378,336,330,7
280,-0.13,-0.94,0.29,0.12,-4.39,-3.05,417,443,378,335,333,7
281,-0.14,-0.94,0.3,0.0,-7.81,-5.25,422,449,379,328,330,7
282,-0.07,-0.96,0.28,-14.22,-1.04,-7.39,417,443,379,335,329,7
283,-0.07,-0.98,0.15,-12.76,-6.41,0.49,411,448,378,327,333,7
284,-0.1,-0.98,0.11,-1.28,-3.42,-0.55,416,445,380,333,332,7
285,-0.1,-0.98,0.15,3.85,-1.95,-5.8,415,445,378,335,336,7
286,-0.09,-0.98,0.15,-0.06,-3.17,-3.17,415,449,377,336,337,7
287,-0.08,-0.98,0.15,0.55,-3.72,-3.42,416,446,377,333,332,7
288,-0.09,-0.98,0.15,0.55,-2.38,-2.81,416,445,377,332,332,7
289,-0.08,-0.98,0.14,0.0,-3.23,-2.62,413,444,377,336,334,7
290,-0.1,-0.98,0.14,1.16,-3.3,-6.47,415,447,377,330,336,7
291,-0.06,-0.99,0.2,1.28,-8.42,7.02,415,448,377,334,335,7
292,-0.13,-0.96,0.16,1.34,-3.17,-8.3,415,452,377,336,333,7
293,-0.06,-0.96,0.2,17.52,-4.09,-2.81,437,445,377,329,333,7
294,-0.07,-0.94,0.4,3.23,-14.95,-2.69,415,448,378,329,329,7
295,-0.07,-0.95,0.26,-14.95,0.06,5.62,415,449,375,337,333,7
296,-0.03,-0.95,0.24,-1.34,-4.58,0.06,417,445,373,334,334,7
297,-0.15,-0.93,0.25,-5.98,3.72,-13.55,416,447,377,332,333,7
298,0.01,-0.99,0.22,-7.08,3.11,-11.47,417,446,376,333,333,7
299,0.02,-0.98,0.19,1.1,9.64,-8.12,420,446,377,331,338,7
300,-0.02,-0.97,0.25,7.2,0.12,9.58,417,443,379,336,336,7
301,-0.07,-0.97,0.23,-2.5,-3.54,-3.11,415,452,374,339,338,7
302,-0.1,-0.97,0.26,3.36,-1.65,-3.11,417,445,373,340,335,7
303,-0.05,-0.98,0.22,-2.38,-2.26,-4.64,415,448,376,336,337,7
304,-0.1,-0.96,0.24,0.49,-0.12,-3.54,417,447,376,340,337,7
305,-0.08,-0.97,0.21,-2.38,-2.56,-4.94,418,445,377,333,336,7
306,-0.04,-0.98,0.19,-1.04,-2.87,-3.05,418,445,377,335,332,7
307,-0.04,-0.97,0.19,0.73,-1.4,-2.69,416,445,377,339,337,7
308,-0.05,-0.98,0.19,-1.46,-2.62,-4.03,415,442,374,345,336,7
309,-0.03,-0.98,0.19,1.95,-2.2,-1.1,417,448,375,335,338,7
310,-0.04,-0.98,0.2,1.83,-3.36,-0.55,415,449,372,333,333,7
311,-0.06,-0.98,0.21,0.61,-3.72,-3.17,417,446,378,332,337,7
312,-0.05,-0.97,0.21,1.1,-3.11,-2.32,416,443,376,337,345,7
313,-0.06,-0.98,0.2,0.79,-3.78,-2.75,418,446,376,335,338,7
314,-0.06,-0.97,0.23,1.46,-4.27,-1.46,416,445,372,336,335,7
315,-0.06,-0.97,0.22,2.81,-3.54,-1.83,416,444,374,336,339,7
316,-0.06,-0.97,0.25,1.28,-3.48,-2.32,416,446,379,331,337,7
317,-0.07,-0.96,0.24,0.98,-3.05,-2.26,418,445,375,335,333,7
318,-0.06,-0.97,0.25,0.06,-2.26,-3.72,414,443,385,338,337,7
319,-0.07,-0.97,0.25,-0.24,-3.17,-2.56,418,448,377,335,340,7
320,-0.08,-0.97,0.25,0.06,-2.56,-2.56,415,445,378,333,336,7
321,-0.07,-0.97,0.23,0.73,-2.2,-2.93,416,446,376,340,338,7
322,-0.13,-0.97,0.22,0.85,-10.07,-0.24,423,446,375,332,340,7
323,-0.03,-0.99,0.18,-5.86,6.16,0.31,424,445,375,332,337,7
324,-0.05,-0.97,0.24,-0.85,-2.69,-4.09,413,445,374,334,335,7
325,-0.04,-0.98,0.25,1.46,-3.36,-1.83,413,440,375,341,336,7
326,-0.06,-0.97,0.23,1.28,-2.62,-3.54,413,445,376,341,335,7
327,-0.06,-0.97,0.22,-0.43,-2.2,-2.93,411,441,375,339,337,7
328,-0.05,-0.97,0.22,0.67,-2.5,-2.81,419,445,375,337,340,7
329,-0.05,-0.97,0.21,-0.18,-2.56,-2.93,413,442,378,335,337,7
330,-0.04,-0.98,0.22,1.1,-3.48,-2.38,416,443,388,340,339,7
331,-0.05,-1.0,0.21,-1.46,-2.81,-3.17,413,442,375,339,336,7
332,-0.06,-0.97,0.19,0.98,-3.36,-1.65,413,444,372,336,338,7
333,-0.0,-0.97,0.28,4.76,0.37,-2.32,418,446,372,337,337,7
334,-0.05,-0.96,0.28,-0.98,-4.33,-2.81,416,443,378,340,338,7
335,-0.05,-0.97,0.25,-0.73,-3.42,-3.42,417,442,377,333,331,7
336,-0.06,-0.96,0.25,0.55,-2.75,-2.08,418,444,379,330,342,7
337,-0.05,-0.97,0.22,-2.69,-2.2,-3.23,417,443,376,333,342,7
338,-0.03,-0.98,0.19,-2.69,-4.7,-2.26,414,443,376,336,337,7
339,-0.06,-0.97,0.23,0.0,-3.42,-2.56,416,444,381,334,338,7
340,-0.05,-0.97,0.2,0.24,-3.23,-1.95,425,445,373,340,338,7
341,-0.05,-0.97,0.22,0.37,-2.62,-2.32,419,446,371,337,337,7
342,-0.06,-0.97,0.22,1.53,-2.99,-1.71,415,442,375,341,339,7
343,-0.06,-0.97,0.23,1.28,-2.93,-3.05,417,449,375,339,336,7
344,-0.06,-0.97,0.25,0.98,-3.17,-2.32,415,444,378,341,338,7
345,-0.06,-0.97,0.23,0.73,-2.93,-2.44,418,443,375,341,338,7
346,-0.06,-0.97,0.23,0.49,-2.99,-2.32,416,444,377,337,336,7
347,-0.06,-0.97,0.23,0.18,-2.56,-3.78,417,444,379,340,337,7
348,-0.06,-0.97,0.23,0.0,-2.93,-3.3,416,445,375,341,337,7
349,-0.05,-0.97,0.22,0.06,-2.87,-3.54,420,446,376,337,334,7
350,-0.06,-0.97,0.22,0.18,-2.62,-2.38,419,444,375,339,337,7
351,-0.12,-0.97,0.25,2.2,9.4,-0.92,416,444,375,332,340,7
352,-0.05,-0.96,0.26,2.75,-5.19,-2.26,416,444,378,337,337,7
353,0.03,-0.98,0.16,-1.1,-4.39,-5.0,418,443,373,337,338,7
354,-0.06,-0.96,0.27,0.31,-3.54,-3.23,416,445,378,335,338,7
355,-0.06,-0.98,0.21,1.34,-0.98,-3.6,417,445,375,340,334,7
356,-0.06,-0.97,0.2,2.69,-3.11,-2.81,419,444,374,342,334,7
357,-0.05,-0.98,0.21,-0.06,-2.93,-3.66,415,441,355,337,337,7
358,-0.05,-0.98,0.21,0.85,-2.56,-2.75,413,442,359,337,334,7
359,-0.04,-0.98,0.2,-2.2,0.79,-5.86,413,443,359,337,336,7
360,-0.04,-0.99,0.2,-0.37,-1.77,-4.15,416,444,355,337,338,7
361,-0.02,-0.99,0.18,-4.64,-0.49,-6.23,416,448,357,336,333,7
362,-0.02,-0.98,0.21,2.69,-2.81,-1.16,418,441,360,337,336,7
363,-0.02,-0.98,0.19,-0.85,-3.54,-3.17,416,445,360,341,339,7
364,-0.01,-0.98,0.19,1.89,-2.2,-2.81,412,446,362,337,338,7
365,-0.02,-0.98,0.19,1.46,-2.75,-1.77,419,443,366,338,336,7
366,-0.01,-0.98,0.19,0.43,-2.75,-2.81,416,444,362,333,334,7
367,-0.02,-0.98,0.19,0.43,-3.42,-2.08,416,444,363,344,335,7
368,-0.02,-0.98,0.21,1.59,-2.56,-1.1,413,443,362,339,337,7
369,-0.0,-0.98,0.19,0.0,-2.01,-3.17,412,450,359,342,337,7
370,-0.01,-0.98,0.2,-0.61,-2.01,-3.3,413,444,365,338,338,7
371,-0.01,-0.98,0.2,0.24,-3.05,-2.32,413,445,361,340,337,7
372,-0.01,-0.98,0.19,-0.24,-3.72,-2.75,416,444,361,344,338,7
373,-0.02,-0.98,0.2,0.55,-2.44,-3.6,418,448,363,339,336,7
374,-0.03,-0.98,0.19,0.61,-4.58,-2.93,417,443,361,335,336,7
375,-0.01,-0.98,0.2,-0.85,-3.3,-3.3,424,445,361,344,338,7
376,-0.04,-0.98,0.17,0.67,-2.81,-2.56,415,447,360,335,337,7
377,-0.0,-0.98,0.18,-1.59,-1.04,-5.37,416,447,358,344,338,7
378,-0.02,-0.98,0.18,0.92,-2.26,-3.17,418,444,363,336,338,7
379,-0.01,-0.98,0.18,0.85,-2.99,-2.5,415,443,361,336,339,7
380,-0.02,-0.98,0.17,1.22,-3.23,-2.08,419,443,359,341,339,7
381,-0.02,-0.98,0.18,0.0,-2.99,-2.44,415,447,362,341,340,7
382,-0.01,-0.98,0.18,-0.06,-2.99,-2.81,417,452,363,341,338,7
383,-0.02,-0.98,0.18,1.34,-3.05,-2.32,416,440,363,334,340,7
384,-0.01,-0.98,0.19,2.01,-2.56,-1.28,416,443,361,342,340,7
385,-0.04,-0.97,0.21,-3.85,-10.44,-9.03,415,441,362,337,341,7
386,0.05,-0.99,0.1,1.28,-8.0,2.87,416,446,364,340,339,7
387,-0.05,-0.97,0.24,2.93,-3.72,-4.82,418,444,365,337,336,7
388,0.01,-0.98,0.23,-1.83,-5.92,-7.14,415,444,360,337,342,7
389,0.01,-0.98,0.16,-1.71,-4.46,-3.78,417,440,368,345,341,7
390,0.01,-0.98,0.2,6.35,5.19,-5.31,415,444,361,343,336,7
391,0.05,-0.98,0.2,0.98,-1.34,-4.03,415,443,363,345,340,7
392,-0.02,-0.97,0.21,10.13,-5.13,4.46,415,441,361,342,339,7
393,-0.06,-0.96,0.32,-1.71,-12.57,12.27,413,441,364,340,337,7
394,0.02,-0.97,0.25,-12.39,-2.56,-13.92,416,444,362,342,342,7
395,0.01,-0.98,0.2,5.8,-2.87,4.33,412,445,364,341,342,7
396,-0.11,-0.96,0.25,6.23,4.03,1.65,416,446,362,340,338,7
397,-0.06,-0.98,0.19,-6.23,-0.61,-3.54,414,440,363,342,341,7
398,-0.09,-0.97,0.21,0.49,-2.93,-3.48,415,445,360,341,341,7
399,-0.04,-0.98,0.16,-6.04,-0.06,-7.45,419,443,364,346,339,7
400,-0.06,-0.98,0.18,2.69,-5.19,0.06,415,443,362,336,341,7
401,-0.06,-0.98,0.18,0.12,-1.77,-3.3,416,441,359,343,339,7
402,-0.09,-0.98,0.13,-0.24,-2.56,-2.99,416,444,359,342,339,7
403,-0.1,-0.98,0.14,15.5,-2.93,-2.2,414,441,368,345,342,7
404,-0.08,-0.98,0.16,-0.55,-2.62,-3.3,416,439,362,342,339,7
405,-0.08,-0.99,0.15,-0.06,-3.36,-2.5,411,443,363,343,337,7
406,-0.08,-0.98,0.14,1.34,-3.48,-1.1,415,446,361,347,335,7
407,-0.09,-0.98,0.15,0.31,-3.05,-2.5,443,444,365,339,342,7
408,-0.08,-0.98,0.15,-0.12,-2.44,-3.05,411,445,360,338,340,7
409,-0.08,-0.98,0.15,-0.73,-2.87,-3.17,416,444,364,337,339,7
410,-0.08,-0.99,0.13,-0.06,-3.36,-1.77,414,446,362,345,342,7
411,-0.07,-0.99,0.16,-0.79,-2.87,-2.99,417,443,359,341,342,7
412,-0.07,-0.98,0.14,1.65,-3.78,-1.4,411,450,364,343,341,7
413,-0.09,-0.98,0.15,4.39,-3.11,0.55,415,443,361,342,338,7
414,0.07,-0.99,0.06,-11.66,-43.58,9.64,415,446,363,341,337,7
415,-0.24,-0.93,0.35,3.54,-9.22,-0.92,415,443,361,342,340,7
416,-0.2,-0.93,0.29,-1.22,1.53,-6.1,416,445,364,341,341,7
417,-0.21,-0.94,0.29,-0.61,0.12,-4.58,418,442,366,340,339,7
418,-0.15,-0.96,0.23,-18.74,-3.91,-13.79,415,442,362,342,340,7
419,-0.11,-0.98,0.15,-24.54,-8.36,-10.07,415,443,365,345,336,7
420,-0.06,-0.99,0.06,0.55,-4.52,-2.14,416,442,365,345,340,7
421,-0.07,-0.99,0.04,-1.04,-10.93,-0.24,415,444,363,342,343,7
422,-0.14,-0.98,0.1,0.0,-5.0,-0.98,413,443,366,346,339,7
423,-0.09,-0.99,0.07,-3.3,-2.26,-4.21,416,444,367,343,339,7
424,-0.09,-0.99,0.06,-2.26,-1.53,-4.15,411,443,365,342,336,7
425,-0.08,-0.99,0.07,0.85,-3.23,-2.14,415,443,366,337,336,7
426,-0.1,-0.99,0.06,-0.06,-2.2,-3.05,416,439,365,344,339,7
427,-0.09,-0.99,0.06,0.67,-3.23,-3.48,411,450,367,340,341,7
428,-0.08,-0.99,0.06,0.43,-0.06,-4.58,416,443,369,342,341,7
429,-0.08,-0.99,0.07,0.31,-2.62,-2.56,417,444,367,339,338,7
430,-0.09,-0.99,0.06,0.61,-1.83,-3.97,417,443,368,342,340,7
431,-0.08,-0.99,0.06,-0.18,-0.85,-3.6,440,440,364,339,342,7
432,-0.08,-0.99,0.05,0.0,-2.69,-3.3,414,442,365,340,336,7
433,-0.07,-0.99,0.06,0.98,-2.93,-2.62,415,443,364,346,339,7
434,-0.08,-0.99,0.06,0.49,-2.62,-3.05,415,442,364,343,340,7
435,-0.07,-0.99,0.05,-0.92,-1.34,-3.91,414,442,365,346,338,7
436,-0.06,-0.99,0.04,-0.92,-2.44,-3.17,416,439,365,337,336,7
437,-0.07,-0.99,0.04,1.34,-2.44,-2.08,422,445,365,345,340,7
438,-0.07,-0.99,0.05,2.75,-2.62,-1.53,414,439,365,342,338,7
439,-0.07,-0.99,0.06,-0.61,-2.93,-2.99,414,445,364,348,338,7
440,-0.07,-0.99,0.06,2.01,-3.54,-1.77,416,441,367,342,340,7
441,-0.08,-0.99,0.07,1.1,-3.54,-2.14,415,443,364,342,341,7
442,-0.08,-0.99,0.08,0.31,-3.48,-2.87,414,444,364,341,339,7
443,-0.08,-0.99,0.08,1.53,-3.23,-2.32,452,446,367,341,339,7
444,-0.09,-0.99,0.08,1.95,-2.81,-2.26,418,445,365,342,335,7
445,-0.09,-0.99,0.09,0.0,-2.99,-2.75,415,444,363,337,331,7
446,-0.09,-0.98,0.08,0.06,-2.44,-3.05,414,442,366,345,338,7
447,-0.08,-0.99,0.09,0.49,-3.11,-2.93,414,442,364,346,339,7
448,-0.09,-0.99,0.08,0.79,-3.6,-2.62,438,442,367,338,340,7
449,-0.08,-0.99,0.04,7.39,-2.69,-3.54,418,442,376,342,339,7
450,-0.13,-0.98,0.18,4.27,-3.72,3.85,417,440,363,342,337,7
451,-0.1,-0.98,0.13,-3.42,-2.56,-4.03,416,440,365,345,340,7
452,-0.09,-0.98,0.13,1.04,-3.54,-2.26,416,442,365,339,339,7
453,-0.1,-0.99,0.12,-0.18,-2.14,-3.3,415,443,365,343,342,7
454,-0.11,-0.99,0.13,0.55,-3.17,-2.14,415,444,369,342,340,7
455,-0.11,-0.98,0.11,-1.34,-1.22,-3.36,412,442,368,341,339,7
456,-0.09,-0.99,0.1,-0.12,-1.77,-3.78,416,447,367,339,339,7
457,-0.1,-0.99,0.09,-1.77,-2.01,-4.39,415,443,362,347,338,7
458,-0.08,-0.99,0.08,0.24,-3.72,-3.23,414,440,370,343,339,7
459,-0.09,-0.99,0.08,0.43,-2.26,-2.87,419,443,367,344,336,7
460,-0.09,-0.99,0.09,-0.73,-3.6,-2.5,415,442,367,337,341,7
461,-0.09,-0.99,0.08,0.55,-2.99,-2.56,417,441,363,342,341,7
462,-0.09,-0.99,0.08,0.61,-2.2,-2.81,415,442,365,342,339,7
463,-0.09,-0.99,0.09,0.37,-2.93,-2.44,417,444,365,345,339,7
464,-0.08,-0.99,0.08,0.24,-3.05,-3.3,414,442,365,340,338,7
465,-0.09,-0.99,0.09,-0.61,-2.93,-2.26,415,441,366,340,342,7
466,-0.09,-0.99,0.07,0.98,-2.75,-2.56,415,444,367,342,340,7
467,-0.09,-0.99,0.09,0.12,-3.85,-2.5,418,443,367,347,339,7
468,-0.09,-0.99,0.08,0.49,-3.6,-2.75,417,441,362,342,339,7
469,-0.08,-0.99,0.09,0.24,-2.81,-3.3,413,445,367,345,341,7
470,-0.08,-0.99,0.08,0.92,-2.75,-2.62,415,442,368,356,338,7
471,-0.09,-0.99,0.09,0.92,-3.23,-2.56,417,439,367,343,340,7
472,-0.11,-0.98,0.07,0.24,-7.32,-0.79,422,445,364,343,342,7
473,-0.11,-0.98,0.08,-0.85,-15.38,-12.51,416,441,367,341,339,7
474,-0.11,-0.98,0.26,-1.95,9.83,-9.34,414,443,364,346,340,7
475,-0.07,-0.99,0.13,1.59,-9.4,2.32,443,448,365,341,340,7
476,-0.11,-0.99,0.06,1.1,4.15,-10.44,412,446,361,341,340,7
477,-0.1,-0.99,0.09,2.08,-5.92,-1.04,414,446,366,346,337,7
478,-0.08,-0.99,0.1,-7.51,-0.43,-3.91,415,441,365,344,339,7
479,-0.05,-0.99,0.22,29.42,-2.38,-5.13,416,442,360,346,339,7
480,-0.03,-0.99,0.04,10.19,2.2,-4.15,413,442,364,346,335,7
481,-0.09,-0.98,0.09,2.44,-0.06,-3.23,412,441,363,348,339,7
482,-0.11,-0.97,0.23,10.25,-2.81,5.0,409,436,365,346,340,7
483,-0.11,-0.97,0.22,-1.46,-2.14,-4.88,410,434,366,347,339,7
484,-0.07,-0.97,0.19,-6.04,-2.2,-3.91,411,434,366,347,334,7
485,-0.09,-0.97,0.18,3.05,-2.01,-3.54,408,440,366,342,346,7
486,-0.09,-0.97,0.2,0.85,-3.36,-0.85,407,436,366,344,340,7
487,-0.1,-0.98,0.19,-2.56,1.34,-0.98,424,439,370,341,338,7
488,-0.1,-0.97,0.2,1.95,-1.89,-4.27,405,438,367,348,340,7
489,-0.11,-0.97,0.19,0.67,-2.93,-4.03,404,438,369,343,340,7
490,-0.12,-0.97,0.21,2.38,0.24,-5.07,409,436,369,339,342,7
491,-0.09,-0.97,0.18,3.17,-3.72,-1.1,410,436,369,344,337,7
492,-0.13,-0.97,0.23,-2.69,-1.28,-3.17,407,433,366,346,340,7
493,-0.1,-0.97,0.21,0.85,-3.72,-1.83,406,438,369,344,341,7
494,-0.29,-0.94,0.39,14.1,-6.9,8.67,405,444,366,345,338,7
495,-0.12,-0.97,0.19,-10.25,-0.43,0.06,412,436,366,344,330,7
496,-0.09,-0.98,0.18,-1.59,-4.58,-2.69,410,435,366,345,340,7
497,-0.11,-0.98,0.17,0.92,-3.85,-1.1,411,436,369,345,340,7
498,-0.11,-0.98,0.17,0.85,-2.26,-2.87,397,436,367,344,343,7
499,-0.11,-0.97,0.18,-0.31,-2.87,-2.38,409,435,366,344,342,7
500,-0.11,-0.98,0.17,-0.61,-1.89,-3.11,410,437,369,346,340,7
501,-0.08,-1.0,0.06,0.61,-1.4,2.2,341,279,388,448,418,7
502,-0.1,-0.99,0.04,2.93,-3.97,-0.61,342,269,375,451,417,7
503,-0.09,-0.99,0.02,0.49,-3.05,-2.87,342,267,379,451,420,7
504,-0.11,-0.99,0.02,0.98,-2.56,-1.34,344,266,379,451,419,7
505,-0.11,-0.99,0.02,-1.95,-2.5,-0.43,345,268,378,454,418,7
506,-0.1,-0.99,0.02,0.0,-2.32,-1.16,340,270,374,450,418,7
507,-0.12,-0.99,0.02,-0.43,-2.81,-2.69,344,269,375,451,423,7
508,-0.12,-0.99,0.01,-0.85,0.12,-3.48,341,266,382,448,418,7
509,-0.12,-0.98,-0.0,5.8,-5.49,-2.2,341,269,384,453,420,7
510,-0.06,-0.99,0.04,-2.01,-94.12,-39.86,346,270,385,452,424,7
511,0.21,-0.95,-0.19,-21.48,-143.92,-37.48,342,273,384,451,421,7
512,0.2,-0.92,-0.37,-5.92,-36.99,-11.11,344,271,382,449,415,7
513,0.17,-0.92,-0.3,-5.19,-19.04,-11.23,343,268,380,446,401,7
514,0.21,-0.91,-0.37,6.65,73.55,10.19,345,266,379,444,375,7
515,0.13,-0.99,0.03,4.7,130.98,25.57,341,268,377,441,392,7
516,0.02,-1.01,0.11,1.4,6.65,8.0,344,272,372,438,393,7
517,0.06,-0.99,0.04,-2.75,0.67,-1.59,344,264,374,442,395,7
518,0.06,-1.0,0.05,-0.37,5.07,-3.85,343,268,373,440,396,7
519,0.04,-0.99,0.03,1.22,2.32,-3.42,345,269,377,441,397,7
520,0.05,-1.01,0.12,8.12,5.62,-1.28,345,268,379,445,394,7
521,-0.0,-0.99,0.13,6.35,17.7,-3.6,342,272,370,441,398,7
522,0.1,-0.99,0.18,15.44,-17.27,-5.98,343,267,370,437,397,7
523,0.01,-0.98,0.34,-3.42,9.34,14.71,346,270,368,437,397,7
524,0.05,-0.99,0.03,-14.4,4.03,-4.58,345,270,384,437,395,7
525,0.08,-0.99,0.01,-21.73,2.01,2.81,343,267,364,438,392,7
526,-0.03,-0.99,-0.08,-0.43,-9.03,4.82,346,270,366,439,394,7
527,-0.01,-0.99,-0.05,0.12,-3.11,-0.12,344,270,363,435,395,7
528,-0.02,-0.99,-0.06,1.89,-3.17,-1.22,346,268,365,439,396,7
529,-0.03,-0.99,-0.06,0.55,-3.48,-0.85,342,271,366,431,395,7
530,-0.03,-1.0,-0.06,-1.16,-2.75,-2.08,341,269,362,429,395,7
531,-0.04,-0.99,-0.06,-0.73,-3.17,-2.38,339,273,362,428,398,7
532,-0.03,-0.99,-0.07,0.73,-4.21,-2.87,345,274,361,429,395,7
533,0.01,-0.99,-0.08,3.36,-2.14,-4.52,345,267,363,430,391,7
534,-0.04,-0.99,-0.04,5.25,-3.72,0.12,343,271,360,431,395,7
535,-0.04,-0.99,-0.06,0.49,-3.97,-0.79,343,269,361,428,394,7
536,-0.06,-1.0,-0.03,2.38,-2.87,0.06,343,271,361,429,391,7
537,-0.05,-0.99,-0.05,-6.47,-1.59,-4.76,343,274,360,428,391,7
538,-0.06,-0.99,-0.09,-3.11,-2.32,-4.27,340,274,357,428,392,7
539,-0.05,-0.99,-0.09,-0.73,-3.91,-1.77,345,273,357,424,389,7
540,-0.04,-0.99,-0.1,-2.75,-2.08,-4.27,340,272,357,427,387,7
541,-0.04,-0.99,-0.1,5.92,-4.27,-0.06,343,273,353,428,391,7
542,-0.06,-0.99,-0.08,-1.71,-3.48,-0.43,343,276,366,433,395,7
543,-0.1,-0.99,-0.07,5.92,-5.43,2.69,347,276,362,428,390,7
544,-0.1,-0.99,-0.04,2.26,-5.68,-0.24,346,277,360,431,392,7
545,-0.09,-0.99,-0.07,-0.06,-1.89,-1.34,342,273,363,436,392,7
546,-0.1,-0.99,-0.05,-2.26,-2.93,-3.36,344,274,362,430,392,7
547,-0.1,-0.99,-0.06,1.4,-3.48,-2.26,343,269,357,436,389,7
548,-0.1,-0.99,-0.05,1.65,-3.91,-1.53,344,275,362,433,392,7
549,-0.11,-0.99,-0.05,-2.01,-2.69,-2.69,341,273,363,439,394,7
550,-0.11,-0.99,-0.05,0.0,-2.5,-2.38,342,270,363,432,392,7
551,-0.11,-0.99,-0.05,1.04,-3.17,-1.46,345,274,366,436,390,7
552,-0.12,-0.98,-0.07,-1.46,-3.54,-3.66,343,272,365,433,394,7
553,-0.12,-0.99,-0.04,1.22,-3.72,-2.44,336,269,363,431,393,7
554,-0.11,-0.99,-0.05,0.79,-3.36,-1.71,342,276,367,433,394,7
555,-0.11,-0.99,-0.05,-0.98,-2.75,-1.28,342,272,360,433,392,7
556,-0.11,-0.99,-0.06,-0.12,-3.11,-2.5,343,271,361,431,395,7
557,-0.12,-0.98,-0.06,-0.55,-3.11,-2.2,343,276,361,430,392,7
558,-0.11,-0.98,-0.06,0.43,-2.69,-2.62,338,272,358,429,393,7
559,-0.11,-0.99,-0.05,0.85,-2.99,-2.38,343,273,357,430,393,7
560,-0.11,-0.99,-0.06,0.0,-2.32,-2.93,345,279,365,431,390,7
561,-0.11,-0.99,-0.06,0.79,-2.01,-4.33,343,271,357,441,394,7
562,-0.1,-0.99,-0.03,8.36,-3.78,-0.98,342,275,357,433,392,7
563,-0.11,-0.99,-0.04,1.95,-0.92,-7.26,338,277,360,429,391,7
564,-0.03,-0.99,-0.03,-1.65,-2.99,-7.93,343,272,356,432,389,7
565,-0.04,-0.99,-0.12,-10.99,-5.25,-5.86,343,275,358,432,388,7
566,-0.08,-0.99,0.03,4.39,-7.14,-0.37,341,274,356,431,393,7
567,-0.06,-0.99,-0.03,1.22,-8.61,-5.19,340,271,354,431,389,7
568,-0.03,-0.99,-0.09,-6.9,-2.75,-8.18,342,280,353,431,389,7
569,-0.06,-0.99,-0.1,4.33,-3.11,-0.24,342,280,351,427,389,7
570,-0.06,-0.98,-0.1,2.32,-2.44,2.81,342,273,363,435,391,7
571,-0.08,-0.99,0.0,9.22,2.32,1.53,343,275,361,435,391,7
572,-0.11,-0.98,-0.05,-6.04,-1.4,-3.23,341,276,361,437,391,7
573,-0.12,-0.98,-0.06,-0.73,-3.42,-3.48,348,275,360,438,392,7
574,-0.11,-0.99,-0.09,-1.46,-1.4,-4.58,341,278,360,437,387,7
575,-0.1,-0.99,-0.07,4.21,-2.99,-0.85,341,278,361,435,391,7
576,-0.08,-0.99,-0.04,-1.46,-1.46,-5.98,343,272,363,434,391,7
577,-0.1,-0.99,-0.05,-0.12,-2.99,-2.5,342,273,359,434,388,7
578,-0.09,-0.98,-0.12,-3.48,-1.65,-4.21,342,274,360,434,389,7
579,-0.11,-0.99,-0.06,1.77,-2.01,-4.82,341,278,358,434,389,7
580,-0.11,-0.98,-0.15,3.78,-5.25,-6.04,341,275,359,430,387,7
581,-0.03,-0.99,-0.08,-5.98,-4.7,-4.27,342,278,358,437,387,7
582,-0.13,-0.99,0.06,14.22,-0.37,-2.38,342,281,360,431,386,7
583,-0.03,-0.96,-0.12,-10.25,-4.03,-13.0,339,274,358,433,388,7
584,-0.08,-0.96,0.0,-8.73,2.38,8.61,339,278,357,433,384,7
585,-0.1,-1.01,0.06,10.38,-2.2,-3.05,342,277,356,435,388,7
586,-0.05,-0.98,-0.06,-2.14,-9.89,-5.25,343,276,358,431,388,7
587,-0.05,-1.0,-0.02,4.27,-5.19,-4.39,342,278,361,431,388,7
588,0.02,-1.0,0.04,8.24,-9.7,-17.09,354,278,358,433,391,7
589,-0.03,-0.99,0.1,2.14,-8.61,22.4,343,293,356,441,391,7
590,0.08,-1.0,0.08,-6.29,4.21,-11.11,340,281,359,432,391,7
591,-0.03,-0.99,-0.02,-10.93,4.88,7.75,343,279,362,433,390,7
592,-0.05,-1.0,-0.03,-17.21,19.65,1.28,342,278,361,432,391,7
593,-0.07,-0.99,-0.06,6.29,-4.27,2.14,342,279,358,435,392,7
594,-0.1,-0.99,0.01,-2.2,-7.63,0.37,339,281,359,433,387,7
595,-0.05,-0.99,-0.06,-1.1,-4.03,-4.33,347,278,356,433,385,7
596,-0.09,-0.99,0.01,-3.72,-0.06,0.43,339,279,354,433,387,7
597,-0.07,-0.99,-0.07,-0.24,-4.64,-1.28,344,286,353,432,384,7
598,-0.14,-0.99,-0.02,-0.12,-9.46,-1.16,345,282,355,434,385,7
599,-0.12,-0.99,-0.06,0.12,-5.37,-1.4,343,284,357,436,388,7
600,-0.14,-0.98,-0.08,2.62,-4.58,1.1,344,279,353,428,387,7
601,-0.12,-0.98,-0.05,-3.78,7.14,-8.54,340,285,355,432,389,7
602,-0.17,-0.99,0.04,0.37,-6.53,1.34,343,278,350,435,387,7
603,-0.15,-0.98,-0.06,-1.83,-7.02,-3.3,342,280,353,431,387,7
604,-0.11,-0.98,-0.12,-7.93,-5.25,4.46,341,283,352,433,387,7
605,-0.14,-0.98,-0.04,2.08,-6.59,0.43,342,280,354,434,388,7
606,-0.15,-1.0,-0.05,-0.37,-0.67,-5.13,345,277,356,433,387,7
607,-0.13,-0.98,-0.09,-0.18,-5.0,-1.28,342,276,353,431,389,7
608,-0.13,-0.98,-0.02,-6.23,2.99,-1.65,341,284,356,433,391,7
609,-0.15,-0.98,-0.04,3.36,-3.78,-1.16,345,283,353,430,388,7
610,-0.15,-0.97,-0.07,2.62,-2.38,-4.21,339,283,355,431,388,7
611,-0.14,-0.99,-0.03,6.41,-4.58,-4.39,343,280,355,431,388,7
612,-0.11,-0.98,-0.04,-5.0,-2.93,-2.38,342,279,351,432,389,7
613,-0.13,-0.98,-0.06,1.65,-3.36,-2.01,344,281,356,431,382,7
614,-0.13,-0.99,-0.05,1.77,-2.2,-1.34,340,285,353,432,388,7
615,-0.14,-0.98,-0.06,-2.93,-1.83,-2.38,341,281,354,433,386,7
616,-0.12,-1.0,-0.08,13.06,0.37,-0.98,342,282,350,432,391,7
617,-0.13,-0.98,0.03,-2.2,-2.2,-8.97,345,285,357,431,390,7
618,-0.19,-0.99,-0.03,5.98,-2.08,-0.61,350,286,354,428,389,7
619,-0.17,-0.98,-0.02,-0.43,-1.1,-2.32,344,286,356,428,389,7
620,-0.16,-0.98,-0.05,5.37,-8.0,-0.18,343,277,357,428,419,7
621,-0.12,-0.98,-0.07,-5.25,1.22,-4.21,344,294,359,434,388,7
622,-0.14,-0.98,-0.06,3.23,-2.75,0.06,342,281,353,432,388,7
623,-0.13,-0.98,-0.07,-2.26,-2.75,-1.4,344,282,351,428,390,7
624,-0.18,-0.97,-0.01,1.83,-4.39,-3.36,347,277,350,433,390,7
625,-0.14,-0.98,-0.02,-1.53,-1.95,-7.08,342,286,349,434,386,7
626,-0.09,-0.98,-0.07,0.79,-8.0,-4.7,339,284,352,430,388,7
627,-0.11,-0.98,-0.03,0.55,-2.75,-4.09,339,286,350,429,385,7
628,-0.16,-0.98,-0.02,6.29,-5.43,-0.67,341,282,352,434,388,7
629,-0.16,-0.98,-0.04,2.5,-1.53,0.49,344,284,346,431,389,7
630,-0.15,-0.98,-0.03,-0.43,-3.11,-1.83,340,284,347,431,390,7
631,-0.15,-0.98,-0.04,-1.28,-2.26,-2.14,342,278,350,432,399,7
632,-0.15,-0.98,-0.03,0.31,-3.36,-2.14,343,283,353,430,390,7
633,-0.15,-0.98,-0.05,-1.89,-1.4,-3.66,342,283,350,431,387,7
634,-0.15,-0.98,-0.05,1.28,-2.32,-1.77,343,284,350,430,389,7
635,-0.15,-0.98,-0.05,1.22,-2.81,-2.01,343,280,350,428,387,7
636,-0.14,-0.98,-0.06,-1.1,-2.32,-2.87,342,281,350,427,388,7
637,-0.16,-0.98,-0.05,0.73,-4.15,-1.53,342,284,354,430,390,7
638,-0.16,-0.98,-0.04,-0.49,-3.23,-2.5,345,285,351,432,394,7
639,-0.15,-0.98,-0.06,-0.55,-3.54,-2.08,342,287,347,429,388,7
640,-0.14,-0.98,-0.05,0.12,-2.62,-3.11,343,284,349,430,386,7
641,-0.14,-0.98,-0.04,-0.43,-2.14,-3.05,343,283,351,431,387,7
642,-0.14,-0.98,-0.04,-0.55,-2.14,-3.97,342,285,347,432,389,7
643,-0.14,-0.98,-0.05,0.43,-2.81,-3.3,345,280,350,426,384,7
644,-0.16,-0.98,-0.08,-0.98,-3.48,-1.59,344,284,348,428,387,7
645,-0.15,-0.98,-0.06,3.78,0.37,-3.78,340,286,346,430,388,7
646,-0.13,-0.98,-0.07,0.67,-2.5,-2.93,343,284,343,428,385,7
647,-0.15,-0.98,-0.04,-0.37,-5.92,-0.79,346,284,349,432,387,7
648,-0.15,-0.98,-0.09,-0.92,-3.3,-2.32,344,287,346,429,383,7
649,-0.15,-0.98,-0.06,0.85,-3.72,-2.01,346,279,347,431,388,7
650,-0.16,-0.98,-0.05,0.0,-2.44,-2.69,343,288,346,430,384,7
651,-0.15,-0.98,-0.05,3.36,-2.69,-2.5,343,285,343,431,383,7
652,-0.15,-0.98,-0.06,-2.26,-3.85,-2.81,340,288,342,429,385,7
653,-0.16,-0.97,-0.08,-1.89,-5.0,-2.69,339,286,353,430,385,7
654,-0.15,-0.98,-0.05,0.85,2.56,-0.24,343,292,362,431,388,7
655,-0.18,-0.98,-0.04,0.49,-4.21,-1.71,341,294,369,437,388,7
656,-0.17,-0.98,-0.06,-0.06,-3.91,-2.81,342,288,368,434,380,7
657,-0.17,-0.98,-0.06,0.49,-3.42,-1.89,343,292,362,435,389,7
658,-0.17,-0.98,-0.05,0.12,-2.75,-2.56,342,287,366,436,389,7
659,-0.19,-0.98,-0.04,8.73,-2.81,-5.19,341,290,359,434,389,7
660,-0.2,-0.97,-0.04,4.39,0.98,0.18,343,285,361,434,388,7
661,-0.17,-0.97,-0.03,5.86,-2.62,-6.16,341,288,359,432,402,7
662,-0.18,-0.98,-0.02,2.81,-9.7,-1.28,342,289,363,431,386,7
663,-0.21,-0.98,-0.01,-4.15,-5.98,-1.65,343,290,357,433,389,7
664,-0.16,-0.98,-0.08,-3.3,-3.91,-2.01,343,290,357,431,389,7
665,-0.15,-0.98,-0.07,-0.98,-4.64,-2.62,348,294,353,428,389,7
666,-0.17,-0.98,-0.06,2.2,-2.32,-2.44,341,287,355,431,387,7
667,-0.17,-0.98,-0.04,-1.22,-2.99,-1.95,342,290,354,433,387,7
668,-0.17,-0.98,-0.05,-0.24,-2.32,-2.38,343,290,354,430,386,7
669,-0.17,-0.97,-0.06,-0.92,-2.99,-2.14,344,293,353,430,390,7
670,-0.17,-0.98,-0.06,-1.59,-2.14,-2.38,344,289,354,427,385,7
671,-0.17,-0.98,-0.05,1.59,-3.6,-2.56,344,294,357,428,386,7
672,-0.17,-0.98,-0.06,-1.34,-3.11,-2.99,345,289,354,430,387,7
673,-0.18,-0.98,-0.08,-0.55,-2.44,-2.81,342,290,357,428,387,7
674,-0.18,-0.98,-0.07,1.04,-3.66,-2.08,339,296,356,431,384,7
675,-0.18,-0.98,-0.06,0.92,-2.26,-2.26,341,292,354,427,388,7
676,-0.18,-0.98,-0.05,0.24,-2.2,-2.14,345,288,357,426,387,7
677,-0.16,-0.97,-0.08,-1.04,-2.38,-3.6,343,292,357,429,386,7
678,-0.17,-0.98,-0.06,-0.73,-3.36,-1.71,345,290,354,432,385,7
679,-0.17,-0.98,-0.06,-1.4,-3.36,-3.23,344,291,358,431,387,7
680,-0.12,-0.97,-0.03,5.19,-8.97,-1.28,342,292,353,436,386,7
681,-0.19,-0.97,-0.07,3.78,-0.79,-5.37,342,291,355,430,388,7
682,-0.19,-0.98,-0.08,-1.95,-2.75,-3.6,343,287,358,426,388,7
683,-0.19,-0.97,-0.06,1.95,-4.58,-2.62,341,296,354,429,389,7
684,-0.18,-0.97,-0.09,0.18,-2.93,-1.83,342,291,356,430,388,7
685,-0.17,-0.97,-0.08,-3.54,-3.54,-1.89,344,296,361,431,388,7
686,-0.21,-0.98,-0.04,-0.12,-2.14,-2.32,343,291,354,425,388,7
687,-0.14,-0.98,-0.07,4.94,-2.01,-0.79,344,292,352,430,380,7
688,-0.18,-0.97,-0.1,-2.62,-3.36,-1.77,344,297,350,428,388,7
689,-0.18,-0.98,-0.08,0.31,-3.97,-1.22,342,291,356,426,383,7
690,-0.19,-0.97,-0.09,-0.61,-2.75,-2.38,343,294,359,429,387,7
691,-0.19,-0.97,-0.09,0.67,-3.54,-2.2,346,296,356,432,387,7
692,-0.19,-0.97,-0.09,1.1,-3.36,-1.77,341,288,358,428,389,7
693,-0.18,-0.97,-0.1,-0.92,-2.56,-2.44,341,296,355,431,388,7
694,-0.2,-0.97,-0.09,0.43,-3.11,-2.38,344,292,358,430,382,7
695,-0.19,-0.97,-0.09,0.49,-3.23,-2.01,342,292,358,428,385,7
696,-0.19,-0.97,-0.09,0.06,-2.87,-2.01,346,293,354,428,381,7
697,-0.19,-0.97,-0.1,0.98,-2.99,-2.26,346,291,356,431,384,7
698,-0.19,-0.97,-0.09,-0.18,-2.99,-3.05,355,296,357,432,384,7
699,-0.19,-0.97,-0.09,-0.85,-2.99,-2.75,340,295,359,428,384,7
700,-0.19,-0.97,-0.1,-0.06,-3.36,-2.26,342,295,354,429,384,7
701,-0.19,-0.97,-0.1,-0.31,-2.26,-2.99,344,289,355,426,388,7
702,-0.19,-0.97,-0.1,-0.24,-2.93,-2.44,343,292,355,431,385,7
703,-0.19,-0.97,-0.1,0.79,-2.93,-2.56,346,292,355,426,383,7
704,-0.19,-0.97,-0.1,0.12,-2.5,-2.62,339,297,369,427,383,7
705,-0.19,-0.97,-0.11,0.67,-3.3,-2.44,344,296,356,428,385,7
706,-0.19,-0.97,-0.1,-0.12,-3.48,-2.56,344,304,354,431,385,7
707,-0.19,-0.97,-0.11,0.55,-3.05,-2.56,346,292,356,430,373,7
708,-0.19,-0.97,-0.11,0.24,-2.81,-2.38,344,296,357,428,383,7
709,-0.19,-0.97,-0.11,-0.24,-3.05,-2.38,346,297,353,430,383,7
710,-0.19,-0.97,-0.11,-0.43,-2.87,-2.62,342,292,353,429,385,7
711,-0.19,-0.97,-0.1,-0.06,-2.08,-2.62,346,295,358,427,386,7
712,-0.19,-0.97,-0.11,0.67,-3.36,-2.14,344,290,357,431,384,7
713,-0.19,-0.97,-0.11,0.85,-3.11,-2.44,345,298,356,428,391,7
714,-0.19,-0.97,-0.11,0.49,-3.42,-1.89,343,294,360,427,388,7
715,-0.19,-0.97,-0.11,0.24,-3.72,-2.81,341,293,362,444,386,7
716,-0.19,-0.97,-0.1,-0.24,-2.44,-2.81,343,297,362,428,390,7
717,-0.19,-0.97,-0.1,1.46,-2.62,-2.2,342,294,363,431,387,7
718,-0.19,-0.97,-0.1,0.0,-2.99,-2.62,344,291,362,430,389,7
719,-0.19,-0.97,-0.11,-0.12,-2.81,-2.08,343,294,362,431,390,7
720,-0.19,-0.97,-0.11,0.18,-2.81,-2.69,344,290,363,430,391,7
721,-0.19,-0.97,-0.11,0.06,-2.87,-2.38,343,297,362,433,387,7
722,-0.19,-0.97,-0.11,-0.31,-2.81,-2.62,344,293,361,428,387,7
723,-0.19,-0.97,-0.11,0.24,-2.62,-2.87,345,294,363,431,388,7
724,-0.18,-0.97,-0.1,0.24,-2.5,-2.87,347,298,357,430,389,7
725,-0.19,-0.97,-0.11,0.18,-3.23,-2.2,344,295,357,429,382,7
726,-0.19,-0.97,-0.12,0.18,-2.93,-2.44,341,297,363,433,391,7
727,-0.19,-0.97,-0.11,0.12,-2.75,-2.69,344,293,360,432,387,7
728,-0.18,-0.97,-0.11,0.67,-3.11,-2.5,343,293,360,428,386,7
729,-0.18,-0.97,-0.11,-0.43,-3.48,-2.62,344,295,361,431,388,7
730,-0.18,-0.97,-0.12,0.24,-2.87,-2.26,340,301,362,427,388,7
731,-0.19,-1.0,-0.12,0.55,-3.05,-2.2,344,289,360,432,399,7
732,-0.18,-0.97,-0.12,0.37,-2.69,-2.75,340,294,359,430,386,7
733,-0.18,-0.97,-0.11,0.24,-2.81,-2.38,343,297,356,428,387,7
734,-0.18,-0.97,-0.11,-0.61,-2.5,-2.69,346,296,361,428,385,7
735,-0.18,-0.97,-0.12,-0.24,-3.11,-2.2,346,297,360,429,387,7
736,-0.18,-0.97,-0.12,0.37,-3.11,-2.38,348,294,357,430,386,7
737,-0.18,-0.97,-0.12,0.43,-2.93,-2.5,343,294,365,428,386,7
738,-0.18,-0.97,-0.12,0.61,-3.17,-2.44,342,295,361,426,389,7
739,-0.18,-0.97,-0.11,0.79,-3.17,-2.87,344,293,360,429,382,7
740,-0.18,-0.97,-0.12,0.31,-3.42,-2.38,338,293,360,428,385,7
741,-0.18,-0.97,-0.12,0.24,-2.69,-2.44,344,292,360,432,387,7
742,-0.18,-0.97,-0.12,-0.24,-2.87,-2.56,345,294,362,431,388,7
743,-0.19,-0.97,-0.12,0.49,-2.93,-2.44,344,292,361,428,385,7
744,-0.19,-0.97,-0.11,0.98,-3.11,-2.75,345,298,358,431,387,7
745,-0.18,-0.97,-0.12,0.18,-2.93,-2.75,344,291,362,431,386,7
746,-0.2,-0.97,-0.1,-1.28,-1.71,-3.6,345,294,358,428,385,7
747,-0.17,-0.97,-0.14,1.4,-10.86,-0.79,341,298,359,432,396,7
748,-0.17,-0.96,-0.14,-2.62,-0.98,-4.03,343,297,362,428,385,7
749,-0.15,-0.96,-0.16,-4.88,-8.85,-9.46,343,294,361,430,382,7
750,-0.12,-0.97,-0.18,2.99,-8.61,-5.43,345,294,360,429,384,7
751,-0.14,-0.97,-0.17,3.23,-0.79,-5.98,343,296,361,429,386,7
752,-0.13,-0.97,-0.18,-4.27,-2.2,-1.95,346,296,359,431,386,7
753,-0.12,-0.96,-0.22,-3.42,-1.89,-2.75,346,297,371,425,387,7
754,-0.15,-0.96,-0.19,2.08,3.05,3.54,345,294,357,428,386,7
755,-0.13,-0.96,-0.23,-1.77,2.69,-5.55,344,302,358,430,385,7
756,-0.16,-0.96,-0.18,-2.08,-4.09,1.04,346,296,357,429,384,7
757,-0.13,-0.95,-0.23,-1.16,-3.91,-3.72,344,301,358,430,386,7
758,-0.12,-0.96,-0.22,-0.24,-0.18,-4.64,343,294,354,428,385,7
759,-0.12,-0.96,-0.22,0.43,-2.62,-3.11,344,293,357,425,388,7
760,-0.14,-0.96,-0.22,5.37,-1.71,-2.44,344,298,353,425,387,7
761,-0.13,-0.96,-0.21,-0.55,0.31,-6.59,347,289,357,445,382,7
762,-0.13,-0.97,-0.16,-0.55,-5.8,0.0,344,295,358,428,382,7
763,-0.12,-0.97,-0.17,-0.85,-3.36,-3.36,348,297,357,428,385,7
764,-0.11,-0.97,-0.18,4.27,-2.2,-3.54,349,295,356,426,387,7
765,-0.12,-0.97,-0.16,1.95,-1.77,-3.78,345,289,361,429,384,7
766,-0.11,-0.97,-0.16,4.21,-2.62,-2.08,344,298,355,432,384,7
767,-0.1,-0.98,-0.16,1.22,-3.54,-1.71,344,294,354,429,384,7
768,-0.11,-0.98,-0.18,1.59,-2.87,-1.53,344,295,355,430,384,7
769,-0.11,-0.98,-0.14,1.83,0.98,-5.37,342,297,355,429,382,7
770,-0.14,-0.97,-0.14,1.89,-3.78,-0.85,344,292,351,428,383,7
771,-0.12,-0.98,-0.17,1.4,-4.27,-2.32,344,295,349,427,381,7
772,-0.14,-0.97,-0.15,-0.55,-2.38,-6.23,343,294,352,426,382,7
773,-0.09,-0.97,-0.22,-6.9,-0.18,-6.1,342,294,352,426,383,7
774,-0.12,-0.98,-0.12,2.93,-1.65,-0.73,345,293,354,430,384,7
775,-0.13,-0.97,-0.15,4.27,-5.07,0.24,345,297,353,427,384,7
776,-0.11,-0.98,-0.14,2.99,-2.56,-2.99,341,290,351,431,383,7
777,-0.12,-0.98,-0.13,2.44,-3.42,-0.31,342,293,352,428,384,7
778,-0.11,-0.98,-0.15,-0.18,-2.32,-2.5,344,295,356,424,383,7
779,-0.12,-0.98,-0.13,2.99,-3.11,-1.89,345,298,353,427,382,7
780,-0.12,-0.98,-0.12,-1.1,-4.64,-1.16,342,298,355,430,381,7
781,-0.13,-0.98,-0.13,1.46,-2.99,-1.77,343,298,351,427,384,7
782,-0.12,-0.98,-0.12,-1.22,-4.64,-1.46,343,289,350,431,382,7
783,-0.12,-0.98,-0.12,1.46,-3.23,-2.26,341,294,349,426,381,7
784,-0.12,-0.98,-0.12,0.67,-2.81,-2.93,343,298,349,427,385,7
785,-0.12,-0.98,-0.13,1.1,-3.42,-2.62,342,295,354,431,387,7
786,-0.12,-0.98,-0.13,1.83,-3.17,-2.99,344,296,354,427,381,7
787,-0.11,-0.98,-0.14,-0.18,-2.62,-2.99,341,294,352,425,379,7
788,-0.12,-0.98,-0.14,-0.31,-2.99,-2.01,344,294,355,429,384,7
789,-0.13,-0.98,-0.13,0.0,-3.11,-2.56,342,294,354,426,381,7
790,-0.12,-0.98,-0.14,0.24,-3.36,-2.26,348,288,351,426,382,7
791,-0.12,-0.97,-0.14,-0.06,-2.87,-2.69,344,298,352,427,381,7
792,-0.12,-0.98,-0.14,-0.18,-2.81,-2.56,341,291,350,428,387,7
793,-0.13,-0.98,-0.14,-0.73,-2.44,-2.32,344,297,353,428,381,7
794,-0.12,-0.98,-0.14,0.61,-2.32,-2.5,343,292,346,427,383,7
795,-0.12,-0.98,-0.13,-0.18,-3.17,-2.62,347,291,354,426,381,7
796,-0.12,-0.98,-0.14,0.61,-2.93,-2.26,344,291,352,420,380,7
797,-0.12,-0.97,-0.13,1.53,-3.3,-2.75,349,298,351,432,382,7
798,-0.13,-0.98,-0.13,1.04,-3.17,-1.83,345,294,350,429,414,7
799,-0.13,-0.98,-0.14,0.06,-3.23,-1.89,340,307,353,424,385,7
800,-0.12,-0.98,-0.12,1.59,-3.17,-2.01,343,296,347,431,383,7
801,-0.13,-0.98,-0.14,1.1,-3.3,-2.2,343,291,351,426,381,7
802,-0.13,-0.98,-0.12,0.12,-3.3,-2.08,342,294,352,425,381,7
803,-0.12,-0.98,-0.12,2.08,-2.62,-2.2,344,294,351,430,410,7
804,-0.12,-0.98,-0.12,0.61,-3.36,-1.53,347,291,350,427,382,7
805,-0.13,-0.98,-0.12,0.31,-2.69,-2.32,345,295,349,433,381,7
806,-0.12,-0.98,-0.12,0.73,-2.69,-2.75,346,290,345,430,383,7
807,-0.13,-0.98,-0.12,0.31,-2.69,-2.26,344,294,349,428,379,7
808,-0.13,-0.98,-0.12,-0.06,-3.3,-2.26,347,291,351,429,380,7
809,-0.13,-0.98,-0.13,0.12,-2.69,-2.44,343,295,345,428,381,7
810,-0.13,-0.98,-0.13,0.0,-3.05,-2.38,342,296,348,428,378,7
811,-0.12,-0.98,-0.12,0.31,-4.09,-1.95,344,294,346,427,384,7
812,-0.12,-0.98,-0.12,2.75,-3.66,-1.28,343,292,350,426,379,7
813,-0.13,-0.98,-0.12,0.61,-3.48,-2.38,341,297,347,429,381,7
814,-0.13,-0.98,-0.12,0.67,-3.05,-2.69,344,293,349,430,382,7
815,-0.13,-0.98,-0.13,0.18,-2.99,-2.08,344,302,349,426,383,7
816,-0.13,-0.98,-0.12,1.16,-2.93,-2.2,344,291,349,425,383,7
817,-0.13,-0.98,-0.12,0.49,-3.23,-2.32,347,296,343,428,379,7
818,-0.13,-0.98,-0.12,-0.43,-2.81,-2.14,343,296,344,436,381,7
819,-0.13,-0.98,-0.12,0.67,-2.5,-2.32,344,297,347,425,382,7
820,-0.13,-0.98,-0.12,1.53,-3.11,-2.62,341,295,345,428,380,7
821,-0.13,-0.98,-0.12,0.79,-2.75,-2.69,346,293,346,429,380,7
822,-0.13,-0.98,-0.13,-0.43,-2.81,-2.44,345,299,346,426,382,7
823,-0.13,-0.98,-0.12,-1.22,-3.17,-2.14,344,295,350,423,379,7
824,-0.13,-0.97,-0.13,-2.2,-2.32,-1.89,345,292,347,428,385,7
825,-0.13,-0.98,-0.13,-0.98,1.77,-0.61,339,296,361,429,382,7
826,-0.16,-0.97,-0.14,8.54,-1.65,0.85,343,299,347,427,379,7
827,-0.17,-0.97,-0.15,-2.38,-4.82,-1.59,342,300,348,425,380,7
828,-0.17,-0.97,-0.14,0.85,-4.15,-2.38,345,298,345,424,379,7
829,-0.16,-0.97,-0.14,1.22,-2.99,-2.01,344,306,349,426,382,7
830,-0.18,-0.97,-0.14,1.53,-3.42,-2.08,342,299,344,434,380,7
831,-0.17,-0.97,-0.13,1.65,-3.85,-1.89,345,296,347,426,381,7
832,-0.18,-0.97,-0.13,0.61,-3.3,-2.08,344,299,349,426,380,7
833,-0.17,-0.97,-0.13,0.43,-3.05,-2.14,344,300,347,427,376,7
834,-0.18,-0.97,-0.13,0.73,-3.11,-2.26,346,298,344,423,379,7
835,-0.18,-0.97,-0.13,1.22,-3.23,-2.62,334,299,346,429,379,7
836,-0.18,-0.97,-0.13,0.24,-2.99,-2.62,345,293,350,424,380,7
837,-0.17,-0.97,-0.12,0.92,-3.05,-2.32,346,296,347,424,387,7
838,-0.18,-0.97,-0.12,0.49,-3.36,-2.01,344,292,346,424,378,7
839,-0.18,-0.97,-0.12,0.61,-2.75,-2.62,341,291,347,420,377,7
840,-0.18,-0.97,-0.11,0.49,-3.05,-2.75,345,296,346,423,381,7
841,-0.18,-0.97,-0.12,0.67,-3.05,-2.2,347,293,346,425,373,7
842,-0.18,-0.97,-0.11,0.98,-2.32,-2.5,343,295,346,418,378,7
843,-0.19,-0.97,-0.11,-0.12,-2.75,-2.26,343,298,343,422,378,7
844,-0.18,-0.97,-0.11,0.55,-2.99,-2.81,345,301,344,424,379,7
845,-0.18,-0.97,-0.1,0.43,-2.75,-2.93,345,302,348,421,402,7
846,-0.18,-0.97,-0.11,0.06,-3.05,-2.75,345,300,349,421,376,7
847,-0.18,-0.97,-0.11,0.43,-2.99,-2.44,350,301,351,422,378,7
848,-0.19,-0.97,-0.12,0.0,-2.93,-2.44,344,297,346,419,380,7
849,-0.18,-0.97,-0.11,0.85,-3.05,-2.56,346,297,349,425,377,7
850,-0.18,-0.97,-0.11,0.61,-3.11,-3.11,344,296,348,433,380,7
851,-0.18,-0.97,-0.11,0.31,-3.05,-2.5,343,297,347,423,374,7
852,-0.19,-0.97,-0.11,0.24,-3.17,-2.56,344,293,348,422,381,7
853,-0.19,-0.97,-0.11,-0.49,-3.23,-2.32,345,300,352,421,372,7
854,-0.19,-0.97,-0.11,0.79,-3.23,-2.62,343,297,351,435,380,7
855,-0.18,-0.97,-0.11,1.04,-2.99,-2.93,347,302,346,420,376,7
856,-0.18,-0.97,-0.11,-0.06,-2.75,-2.56,343,296,349,422,378,7
857,-0.18,-0.97,-0.11,0.12,-2.14,-2.87,346,297,349,423,377,7
858,-0.18,-0.97,-0.12,0.24,-2.93,-2.44,343,294,344,423,378,7
859,-0.19,-0.97,-0.11,0.37,-2.69,-2.5,344,297,344,422,379,7
860,-0.18,-0.97,-0.1,0.67,-3.11,-2.38,345,298,349,421,378,7
861,-0.19,-0.97,-0.11,0.49,-2.99,-2.26,345,293,351,422,381,7
862,-0.19,-0.97,-0.11,1.04,-3.23,-2.5,344,300,346,421,376,7
863,-0.18,-0.97,-0.11,0.43,-3.23,-2.69,342,301,345,425,375,7
864,-0.18,-0.97,-0.11,0.06,-3.05,-2.5,346,301,343,424,380,7
865,-0.19,-0.97,-0.11,0.43,-2.93,-2.69,343,291,346,419,379,7
866,-0.19,-0.97,-0.11,0.18,-2.93,-2.32,347,299,346,425,377,7
867,-0.19,-0.97,-0.11,-0.24,-2.75,-2.38,343,297,348,423,381,7
868,-0.19,-0.97,-0.11,1.46,-3.11,-2.38,346,301,348,424,375,7
869,-0.18,-0.97,-0.1,0.92,-3.23,-2.56,346,306,345,421,379,7
870,-0.19,-0.97,-0.11,0.79,-3.23,-1.89,344,292,345,421,377,7
871,-0.19,-0.97,-0.1,0.37,-3.17,-1.83,341,296,346,422,378,7
872,-0.18,-0.97,-0.1,0.18,-2.38,-2.5,344,300,349,423,415,7
873,-0.19,-0.97,-0.11,-0.61,-2.44,-2.5,345,296,352,423,373,7
874,-0.19,-0.97,-0.12,-1.1,-3.11,-2.87,346,301,351,424,380,7
875,-0.19,-0.97,-0.12,0.12,-2.81,-2.81,344,292,358,426,381,7
876,-0.18,-0.97,-0.11,0.73,-2.87,-2.62,344,300,359,441,379,7
877,-0.18,-0.97,-0.12,-0.18,-2.81,-2.38,344,298,360,427,386,7
878,-0.18,-0.97,-0.11,-1.53,-3.11,-4.09,344,301,360,429,379,7
879,-0.16,-0.97,-0.12,-1.22,-11.41,-5.07,343,297,360,430,380,7
880,-0.14,-0.97,-0.14,-3.23,-6.23,-7.14,344,295,360,427,375,7
881,-0.16,-0.97,-0.14,-1.16,-8.18,0.0,344,296,359,427,381,7
882,-0.16,-0.97,-0.13,-3.6,-10.8,-0.55,341,297,360,427,379,7
883,-0.16,-0.96,-0.14,-2.62,-2.08,-2.99,345,299,361,428,379,7
884,-0.17,-0.98,-0.11,-1.34,-2.26,-1.4,345,294,360,426,380,7
885,-0.14,-0.97,-0.15,0.0,-1.1,0.18,344,296,359,426,380,7
886,-0.18,-0.98,-0.14,0.24,12.63,2.08,343,294,361,427,382,7
887,-0.18,-0.97,-0.1,1.65,-5.55,-1.59,344,302,358,429,380,7
888,-0.19,-0.97,-0.11,0.85,-3.66,-3.23,343,296,360,429,379,7
889,-0.19,-0.97,-0.14,-4.27,2.01,-0.79,344,297,360,426,381,7
890,-0.19,-0.97,-0.12,0.67,-2.32,-3.36,347,291,357,425,379,7
891,-0.19,-0.96,-0.11,2.14,-3.6,-2.44,344,300,356,427,383,7
892,-0.19,-0.96,-0.13,0.12,-3.91,-2.62,345,298,360,426,379,7
893,-0.2,-0.96,-0.13,0.06,-2.99,-1.95,343,295,360,428,380,7
894,-0.2,-0.96,-0.12,-1.28,-2.38,-2.69,342,298,360,428,380,7
895,-0.21,-0.96,-0.12,1.04,-3.54,-1.34,342,295,358,423,381,7
896,-0.21,-0.96,-0.13,-0.61,-3.05,-2.62,346,296,357,423,379,7
897,-0.21,-0.96,-0.12,1.4,-3.11,-2.08,340,297,356,426,380,7
898,-0.21,-0.96,-0.11,1.04,-3.54,-1.89,341,294,358,425,381,7
899,-0.21,-0.96,-0.12,0.31,-3.11,-2.44,341,297,356,425,378,7
900,-0.21,-0.96,-0.12,1.28,-3.17,-2.56,341,298,358,427,378,7
901,-0.21,-0.96,-0.12,0.24,-3.05,-2.44,343,299,358,427,379,7
902,-0.21,-0.96,-0.11,0.73,-2.26,-2.62,343,302,359,422,378,7
903,-0.21,-0.96,-0.12,-0.37,-3.17,-2.2,346,291,357,429,378,7
904,-0.22,-0.96,-0.12,0.61,-2.75,-2.44,345,298,357,423,375,7
905,-0.21,-0.96,-0.11,0.06,-2.87,-2.44,344,301,359,425,378,7
906,-0.21,-0.96,-0.12,0.37,-3.36,-2.38,343,296,359,428,377,7
907,-0.21,-0.96,-0.13,-0.06,-2.87,-2.14,347,301,356,424,381,7
908,-0.21,-0.96,-0.12,0.18,-2.87,-2.75,349,299,358,426,378,7
909,-0.21,-0.96,-0.12,0.73,-2.99,-2.44,333,302,354,427,381,7
910,-0.21,-0.96,-0.12,-0.61,-2.62,-2.69,342,298,357,425,380,7
911,-0.21,-0.96,-0.12,0.85,-3.17,-2.08,346,301,356,424,380,7
912,-0.22,-0.96,-0.12,0.61,-3.6,-2.38,344,297,355,422,379,7
913,-0.19,-0.96,-0.11,0.55,-2.01,-2.62,344,301,356,427,373,7
914,-0.18,-0.97,-0.11,-3.3,-3.3,-5.55,346,297,356,425,392,7
915,-0.19,-0.96,-0.12,-0.43,-3.66,-0.24,344,292,354,421,378,7
916,-0.19,-0.96,-0.18,3.54,-3.11,-2.2,346,298,353,425,377,7
917,-0.17,-0.97,-0.09,2.32,2.69,-3.97,344,300,361,422,379,7
918,-0.23,-0.96,-0.13,-2.93,-2.08,-0.79,347,298,359,422,378,7
919,-0.23,-0.96,-0.13,-0.79,-5.13,-0.73,341,299,356,424,377,7
920,-0.21,-0.96,-0.13,-0.18,-3.48,-2.81,344,302,356,427,379,7
921,-0.22,-0.96,-0.11,0.43,-3.3,-2.01,344,294,356,423,379,7
922,-0.22,-0.96,-0.11,1.04,-3.05,-1.89,346,299,358,425,375,7
923,-0.22,-0.96,-0.12,-0.24,-3.3,-2.26,344,299,357,423,378,7
924,-0.22,-0.96,-0.12,0.12,-2.69,-2.99,346,298,370,423,378,7
925,-0.22,-0.96,-0.11,0.37,-3.3,-2.01,345,301,355,426,378,7
926,-0.22,-0.96,-0.12,-1.04,-2.56,-3.11,344,295,356,423,378,7
927,-0.21,-0.96,-0.12,0.67,-3.05,-2.26,344,301,354,423,377,7
928,-0.22,-0.96,-0.12,-0.06,-2.93,-2.44,344,296,356,423,377,7
929,-0.22,-0.96,-0.12,0.79,-2.99,-2.38,344,301,358,423,376,7
930,-0.22,-0.96,-0.12,-0.37,-3.23,-2.38,341,298,357,425,377,7
931,-0.22,-0.96,-0.13,0.55,-2.93,-2.14,344,300,354,422,377,7
932,-0.22,-0.96,-0.13,0.0,-2.87,-1.95,336,299,357,425,378,7
933,-0.21,-0.96,-0.13,0.92,-2.56,-2.99,341,299,355,423,376,7
934,-0.21,-0.96,-0.13,0.43,-2.69,-2.5,344,295,356,425,374,7
935,-0.21,-0.96,-0.11,0.43,-3.05,-2.75,344,300,357,423,379,7
936,-0.22,-0.96,-0.13,0.24,-4.58,-2.56,349,298,355,422,379,7
937,-0.22,-0.96,-0.12,0.12,-3.11,-2.32,341,294,355,424,377,7
938,-0.22,-0.96,-0.12,-0.31,-2.44,-2.26,346,295,354,426,375,7
939,-0.2,-0.96,-0.12,-0.98,-3.72,-2.56,341,303,359,423,375,7
940,-0.2,-0.96,-0.14,-2.01,-4.21,-2.87,346,299,352,420,374,7
941,-0.2,-0.96,-0.16,-1.1,-2.69,-3.17,346,298,354,425,372,7
942,-0.2,-0.96,-0.15,-1.71,-2.08,-1.34,344,298,354,421,374,7
943,-0.2,-0.95,-0.17,-1.83,-6.71,4.82,345,301,355,424,373,7
944,-0.15,-0.96,-0.17,-4.7,-4.09,1.4,348,301,356,418,370,7
945,-0.16,-0.96,-0.17,-2.2,-3.23,-2.01,347,302,356,425,376,7
946,-0.16,-0.96,-0.18,-0.67,-3.05,-2.38,346,301,353,426,375,7
947,-0.18,-0.96,-0.19,11.72,-4.58,-8.24,340,298,354,422,375,7
948,-0.14,-0.96,-0.16,-2.38,-1.28,-4.09,345,294,355,422,404,7
949,-0.15,-0.96,-0.16,-1.04,-2.87,-3.23,344,302,357,419,375,7
950,-0.17,-0.96,-0.15,0.12,-3.36,-1.16,342,298,354,421,373,7
951,-0.18,-0.97,-0.16,0.0,-3.48,-2.08,347,302,358,422,395,7
952,-0.17,-0.96,-0.16,4.03,-4.46,-0.12,347,302,358,422,377,7
953,-0.18,-0.96,-0.15,0.0,-3.48,-2.69,346,298,357,427,386,7
954,-0.18,-0.97,-0.15,1.1,-2.2,-2.5,345,294,353,420,372,7
955,-0.18,-0.97,-0.15,-0.06,-3.17,-2.62,346,291,357,423,378,7
956,-0.18,-0.97,-0.15,0.37,-3.78,-1.77,346,298,356,423,374,7
957,-0.18,-0.96,-0.16,-0.49,-2.99,-2.56,346,298,358,422,378,7
958,-0.18,-0.96,-0.16,0.43,-2.81,-2.75,344,298,358,421,376,7
959,-0.17,-0.96,-0.17,-0.67,-2.69,-3.17,347,301,358,425,376,7
960,-0.17,-0.96,-0.17,-0.31,-2.93,-2.62,347,296,353,422,376,7
961,-0.17,-0.96,-0.16,0.55,-2.87,-2.38,343,300,357,422,371,7
962,-0.17,-0.96,-0.17,0.67,-2.99,-2.56,345,304,356,423,376,7
963,-0.17,-0.96,-0.17,-0.24,-2.75,-2.62,342,299,356,422,376,7
964,-0.17,-0.96,-0.17,-0.24,-2.32,-3.23,346,297,355,423,379,7
965,-0.16,-0.96,-0.17,-0.06,-2.87,-2.5,345,302,354,422,377,7
966,-0.16,-0.97,-0.16,1.28,-3.11,-2.01,345,304,358,419,373,7
967,-0.17,-0.96,-0.16,1.22,-3.78,-1.59,344,298,357,423,375,7
968,-0.18,-0.96,-0.15,1.04,-3.72,-1.89,345,294,357,425,372,7
969,-0.18,-0.96,-0.16,0.31,-2.93,-2.69,342,302,357,422,376,7
970,-0.17,-0.96,-0.15,-0.85,-2.62,-2.75,347,301,353,419,378,7
971,-0.17,-0.96,-0.15,0.0,-2.87,-2.75,344,296,357,424,374,7
972,-0.17,-0.96,-0.16,0.49,-3.23,-2.38,349,299,359,423,377,7
973,-0.17,-0.96,-0.16,0.49,-2.75,-2.75,344,300,359,426,377,7
974,-0.17,-0.96,-0.16,0.55,-2.69,-2.5,343,298,355,422,377,7
975,-0.17,-0.97,-0.16,0.06,-2.75,-2.44,343,303,354,421,375,7
976,-0.17,-0.96,-0.17,-0.37,-2.62,-2.44,345,301,354,421,377,7
977,-0.17,-0.97,-0.17,0.55,-2.87,-2.38,352,294,357,422,375,7
978,-0.17,-0.97,-0.16,0.55,-3.05,-2.5,345,303,355,422,376,7
979,-0.16,-0.96,-0.17,-0.18,-2.56,-2.62,343,299,358,420,377,7
980,-0.17,-0.96,-0.17,0.06,-3.11,-2.32,345,299,373,425,377,7
981,-0.17,-0.96,-0.17,-0.37,-2.62,-2.5,342,301,356,421,375,7
982,-0.17,-0.96,-0.17,0.12,-2.69,-2.56,345,303,356,423,375,7
983,-0.17,-0.96,-0.17,1.04,-3.05,-2.69,346,302,355,422,367,7
984,-0.16,-0.96,-0.17,0.37,-2.62,-2.62,345,299,358,422,377,7
985,-0.17,-0.97,-0.17,0.49,-3.05,-1.95,344,293,359,423,378,7
986,-0.17,-0.96,-0.17,-0.43,-2.75,-2.81,344,295,356,422,376,7
987,-0.17,-0.96,-0.17,0.24,-3.05,-2.56,346,295,356,419,375,7
988,-0.17,-0.96,-0.16,1.04,-3.17,-2.81,345,302,357,423,376,7
989,-0.16,-0.96,-0.17,0.49,-3.05,-2.44,346,302,355,423,373,7
990,-0.17,-0.97,-0.17,1.28,-2.93,-1.77,349,296,357,423,377,7
991,-0.18,-0.96,-0.16,-0.67,-2.69,-2.56,346,309,361,427,376,7
992,-0.17,-0.96,-0.16,0.0,-2.69,-2.93,344,298,361,423,379,7
993,-0.17,-0.97,-0.15,0.79,-2.99,-2.93,346,301,357,419,376,7
994,-0.17,-0.96,-0.16,1.1,-3.91,-2.01,350,300,357,424,378,7
995,-0.16,-0.97,-0.15,-0.37,-4.09,-0.18,347,300,361,423,377,7
996,-0.17,-0.96,-0.17,0.18,-2.75,-2.2,344,304,359,422,374,7
997,-0.16,-0.96,-0.15,0.79,-2.87,-2.14,347,301,361,426,375,7
998,-0.18,-0.97,-0.16,0.31,-3.11,-2.32,346,296,360,423,376,7
999,-0.17,-0.97,-0.15,0.67,-2.87,-2.69,345,304,359,426,375,7
1000,-0.17,-0.97,-0.15,-0.55,-3.11,-2.2,344,305,359,425,375,7
1001,-0.18,-0.97,-0.15,0.37,-2.99,-2.44,347,304,360,423,369,7
1002,-0.17,-0.97,-0.15,0.37,-2.81,-2.81,346,302,366,439,373,7
1003,-0.17,-0.97,-0.16,0.24,-2.99,-2.2,347,295,361,419,371,7
1004,-0.17,-0.97,-0.16,0.55,-2.69,-2.62,344,300,359,424,384,7
1005,-0.17,-0.96,-0.15,0.18,-2.99,-2.5,346,300,359,426,378,7
1006,-0.17,-0.96,-0.16,-0.12,-2.99,-2.26,345,306,362,426,376,7
1007,-0.17,-0.97,-0.16,0.0,-2.99,-2.44,345,299,358,424,373,7
1008,-0.17,-0.97,0.15,0.73,-4.03,-2.14,349,318,269,429,464,7
1009,-0.17,-0.97,0.15,0.85,-2.87,-3.05,348,318,269,432,462,7
1010,-0.17,-0.97,0.15,1.34,-2.62,-2.01,345,318,266,433,463,7
1011,-0.17,-0.97,0.15,1.89,-2.38,-2.62,349,321,266,432,482,7
1012,-0.17,-0.97,0.15,-0.61,-2.99,-1.65,351,318,267,431,460,7
1013,-0.18,-0.97,0.15,-0.79,-2.01,-2.14,351,315,273,430,463,7
1014,-0.17,-0.97,0.16,0.12,-3.11,-3.48,348,323,271,431,460,7
1015,-0.18,-0.97,0.15,0.85,-3.97,-2.32,349,318,282,431,461,7
1016,-0.17,-0.97,0.15,0.18,-2.69,-3.05,349,318,270,430,458,7
1017,-0.15,-0.97,0.15,1.46,-3.72,-2.99,349,315,272,430,462,7
1018,-0.17,-0.97,0.17,0.85,-3.54,-2.5,349,315,268,431,463,7
1019,-0.17,-0.97,0.16,0.06,-3.42,-2.56,350,318,271,429,458,7
1020,-0.15,-0.96,0.17,0.92,-4.76,-2.44,350,320,269,430,459,7
1021,-0.17,-0.97,0.17,-0.73,-3.48,-2.87,348,324,273,427,458,7
1022,-0.17,-0.97,0.17,-0.24,-3.6,-2.08,349,326,269,427,461,7
1023,-0.17,-0.97,0.17,-0.67,-2.87,-3.05,350,325,269,427,456,7
1024,-0.16,-0.97,0.15,0.0,-2.99,-2.93,352,325,269,426,473,7
1025,-0.17,-0.96,0.17,-1.65,-0.31,-2.87,349,321,269,429,497,7
1026,-0.17,-0.99,0.16,-4.7,-0.31,-2.56,351,324,272,425,459,7
1027,-0.17,-0.97,0.16,-0.18,-2.14,-2.01,350,323,272,426,455,7
1028,-0.18,-0.97,0.14,-1.83,-0.43,-3.17,351,323,270,426,463,7
1029,-0.17,-0.97,0.12,-1.89,-0.67,-2.75,349,325,271,424,459,7
1030,-0.19,-0.98,0.18,-1.46,-9.28,-3.11,346,327,276,425,453,7
1031,-0.15,-0.97,0.09,4.58,-4.39,-2.69,348,323,272,420,455,7
1032,-0.14,-0.97,0.15,1.65,-1.59,-2.75,351,318,271,419,454,7
1033,-0.14,-0.98,0.14,0.55,-3.6,-2.38,352,324,273,426,455,7
1034,-0.15,-0.97,0.16,1.59,-3.42,-1.65,345,324,272,426,455,7
1035,-0.15,-0.98,0.16,-1.46,-4.03,-3.3,351,321,274,419,452,7
1036,-0.14,-0.98,0.17,1.71,-3.78,-2.99,348,323,277,422,453,7
1037,-0.13,-0.97,0.16,0.37,-2.87,-2.32,349,321,274,423,457,7
1038,-0.15,-0.97,0.15,-0.31,-2.62,-2.87,347,327,274,423,458,7
1039,-0.13,-0.97,0.13,-0.43,-2.26,-1.59,349,325,271,422,459,7
1040,-0.13,-0.98,0.17,-4.33,-1.53,-0.98,347,324,273,425,458,7
1041,-0.15,-0.97,0.07,-12.7,1.53,-6.77,343,326,270,421,456,7
1042,-0.1,-0.99,0.06,-4.64,-10.31,1.53,344,329,276,419,457,7
1043,-0.15,-0.98,-0.0,-0.67,-7.87,9.64,344,328,274,414,453,7
1044,-0.15,-0.97,0.03,0.31,-22.09,-4.15,350,325,274,418,465,7
1045,-0.13,-0.98,0.1,4.46,-7.69,-3.78,350,322,274,415,453,7
1046,-0.15,-0.98,0.13,3.97,-4.88,-5.19,348,325,286,418,458,7
1047,-0.14,-0.98,0.16,1.4,-1.71,-3.6,349,321,274,415,451,7
1048,-0.14,-0.97,0.1,1.34,-5.31,-3.72,349,326,270,419,450,7
1049,-0.14,-0.97,0.11,-3.97,-0.43,-2.75,350,332,273,417,453,7
1050,-0.13,-0.98,0.14,-0.43,3.36,-5.55,348,327,275,421,450,7
1051,-0.16,-0.99,0.1,-0.49,-2.44,1.89,352,329,274,418,444,7
1052,-0.15,-0.98,0.11,1.34,-2.38,2.81,347,326,271,416,452,7
1053,-0.12,-0.98,0.09,6.1,-7.63,-2.5,349,328,272,416,451,7
1054,-0.15,-0.98,0.1,0.0,-4.64,-2.08,351,322,273,416,453,7
1055,-0.15,-0.98,0.1,2.44,-2.5,-3.11,349,331,273,413,452,7
1056,-0.15,-0.98,0.09,1.71,-1.53,-2.38,346,328,278,416,454,7
1057,-0.15,-0.98,0.1,1.4,-3.6,-2.2,348,325,274,422,450,7
1058,-0.16,-0.98,0.11,0.73,-2.08,-1.77,344,327,277,418,451,7
1059,-0.14,-0.98,0.09,-1.28,-7.81,0.31,346,333,272,414,450,7
1060,-0.16,-0.98,0.1,-0.49,-3.97,-2.01,347,328,275,417,449,7
1061,-0.16,-0.98,0.11,0.79,-3.72,-2.62,348,329,275,416,450,7
1062,-0.15,-0.98,0.1,1.77,-4.09,-1.83,344,326,276,415,450,7
1063,-0.17,-0.98,0.11,1.53,-2.81,-1.65,343,328,273,415,452,7
1064,-0.16,-0.98,0.11,-0.85,-2.44,-2.99,346,323,276,414,444,7
1065,-0.15,-0.98,0.1,0.18,-3.17,-2.75,347,327,273,415,448,7
1066,-0.14,-0.97,0.1,-0.85,5.37,-3.72,344,333,272,418,449,7
1067,-0.17,-0.98,0.03,-2.87,-7.81,-5.31,349,327,272,415,444,7
1068,-0.12,-0.98,0.08,-8.48,5.55,2.2,347,327,280,416,443,7
1069,-0.1,-0.99,0.06,-5.0,-5.37,-2.62,347,330,274,417,434,7
1070,-0.13,-0.99,0.04,-0.12,-2.01,-4.33,346,323,276,413,441,7
1071,-0.13,-0.99,0.03,1.77,1.04,-4.46,346,332,275,415,444,7
1072,-0.13,-0.99,0.04,3.3,-0.37,-0.37,349,332,273,411,443,7
1073,-0.13,-0.98,0.09,5.25,-2.62,-2.69,348,328,275,415,441,7
1074,-0.13,-0.98,0.09,0.55,-2.56,-2.69,345,328,275,414,439,7
1075,-0.14,-0.98,0.08,-0.73,-3.48,-2.01,345,330,276,415,437,7
1076,-0.14,-0.98,0.05,1.16,-2.62,-1.89,346,331,276,414,443,7
1077,-0.15,-0.98,0.08,0.73,-3.6,-2.14,346,328,273,411,443,7
1078,-0.14,-0.99,0.09,-0.18,-2.62,-2.44,348,328,273,411,439,7
1079,-0.14,-0.98,0.08,1.95,-3.66,-2.62,347,325,274,413,437,7
1080,-0.14,-0.98,0.1,0.61,-3.23,-2.14,346,328,271,413,440,7
1081,-0.14,-0.99,0.09,-0.85,-3.6,-2.99,345,329,272,410,443,7
1082,-0.13,-0.99,0.1,0.24,-3.3,-2.69,346,330,274,411,442,7
1083,-0.13,-0.98,0.07,0.24,-3.17,-1.4,347,330,273,409,439,7
1084,-0.13,-0.98,0.07,-0.24,-3.48,-2.44,348,335,273,410,443,7
1085,-0.14,-0.98,0.07,-1.16,-2.69,-2.2,347,329,275,414,441,7
1086,-0.14,-0.98,0.08,0.92,-4.03,-2.56,344,327,275,411,442,7
1087,-0.14,-0.98,0.06,1.77,-2.08,-2.32,348,337,273,414,441,7
1088,-0.13,-0.98,0.07,1.34,-3.85,-2.93,348,330,271,413,437,7
1089,-0.14,-0.98,0.08,1.95,-2.44,-2.69,344,328,274,410,441,7
1090,-0.13,-0.98,0.09,1.4,-3.66,-2.56,345,332,273,408,442,7
1091,-0.14,-0.98,0.09,0.0,-3.3,-2.56,348,331,273,413,440,7
1092,-0.14,-0.98,0.08,1.34,-3.78,-3.05,346,338,277,411,442,7
1093,-0.14,-0.98,0.08,1.77,-3.11,-2.2,348,330,280,410,439,7
1094,-0.14,-0.98,0.09,1.04,-3.42,-2.38,344,334,270,411,443,7
1095,-0.14,-0.98,0.1,0.24,-3.42,-2.62,344,336,271,411,443,7
1096,-0.15,-0.98,0.1,-0.37,-3.66,-2.08,346,335,272,410,442,7
1097,-0.13,-0.98,0.09,0.12,-3.48,-2.99,346,332,272,411,448,7
1098,-0.15,-0.98,0.1,-0.12,-3.23,-2.99,349,343,273,410,441,7
1099,-0.14,-0.98,0.1,0.55,-3.17,-2.2,346,335,271,411,440,7
1100,-0.14,-0.98,0.11,0.49,-2.69,-2.99,348,326,276,412,441,7
1101,-0.15,-0.98,0.11,1.22,-3.54,-1.83,346,333,273,410,434,7
1102,-0.14,-0.98,0.09,0.49,-2.81,-2.99,346,332,276,409,440,7
1103,-0.15,-0.98,0.12,0.18,-3.23,-1.4,348,332,274,410,438,7
1104,-0.15,-0.98,0.11,1.53,-3.11,-2.26,346,331,271,406,468,7
1105,-0.15,-0.97,0.09,0.61,-2.75,-3.05,345,327,278,410,437,7
1106,-0.14,-0.98,0.1,0.67,-3.23,-2.44,349,335,272,412,439,7
1107,-0.14,-0.98,0.11,0.79,-2.38,-2.87,347,331,276,409,437,7
1108,-0.13,-0.99,0.13,0.37,-2.87,-2.08,346,332,269,407,437,7
1109,-0.14,-0.98,0.1,0.55,-3.17,-2.62,349,336,271,409,439,7
1110,-0.14,-0.98,0.13,2.01,-3.54,-2.01,345,332,273,411,440,7
1111,-0.14,-0.98,0.12,-0.24,-2.01,-2.75,345,332,271,410,437,7
1112,-0.15,-0.98,0.11,0.85,-1.4,-2.5,347,334,273,409,438,7
1113,-0.15,-0.98,0.11,0.98,-3.97,-2.2,350,330,272,412,439,7
1114,-0.15,-0.98,0.11,-0.37,-2.87,-2.69,343,331,272,408,438,7
1115,-0.15,-0.98,0.11,-0.24,-3.23,-3.05,350,332,272,408,438,7
1116,-0.13,-0.98,0.11,1.89,-3.23,-2.44,344,332,273,411,438,7
1117,-0.15,-0.98,0.12,1.95,-2.93,-1.04,345,335,276,411,434,7
1118,-0.15,-0.98,0.13,1.46,-2.99,-2.14,347,336,273,407,439,7
1119,-0.15,-0.98,0.11,-1.1,-3.05,-2.26,346,337,274,409,438,7
1120,-0.15,-0.98,0.11,-1.4,-2.62,-2.69,348,333,272,409,438,7
1121,-0.16,-0.98,0.13,-2.87,-1.53,-4.27,347,337,271,407,436,7
1122,-0.14,-0.98,0.12,1.4,-2.38,-3.05,349,334,276,412,436,7
1123,-0.13,-0.98,0.17,3.48,-4.27,-1.4,346,329,273,406,437,7
1124,-0.14,-0.98,0.13,-1.16,-1.65,-3.05,354,331,274,413,437,7
1125,-0.15,-0.97,0.15,1.89,-0.79,-3.66,343,336,268,407,427,7
1126,-0.14,-0.98,0.13,0.92,-2.75,-2.01,346,334,271,410,437,7
1127,-0.13,-0.98,0.13,4.15,-4.58,-1.65,348,336,271,411,438,7
1128,-0.14,-0.98,0.14,-1.71,-3.6,-2.14,346,341,268,409,436,7
1129,-0.14,-0.98,0.14,0.37,-2.14,-3.72,346,337,271,409,440,7
1130,-0.16,-0.98,0.11,-0.73,-0.12,-5.19,346,337,267,413,436,7
1131,-0.11,-0.98,0.11,0.73,-2.08,-2.26,346,336,269,405,435,7
1132,-0.1,-1.0,0.06,-6.35,0.31,-1.1,347,339,269,408,437,7
1133,-0.11,-0.97,0.05,-8.91,1.16,-4.76,344,335,269,403,437,7
1134,-0.14,-0.99,0.05,4.82,-3.78,-2.62,340,335,272,403,430,7
1135,-0.15,-0.98,0.08,0.24,-1.53,-1.34,345,336,274,404,427,7
1136,-0.15,-0.98,0.05,-2.32,-1.89,-3.6,344,331,272,405,428,7
1137,-0.14,-0.98,0.05,1.89,-2.99,-3.17,344,335,272,405,431,7
1138,-0.14,-0.98,0.05,1.77,-3.36,-1.59,345,340,272,406,433,7
1139,-0.15,-0.98,0.07,0.12,-3.91,-1.22,344,332,275,402,432,7
1140,-0.15,-0.98,0.09,2.99,-3.72,-3.23,344,346,270,400,431,7
1141,-0.16,-0.98,0.09,-0.79,-1.4,-1.95,344,336,274,403,433,7
1142,-0.16,-0.98,0.08,-1.28,-2.87,-2.5,343,332,268,404,430,7
1143,-0.15,-0.98,0.09,1.53,-2.08,-2.32,345,339,273,405,432,7
1144,-0.16,-0.98,0.07,-0.06,-3.42,-3.05,346,337,274,403,429,7
1145,-0.15,-0.98,0.08,0.31,-2.99,-3.11,343,337,272,400,431,7
1146,-0.15,-0.98,0.09,0.67,-3.6,-2.87,343,340,271,404,437,7
1147,-0.14,-0.98,0.08,1.53,-3.3,-2.26,339,340,270,409,432,7
1148,-0.17,-0.98,0.09,0.73,-2.93,-2.99,344,332,272,407,432,7
1149,-0.17,-0.98,0.08,1.89,-3.6,-3.3,344,340,269,404,431,7
1150,-0.17,-0.98,0.09,0.79,-3.11,-1.77,344,336,278,404,431,7
1151,-0.16,-0.98,0.08,0.98,-1.16,-3.72,342,337,272,406,432,7
1152,-0.16,-0.98,0.08,-0.49,-3.48,-2.44,343,336,271,403,432,7
1153,-0.17,-0.98,0.1,1.83,-2.81,-2.38,341,339,274,409,428,7
1154,-0.16,-0.98,0.12,-1.16,-4.27,-2.26,346,336,277,404,430,7
1155,-0.16,-0.98,0.11,-0.18,-3.23,-2.93,343,336,270,405,433,7
1156,-0.17,-0.98,0.1,0.49,-2.26,-1.83,345,336,274,404,429,7
1157,-0.16,-0.98,0.12,0.92,-3.42,-1.59,340,334,276,408,431,7
1158,-0.14,-0.97,0.07,0.61,-4.52,-4.03,343,341,271,405,427,7
1159,-0.17,-0.97,0.1,-0.24,-1.22,-1.83,340,337,270,401,433,7
1160,-0.17,-0.98,0.1,0.31,-3.72,-2.87,341,339,272,406,431,7
1161,-0.17,-0.98,0.11,-0.06,-3.66,-1.89,344,332,277,407,430,7
1162,-0.17,-0.98,0.1,0.31,-3.42,-2.38,339,341,270,406,430,7
1163,-0.18,-0.98,0.1,0.18,-3.85,-2.69,342,332,274,403,438,7
1164,-0.16,-0.98,0.11,0.49,-2.93,-1.83,343,339,272,403,427,7
1165,-0.16,-0.98,0.12,0.24,-2.75,-2.62,344,338,274,406,430,7
1166,-0.17,-0.97,0.11,0.12,-2.44,-2.81,340,342,269,403,427,7
1167,-0.17,-0.97,0.11,-1.34,-1.16,-3.72,343,340,272,405,428,7
1168,-0.17,-0.98,0.12,0.67,-3.97,-2.99,341,337,275,403,426,7
1169,-0.18,-0.98,0.12,0.12,-3.72,-2.99,344,338,270,408,429,7
1170,-0.18,-0.97,0.11,2.75,-6.23,-2.2,345,339,273,404,432,7
1171,-0.16,-0.98,0.1,0.24,-1.83,-2.56,346,337,273,404,429,7
1172,-0.18,-0.98,0.11,0.37,-2.75,-2.44,343,336,275,403,432,7
1173,-0.16,-0.98,0.12,0.18,-2.26,-1.77,346,335,279,403,429,7
1174,-0.15,-0.97,0.1,-0.61,-1.28,-2.87,347,336,274,404,443,7
1175,-0.16,-0.97,0.11,0.73,-2.62,-2.26,343,333,270,404,428,7
1176,-0.18,-0.97,0.12,0.73,-3.78,-2.01,338,338,270,405,428,7
1177,-0.18,-0.97,0.12,0.0,-2.56,-2.99,343,339,271,404,426,7
1178,-0.18,-0.97,0.11,-0.92,-2.75,-2.75,342,341,272,402,437,7
1179,-0.17,-0.97,0.12,0.92,-2.75,-2.5,345,337,275,404,430,7
1180,-0.16,-0.98,0.14,-0.24,-2.56,-3.42,341,332,274,403,429,7
1181,-0.17,-0.97,0.13,1.22,-2.99,-2.2,344,332,276,405,430,7
1182,-0.16,-0.97,0.13,0.31,-2.32,-2.87,346,338,275,404,424,7
1183,-0.15,-0.98,0.14,4.15,-4.03,-1.65,344,340,267,405,428,7
1184,-0.16,-0.97,0.13,1.34,-3.66,-2.08,343,340,269,406,428,7
1185,-0.17,-0.98,0.16,2.81,-2.62,-1.71,344,337,271,404,426,7
1186,-0.17,-0.97,0.14,-0.79,-3.36,-2.87,340,338,275,404,441,7
1187,-0.18,-0.97,0.14,-0.18,-3.3,-2.08,341,341,270,403,429,7
1188,-0.16,-0.97,0.15,0.43,-1.4,-2.32,341,341,272,400,429,7
1189,-0.18,-0.97,0.15,-0.67,-2.01,-2.93,338,332,270,399,429,7
1190,-0.17,-0.97,0.14,-0.31,-1.28,-3.05,340,339,269,404,428,7
1191,-0.17,-0.97,0.13,1.1,-2.69,-2.38,337,333,275,404,430,7
1192,-0.16,-0.97,0.12,1.89,-3.42,-1.83,339,340,275,402,429,7
1193,-0.17,-0.97,0.13,0.18,-3.11,-2.69,334,338,270,407,430,7
1194,-0.15,-0.98,0.14,0.85,-1.34,-2.2,325,335,274,404,430,7
1195,-0.17,-0.97,0.14,-0.61,-2.81,-2.56,332,344,274,400,428,7
1196,-0.16,-0.97,0.13,-1.16,-0.92,-2.44,330,337,272,400,429,7
1197,-0.16,-0.97,0.11,-1.53,-2.26,-2.93,330,333,274,397,427,7
1198,-0.16,-0.97,0.13,1.53,-3.05,-2.81,330,334,276,405,428,7
1199,-0.15,-0.97,0.14,-0.55,-3.17,-2.93,330,333,276,401,424,7
1200,-0.15,-0.97,0.13,-1.59,-1.95,-2.99,330,337,271,403,429,7
1201,-0.16,-0.98,0.14,0.12,-2.75,-2.14,331,333,271,401,424,7
1202,-0.17,-0.97,0.13,2.08,-2.32,-2.14,333,335,270,401,428,7
1203,-0.2,-0.97,0.13,-2.32,13.0,1.59,328,338,271,401,427,7
1204,-0.18,-0.98,0.12,-8.0,-9.16,-3.66,331,337,278,403,426,7
1205,-0.14,-0.96,-0.06,-9.09,-3.85,-3.91,335,337,312,410,397,7
1206,-0.11,-1.0,-0.09,-13.43,3.72,-6.29,333,337,316,415,398,7
1207,-0.17,-0.95,-0.07,6.53,-0.79,-1.95,339,333,308,416,419,7
1208,-0.17,-0.97,-0.09,3.48,-2.2,-1.77,333,328,326,431,432,7
1209,-0.17,-0.97,-0.07,1.16,-2.93,-0.73,333,329,323,431,433,7
1210,-0.19,-0.96,-0.06,3.97,-1.53,-2.93,336,332,318,426,433,7
1211,-0.17,-0.98,-0.04,0.43,-2.81,-2.99,335,332,307,426,435,7
1212,-0.19,-0.99,-0.04,-1.71,-1.16,-1.22,340,328,282,422,427,7
1213,-0.2,-0.98,-0.03,1.65,-5.68,-2.38,338,331,292,422,431,7
1214,-0.18,-0.97,-0.05,-0.31,-4.27,-3.36,337,328,304,423,432,7
1215,-0.18,-0.97,-0.05,0.92,-2.44,-2.87,341,334,301,422,433,7
1216,-0.18,-0.98,-0.03,-0.06,-6.9,-2.99,341,332,298,419,433,7
1217,-0.18,-0.98,-0.04,0.31,-3.91,-2.99,340,328,298,423,434,7
1218,-0.18,-0.97,-0.05,1.22,-3.97,-2.26,338,338,295,422,433,7
1219,-0.18,-0.98,-0.04,1.16,-3.66,-2.38,342,333,294,420,431,7
1220,-0.18,-0.98,-0.05,-0.31,-2.38,-2.99,342,332,297,421,434,7
1221,-0.2,-0.98,-0.05,-1.04,-4.82,-4.76,342,336,297,419,432,7
1222,-0.16,-0.99,-0.01,-3.72,-3.42,-2.87,337,332,296,419,429,7
1223,-0.14,-0.98,-0.09,-4.39,-4.27,-4.39,340,333,297,421,446,7
1224,-0.15,-0.98,-0.1,2.62,-3.6,-2.99,340,339,295,418,430,7
1225,-0.14,-0.98,-0.07,2.38,-4.09,-3.3,343,330,299,421,427,7
1226,-0.15,-0.98,-0.07,-1.04,-1.22,-3.23,343,332,299,421,432,7
1227,-0.15,-0.98,-0.07,1.16,-1.22,-1.16,337,338,295,422,427,7
1228,-0.14,-0.98,-0.08,5.19,-4.58,-2.81,342,336,303,422,430,7
1229,-0.18,-0.99,-0.02,3.05,-1.46,-5.68,340,336,285,417,425,7
1230,-0.15,-0.97,-0.09,5.43,-1.53,-1.77,340,338,294,415,433,7
1231,-0.16,-0.99,-0.06,3.72,-3.11,-0.55,336,337,294,419,429,7
1232,-0.15,-0.97,-0.08,-0.98,-3.97,-4.39,341,338,288,417,428,7
1233,-0.16,-0.98,-0.06,1.53,-6.41,1.1,342,330,287,416,429,7
1234,-0.16,-0.98,-0.03,-9.7,-10.31,-2.32,340,329,288,413,469,7
1235,-0.18,-0.98,-0.11,0.49,-11.9,-0.79,341,336,282,420,429,7
1236,-0.18,-0.97,-0.13,5.19,-8.54,0.06,344,333,285,414,430,7
1237,-0.21,-0.98,-0.08,3.05,-3.6,-0.06,342,334,288,416,427,7
1238,-0.23,-0.96,-0.13,0.79,2.44,-0.73,342,334,287,415,426,7
1239,-0.21,-0.97,-0.08,2.81,-2.99,-2.93,333,339,286,421,432,7
1240,-0.22,-0.97,-0.06,1.59,-1.71,0.49,338,339,286,423,441,7
1241,-0.21,-0.97,-0.05,1.65,-2.08,-4.03,343,335,301,413,426,7
1242,-0.19,-0.97,-0.09,0.79,-1.34,-3.05,340,339,287,412,427,7
1243,-0.2,-0.97,-0.07,2.44,-3.05,-2.32,340,336,286,418,423,7
1244,-0.2,-0.98,-0.06,3.36,-1.4,-1.34,342,336,286,420,423,7
1245,-0.19,-0.97,-0.08,-1.16,-2.08,-2.44,342,339,287,415,423,7
1246,-0.2,-0.97,-0.08,-0.12,-0.92,-2.2,341,335,289,415,422,7
1247,-0.2,-0.97,-0.08,1.28,-3.42,-1.59,338,332,288,418,426,7
1248,-0.21,-0.97,-0.06,1.16,-3.54,-2.44,342,336,285,418,424,7
1249,-0.2,-0.97,-0.07,-0.43,-2.75,-2.93,342,336,288,415,424,7
1250,-0.19,-0.97,-0.07,1.04,-2.99,-2.87,342,332,295,416,423,7
1251,-0.17,-0.98,-0.07,-1.22,-1.53,-1.4,342,340,290,418,429,7
1252,-0.17,-0.98,-0.06,-3.91,-9.7,-3.3,343,337,288,413,423,7
1253,-0.16,-0.97,-0.09,-3.3,-41.63,-15.99,342,336,287,417,426,7
1254,-0.17,-0.99,-0.07,4.64,-5.25,-4.82,344,337,283,413,423,7
1255,-0.18,-0.97,-0.09,-2.69,-2.62,-2.38,343,336,287,416,427,7
1256,-0.17,-0.97,-0.11,-0.49,-1.22,-2.32,342,339,287,414,421,7
1257,-0.16,-0.97,-0.13,15.56,-3.78,-1.83,340,331,299,413,423,7
1258,-0.18,-0.97,-0.11,-2.08,-2.62,-3.3,339,340,285,412,422,7
1259,-0.18,-0.98,-0.08,0.06,1.22,-5.37,341,338,284,420,423,7
1260,-0.13,-0.98,-0.11,0.85,-2.14,-2.08,344,336,285,413,422,7
1261,-0.16,-0.97,-0.12,0.98,-4.39,-2.5,339,336,285,409,421,7
1262,-0.16,-0.97,-0.12,0.67,-2.08,-1.65,340,335,281,414,419,7
1263,-0.16,-0.97,-0.11,1.22,-4.03,-1.71,343,336,284,411,424,7
1264,-0.17,-0.97,-0.11,0.61,-3.85,-2.75,343,339,282,414,424,7
1265,-0.15,-0.98,-0.1,3.97,-4.52,-2.14,340,342,287,411,420,7
1266,-0.17,-0.97,-0.11,0.79,-3.72,-2.44,343,340,299,413,421,7
1267,-0.15,-0.97,-0.11,1.04,-1.77,-2.69,343,334,283,409,424,7
1268,-0.17,-0.97,-0.09,3.91,-2.75,-6.29,340,336,283,410,421,7
1269,-0.15,-0.97,-0.12,-2.5,-1.89,-3.66,342,331,283,416,422,7
1270,-0.14,-0.98,-0.12,-1.71,-1.65,-2.87,343,337,284,409,419,7
1271,-0.15,-0.98,-0.11,2.62,-2.99,-2.2,340,341,285,423,424,7
1272,-0.15,-0.97,-0.11,0.92,-3.11,-2.75,341,337,286,410,421,7
1273,-0.15,-0.98,-0.11,0.55,-3.6,-2.38,344,340,294,407,424,7
1274,-0.16,-0.98,-0.11,2.14,-4.7,-2.38,340,337,286,410,422,7
1275,-0.14,-0.98,-0.1,0.61,-3.36,-3.05,342,332,282,410,422,7
1276,-0.16,-0.98,-0.09,2.62,-2.99,-3.11,343,337,284,413,422,7
1277,-0.15,-0.98,-0.1,-0.49,-2.32,-2.26,338,338,284,409,420,7
1278,-0.17,-0.97,-0.09,1.77,-3.42,-2.62,341,340,286,409,460,7
1279,-0.16,-0.98,-0.07,-1.34,-3.85,-2.32,341,337,284,408,422,7
1280,-0.16,-0.98,-0.08,0.61,-2.81,-2.75,341,342,287,411,422,7
1281,-0.17,-0.98,-0.07,0.12,-2.44,-2.56,340,343,283,409,425,7
1282,-0.16,-0.98,-0.07,1.59,-2.08,-3.11,343,342,287,410,422,7
1283,-0.17,-0.98,-0.08,0.06,-3.23,-2.01,340,334,286,409,423,7
1284,-0.16,-0.98,-0.08,0.12,-2.93,-3.17,341,341,286,410,420,7
1285,-0.17,-0.98,-0.08,-0.61,-3.23,-3.17,338,342,285,412,423,7
1286,-0.15,-0.98,-0.07,-1.77,0.18,-2.44,339,337,287,408,430,7
1287,-0.16,-0.97,-0.1,0.06,-2.56,-2.14,343,339,287,411,423,7
1288,-0.21,-0.98,-0.09,2.87,26.67,9.4,341,337,282,409,421,7
1289,-0.13,-0.96,-0.17,-3.91,0.49,-7.93,341,340,284,408,423,7
1290,-0.17,-0.97,-0.17,-5.98,-2.56,-4.7,342,338,288,408,463,7
1291,-0.08,-0.97,-0.18,-5.62,-11.47,-2.75,340,339,285,409,425,7
1292,-0.13,-0.98,-0.16,3.72,4.46,1.34,344,342,286,405,423,7
1293,-0.15,-0.98,-0.13,1.77,-2.08,-1.04,343,334,285,409,422,7
1294,-0.13,-0.96,-0.22,-4.94,-4.52,-10.93,344,336,288,410,423,7
1295,-0.23,-0.95,-0.23,6.16,3.42,-1.16,344,342,283,409,418,7
1296,-0.18,-0.96,-0.18,4.03,-1.59,0.24,343,339,286,408,423,7
1297,-0.17,-0.97,-0.17,-1.46,-2.38,-2.75,342,339,285,407,425,7
1298,-0.17,-0.96,-0.17,0.92,-1.89,-3.23,344,335,287,406,422,7
1299,-0.16,-0.96,-0.19,-2.62,-4.39,-1.46,342,342,286,407,422,7
1300,-0.17,-0.96,-0.2,0.85,-3.36,-1.53,338,339,288,408,421,7
1301,-0.17,-0.96,-0.19,1.59,-3.72,-2.01,341,343,288,409,422,7
1302,-0.16,-0.96,-0.19,0.06,-3.3,-4.09,344,343,286,408,421,7
1303,-0.16,-0.96,-0.19,-0.43,-2.81,-3.36,342,343,288,408,420,7
1304,-0.15,-0.96,-0.19,0.18,-3.11,-2.01,344,342,289,408,422,7
1305,-0.17,-0.96,-0.18,-0.12,-2.81,-2.08,342,343,285,409,425,7
1306,-0.17,-0.96,-0.18,-1.16,-2.56,-2.14,342,339,288,409,427,7
1307,-0.17,-0.96,-0.19,1.22,-2.32,-2.14,338,339,286,412,422,7
1308,-0.18,-0.96,-0.19,0.43,-1.59,-2.93,343,339,285,414,422,7
1309,-0.17,-0.96,-0.18,1.46,-1.46,-1.71,344,339,288,411,421,7
1310,-0.19,-0.96,-0.16,0.49,-4.21,-1.04,343,339,289,408,424,7
1311,-0.18,-0.96,-0.17,-1.28,-2.32,-3.3,342,340,285,409,422,7
1312,-0.19,-0.96,-0.19,-1.46,-3.05,-1.77,342,336,290,408,425,7
1313,-0.18,-0.96,-0.16,-0.06,-0.79,-1.77,342,343,283,408,423,7
1314,-0.18,-0.96,-0.16,-0.73,-3.11,-2.32,342,343,289,409,425,7
1315,-0.19,-0.96,-0.17,-0.79,-2.38,-3.48,344,345,289,409,419,7
1316,-0.18,-0.96,-0.17,-1.65,-2.01,-3.48,343,339,287,406,422,7
1317,-0.19,-0.96,-0.18,1.04,-2.87,-2.44,342,345,287,410,426,7
1318,-0.19,-0.96,-0.18,0.31,-3.23,-2.56,341,339,286,410,454,7
1319,-0.19,-0.96,-0.17,0.49,-3.48,-2.44,343,342,286,404,444,7
1320,-0.19,-0.96,-0.18,0.92,-3.48,-3.36,340,339,285,407,421,7
1321,-0.18,-0.96,-0.17,0.67,-3.05,-2.99,342,346,284,411,423,7
1322,-0.17,-0.96,-0.18,-0.43,-1.89,-2.01,343,340,290,424,422,7
1323,-0.2,-0.96,-0.18,1.46,-3.42,-1.46,343,343,286,410,422,7
1324,-0.19,-0.96,-0.18,0.73,-3.11,-2.2,330,343,286,406,421,7
1325,-0.19,-0.96,-0.17,-0.98,-2.99,-2.99,343,338,288,409,430,7
1326,-0.19,-0.96,-0.18,0.31,-2.87,-2.2,343,339,286,409,419,7
1327,-0.19,-0.96,-0.16,0.85,-2.87,-2.62,342,338,286,413,423,7
1328,-0.19,-0.96,-0.17,0.37,-3.05,-3.36,341,335,299,406,424,7
1329,-0.19,-0.96,-0.16,0.49,-2.93,-1.95,343,339,285,408,422,7
1330,-0.19,-0.96,-0.17,0.31,-3.85,-1.53,340,337,284,404,422,7
1331,-0.19,-0.96,-0.17,-0.92,-3.05,-3.05,343,342,290,414,421,7
1332,-0.2,-0.96,-0.17,0.0,-2.87,-1.77,340,343,287,404,422,7
1333,-0.2,-0.96,-0.16,-0.06,-2.5,-2.5,343,338,290,408,424,7
1334,-0.2,-0.96,-0.16,0.12,-3.54,-2.32,341,342,287,407,420,7
1335,-0.19,-0.96,-0.16,-0.06,-3.17,-2.81,343,341,292,404,422,7
1336,-0.19,-0.96,-0.17,0.85,-3.3,-2.87,342,355,285,405,423,7
1337,-0.2,-0.96,-0.17,1.04,-2.5,-1.95,341,349,287,410,424,7
1338,-0.19,-0.96,-0.16,-0.55,-2.44,-2.32,342,345,286,409,421,7
1339,-0.2,-0.96,-0.16,0.43,-2.81,-2.14,340,342,287,405,423,7
1340,-0.21,-0.95,-0.17,0.06,-2.62,-2.5,346,340,286,408,419,7
1341,-0.2,-0.96,-0.17,-0.12,-2.08,-2.56,348,340,283,408,422,7
1342,-0.2,-0.96,-0.17,0.43,-3.05,-2.75,342,340,284,407,423,7
1343,-0.2,-0.96,-0.17,0.0,-2.5,-3.05,343,340,284,407,419,7
1344,-0.2,-0.96,-0.17,1.1,-3.91,-2.62,344,343,285,407,419,7
1345,-0.2,-0.96,-0.16,-0.12,-2.93,-1.89,346,340,288,411,425,7
1346,-0.2,-0.96,-0.16,0.24,-3.48,-2.2,344,340,285,408,422,7
1347,-0.2,-0.96,-0.16,0.49,-2.87,-2.5,343,340,285,409,423,7
1348,-0.2,-0.96,-0.17,0.24,-2.87,-2.81,339,341,287,407,424,7
1349,-0.21,-0.96,-0.17,0.85,-3.54,-2.69,340,351,289,408,421,7
1350,-0.21,-0.96,-0.16,1.46,-3.17,-2.5,343,344,286,409,421,7
1351,-0.2,-0.96,-0.16,1.16,-3.48,-2.38,348,336,287,408,421,7
1352,-0.2,-0.96,-0.16,-0.37,-2.56,-2.38,345,341,290,409,422,7
1353,-0.21,-0.96,-0.16,0.12,-3.05,-2.38,345,339,286,406,423,7
1354,-0.21,-0.96,-0.15,-0.55,-3.17,-2.5,345,337,289,407,422,7
1355,-0.21,-0.95,-0.17,0.31,-3.3,-2.44,344,341,287,407,425,7
1356,-0.2,-0.96,-0.16,0.43,-3.23,-2.2,337,361,289,406,419,7
1357,-0.21,-0.96,-0.16,-0.18,-3.05,-3.17,344,345,284,408,422,7
1358,-0.21,-0.96,-0.16,1.4,-3.17,-2.87,343,342,290,406,424,7
1359,-0.2,-0.96,-0.15,0.12,-1.83,-3.23,346,341,289,405,420,7
1360,-0.21,-0.96,-0.16,0.31,-3.6,-1.59,339,342,287,405,418,7
1361,-0.21,-0.96,-0.16,0.06,-2.44,-2.44,339,341,289,403,423,7
1362,-0.2,-0.95,-0.17,-0.06,-2.56,-2.32,346,341,289,407,421,7
1363,-0.21,-0.96,-0.17,0.61,-3.23,-2.08,342,344,287,409,422,7
1364,-0.21,-0.96,-0.16,-0.67,-1.46,-3.17,342,341,289,406,423,7
1365,-0.21,-0.96,-0.18,1.89,0.85,-3.6,349,339,289,407,422,7
1366,-0.24,-0.98,-0.11,8.18,-21.79,-4.46,343,343,286,405,419,7
1367,-0.23,-0.96,-0.08,-10.01,2.38,1.59,338,339,280,405,422,7
1368,-0.21,-0.96,-0.14,0.0,-2.5,-0.85,342,337,285,415,420,7
1369,-0.2,-0.96,-0.13,1.65,-3.78,-1.4,342,341,281,412,419,7
1370,-0.19,-0.96,-0.12,-4.39,-2.14,-4.33,342,340,284,410,422,7
1371,-0.21,-0.97,-0.11,2.2,-1.28,-2.62,346,344,283,410,422,7
1372,-0.2,-0.97,-0.13,1.04,-2.38,-1.53,344,341,286,410,433,7
1373,-0.21,-0.96,-0.13,3.48,-2.5,-5.68,340,341,288,409,423,7
1374,-0.21,-0.97,-0.13,0.49,-0.73,-3.78,346,344,285,409,422,7
1375,-0.13,-0.98,-0.11,2.32,-2.56,-4.03,352,345,286,409,422,7
1376,-0.16,-0.97,-0.14,-2.32,9.58,-15.87,348,341,286,411,422,7
1377,-0.03,-0.99,-0.11,4.52,0.31,1.95,344,337,286,407,421,7
1378,-0.08,-0.98,-0.1,3.85,0.92,-2.14,343,343,288,409,422,7
1379,-0.09,-0.98,-0.15,-6.77,-7.39,-2.81,339,338,279,403,424,7
1380,-0.08,-1.0,-0.09,-5.37,-5.62,-1.22,339,341,290,401,423,7
1381,-0.1,-0.99,-0.1,-0.55,1.1,-1.4,334,345,277,401,422,7
1382,-0.1,-0.98,-0.12,0.61,-3.97,-1.65,328,341,275,399,418,7
1383,-0.11,-0.98,-0.11,-0.61,-2.44,-2.01,327,337,276,407,421,7
1384,-0.11,-0.99,-0.1,1.28,-2.44,-2.26,327,339,274,398,419,7
1385,-0.09,-0.98,-0.11,0.55,-4.21,-2.75,329,333,277,399,421,7
1386,-0.1,-0.98,-0.12,-1.59,-2.93,-2.01,331,336,278,398,422,7
1387,-0.1,-0.97,-0.13,1.71,-5.55,-1.65,337,341,277,401,419,7
1388,-0.12,-0.97,-0.13,2.44,-5.86,-1.89,336,342,296,414,418,7
1389,-0.12,-0.98,-0.12,0.31,-3.91,-1.83,339,337,291,412,459,7
1390,-0.13,-0.98,-0.13,2.32,-3.78,-2.44,337,338,277,405,414,7
1391,-0.14,-0.97,-0.15,9.64,-3.6,-1.59,341,341,279,409,419,7
1392,-0.14,-0.97,-0.12,-0.98,-2.44,-2.87,342,338,286,408,426,7
1393,-0.14,-0.98,-0.11,-15.38,-4.46,-2.81,337,340,286,407,420,7
1394,-0.13,-0.98,-0.1,2.81,5.31,-0.67,339,335,281,404,421,7
1395,-0.13,-0.97,-0.11,-3.48,-3.17,-2.87,340,342,280,406,418,7
1396,-0.14,-0.99,-0.05,4.88,-6.35,-9.4,342,337,286,405,419,7
1397,-0.07,-0.97,-0.15,8.3,-0.12,-6.41,339,334,285,405,416,7
1398,0.01,-0.98,-0.07,-5.43,-13.12,-27.34,341,341,283,408,417,7
1399,0.11,-1.01,0.03,10.44,-7.39,-5.8,343,345,285,407,419,7
1400,0.06,-0.99,-0.03,0.31,-10.99,5.43,339,341,285,406,419,7
1401,-0.04,-0.99,-0.03,-5.13,-7.14,0.37,343,340,286,406,415,7
1402,-0.03,-1.0,-0.03,1.16,-4.94,1.83,342,344,284,405,418,7
1403,-0.02,-0.99,-0.05,-2.99,-6.96,-4.27,340,339,280,408,418,7
1404,-0.06,-0.99,-0.08,-1.53,-3.42,1.95,340,335,280,402,424,7
1405,-0.06,-0.99,-0.09,-7.87,-2.26,-4.82,340,342,283,405,441,7
1406,-0.1,-1.0,-0.07,3.05,-4.27,1.1,344,340,284,405,422,7
1407,-0.1,-0.99,-0.08,2.2,-2.44,0.92,339,343,284,404,416,7
1408,-0.1,-0.99,-0.09,-5.86,-1.77,-4.64,344,345,284,403,419,7
1409,-0.09,-0.98,-0.09,-0.73,-2.32,-3.36,342,346,283,403,417,7
1410,-0.11,-0.98,-0.12,-0.55,-2.93,-1.59,342,343,282,406,420,7
1411,-0.09,-0.99,-0.12,-1.4,-2.69,-2.2,342,341,285,406,419,7
1412,-0.08,-0.99,-0.12,0.85,-3.48,-1.71,342,342,284,406,421,7
1413,-0.07,-0.98,-0.12,-1.46,-3.85,-0.31,342,345,283,406,418,7
1414,-0.08,-0.98,-0.13,-3.66,-3.05,-2.38,344,340,278,402,417,7
1415,-0.08,-0.98,-0.12,-0.12,-3.54,-4.15,343,345,284,401,419,7
1416,-0.1,-0.98,-0.12,-0.37,-2.56,-2.5,342,343,284,409,421,7
1417,-0.1,-0.98,-0.14,0.24,-3.85,-1.77,341,343,281,406,420,7
1418,-0.09,-0.98,-0.13,0.12,-2.75,-2.81,346,338,284,407,417,7
1419,-0.09,-0.98,-0.13,-0.06,-3.42,-3.05,343,338,282,406,418,7
1420,-0.11,-0.98,-0.11,0.49,-3.05,-3.36,344,339,284,413,414,7
1421,-0.11,-0.99,-0.11,1.22,-2.62,-2.44,344,343,286,406,419,7
1422,-0.12,-0.98,-0.14,-1.59,-3.91,-0.67,345,343,284,407,416,7
1423,-0.11,-0.98,-0.13,0.85,-2.38,-4.46,340,339,283,401,420,7
1424,-0.1,-0.98,-0.12,0.43,-3.36,-3.17,346,341,283,405,418,7
1425,-0.11,-0.98,-0.12,2.2,-4.15,-2.08,346,339,286,401,418,7
1426,-0.1,-0.98,-0.13,1.77,-3.3,-1.16,343,343,284,406,417,7
1427,-0.11,-0.97,-0.14,-0.43,-3.3,-1.59,354,343,284,404,414,7
1428,-0.11,-0.98,-0.13,-0.49,-3.36,-1.34,340,343,286,404,418,7
1429,-0.11,-0.98,-0.13,-0.79,-3.66,-2.75,344,338,287,405,418,7
1430,-0.12,-0.98,-0.13,1.65,-2.2,-2.87,344,344,284,406,421,7
1431,-0.13,-0.97,-0.14,-0.24,-4.21,-2.26,348,347,291,405,419,7
1432,-0.12,-0.98,-0.15,-1.1,-3.05,-2.56,346,353,296,400,417,7
1433,-0.11,-0.98,-0.15,-0.06,-3.36,-2.2,344,340,301,406,417,7
1434,-0.12,-0.97,-0.19,1.83,-4.76,-1.46,344,344,300,403,420,7
1435,-0.12,-0.97,-0.17,4.39,-5.13,-2.75,344,343,299,405,417,7
1436,-0.12,-0.97,-0.17,-1.16,-2.99,-3.17,344,347,303,409,416,7
1437,-0.12,-0.97,-0.18,-1.22,-3.91,-2.08,341,347,299,408,425,7
1438,-0.12,-0.97,-0.18,-1.04,-2.99,-2.62,343,344,302,404,413,7
1439,-0.11,-0.98,-0.17,1.16,-3.97,-0.85,344,341,294,404,414,7
1440,-0.11,-0.97,-0.18,-0.12,-1.83,-3.11,350,349,297,407,428,7
1441,-0.12,-0.96,-0.18,-0.85,-2.81,-3.05,343,345,294,408,416,7
1442,-0.12,-0.96,-0.18,0.37,-1.83,-3.05,344,346,297,410,415,7
1443,-0.12,-0.97,-0.18,0.85,-3.17,-2.62,344,347,293,407,437,7
1444,-0.12,-0.97,-0.18,-1.28,-2.99,-2.01,345,349,299,406,417,7
1445,-0.13,-0.97,-0.17,-1.59,-2.75,-2.5,344,356,295,411,416,7
1446,-0.13,-0.97,-0.18,1.34,-2.01,-1.4,345,349,297,410,419,7
1447,-0.12,-0.97,-0.19,-0.18,-3.11,-1.46,347,345,296,404,417,7
1448,-0.12,-0.96,-0.2,0.73,-3.78,-1.83,348,345,295,404,418,7
1449,-0.13,-0.97,-0.19,0.37,-2.44,-3.78,341,342,295,410,419,7
1450,-0.11,-0.97,-0.19,0.92,-2.75,-2.38,346,347,295,406,416,7
1451,-0.12,-0.97,-0.18,-0.06,-3.72,-2.56,341,349,294,408,416,7
1452,-0.11,-0.97,-0.18,0.92,-2.5,-2.62,346,343,297,407,419,7
1453,-0.13,-0.97,-0.18,1.22,-2.99,-1.77,342,346,298,407,444,7
1454,-0.12,-0.97,-0.19,0.06,-2.99,-2.56,344,344,294,404,416,7
1455,-0.12,-0.97,-0.18,0.0,-3.66,-2.75,341,349,291,408,413,7
1456,-0.13,-0.97,-0.19,0.79,-3.05,-2.99,348,348,297,406,417,7
1457,-0.12,-0.97,-0.18,-0.37,-3.54,-2.32,346,345,296,405,418,7
1458,-0.13,-0.96,-0.2,0.49,-3.66,-2.5,345,348,295,406,414,7
1459,-0.12,-0.97,-0.19,0.92,-3.05,-3.11,345,348,294,408,417,7
1460,-0.12,-0.97,-0.19,0.24,-2.99,-2.69,347,347,300,406,416,7
1461,-0.11,-0.97,-0.19,0.61,-3.11,-2.56,345,341,296,404,418,7
1462,-0.12,-0.97,-0.19,0.12,-3.17,-2.44,342,344,295,403,414,7
1463,-0.12,-0.97,-0.18,-1.65,-4.03,-1.46,343,346,298,406,417,7
1464,-0.11,-0.97,-0.19,1.22,-2.26,-1.04,346,345,294,402,416,7
1465,-0.12,-0.97,-0.19,-1.04,-2.87,-1.83,345,356,294,407,417,7
1466,-0.13,-0.97,-0.19,0.31,-3.17,-2.38,347,345,295,406,417,7
1467,-0.13,-0.97,-0.19,-1.16,-3.36,-2.56,345,349,297,404,417,7
1468,-0.13,-0.96,-0.2,-0.49,-3.6,-3.11,345,349,305,407,417,7
1469,-0.13,-0.96,-0.19,0.92,-2.99,-2.32,346,348,298,407,415,7
1470,-0.12,-0.97,-0.19,1.22,-3.42,-1.46,344,351,294,406,417,7
1471,-0.12,-0.97,-0.19,1.28,-2.5,-2.56,346,340,296,406,420,7
1472,-0.12,-0.97,-0.2,-0.79,-2.69,-2.56,346,345,294,406,416,7
1473,-0.13,-0.97,-0.19,0.06,-2.26,-2.08,346,346,298,406,419,7
1474,-0.12,-0.96,-0.2,-0.06,-3.48,-2.26,348,347,292,406,412,7
1475,-0.13,-0.97,-0.18,-0.24,-2.69,-1.95,347,349,296,405,416,7
1476,-0.12,-0.96,-0.19,1.04,-3.3,-2.69,342,346,300,407,417,7
1477,-0.09,-0.96,-0.19,-0.24,-1.28,-2.2,347,348,302,409,419,7
1478,-0.12,-0.97,-0.19,-1.65,-2.5,-2.08,348,348,303,408,416,7
1479,-0.12,-0.96,-0.2,-1.34,-3.66,-2.81,347,346,299,412,417,7
1480,-0.12,-0.96,-0.19,0.92,-3.6,-2.2,348,345,301,410,413,7
1481,-0.13,-0.96,-0.19,2.93,-2.75,-1.83,347,349,301,408,420,7
1482,-0.13,-0.97,-0.19,-1.16,-2.87,-2.69,346,352,301,408,417,7
1483,-0.12,-0.97,-0.19,0.73,-3.05,-2.93,346,343,302,411,417,7
1484,-0.12,-0.97,-0.18,-0.18,-2.81,-2.01,344,344,297,409,417,7
1485,-0.12,-0.97,-0.19,0.12,-2.32,-1.95,347,346,301,407,416,7
1486,-0.11,-0.97,-0.19,1.59,-2.38,-2.99,346,348,300,409,413,7
1487,-0.12,-0.97,-0.18,-1.1,-2.69,-0.98,348,351,302,411,418,7
1488,-0.13,-0.97,-0.19,0.06,-2.75,-2.38,353,349,300,411,423,7
1489,-0.12,-0.97,-0.19,0.0,-3.36,-2.32,347,348,298,411,416,7
1490,-0.13,-0.97,-0.19,-0.43,-2.75,-2.87,348,347,300,409,417,7
1491,-0.12,-0.97,-0.19,0.31,-3.48,-2.5,347,347,297,408,417,7
1492,-0.12,-0.97,-0.19,-0.31,-3.97,-2.14,348,346,301,409,417,7
1493,-0.13,-0.97,-0.19,-1.4,-3.05,-2.44,349,351,299,412,421,7
1494,-0.12,-0.97,-0.2,0.73,-3.05,-2.38,351,343,298,410,414,7
1495,-0.12,-0.96,-0.19,0.12,-2.99,-2.2,350,352,299,411,417,7
1496,-0.14,-0.96,-0.2,-0.79,-3.85,-2.26,350,345,298,409,423,7
1497,-0.12,-0.96,-0.19,-0.12,-2.81,-2.56,351,346,303,405,418,7
1498,-0.14,-0.96,-0.2,-0.55,-3.11,-2.87,346,344,302,407,418,7
1499,-0.12,-0.97,-0.19,0.12,-2.62,-2.2,354,347,298,409,416,7
1500,-0.13,-0.96,-0.2,0.0,-2.14,-2.14,349,344,301,408,413,7
1501,-0.13,-0.96,-0.2,0.67,-3.6,-2.75,349,346,302,406,416,7
1502,-0.13,-0.96,-0.2,0.55,-3.05,-2.44,351,345,297,409,417,7
1503,-0.12,-0.97,-0.2,0.12,-2.62,-2.5,351,346,302,408,417,7
1504,-0.13,-0.96,-0.2,0.0,-3.17,-2.44,348,348,298,407,418,7
1505,-0.13,-0.97,-0.2,-0.61,-2.26,-2.01,349,347,297,408,414,7
1506,-0.13,-0.96,-0.2,0.12,-3.05,-2.93,345,351,298,405,417,7
1507,-0.13,-0.96,-0.2,0.43,-2.56,-2.26,350,350,297,408,417,7
1508,-0.12,-0.96,-0.19,0.12,-3.17,-1.83,347,343,304,405,416,7
1509,-0.2,-0.98,0.08,7.32,1.59,-4.82,456,490,404,364,388,7
1510,-0.21,-0.97,0.13,2.44,-0.67,-0.18,462,486,394,355,400,7
1511,-0.22,-0.99,0.2,-7.08,7.26,-5.25,457,486,325,353,391,7
1512,-0.25,-0.96,0.14,-1.77,-4.58,-0.67,460,481,411,369,401,7
1513,-0.32,-0.99,0.17,4.7,5.8,4.15,461,479,418,368,401,7
1514,-0.32,-0.96,0.08,-8.54,-0.06,1.53,457,487,423,367,405,7
1515,-0.34,-0.92,0.06,-6.23,-3.42,1.34,456,486,423,370,402,7
1516,-0.28,-0.94,0.08,-7.08,-8.48,-6.41,456,486,426,371,406,7
1517,-0.32,-0.98,0.12,-2.99,-2.26,-4.39,454,485,424,371,404,7
1518,-0.21,-1.0,0.01,9.03,-14.04,-6.71,455,487,419,375,401,7
1519,-0.26,-0.98,0.16,5.19,-14.28,-5.55,450,485,408,340,366,7
1520,-0.25,-0.95,0.16,2.5,-1.95,-8.91,451,487,390,302,314,7
1521,-0.23,-0.96,0.16,7.69,-0.85,-2.87,455,488,413,304,314,7
1522,-0.27,-0.93,0.07,-14.71,-4.39,-5.07,455,492,398,310,310,7
1523,-0.22,-0.95,0.13,15.01,-4.52,-5.13,458,485,414,308,320,7
1524,-0.24,-0.95,0.1,-0.67,-2.14,-1.16,457,490,422,295,309,7
1525,-0.28,-0.98,0.04,-3.23,-1.77,-7.87,460,489,413,332,337,7
1526,-0.27,-0.99,0.08,-10.68,10.19,-7.45,457,489,406,358,393,7
1527,-0.17,-0.97,-0.01,-14.28,-9.03,-5.74,456,491,411,364,399,7
1528,-0.22,-0.97,-0.01,0.61,-7.08,-2.14,454,484,407,365,400,7
1529,-0.22,-0.97,0.04,5.98,-4.7,-3.05,456,492,405,371,406,7
1530,-0.18,-1.19,0.04,6.77,-6.35,-12.57,453,487,406,369,402,7
1531,-0.19,-0.99,0.11,20.63,8.67,2.56,454,485,392,371,402,7
1532,-0.15,-0.99,0.04,6.41,-10.38,-0.43,454,486,383,368,402,7
1533,-0.15,-0.99,0.07,3.23,0.55,-3.85,452,489,382,370,402,7
1534,-0.13,-0.99,0.08,3.23,-3.05,-1.77,454,487,376,362,398,7
1535,-0.1,-0.98,0.09,4.52,3.97,-0.98,453,491,356,354,389,7
1536,-0.13,-1.0,0.14,-4.52,3.85,-5.07,456,487,348,343,356,7
1537,-0.06,-0.93,0.28,19.47,-1.28,-9.09,455,479,274,319,304,7
1538,-0.13,-0.99,0.25,2.14,10.99,-4.27,456,472,262,323,320,7
1539,-0.08,-0.99,0.19,12.02,10.62,1.71,452,463,260,317,312,7
1540,-0.14,-0.95,0.13,11.29,-26.18,21.18,462,485,352,332,329,7
1541,-0.24,-0.92,0.27,7.51,-22.28,16.05,462,480,375,344,342,7
1542,-0.3,-0.9,0.4,-26.49,-20.69,-1.59,464,487,371,339,340,7
1543,-0.0,-1.01,0.01,0.31,19.96,-17.33,441,468,287,345,345,7
1544,-0.04,-0.97,0.12,-14.1,1.4,-5.49,450,475,389,375,372,7
1545,-0.13,-0.99,0.11,14.16,-3.72,0.85,450,481,396,381,377,7
1546,-0.09,-0.98,0.11,10.38,-3.78,-3.36,452,484,388,377,379,7
1547,-0.13,-0.98,0.18,1.34,-2.14,-3.23,447,482,355,371,369,7
1548,-0.13,-0.98,0.16,-2.26,-3.05,-2.56,462,483,370,381,381,7
1549,-0.13,-0.99,0.2,1.1,-4.09,0.12,446,486,375,379,384,7
1550,-0.13,-0.97,0.18,7.32,-6.23,-1.1,450,488,371,379,381,7
1551,-0.15,-0.97,0.21,0.73,-3.97,-2.56,450,487,371,375,377,7
1552,-0.13,-0.97,0.21,1.71,-3.91,-2.56,452,486,368,371,379,7
1553,-0.14,-0.98,0.2,-1.28,-2.93,-3.23,450,482,366,370,381,7
1554,-0.19,-1.01,0.19,-13.37,-11.41,11.17,434,480,403,376,379,7
1555,-0.15,-1.01,0.11,-18.98,-1.28,-2.2,421,475,409,382,379,7
1556,-0.21,-1.0,0.06,5.68,5.8,-11.96,430,480,413,373,380,7
1557,-0.13,-0.92,0.02,-0.37,-0.79,-12.76,434,479,413,379,383,7
1558,-0.1,-0.99,0.06,-4.27,1.71,-0.18,437,485,409,381,365,7
1559,-0.06,-0.97,0.01,1.83,-1.53,-5.55,437,486,403,342,333,7
1560,-0.07,-0.99,0.01,0.12,-7.02,-1.71,443,485,406,345,347,7
1561,-0.09,-0.99,0.03,-2.5,-6.65,-0.98,445,485,406,346,349,7
1562,-0.08,-0.99,0.02,1.53,-2.44,-2.69,446,485,412,350,352,7
1563,-0.08,-0.99,0.01,-3.91,-3.42,-2.62,445,485,404,355,349,7
1564,-0.08,-1.0,-0.0,4.82,-3.11,-1.1,446,488,406,357,356,7
1565,-0.09,-1.0,0.02,-1.59,-2.81,-2.99,445,487,401,359,358,7
1566,-0.08,-1.0,0.01,-3.23,-4.27,-2.5,448,488,403,358,362,7
1567,-0.08,-0.99,-0.01,4.09,-2.26,-2.56,445,488,408,358,361,7
1568,-0.1,-1.0,0.0,19.1,-13.49,-5.8,449,486,401,368,360,7
1569,0.04,-0.95,0.38,19.35,18.49,9.22,448,487,397,357,362,7
1570,-0.23,-0.91,0.4,-4.21,27.89,8.3,447,497,395,362,361,7
1571,-0.32,-0.89,0.11,32.59,26.31,-14.47,440,489,394,360,361,7
1572,-0.46,-0.88,-0.05,-36.19,8.36,12.39,446,486,396,362,365,7
1573,-0.46,-0.92,-0.14,0.98,-0.98,-3.3,449,486,392,361,363,7
1574,-0.39,-0.9,-0.14,-8.61,-6.1,-7.32,446,490,402,366,366,7
1575,-0.39,-0.91,-0.11,-1.22,1.65,0.24,448,488,398,366,367,7
1576,-0.39,-0.92,-0.1,-0.06,-4.15,-7.45,447,488,397,366,366,7
1577,-0.37,-0.9,-0.07,5.68,-4.46,-2.08,460,488,397,361,366,7
1578,-0.37,-0.93,-0.05,-0.55,-37.35,-13.61,454,486,399,361,361,7
1579,-0.37,-0.92,-0.07,3.05,-12.08,-4.82,450,485,395,363,366,7
1580,-0.33,-0.93,0.02,4.33,-25.27,-18.37,448,484,396,362,366,7
1581,-0.13,-1.03,0.0,-0.67,-73.49,-37.66,446,490,397,362,365,7
1582,0.0,-0.95,0.05,-21.3,-11.96,-8.3,450,494,392,368,363,7
1583,-0.03,-0.97,-0.02,-24.54,0.92,4.27,452,487,390,356,364,7
1584,-0.14,-0.96,-0.09,6.47,3.78,-2.62,442,483,398,352,364,7
1585,-0.11,-0.99,-0.06,1.77,-4.64,-1.53,444,488,398,356,368,7
1586,-0.14,-0.98,-0.06,2.2,1.28,-2.44,445,487,395,354,370,7
1587,-0.13,-0.97,-0.06,1.22,-1.46,-3.11,449,487,406,355,376,7
1588,-0.13,-0.99,-0.03,-0.73,-0.43,-2.99,450,487,402,359,375,7
1589,-0.13,-0.98,-0.05,0.37,-10.56,-2.93,448,487,402,354,374,7
1590,-0.13,-1.0,-0.03,2.69,-3.85,-2.99,449,483,402,354,374,7
1591,-0.12,-0.98,-0.05,1.22,-1.59,-2.99,448,487,402,359,376,7
1592,-0.12,-0.99,-0.04,-1.16,-1.22,-3.66,453,486,400,358,374,7
1593,-0.11,-0.98,-0.07,4.88,-2.32,-1.04,447,486,396,353,362,7
1594,-0.12,-0.99,-0.05,0.31,-3.97,-4.15,444,487,394,348,366,7
1595,-0.11,-0.97,-0.08,4.64,-2.44,-1.77,449,487,394,347,366,7
1596,-0.11,-1.0,-0.04,-0.24,-1.65,-2.87,447,488,394,356,364,7
1597,-0.11,-0.99,-0.04,-0.06,0.31,-1.89,446,488,390,359,368,7
1598,-0.14,-0.97,-0.05,2.14,-7.51,-1.4,450,484,390,361,373,7
1599,-0.11,-0.99,-0.03,9.09,-3.3,-3.6,441,487,392,354,367,7
1600,-0.11,-0.98,-0.02,3.48,3.3,-1.83,447,487,394,352,369,7
1601,-0.12,-0.99,-0.0,0.98,-3.48,-2.75,450,487,390,361,368,7
1602,-0.1,-0.99,-0.0,2.01,-6.41,-2.93,447,491,386,356,371,7
1603,-0.11,-0.98,0.0,1.34,-3.85,-2.44,446,491,388,355,370,7
1604,-0.09,-0.98,-0.0,2.44,-13.49,-3.72,450,485,389,361,370,7
1605,-0.11,-0.99,0.01,0.67,-1.34,-4.15,448,487,387,357,372,7
1606,-0.1,-0.99,0.02,0.67,-2.75,-3.05,447,485,389,357,370,7
1607,-0.12,-1.01,0.02,-2.99,-5.13,-0.73,443,487,394,362,374,7
1608,-0.11,-0.99,-0.01,-2.87,-4.52,-0.49,435,485,403,357,370,7
1609,-0.16,-1.01,0.04,-8.85,-8.12,0.24,427,482,413,366,378,7
1610,-0.13,-0.95,-0.05,-3.36,-2.38,-4.33,429,485,413,370,379,7
1611,-0.17,-0.99,-0.03,4.64,-0.37,-0.98,438,488,415,378,379,7
1612,-0.1,-0.96,-0.0,25.33,-6.84,-3.05,462,489,420,380,383,7
1613,-0.22,-0.98,0.09,-10.62,4.03,9.4,457,488,422,376,381,7
1614,-0.22,-0.99,-0.06,4.33,-8.3,13.67,449,485,424,375,381,7
1615,-0.29,-1.01,0.02,-7.2,16.11,-11.47,446,484,417,370,361,7
1616,-0.22,-0.91,-0.14,6.23,-0.37,-2.32,448,483,421,369,370,7
1617,-0.22,-0.98,-0.03,-14.04,-7.14,-2.2,451,489,425,371,365,7
1618,-0.22,-0.95,-0.05,9.4,-8.36,-3.05,446,490,421,359,355,7
1619,-0.15,-0.96,-0.06,3.91,-4.15,-10.01,451,489,418,345,340,7
1620,-0.21,-0.97,0.01,-1.04,2.75,-3.78,450,489,413,333,324,7
1621,-0.19,-0.96,-0.05,4.33,-5.55,-0.49,451,491,415,337,328,7
1622,-0.19,-0.97,-0.04,1.83,-5.68,-2.75,453,486,411,348,333,7
1623,-0.18,-0.99,-0.03,-2.62,-2.5,-0.12,450,490,412,348,345,7
1624,-0.2,-0.99,0.0,-3.42,0.92,-5.62,439,492,414,365,365,7
1625,-0.2,-0.99,-0.02,-0.24,-6.23,-3.72,444,489,425,364,366,7
1626,-0.19,-0.98,-0.04,3.11,-4.94,-2.56,443,489,423,366,363,7
1627,-0.2,-0.96,-0.06,1.46,-3.54,-1.28,443,489,421,365,370,7
1628,-0.19,-0.96,-0.05,1.95,-2.69,-2.81,447,489,424,364,367,7
1629,-0.2,-0.98,-0.01,-1.1,-0.06,-2.44,445,491,417,370,367,7
1630,-0.22,-0.98,-0.02,-1.4,-2.26,-2.93,444,493,417,365,365,7
1631,-0.21,-0.98,-0.03,0.61,-1.77,-2.5,446,491,416,368,367,7
1632,-0.2,-0.97,-0.04,0.67,-2.75,-2.62,445,490,419,362,368,7
1633,-0.21,-0.97,-0.03,-1.28,-2.93,-2.99,447,489,415,369,370,7
1634,-0.2,-0.99,-0.03,1.71,-3.36,-2.32,446,493,423,367,366,7
1635,-0.2,-0.97,-0.04,0.73,-3.23,-2.38,444,491,420,370,365,7
1636,-0.2,-0.97,-0.02,-0.79,-3.11,-3.11,444,490,417,370,374,7
1637,-0.2,-0.97,-0.04,-1.4,-3.11,-4.52,446,491,420,367,366,7
1638,-0.2,-0.98,-0.04,2.69,-2.44,-3.54,446,492,417,371,370,7
1639,-0.19,-0.98,-0.04,-2.87,-2.26,-3.05,444,492,418,367,370,7
1640,-0.19,-0.98,-0.04,0.12,-3.48,-2.56,446,491,422,371,369,7
1641,-0.19,-0.97,-0.04,1.34,-3.05,-4.21,444,490,417,368,370,7
1642,-0.18,-0.96,-0.07,3.54,-5.37,-0.73,442,492,418,367,371,7
1643,-0.2,-0.98,-0.03,-1.46,-2.26,-2.75,443,488,419,366,369,7
1644,-0.2,-0.97,-0.04,-0.18,-3.72,-2.5,444,490,423,371,369,7
1645,-0.2,-0.98,-0.02,-0.55,-1.71,-2.69,446,489,423,371,369,7
1646,-0.2,-0.99,-0.02,1.65,-2.81,-1.46,465,486,421,368,368,7
1647,-0.17,-0.97,-0.03,0.92,-3.54,-2.81,444,497,418,371,365,7
1648,-0.2,-0.97,-0.03,0.61,-3.17,-2.44,435,505,420,367,370,7
1649,-0.19,-0.98,-0.03,1.34,-2.14,-2.99,438,490,417,365,365,7
1650,-0.19,-0.98,-0.02,-0.43,-3.42,-2.56,445,490,417,371,369,7
1651,-0.18,-0.97,-0.04,1.89,-2.69,-2.44,440,485,421,370,371,7
1652,-0.19,-0.98,-0.02,0.43,-2.14,-2.32,446,490,423,370,372,7
1653,-0.18,-0.97,-0.05,0.67,-0.55,-3.42,440,488,421,368,365,7
1654,-0.18,-0.98,-0.06,1.77,-5.31,-3.48,444,491,418,367,368,7
1655,-0.19,-0.98,-0.04,1.04,-3.72,-1.77,446,485,416,366,368,7
1656,-0.19,-0.97,-0.02,0.37,-3.66,-1.1,442,489,415,365,370,7
1657,-0.19,-0.98,-0.03,0.12,-3.42,-2.62,445,484,420,369,368,7
1658,-0.18,-0.98,-0.03,1.22,-3.17,-3.3,443,491,417,367,367,7
1659,-0.18,-0.98,-0.03,-0.12,-3.48,-2.93,440,490,417,367,373,7
1660,-0.18,-0.98,-0.03,0.31,-2.81,-3.42,442,490,414,368,370,7
1661,-0.17,-0.98,-0.03,0.06,-2.56,-3.36,445,491,419,368,368,7
1662,-0.18,-0.97,-0.04,-0.61,-2.87,-2.62,436,492,410,372,369,7
1663,-0.19,-0.98,-0.03,-0.55,-4.03,-3.3,447,486,417,379,370,7
1664,-0.17,-0.97,-0.05,-0.92,-2.5,-2.75,443,486,421,371,368,7
1665,-0.17,-0.96,-0.05,-0.12,-3.36,-2.56,441,489,422,372,367,7
1666,-0.19,-0.98,-0.03,-0.92,-1.71,-2.38,442,492,420,367,370,7
1667,-0.17,-0.98,-0.04,0.18,-3.48,-1.95,483,492,423,371,370,7
1668,-0.17,-0.97,-0.04,0.43,-2.01,-1.89,447,492,420,371,368,7
1669,-0.19,-0.98,-0.04,1.16,-3.17,-2.62,445,487,418,364,369,7
1670,-0.19,-0.97,-0.04,-0.18,-2.62,-3.78,444,491,419,367,367,7
1671,-0.19,-0.98,-0.03,0.73,-0.61,-2.87,439,489,419,365,366,7
1672,-0.19,-0.99,-0.02,0.0,-2.38,-2.93,444,489,412,369,365,7
1673,-0.18,-0.98,-0.05,-0.67,-3.36,-2.87,443,491,416,368,367,7
1674,-0.18,-0.98,-0.03,-0.31,-3.17,-2.62,441,488,416,367,368,7
1675,-0.18,-0.99,-0.03,1.46,-4.21,-2.44,446,490,414,370,369,7
1676,-0.18,-0.98,-0.03,-0.31,-2.38,-2.62,445,488,416,370,367,7
1677,-0.18,-0.98,-0.03,-0.18,-3.3,-2.75,444,488,418,370,368,7
1678,-0.19,-0.97,-0.04,0.55,-2.75,-1.95,433,491,414,370,367,7
1679,-0.19,-0.98,-0.03,0.73,-3.05,-2.87,443,488,413,367,366,7
1680,-0.19,-0.98,-0.03,0.55,-1.71,-3.23,445,489,418,371,368,7
1681,-0.19,-0.98,-0.04,0.73,-2.93,-3.05,446,488,417,367,365,7
1682,-0.18,-0.97,-0.05,0.67,-3.11,-4.03,444,490,414,370,366,7
1683,-0.19,-0.98,-0.04,0.98,-2.99,-2.56,446,486,414,370,369,7
1684,-0.18,-0.97,-0.04,0.92,-2.14,-2.62,441,491,408,367,368,7
1685,-0.18,-0.98,-0.05,0.18,-2.87,-2.75,444,486,416,368,368,7
1686,-0.19,-0.98,-0.05,0.55,-3.54,-1.95,444,485,409,362,358,7
1687,-0.17,-0.98,-0.05,1.04,-2.62,-3.05,469,492,406,365,366,7
1688,-0.19,-0.98,-0.06,0.31,-3.05,-2.5,444,491,404,367,367,7
1689,-0.19,-0.98,-0.05,2.32,-1.04,-2.44,444,488,411,373,368,7
1690,-0.19,-0.97,-0.05,-0.92,-2.56,-1.83,446,489,406,373,367,7
1691,-0.2,-0.98,-0.04,0.79,-1.65,-2.99,447,488,410,367,366,7
1692,-0.19,-0.99,-0.04,2.44,-4.15,-3.6,443,490,410,379,367,7
1693,-0.19,-0.97,-0.05,-0.31,-2.69,-2.87,445,488,405,365,367,7
1694,-0.19,-0.98,-0.05,1.95,-4.15,-2.93,446,491,414,363,369,7
1695,-0.19,-0.99,-0.04,1.34,-3.11,-2.69,443,492,410,373,370,7
1696,-0.18,-0.98,-0.05,0.67,-3.3,-2.75,442,490,408,368,367,7
1697,-0.18,-0.98,-0.05,-0.12,-4.09,-2.14,441,487,407,370,367,7
1698,-0.2,-0.98,-0.05,-0.98,-4.15,-1.4,444,491,406,373,364,7
1699,-0.19,-0.98,-0.05,-0.12,-2.5,-3.3,440,488,407,374,369,7
1700,-0.2,-0.97,-0.06,-1.1,-3.6,-2.32,451,486,407,368,367,7
1701,-0.2,-0.97,-0.04,0.79,-2.2,-3.3,444,489,407,369,363,7
1702,-0.19,-0.98,-0.05,1.22,-2.5,-2.81,443,488,409,372,367,7
1703,-0.19,-0.97,-0.06,0.31,-3.6,-3.17,443,486,407,369,363,7
1704,-0.2,-0.98,-0.06,0.31,-1.71,-2.14,448,488,410,366,365,7
1705,-0.19,-0.98,-0.04,-0.12,-4.27,-1.77,484,486,403,371,367,7
1706,-0.2,-0.98,-0.04,2.26,-2.81,-2.26,443,488,400,367,366,7
1707,-0.2,-0.98,-0.06,0.73,-2.62,-1.53,444,487,399,370,362,7
1708,-0.2,-0.98,-0.04,0.0,-3.54,-2.62,444,488,397,373,365,7
1709,-0.2,-0.97,-0.05,0.31,-1.95,-3.11,441,487,394,370,361,7
1710,-0.2,-0.97,-0.06,0.12,-2.62,-3.36,445,487,398,365,365,7
1711,-0.19,-0.98,-0.06,0.18,-3.72,-3.48,444,490,393,373,364,7
1712,-0.19,-0.97,-0.05,1.34,-3.72,-2.32,444,485,395,371,364,7
1713,-0.19,-0.98,-0.06,1.16,-3.17,-2.14,442,488,399,372,363,7
1714,-0.18,-0.97,-0.06,0.37,-3.54,-2.99,444,491,400,362,364,7
1715,-0.19,-0.97,-0.05,-0.85,-2.69,-2.99,445,491,395,368,363,7
1716,-0.2,-0.98,-0.05,1.04,-2.26,-2.62,446,485,399,369,367,7
1717,-0.21,-0.97,-0.05,0.06,-3.66,-1.65,443,486,381,365,363,7
1718,-0.21,-0.98,-0.04,-0.67,-3.72,-3.3,444,489,410,367,363,7
1719,-0.23,-0.97,-0.07,-3.23,-4.58,-3.91,442,486,415,368,361,7
1720,-0.18,-0.96,-0.08,1.53,-3.72,-1.77,441,488,416,371,361,7
1721,-0.21,-0.97,-0.07,-1.34,-2.01,-3.48,457,486,415,366,364,7
1722,-0.19,-0.98,-0.08,-1.34,-3.36,-3.11,443,495,419,361,364,7
1723,-0.19,-0.97,-0.08,0.18,-3.66,-2.69,437,490,420,368,365,7
1724,-0.2,-0.98,-0.07,1.4,-1.89,-2.56,443,488,412,366,364,7
1725,-0.19,-0.97,-0.09,0.79,-3.11,-1.65,444,489,402,366,363,7
1726,-0.21,-0.96,-0.08,-2.32,-4.76,-2.26,447,485,416,362,364,7
1727,-0.21,-0.97,-0.08,2.2,-3.72,-2.87,446,486,416,371,360,7
1728,-0.21,-0.96,-0.11,-6.23,-1.71,-3.3,449,492,423,367,363,7
1729,-0.2,-0.97,-0.12,1.89,-3.17,-3.05,445,485,418,369,363,7
1730,-0.21,-0.98,-0.09,-0.61,-3.66,-2.99,445,484,419,369,358,7
1731,-0.2,-0.98,-0.09,0.37,-3.42,-2.44,445,487,422,366,359,7
1732,-0.21,-0.99,-0.06,-0.79,-3.17,-3.85,445,490,414,364,359,7
1733,-0.19,-0.97,-0.09,-5.98,-3.66,-4.39,442,489,415,365,358,7
1734,-0.2,-0.97,-0.11,0.18,-2.56,-2.5,444,489,425,369,354,7
1735,-0.19,-0.96,-0.15,5.49,-3.72,-0.79,440,491,424,359,360,7
1736,-0.19,-0.94,-0.19,5.49,-4.76,-0.67,444,487,423,365,358,7
1737,-0.21,-0.98,-0.11,-3.48,-1.89,-2.99,445,486,418,366,362,7
1738,-0.2,-0.94,-0.15,1.1,-2.2,-3.11,443,489,425,365,359,7
1739,-0.2,-0.96,-0.13,-1.22,-3.42,-3.42,444,487,421,361,359,7
1740,-0.21,-0.96,-0.13,-0.31,-4.03,-2.44,473,489,422,359,358,7
1741,-0.12,-0.95,-0.24,7.57,-3.91,7.45,444,485,424,370,357,7
1742,-0.2,-0.97,-0.13,-1.53,-4.27,-3.78,446,489,421,370,360,7
1743,-0.18,-0.95,-0.16,-0.18,-2.5,-2.69,445,488,423,366,361,7
1744,-0.2,-0.96,-0.16,3.72,-3.91,-0.61,443,491,422,368,361,7
1745,-0.21,-0.96,-0.12,1.71,-2.81,-2.2,445,488,421,370,360,7
1746,-0.19,-0.97,-0.16,-1.83,-2.56,-3.05,444,488,423,366,361,7
1747,-0.2,-0.95,-0.16,1.28,-3.48,-2.2,443,485,424,370,361,7
1748,-0.22,-0.97,-0.13,-1.04,-0.43,-3.91,445,488,423,366,362,7
1749,-0.2,-0.96,-0.14,0.98,-2.99,-2.75,450,488,420,369,362,7
1750,-0.2,-0.97,-0.13,-0.12,-2.38,-2.99,444,486,419,365,362,7
1751,-0.21,-0.96,-0.15,0.12,-2.99,-3.23,443,495,423,367,361,7
1752,-0.19,-0.96,-0.14,0.55,-3.05,-2.2,446,487,419,366,364,7
1753,-0.21,-0.98,-0.12,-2.2,-1.95,-3.66,443,488,422,365,362,7
1754,-0.2,-0.95,-0.15,0.43,-2.62,-1.59,446,491,424,366,364,7
1755,-0.2,-0.97,-0.15,2.93,-3.3,-1.59,446,492,422,367,360,7
1756,-0.22,-0.96,-0.1,3.72,-4.64,-2.01,441,484,424,361,359,7
1757,-0.22,-0.96,-0.11,13.31,-6.65,2.62,444,486,422,360,362,7
1758,-0.24,-0.95,-0.02,15.75,-6.23,-1.59,441,492,422,367,365,7
1759,-0.24,-0.96,0.03,2.81,1.28,-3.48,446,488,425,361,365,7
1760,-0.23,-0.96,0.01,0.24,-3.42,-2.93,448,488,423,364,361,7
1761,-0.23,-0.97,0.02,0.0,-2.56,-2.75,445,490,423,365,363,7
1762,-0.23,-0.97,0.02,-1.16,-2.62,-2.5,446,492,424,369,362,7
1763,-0.22,-0.97,0.02,1.95,-3.42,-2.62,445,485,424,370,374,7
1764,-0.24,-0.97,0.02,-1.89,-2.08,-2.75,445,492,423,366,365,7
1765,-0.24,-0.97,0.02,-0.49,-3.17,-2.01,445,491,422,363,365,7
1766,-0.25,-0.97,0.03,2.01,-2.93,-2.01,448,492,422,369,364,7
1767,-0.23,-0.95,0.01,1.04,-1.71,-2.56,445,488,426,368,365,7
1768,-0.24,-0.96,0.02,-1.1,-3.66,-2.26,447,489,425,367,368,7
1769,-0.24,-0.97,0.02,0.12,-3.42,-2.32,446,492,422,362,364,7
1770,-0.25,-0.97,0.04,1.16,-3.66,-2.2,446,492,421,367,366,7
1771,-0.24,-0.96,0.03,0.85,-2.87,-3.17,447,489,433,370,365,7
1772,-0.24,-0.97,0.02,-0.06,-3.23,-2.26,448,490,425,368,361,7
1773,-0.24,-0.96,0.03,-1.4,-2.38,-2.81,448,493,426,364,366,7
1774,-0.24,-0.96,0.02,0.73,-3.23,-2.2,452,492,420,369,367,7
1775,-0.24,-0.97,0.03,1.77,-3.11,-2.38,445,505,425,367,365,7
1776,-0.24,-0.96,0.02,-0.06,-3.66,-2.01,448,492,423,367,368,7
1777,-0.24,-0.96,0.03,0.06,-3.48,-1.89,451,486,422,367,362,7
1778,-0.25,-0.96,0.02,1.46,-2.38,-1.59,446,494,424,368,366,7
1779,-0.25,-0.96,0.02,0.98,-2.75,-2.81,446,490,425,360,367,7
1780,-0.24,-0.97,0.03,1.04,-2.87,-3.72,444,485,424,362,366,7
1781,-0.24,-0.97,0.03,0.37,-3.05,-2.93,444,486,424,361,362,7
1782,-0.24,-0.97,0.03,-0.31,-2.2,-2.75,445,488,424,368,365,7
1783,-0.25,-0.95,0.02,-0.61,-2.75,-6.1,445,489,424,364,366,7
1784,-0.21,-0.96,0.0,-0.12,-4.09,-1.1,445,489,424,362,364,7
1785,-0.23,-0.98,0.01,4.46,-3.78,-2.69,445,492,425,361,366,7
1786,-0.22,-1.02,0.17,6.41,-2.75,-6.71,447,489,419,371,365,7
1787,-0.3,-0.87,0.12,3.72,-5.62,1.83,444,489,418,370,366,7
1788,-0.21,-0.93,0.12,-1.83,-3.11,-0.49,446,489,422,370,365,7
1789,-0.21,-0.95,0.19,1.46,-2.75,-0.67,444,488,425,372,363,7
1790,-0.25,-0.97,0.18,5.68,-2.08,1.22,445,491,422,371,367,7
1791,-0.22,-0.97,0.17,0.49,-6.84,-3.11,445,489,423,362,364,7
1792,-0.21,-0.98,0.16,1.1,-3.54,-3.66,445,495,422,366,367,7
1793,-0.22,-0.94,0.14,0.43,-3.54,-1.34,435,493,420,371,365,7
1794,-0.22,-0.95,0.18,-0.12,-1.53,-0.24,470,492,423,370,368,7
1795,-0.22,-0.95,0.23,6.35,-0.24,-5.37,444,492,422,366,364,7
1796,-0.21,-0.95,0.17,1.04,-3.36,-3.72,444,499,425,371,367,7
1797,-0.23,-0.94,0.18,-0.31,-2.56,-1.77,444,487,421,366,359,7
1798,-0.21,-0.95,0.2,1.95,-3.3,-2.08,445,487,422,366,366,7
1799,-0.21,-0.94,0.19,-0.31,-3.6,-2.44,443,492,421,374,366,7
1800,-0.21,-0.95,0.19,0.24,-3.11,-3.42,447,489,424,369,367,7
1801,-0.22,-0.95,0.21,-1.65,-2.56,-2.32,445,489,419,363,366,7
1802,-0.19,-0.98,0.2,0.49,-5.0,-1.71,442,487,421,368,366,7
1803,-0.24,-0.94,0.23,1.77,-2.69,-2.56,447,492,424,369,365,7
1804,-0.21,-0.96,0.21,0.37,-2.38,-3.48,444,490,432,372,366,7
1805,-0.22,-0.95,0.21,0.24,-3.17,-1.28,445,489,422,364,370,7
1806,-0.21,-0.94,0.2,1.04,-3.36,-1.89,446,489,422,370,369,7
1807,-0.23,-0.95,0.2,-0.92,-3.97,-5.55,442,487,422,369,367,7
1808,-0.19,-0.96,0.19,3.11,-4.82,-3.05,445,486,418,368,367,7
1809,-0.17,-0.97,0.22,-2.69,1.95,-3.05,447,489,419,368,366,7
1810,-0.21,-0.96,0.21,1.59,-4.15,-2.69,448,489,420,372,366,7
1811,-0.19,-0.98,0.31,10.25,-4.09,0.55,444,489,420,370,368,7
1812,-0.23,-0.99,0.24,-1.22,-1.1,-2.5,443,486,425,364,366,7
1813,-0.2,-0.97,0.26,1.1,-3.66,-2.14,444,493,422,369,369,7
1814,-0.2,-0.97,0.18,0.85,-3.78,-2.75,466,487,421,367,367,7
1815,-0.21,-0.96,0.21,3.72,-5.13,-2.5,444,485,416,372,365,7
1816,-0.21,-0.96,0.18,4.21,-0.31,-5.0,443,486,420,366,366,7
1817,-0.2,-0.95,0.24,6.23,-2.01,0.24,446,491,419,368,366,7
1818,-0.21,-0.93,0.36,-0.43,-3.97,4.03,446,490,421,369,364,7
1819,-0.2,-0.95,0.26,0.55,-2.99,-0.73,444,488,421,368,366,7
1820,-0.24,-0.98,0.22,4.09,-1.59,-6.65,444,492,417,372,369,7
1821,-0.22,-0.96,0.27,4.39,-0.49,-6.84,444,491,417,369,364,7
1822,-0.21,-0.94,0.27,0.49,-3.85,-3.17,447,489,416,369,367,7
1823,-0.23,-0.93,0.23,-0.67,4.27,-4.58,444,491,416,363,364,7
1824,-0.16,-0.95,0.2,-1.22,-6.1,-8.42,443,491,418,368,368,7
1825,-0.18,-0.96,0.26,1.95,-3.42,0.24,445,489,420,369,366,7
1826,-0.17,-0.96,0.25,-4.15,-3.3,-5.74,444,488,418,371,364,7
1827,-0.14,-0.95,0.24,-0.92,0.31,-4.52,441,488,418,370,366,7
1828,-0.15,-0.97,0.21,2.38,-1.95,-3.3,445,488,420,368,368,7
1829,-0.14,-0.95,0.26,0.92,1.4,-2.99,444,489,417,372,368,7
1830,-0.13,-0.97,0.25,2.14,-5.13,-3.11,441,488,417,369,365,7
1831,-0.17,-0.94,0.23,0.31,-5.62,-0.98,443,491,420,369,366,7
1832,-0.13,-0.98,0.25,2.14,-1.1,-3.6,443,489,418,374,369,7
1833,-0.15,-0.96,0.23,0.31,-3.42,-2.56,446,492,420,369,365,7
1834,-0.16,-0.96,0.24,-0.43,-1.04,-2.38,444,489,418,369,364,7
1835,-0.15,-0.96,0.26,1.28,-2.2,-0.55,446,491,415,374,366,7
1836,-0.16,-0.94,0.26,-0.92,0.24,-2.08,445,489,418,370,364,7
1837,-0.27,-1.12,0.2,-0.92,16.97,16.54,447,493,415,366,368,7
1838,-0.03,-0.94,0.41,13.0,27.1,-11.35,445,486,418,364,366,7
1839,-0.21,-0.96,0.21,3.3,-3.85,-4.03,443,489,416,369,365,7
1840,-0.17,-0.96,0.12,-1.89,-1.53,-4.52,443,492,416,369,366,7
1841,-0.15,-0.99,0.15,-1.4,-2.08,-6.1,444,488,417,368,366,7
1842,-0.16,-0.97,0.16,0.79,-2.44,-4.46,451,492,417,368,362,7
1843,-0.16,-0.97,0.15,0.55,-4.88,-1.34,444,485,411,368,365,7
1844,-0.16,-0.95,0.2,-0.85,-7.14,1.22,441,488,411,372,367,7
1845,-0.22,-0.92,0.17,-1.04,2.32,-5.07,445,483,415,369,364,7
1846,-0.17,-0.98,0.17,3.36,0.06,-2.75,440,485,415,370,365,7
1847,-0.21,-0.98,0.2,-2.01,-10.93,-0.24,442,489,411,369,365,7
1848,-0.23,-0.95,0.19,2.5,-0.06,-0.12,444,488,413,370,366,7
1849,-0.17,-0.99,0.2,4.09,-2.2,-4.33,447,492,416,364,367,7
1850,-0.17,-0.96,0.17,-1.53,-2.75,-1.22,446,487,411,364,368,7
1851,-0.2,-0.96,0.17,-1.71,-2.2,-1.1,441,489,414,366,367,7
1852,-0.22,-0.95,0.21,1.28,-5.19,1.59,445,490,413,364,367,7
1853,-0.21,-0.95,0.19,-1.59,-2.81,-5.19,442,486,412,368,369,7
1854,-0.19,-0.96,0.18,-1.46,-2.56,-5.0,441,486,412,372,369,7
1855,-0.2,-0.96,0.16,1.34,-4.03,-3.42,444,488,412,370,366,7
1856,-0.3,-0.94,0.11,-7.26,-4.64,2.93,444,491,412,373,367,7
1857,-0.19,-0.94,0.24,4.58,-0.61,-7.63,439,493,414,370,363,7
1858,-0.2,-0.95,0.18,-1.34,-5.07,0.92,445,488,419,374,366,7
1859,-0.19,-0.98,0.2,10.86,-2.99,-6.23,443,490,412,369,369,7
1860,-0.22,-0.99,0.15,1.28,0.98,-4.03,446,487,411,369,366,7
1861,-0.21,-0.93,0.16,1.28,2.38,-9.09,441,489,408,378,362,7
1862,-0.18,-0.96,0.19,-2.56,1.59,-2.38,444,490,413,368,362,7
1863,-0.23,-0.97,0.21,-4.27,-2.99,-4.46,456,488,410,373,369,7
1864,-0.21,-0.94,0.23,1.34,-1.16,-3.23,440,490,412,374,365,7
1865,-0.2,-0.97,0.28,8.79,-4.94,1.95,442,490,412,371,365,7
1866,-0.2,-0.95,0.26,2.26,-4.33,-5.86,441,491,414,370,362,7
1867,-0.21,-0.95,0.3,-0.12,1.04,-3.78,443,484,407,373,367,7
1868,-0.18,-0.93,0.28,3.42,-5.19,-0.61,442,490,409,370,361,7
1869,-0.19,-0.94,0.27,1.22,-5.86,-6.1,442,489,408,370,367,7
1870,-0.16,-0.95,0.25,-0.18,-1.71,-4.09,470,488,414,371,365,7
1871,-0.17,-0.94,0.29,0.43,-3.42,-2.62,441,487,413,371,363,7
1872,-0.18,-0.94,0.25,-0.31,-4.33,-3.23,438,484,411,383,367,7
1873,-0.16,-0.95,0.28,-4.58,-2.08,-0.92,432,488,413,372,367,7
1874,-0.19,-0.95,0.29,-0.55,1.4,-1.95,440,496,406,365,357,7
1875,-0.18,-0.98,0.27,-6.16,-3.78,1.95,445,491,407,371,361,7
1876,-0.23,-0.9,0.1,-4.88,0.85,-0.61,445,491,408,339,332,7
1877,-0.23,-0.95,0.17,-8.54,-3.36,-4.88,448,487,420,351,342,7
1878,-0.23,-0.96,0.12,-0.85,-4.09,-1.65,446,492,419,349,346,7
1879,-0.23,-0.96,0.11,2.01,-1.4,-2.69,450,487,420,356,348,7
1880,-0.22,-0.96,0.1,0.12,-2.26,-2.93,449,485,418,358,346,7
1881,-0.23,-0.96,0.12,-1.34,-2.93,-2.99,445,486,429,359,348,7
1882,-0.21,-0.98,0.11,-1.28,-1.77,-3.17,448,487,418,354,351,7
1883,-0.21,-0.95,0.1,1.22,-1.53,-1.95,448,487,422,359,355,7
1884,-0.2,-0.97,0.09,0.31,-3.6,-3.11,445,490,424,354,354,7
1885,-0.21,-0.97,0.09,-1.22,-2.01,-3.3,447,487,423,354,356,7
1886,-0.2,-0.98,0.07,2.14,-3.36,-2.32,452,486,423,361,357,7
1887,-0.2,-0.97,0.06,0.18,-2.01,-2.93,446,487,424,359,359,7
1888,-0.19,-0.97,0.06,1.83,-3.42,-3.42,443,486,424,366,359,7
1889,-0.2,-0.97,0.07,1.4,-3.05,-2.81,443,488,427,362,355,7
1890,-0.19,-0.98,0.07,2.56,-1.89,-2.08,444,489,428,360,361,7
1891,-0.2,-0.98,0.09,-0.61,-3.11,-1.16,441,488,424,367,360,7
1892,-0.2,-0.98,0.08,-0.18,-2.32,-1.4,441,494,425,361,361,7
1893,-0.2,-0.98,0.08,-0.92,-1.46,-3.3,436,488,423,366,361,7
1894,-0.19,-0.98,0.08,-1.46,-3.42,-3.48,439,484,426,365,359,7
1895,-0.21,-0.97,0.08,0.31,-2.56,-4.03,439,484,419,366,360,7
1896,-0.2,-0.98,0.08,0.12,-4.58,-3.17,442,485,424,370,360,7
1897,-0.2,-0.97,0.09,0.24,-3.54,-2.56,443,487,419,365,363,7
1898,-0.21,-0.98,0.08,0.31,-2.87,-3.05,441,487,421,370,363,7
1899,-0.19,-0.98,0.09,0.43,-3.6,-3.17,438,488,418,364,358,7
1900,-0.2,-0.97,0.09,-2.38,-3.36,-3.85,439,486,426,365,363,7
1901,-0.19,-0.97,0.06,0.73,-2.38,-2.56,448,487,424,364,363,7
1902,-0.18,-0.98,0.08,1.53,-2.69,-2.56,440,487,421,365,360,7
1903,-0.19,-0.97,0.08,0.31,-3.54,-1.83,440,490,419,369,361,7
1904,-0.2,-0.97,0.09,1.4,-4.88,-1.16,441,487,420,365,361,7
1905,-0.18,-0.98,0.07,1.4,-4.58,-3.78,438,490,414,368,358,7
1906,-0.19,-0.98,0.07,0.0,-4.03,-2.87,437,485,416,367,365,7
1907,-0.2,-0.96,0.08,0.79,-4.39,-3.3,438,482,415,364,358,7
1908,-0.19,-0.98,0.09,-0.98,-1.59,-3.85,442,485,417,367,363,7
1909,-0.19,-0.98,0.09,3.3,0.0,-0.06,440,484,411,360,358,7
1910,-0.2,-0.97,0.09,0.0,-2.56,-2.75,439,485,415,366,363,7
1911,-0.19,-0.98,0.09,-0.55,-2.38,-3.05,440,484,414,362,359,7
1912,-0.18,-0.98,0.1,0.24,-4.03,-2.26,445,486,412,359,360,7
1913,-0.18,-0.98,0.09,2.08,-5.13,-3.05,442,484,412,363,360,7
1914,-0.17,-0.98,0.07,-0.37,-2.99,-4.09,441,483,415,364,362,7
1915,-0.19,-0.98,0.09,2.14,-4.33,-0.24,441,484,413,365,360,7
1916,-0.18,-0.98,0.08,-1.04,-6.47,-4.03,442,488,412,361,361,7
1917,-0.19,-0.97,0.08,-0.61,-3.78,-2.08,442,487,413,364,362,7
1918,-0.19,-0.98,0.09,-0.43,-4.27,-1.65,443,484,413,362,362,7
1919,-0.19,-0.97,0.08,0.92,-1.95,-3.54,441,488,420,368,361,7
1920,-0.19,-0.98,0.08,1.65,-2.44,-2.26,441,497,414,365,359,7
1921,-0.2,-0.96,0.09,1.53,-2.62,-2.2,442,489,418,361,362,7
1922,-0.19,-0.97,0.08,0.98,-3.05,-2.32,441,485,416,372,361,7
1923,-0.19,-0.97,0.09,1.1,-1.83,-2.2,443,488,424,363,363,7
1924,-0.19,-0.98,0.09,0.55,-2.14,-3.66,443,486,412,364,361,7
1925,-0.19,-0.98,0.08,1.4,-4.09,-1.1,431,487,416,369,359,7
1926,-0.19,-0.99,0.08,1.77,-3.05,-0.49,445,485,411,366,361,7
1927,-0.18,-0.97,0.08,0.98,-2.44,-2.56,445,482,412,368,362,7
1928,-0.18,-0.98,0.1,0.79,-2.81,-1.89,443,486,412,368,362,7
1929,-0.21,-0.97,0.09,-0.67,-3.05,-1.53,442,486,410,359,360,7
1930,-0.19,-0.97,0.07,2.2,-1.89,-2.08,440,483,411,365,364,7
1931,-0.19,-0.98,0.09,0.61,-1.77,-2.32,441,484,407,365,364,7
1932,-0.2,-0.97,0.09,0.24,-3.17,-2.38,442,486,414,366,360,7
1933,-0.19,-0.97,0.08,1.89,-2.26,-3.23,443,483,414,369,359,7
1934,-0.21,-0.96,0.1,-2.93,-1.65,-3.91,444,486,410,357,352,7
1935,-0.19,-0.97,0.1,1.1,-2.87,-2.69,444,487,417,357,352,7
1936,-0.2,-0.97,0.09,-0.37,-4.27,-2.93,470,485,412,358,353,7
1937,-0.19,-0.97,0.09,0.0,-4.09,-2.38,443,485,411,356,352,7
1938,-0.18,-0.98,0.09,1.59,-2.81,-2.44,441,494,413,361,356,7
1939,-0.2,-0.98,0.1,0.12,-2.5,-1.83,445,485,408,361,354,7
1940,-0.2,-0.97,0.1,-0.43,-2.69,-1.65,438,488,411,361,356,7
1941,-0.21,-0.97,0.1,1.1,-2.56,-2.87,442,488,409,365,355,7
1942,-0.19,-0.97,0.09,0.49,-4.09,-2.87,442,484,415,362,357,7
1943,-0.2,-0.98,0.09,0.92,-4.46,-2.62,442,485,414,365,357,7
1944,-0.2,-0.98,0.11,-1.16,-3.48,-2.69,442,484,413,357,356,7
1945,-0.19,-0.98,0.1,-1.34,-2.62,-2.99,444,490,414,364,357,7
1946,-0.19,-0.97,0.09,0.61,-2.26,-2.81,441,484,411,363,354,7
1947,-0.17,-0.97,0.09,2.38,-2.56,-3.6,442,485,411,362,356,7
1948,-0.19,-0.98,0.09,0.12,-2.99,-2.56,448,485,412,361,353,7
1949,-0.2,-0.98,0.11,0.85,-1.53,-1.83,441,489,412,361,352,7
1950,-0.18,-0.97,0.09,0.85,-1.34,-2.2,441,489,415,363,357,7
1951,-0.2,-0.97,0.1,1.46,-3.36,-2.56,441,484,413,362,356,7
1952,-0.19,-0.98,0.11,-0.06,-0.49,-1.4,441,483,412,365,358,7
1953,-0.2,-0.97,0.1,0.73,-4.52,-2.08,441,485,412,365,352,7
1954,-0.18,-0.97,0.1,-1.04,-2.69,-3.11,439,485,409,360,356,7
1955,-0.19,-0.98,0.08,1.16,-1.77,-3.17,438,486,414,365,355,7
1956,-0.19,-0.98,0.1,1.53,-3.78,-2.69,435,486,412,363,356,7
1957,-0.19,-0.98,0.08,0.79,-2.56,-3.05,444,486,413,362,353,7
1958,-0.19,-0.98,0.08,0.43,-2.87,-3.6,441,487,412,356,359,7
1959,-0.19,-0.97,0.08,-0.73,-3.05,-3.72,442,486,414,361,355,7
1960,-0.2,-0.98,0.12,3.54,-1.59,0.18,443,488,414,356,353,7
1961,-0.21,-0.98,0.11,-0.18,-2.26,-3.72,444,489,414,359,349,7
1962,-0.22,-0.97,0.1,-2.99,-4.21,-1.34,441,486,420,361,351,7
1963,-0.2,-0.98,0.08,-5.37,-3.23,-3.72,443,482,424,361,356,7
1964,-0.2,-0.97,0.07,1.28,-2.56,-2.38,442,485,422,364,358,7
1965,-0.18,-0.97,0.07,0.06,-2.5,-2.38,442,487,422,358,358,7
1966,-0.2,-0.97,0.08,0.24,-2.44,-1.83,445,484,423,359,353,7
1967,-0.18,-0.95,0.07,10.19,-2.62,-3.78,441,490,421,356,355,7
1968,-0.2,-0.97,0.09,-0.37,-2.14,-2.32,440,489,427,360,357,7
1969,-0.21,-0.97,0.09,-0.67,-3.6,-2.26,442,489,423,361,360,7
1970,-0.18,-0.96,0.08,-0.73,-3.36,-3.42,445,487,425,365,355,7
1971,-0.2,-0.98,0.1,-0.43,-2.5,-3.6,442,486,426,358,357,7
1972,-0.18,-0.97,0.08,2.14,-3.17,-2.81,441,487,428,359,355,7
1973,-0.2,-0.97,0.09,-0.73,-2.44,-2.81,442,487,425,363,353,7
