,aX,aY,aZ,gX,gY,gZ,little,ring,middle,index,thumb,number
0,0.21,0.91,0.32,-2.14,0.0,4.7,176,265,375,473,392,8
1,0.25,0.88,0.31,-2.38,-3.78,2.69,179,263,375,476,387,8
2,0.24,0.96,0.3,-5.0,-3.36,-2.14,179,260,378,473,390,8
3,0.25,0.92,0.34,-0.49,-0.79,-2.01,180,263,376,478,390,8
4,0.21,0.93,0.32,0.92,-4.09,-5.74,181,269,376,470,389,8
5,0.22,0.93,0.32,1.04,-2.99,-2.08,183,266,378,475,392,8
6,0.24,0.91,0.3,-2.01,4.46,-18.62,184,268,378,474,393,8
7,0.18,0.93,0.31,4.27,-4.52,-4.39,184,270,374,477,392,8
8,0.14,0.89,0.27,-0.49,-0.18,-7.14,183,268,379,476,391,8
9,0.17,0.96,0.28,-13.24,-7.81,8.3,183,266,380,464,391,8
10,0.2,0.95,0.23,-0.43,-2.08,-4.88,179,265,379,472,393,8
11,0.18,0.96,0.28,-1.71,-1.1,-1.16,179,264,382,478,393,8
12,0.16,0.95,0.34,-5.8,3.23,-12.27,178,264,386,473,390,8
13,0.18,0.94,0.32,4.09,-3.17,-4.33,183,263,373,472,393,8
14,0.17,0.9,0.33,-2.69,-3.36,0.24,182,262,384,469,391,8
15,0.18,0.92,0.3,1.89,-4.27,0.98,182,261,389,466,387,8
16,0.16,0.89,0.36,-14.53,4.03,3.72,183,264,383,474,389,8
17,0.15,0.94,0.33,3.97,-0.37,-5.68,184,261,382,476,387,8
18,0.15,0.93,0.31,-0.73,-3.97,-0.43,222,262,383,472,389,8
19,0.15,0.91,0.27,8.42,-2.87,-1.1,188,263,385,473,390,8
20,0.17,0.94,0.28,0.37,-4.39,-4.58,185,268,382,469,385,8
21,0.19,0.92,0.28,1.83,-1.95,-2.81,187,267,382,473,388,8
22,0.05,0.96,0.37,-8.36,-15.14,-5.8,192,272,388,476,388,8
23,0.12,0.93,0.35,1.65,-8.67,-2.62,185,268,385,473,389,8
24,0.09,0.95,0.38,14.34,0.06,12.02,188,265,383,467,389,8
25,0.13,0.9,0.35,0.06,-5.49,1.71,189,268,388,476,388,8
26,0.13,0.96,0.33,0.85,-3.05,-6.16,188,270,385,478,391,8
27,0.13,0.99,0.36,2.56,-3.85,-2.38,189,269,388,485,392,8
28,0.13,0.93,0.32,-1.04,-1.59,-2.2,191,276,385,478,390,8
29,0.14,0.93,0.31,-0.92,-3.85,-1.95,198,274,382,474,391,8
30,0.11,0.99,0.34,-5.25,-7.02,5.86,190,269,385,472,391,8
31,0.17,0.87,0.3,17.76,6.35,-23.19,192,273,379,472,389,8
32,0.18,0.91,0.36,-3.3,-4.82,0.31,193,268,384,474,391,8
33,0.17,0.86,0.38,0.49,1.95,-6.41,195,267,382,471,392,8
34,0.2,0.92,0.39,2.2,-3.54,-3.36,195,270,383,473,392,8
35,0.18,0.93,0.43,3.48,0.31,-0.31,189,271,384,472,391,8
36,0.17,0.89,0.41,1.22,-2.26,0.92,191,272,381,474,388,8
37,0.21,0.89,0.41,-0.31,-4.52,-2.87,186,270,382,467,391,8
38,0.14,0.95,0.45,5.92,2.62,-11.23,198,273,378,473,390,8
39,0.12,0.9,0.43,1.89,-2.08,-2.75,190,274,380,473,392,8
40,0.14,0.88,0.4,-3.48,-3.42,1.95,191,273,378,476,393,8
41,0.16,0.91,0.42,3.54,-5.62,-15.38,192,273,382,475,391,8
42,0.14,0.89,0.38,-1.83,-2.62,-22.95,193,273,383,467,394,8
43,0.22,0.81,0.43,-0.55,-11.9,-4.82,193,277,381,477,393,8
44,0.22,0.89,0.43,5.13,-2.38,0.49,193,274,379,467,391,8
45,0.17,0.89,0.45,5.86,-2.26,-3.36,195,273,381,464,403,8
46,0.27,0.88,0.47,-5.92,-6.04,-0.24,195,271,381,463,390,8
47,0.2,0.85,0.48,-0.43,-3.05,4.03,194,274,379,463,390,8
48,0.39,0.85,0.4,-4.7,-15.87,3.72,192,271,382,469,388,8
49,0.19,0.85,0.48,4.21,-5.13,-3.6,193,272,382,473,393,8
50,0.25,0.85,0.48,0.24,-0.61,-7.57,195,271,385,469,397,8
51,0.22,0.87,0.46,1.71,-3.85,-5.8,193,267,382,465,393,8
52,0.24,0.89,0.48,2.75,2.81,-11.41,195,272,385,467,393,8
53,0.22,0.87,0.46,3.85,-0.61,-7.81,196,272,379,470,394,8
54,0.22,0.88,0.47,1.28,-1.34,-1.4,194,272,384,472,394,8
55,0.22,0.91,0.47,-0.98,-3.48,-4.27,196,273,380,471,392,8
56,0.22,0.85,0.47,0.24,-3.6,-1.53,194,271,380,467,397,8
57,0.22,0.88,0.47,1.28,-1.77,-4.88,195,273,381,469,391,8
58,0.22,0.85,0.47,0.67,-2.08,-0.79,194,272,383,469,396,8
59,0.23,0.85,0.47,0.73,-1.83,-4.82,194,271,393,464,396,8
60,0.21,0.86,0.49,3.23,-1.95,-10.38,195,276,381,472,394,8
61,0.17,0.85,0.48,-1.89,2.14,-9.46,193,273,383,473,392,8
62,0.25,0.88,0.51,7.02,-9.22,7.57,193,276,384,469,393,8
63,0.21,0.82,0.49,-0.43,-1.28,-1.65,198,276,382,473,394,8
64,0.26,0.84,0.49,4.52,-4.82,-1.46,197,277,382,468,389,8
65,0.23,0.81,0.46,1.34,-5.62,1.65,198,281,381,467,391,8
66,0.24,0.85,0.46,1.95,-3.6,-4.09,198,281,377,467,391,8
67,0.22,0.88,0.48,-0.73,-4.33,-1.53,196,278,383,466,392,8
68,0.21,0.87,0.46,1.1,-1.04,-5.49,200,277,383,466,390,8
69,0.22,0.86,0.45,0.61,-3.36,-1.77,197,275,379,470,392,8
70,0.22,0.9,0.46,2.69,-1.16,-2.69,218,278,377,466,389,8
71,0.22,0.86,0.43,2.2,-4.46,-3.91,196,278,382,465,396,8
72,0.23,0.88,0.43,2.44,-3.48,-3.36,197,277,380,468,392,8
73,0.22,0.87,0.44,-0.55,-3.3,-2.81,199,277,380,466,389,8
74,0.23,0.89,0.43,0.06,-3.36,-1.4,199,280,383,463,393,8
75,0.21,0.86,0.42,-2.01,-0.92,-0.06,194,279,382,462,393,8
76,0.22,0.88,0.43,-1.16,-6.59,-3.97,196,278,379,461,394,8
77,0.22,0.86,0.43,1.04,-3.72,-3.3,196,273,380,467,393,8
78,0.22,0.89,0.42,1.77,-1.83,-3.3,197,273,380,463,393,8
79,0.2,0.88,0.43,1.65,-2.93,-2.38,197,279,382,464,394,8
80,0.21,0.87,0.43,0.0,-4.03,-1.28,197,278,382,464,395,8
81,0.2,0.87,0.43,0.06,-3.54,-2.26,198,276,395,462,397,8
82,0.2,0.87,0.44,-0.85,-3.23,-2.56,200,272,381,460,394,8
83,0.21,0.88,0.44,-0.37,-3.42,-2.44,201,276,381,461,394,8
84,0.21,0.89,0.43,0.61,-2.81,-2.62,197,282,381,461,390,8
85,0.2,0.88,0.43,0.31,-3.17,-2.62,198,276,378,457,393,8
86,0.21,0.89,0.43,-0.61,-2.81,-2.08,198,276,383,466,395,8
87,0.21,0.88,0.43,-0.37,-2.87,-3.23,200,276,380,462,395,8
88,0.22,0.89,0.44,-1.53,-1.89,-2.62,201,276,380,462,395,8
89,0.22,0.88,0.43,1.16,-3.66,-2.75,200,272,381,464,394,8
90,0.22,0.88,0.44,-0.06,-3.91,-0.24,198,277,381,466,394,8
91,0.21,0.89,0.43,2.2,-4.39,-0.43,198,277,380,462,394,8
92,0.2,0.87,0.44,0.61,-3.36,-1.77,197,278,378,465,393,8
93,0.21,0.89,0.44,-0.24,-2.5,-3.17,199,280,381,462,396,8
94,0.21,0.89,0.43,0.67,-3.17,-3.23,201,278,382,462,395,8
95,0.22,0.87,0.42,0.55,-4.15,-2.56,197,278,378,462,394,8
96,0.2,0.87,0.43,-0.06,-3.54,-1.65,198,275,384,463,396,8
97,0.21,0.87,0.43,-0.18,-2.44,-2.75,200,278,379,461,393,8
98,0.21,0.88,0.43,0.12,-2.99,-2.26,199,275,382,462,397,8
99,0.22,0.88,0.43,0.12,-2.44,-2.75,200,280,379,466,396,8
100,0.21,0.89,0.44,-1.4,-1.59,-3.72,200,283,379,462,392,8
101,0.2,0.87,0.43,-0.49,-2.99,-2.14,202,280,377,457,395,8
102,0.21,0.88,0.43,-0.85,-3.54,-0.12,201,282,380,461,394,8
103,0.2,0.89,0.45,0.24,-2.56,-2.99,199,279,379,460,396,8
104,0.21,0.89,0.43,2.44,-2.69,-3.54,202,279,381,465,398,8
105,0.2,0.86,0.42,-0.92,-3.36,-2.81,203,289,382,461,395,8
106,0.23,0.86,0.41,0.31,-6.23,1.59,196,280,382,458,392,8
107,0.22,0.88,0.42,-0.06,-2.5,-2.38,203,280,380,459,393,8
108,0.22,0.89,0.43,-0.06,-3.17,-3.48,203,279,384,465,396,8
109,0.24,0.88,0.43,0.73,-1.77,-1.59,203,278,379,460,394,8
110,0.22,0.89,0.43,-0.85,-2.08,-4.21,200,281,379,463,397,8
111,0.23,0.91,0.45,-5.31,-1.22,-1.89,201,283,383,464,396,8
112,0.22,0.86,0.43,-0.98,-2.38,-4.88,201,283,380,460,395,8
113,0.23,0.87,0.43,1.34,-3.42,-2.81,204,282,383,461,396,8
114,0.25,0.87,0.41,3.05,-2.75,-3.3,201,281,379,465,393,8
115,0.24,0.88,0.41,-0.06,-2.87,-2.99,205,282,382,458,396,8
116,0.24,0.88,0.42,-0.67,-3.23,-1.04,223,282,381,466,395,8
117,0.24,0.85,0.4,0.18,-3.72,-2.69,202,281,380,463,395,8
118,0.24,0.89,0.42,0.43,-2.32,-0.98,199,284,382,463,390,8
119,0.24,0.87,0.41,2.01,-4.33,-3.54,205,282,383,466,392,8
120,0.24,0.88,0.41,-0.49,-2.14,-2.87,203,288,379,455,395,8
121,0.23,0.88,0.41,-0.12,-2.5,-1.59,203,283,375,461,396,8
122,0.23,0.9,0.42,2.01,-4.09,-1.89,203,284,382,464,392,8
123,0.22,0.9,0.41,0.31,0.85,-6.77,204,285,380,459,396,8
124,0.23,0.88,0.4,0.37,-3.85,-2.5,201,283,381,464,397,8
125,0.24,0.9,0.41,-0.49,-1.53,-5.55,204,285,382,457,396,8
126,0.23,0.87,0.4,0.73,-2.81,-3.11,206,283,379,457,394,8
127,0.22,0.89,0.41,-0.31,-2.44,-2.69,205,286,394,462,395,8
128,0.23,0.89,0.41,2.44,-2.87,-2.5,203,287,381,462,394,8
129,0.23,0.89,0.41,0.0,-1.71,-2.87,206,286,379,463,392,8
130,0.24,0.87,0.4,0.92,0.79,-7.75,206,283,378,459,394,8
131,0.23,0.91,0.42,0.18,-5.07,-0.43,203,278,385,461,396,8
132,0.23,0.87,0.41,-0.24,-3.48,-2.75,205,286,377,476,394,8
133,0.21,0.9,0.41,-0.85,-1.1,-3.11,204,283,382,458,393,8
134,0.24,0.89,0.41,-1.28,-3.36,-3.11,233,281,376,464,389,8
135,0.21,0.88,0.4,0.43,-2.69,-2.56,203,285,380,455,395,8
136,0.23,0.88,0.41,2.01,-1.77,-3.66,204,284,381,460,395,8
137,0.23,0.89,0.41,1.22,-3.36,-2.69,206,291,380,459,395,8
138,0.24,0.88,0.4,-0.67,-3.48,-2.26,206,283,381,460,396,8
139,0.24,0.89,0.4,-1.28,-3.23,-2.14,206,282,379,464,391,8
140,0.23,0.88,0.4,1.04,-2.99,-1.71,204,284,378,455,396,8
141,0.24,0.87,0.39,-1.1,-3.78,-5.31,202,285,379,463,393,8
142,0.22,0.89,0.4,-0.12,-1.83,-2.38,207,284,381,459,394,8
143,0.23,0.9,0.41,-0.49,-2.93,-2.38,206,287,381,459,397,8
144,0.24,0.85,0.38,1.83,-3.72,-4.33,204,287,378,460,392,8
145,0.23,0.89,0.38,-1.04,-3.17,-1.71,204,285,381,459,395,8
146,0.23,0.88,0.38,0.55,-3.17,-1.95,206,284,378,459,396,8
147,0.23,0.9,0.38,-1.59,-2.01,-3.05,207,281,378,461,396,8
148,0.25,0.91,0.38,-0.79,-3.48,-4.33,207,283,379,460,398,8
149,0.24,0.89,0.38,0.55,-3.42,-2.75,207,294,380,463,392,8
150,0.23,0.89,0.39,-1.28,-4.64,-4.27,205,284,381,459,395,8
151,0.23,0.89,0.38,0.92,-2.56,-3.11,209,284,378,459,396,8
152,0.21,0.89,0.39,0.73,-0.24,-5.92,208,283,378,459,397,8
153,0.24,0.91,0.38,-0.12,-1.71,-3.6,205,287,378,461,395,8
154,0.22,0.9,0.38,1.95,-2.62,-3.66,209,285,379,463,394,8
155,0.23,0.9,0.38,-0.18,-2.81,-2.75,206,285,382,465,395,8
156,0.23,0.9,0.38,0.18,-4.39,-3.36,206,285,379,459,395,8
157,0.24,0.9,0.41,0.24,-1.59,-1.34,206,286,379,460,396,8
158,0.22,0.88,0.38,-1.89,-2.14,-3.36,209,287,377,462,396,8
159,0.23,0.89,0.39,-0.55,-2.81,-2.69,206,285,376,456,396,8
160,0.23,0.9,0.39,1.89,-3.36,-2.93,206,288,378,464,394,8
161,0.24,0.9,0.38,-0.18,-3.36,-2.01,206,290,376,463,393,8
162,0.23,0.91,0.39,0.24,-3.54,-2.01,207,286,379,461,398,8
163,0.22,0.91,0.39,0.67,-2.87,-1.83,206,285,380,463,397,8
164,0.23,0.91,0.39,2.01,-2.75,-3.05,208,287,382,461,393,8
165,0.22,0.89,0.37,-0.55,-3.23,-1.04,206,287,375,460,396,8
166,0.24,0.9,0.37,-2.26,-2.69,-2.5,208,287,379,475,394,8
167,0.23,0.9,0.39,0.55,-2.5,-2.93,209,288,375,459,396,8
168,0.23,0.9,0.38,0.61,-2.32,-2.38,208,285,382,458,394,8
169,0.25,0.9,0.37,2.14,-3.17,-0.24,206,286,381,459,394,8
170,0.23,0.9,0.37,1.65,-2.38,-5.07,207,284,381,457,398,8
171,0.23,0.9,0.37,0.31,-2.08,-1.4,208,289,380,459,397,8
172,0.22,0.91,0.38,-2.14,-1.59,1.34,202,285,377,458,396,8
173,0.31,0.87,0.4,2.56,1.83,0.92,205,282,379,459,396,8
174,0.19,0.89,0.42,3.78,8.06,-13.37,208,285,376,463,397,8
175,0.17,0.91,0.39,-0.24,-1.71,-12.45,209,286,380,462,396,8
176,0.19,0.95,0.46,-10.19,-7.26,-7.93,206,283,380,459,397,8
177,0.24,0.91,0.36,-22.28,9.4,-44.86,204,283,381,462,396,8
178,0.14,0.98,0.46,5.92,-17.33,10.13,203,286,381,458,394,8
179,0.21,0.82,0.45,-5.31,-0.49,-16.36,210,286,381,459,394,8
180,0.24,0.92,0.47,2.93,-7.69,-1.77,207,288,378,462,395,8
181,0.28,0.83,0.46,-5.74,-0.37,5.31,209,286,380,459,396,8
182,0.19,0.88,0.51,6.71,-17.88,4.15,205,287,383,459,398,8
183,0.41,0.86,0.39,-1.4,-2.87,-1.89,204,283,380,463,396,8
184,0.33,0.84,0.42,4.64,-4.58,-1.59,206,282,378,455,396,8
185,0.24,0.82,0.47,0.18,0.31,-1.83,207,284,375,464,392,8
186,0.28,0.88,0.48,-1.22,-1.34,-13.24,201,285,386,457,393,8
187,0.24,0.83,0.46,3.48,0.18,-3.11,200,272,380,455,393,8
188,0.18,0.82,0.51,4.39,-5.86,9.09,201,277,379,465,390,8
189,0.21,0.86,0.49,-0.43,-1.65,0.31,202,279,378,465,395,8
190,0.23,0.85,0.49,0.79,-1.71,-2.75,203,280,382,465,394,8
191,0.23,0.85,0.49,0.43,-2.38,-2.56,204,279,383,465,395,8
192,0.21,0.85,0.49,2.38,-1.77,-1.16,201,284,387,464,394,8
193,0.21,0.86,0.49,0.0,-3.05,-1.4,206,279,389,464,396,8
194,0.22,0.85,0.49,0.79,-3.17,-3.05,202,279,386,464,392,8
195,0.22,0.84,0.47,1.59,-2.69,-2.38,203,280,387,462,395,8
196,0.24,0.85,0.47,0.43,-4.58,-0.92,203,278,386,459,395,8
197,0.24,0.85,0.47,-0.31,-2.56,-3.42,205,282,389,466,398,8
198,0.24,0.85,0.47,-0.24,-2.5,-4.39,212,280,389,467,397,8
199,0.24,0.85,0.47,1.71,-2.69,-2.08,207,284,387,466,393,8
200,0.24,0.86,0.46,0.06,-2.38,-3.23,209,280,390,467,396,8
201,0.24,0.87,0.47,0.73,-2.62,-4.03,201,280,389,468,394,8
202,0.22,0.86,0.46,0.06,-2.32,-2.93,204,283,390,463,395,8
203,0.21,0.86,0.47,0.18,-2.62,-2.32,204,280,391,460,396,8
204,0.22,0.85,0.47,0.79,-2.75,-2.75,204,283,388,465,397,8
205,0.21,0.85,0.47,-0.49,-4.39,-2.81,202,284,390,464,398,8
206,0.22,0.86,0.47,0.18,-2.93,-2.5,200,284,388,464,400,8
207,0.23,0.86,0.46,-0.85,-2.62,-3.17,204,282,389,464,400,8
208,0.22,0.86,0.46,0.85,-3.17,-3.66,206,282,394,465,397,8
209,0.21,0.86,0.44,3.6,-4.15,-4.39,208,283,385,462,392,8
210,0.23,0.87,0.43,-1.53,-4.7,-1.77,206,282,385,461,397,8
211,0.22,0.86,0.43,0.0,0.49,-8.36,206,282,390,462,401,8
212,0.15,0.87,0.44,16.48,3.3,-3.36,235,282,392,476,376,8
213,0.11,0.91,0.42,-1.46,-3.05,-4.03,208,283,390,477,372,8
214,0.11,0.92,0.42,-1.1,-2.87,-3.11,208,288,391,476,390,8
215,0.13,0.9,0.41,1.83,-1.95,-3.78,206,284,390,474,395,8
216,0.12,0.9,0.42,2.08,-3.3,-3.91,208,285,391,474,393,8
217,0.14,0.89,0.41,0.18,-3.6,-2.93,207,283,389,474,398,8
218,0.14,0.92,0.42,-0.61,-2.87,-4.27,205,290,387,476,401,8
219,0.14,0.9,0.42,0.61,-2.75,-1.95,209,285,389,473,401,8
220,0.15,0.9,0.42,1.04,-4.88,0.24,207,283,390,470,402,8
221,0.16,0.89,0.42,-0.12,-3.42,-1.89,207,284,389,470,400,8
222,0.17,0.9,0.41,0.67,-3.42,-1.71,210,284,391,467,401,8
223,0.16,0.89,0.41,1.22,-3.05,-2.5,207,285,391,470,403,8
224,0.16,0.89,0.41,-0.06,-3.48,-1.34,207,286,389,472,405,8
225,0.16,0.89,0.41,0.85,-2.26,-0.92,204,281,392,475,403,8
226,0.16,0.92,0.41,-0.06,-3.54,-2.5,208,284,388,475,402,8
227,0.15,0.88,0.42,-0.12,-4.15,-3.36,209,286,389,472,396,8
228,0.16,0.89,0.41,-0.18,-3.05,-2.87,209,287,386,471,403,8
229,0.16,0.91,0.42,0.0,-2.75,-2.01,209,287,388,476,407,8
230,0.16,0.89,0.42,0.55,-3.48,-4.7,205,285,390,470,403,8
231,0.16,0.9,0.41,0.61,-3.17,-2.44,208,283,389,473,402,8
232,0.16,0.89,0.41,0.24,-4.21,-0.79,205,284,388,474,407,8
233,0.16,0.9,0.42,0.18,-3.05,-2.87,210,283,389,473,404,8
234,0.17,0.89,0.41,-0.55,-3.72,-2.14,204,287,388,471,404,8
235,0.15,0.89,0.42,-0.24,-2.32,-3.97,207,284,392,473,406,8
236,0.14,0.9,0.42,0.61,2.01,-3.42,210,284,389,472,403,8
237,0.14,0.89,0.43,-1.16,-3.78,-2.14,208,284,388,472,410,8
238,0.15,0.87,0.43,-1.16,-3.3,-1.77,207,284,389,469,418,8
239,0.15,0.88,0.44,1.04,-4.94,-4.39,205,288,387,473,419,8
240,0.15,0.9,0.43,-0.55,-2.62,-3.17,205,284,395,473,419,8
241,0.15,0.87,0.44,-0.18,-1.59,-4.64,207,293,389,474,418,8
242,0.14,0.88,0.45,0.24,-2.93,-4.27,207,287,393,471,414,8
243,0.13,0.9,0.45,-0.55,-2.14,-2.93,210,285,386,474,420,8
244,0.14,0.89,0.45,1.1,-4.33,-3.6,208,288,391,473,415,8
245,0.14,0.89,0.44,0.31,-2.99,-2.2,209,288,389,474,417,8
246,0.19,0.78,0.45,1.34,-0.18,-3.97,209,285,386,472,416,8
247,0.12,0.9,0.41,-1.1,-0.79,1.95,207,285,390,474,417,8
248,0.11,0.89,0.44,3.66,-8.06,8.48,209,287,390,471,416,8
249,0.13,0.84,0.46,2.2,-5.31,-1.16,207,288,389,475,417,8
250,0.14,0.88,0.44,-1.77,-0.49,-8.0,206,288,383,474,415,8
251,0.11,0.87,0.45,-4.15,-2.26,-5.86,209,286,386,472,413,8
252,0.13,0.93,0.46,2.2,-3.85,-0.79,208,288,393,473,417,8
253,0.08,0.85,0.47,-1.53,1.22,-4.33,209,288,387,470,420,8
254,0.13,0.89,0.45,1.1,-4.21,-0.85,207,295,390,466,417,8
255,0.13,0.92,0.46,-1.34,-2.38,-4.21,209,288,391,470,416,8
256,0.15,0.89,0.45,3.6,2.01,-0.79,211,287,390,467,419,8
257,0.17,0.82,0.43,8.85,-1.53,10.8,208,285,388,461,419,8
258,0.16,0.89,0.46,3.05,-4.27,-6.71,212,286,390,469,420,8
259,0.17,0.93,0.45,1.04,1.95,-0.67,209,287,388,465,418,8
260,0.12,0.87,0.42,-10.38,7.57,-21.06,206,289,392,465,417,8
261,0.08,0.88,0.44,2.32,-2.26,-4.33,210,286,390,470,420,8
262,0.06,0.94,0.48,-11.23,-5.68,0.12,211,285,389,466,421,8
263,0.06,0.75,0.49,-2.81,-6.9,-0.49,210,285,388,468,422,8
264,0.3,0.8,0.37,24.11,-11.72,-1.34,210,301,387,466,419,8
265,0.13,0.87,0.39,4.88,6.35,-2.62,209,282,386,466,420,8
266,0.17,0.8,0.39,-8.91,-1.65,-16.11,204,284,384,463,419,8
267,0.08,0.84,0.46,-5.43,-2.62,2.93,209,285,385,466,418,8
268,0.11,0.86,0.48,-2.5,-0.98,-7.14,208,281,380,465,418,8
269,0.07,0.86,0.49,2.14,-4.39,0.61,209,282,383,462,417,8
270,0.03,0.87,0.51,-0.55,-0.12,-3.05,207,284,383,464,418,8
271,0.06,0.85,0.49,-0.37,-2.08,-1.34,206,281,382,465,417,8
272,0.09,0.83,0.52,2.75,-5.19,1.22,208,289,384,466,416,8
273,0.03,0.88,0.5,1.22,0.37,-7.69,208,291,378,464,417,8
274,-0.0,0.76,0.54,0.98,-6.16,0.55,208,284,382,470,419,8
275,0.08,0.93,0.51,3.48,-5.49,-0.12,211,284,383,471,414,8
276,0.12,0.85,0.45,0.79,-2.93,1.65,209,283,379,464,414,8
277,0.09,0.83,0.5,8.79,-1.34,-0.06,207,288,378,462,412,8
278,0.09,0.88,0.47,-3.23,0.12,-3.48,208,286,385,465,413,8
279,0.14,0.88,0.48,-1.16,-5.19,-1.71,210,285,378,468,415,8
280,0.15,0.85,0.46,-1.04,1.04,-2.62,211,286,381,470,414,8
281,0.08,0.86,0.52,1.65,-2.62,-1.34,211,286,382,462,415,8
282,0.11,0.84,0.49,4.58,-7.02,-9.83,211,284,378,469,413,8
283,0.11,0.84,0.48,2.56,-2.14,-3.05,209,285,380,464,412,8
284,0.1,0.85,0.5,-0.49,-5.19,-0.31,210,297,378,464,413,8
285,0.13,0.85,0.47,2.2,-3.72,-4.39,209,285,381,466,411,8
286,0.12,0.89,0.5,4.39,-2.62,-0.98,209,286,377,466,412,8
287,0.15,0.88,0.56,4.58,7.2,-12.7,209,284,381,462,413,8
288,0.05,0.72,0.47,0.37,-15.56,7.87,211,287,379,465,414,8
289,0.17,0.88,0.5,0.18,-2.5,-4.27,211,286,380,466,412,8
290,0.14,0.87,0.48,-4.58,1.71,-8.61,208,287,380,463,409,8
291,0.1,0.83,0.48,3.42,-4.58,0.73,209,287,377,467,410,8
292,0.19,0.89,0.48,1.83,0.12,-0.85,212,287,379,459,411,8
293,0.07,0.85,0.51,0.85,-2.87,-1.77,210,293,385,463,410,8
294,0.11,0.87,0.5,0.49,-5.19,-0.61,215,286,388,461,410,8
295,0.12,0.88,0.49,3.6,-6.53,-2.69,209,287,379,466,412,8
296,0.13,0.86,0.48,0.67,-2.26,-2.26,210,286,382,464,407,8
297,0.12,0.88,0.49,0.12,-2.08,-2.81,211,290,377,465,406,8
298,0.12,0.86,0.48,-0.98,-2.5,-4.33,213,286,381,468,409,8
299,0.13,0.87,0.47,0.61,-3.85,-3.97,212,289,379,468,410,8
300,0.1,0.88,0.49,-1.4,-3.91,-4.52,212,288,380,464,409,8
301,0.11,0.86,0.48,0.85,-2.81,-3.36,218,290,383,463,408,8
302,0.11,0.87,0.49,-0.67,-3.36,-1.71,212,289,382,464,415,8
303,0.08,0.85,0.49,0.79,-3.17,-3.36,212,287,381,469,411,8
304,0.1,0.87,0.5,0.24,2.62,-5.98,215,290,382,464,410,8
305,0.09,0.88,0.49,-0.79,-2.26,-3.23,214,288,381,461,412,8
306,0.07,0.86,0.5,-0.12,-1.34,-2.93,230,288,379,466,402,8
307,0.07,0.86,0.5,0.55,-2.75,-2.75,213,286,377,459,406,8
308,0.07,0.86,0.5,0.49,-3.48,-3.23,212,291,379,466,408,8
309,0.07,0.87,0.5,0.67,-2.69,-2.75,210,304,379,468,406,8
310,0.06,0.86,0.51,0.55,-3.36,-2.2,211,291,382,464,406,8
311,0.06,0.86,0.51,0.24,-2.99,-1.65,212,288,379,464,411,8
312,0.07,0.86,0.5,-0.73,-2.93,-2.44,211,291,380,468,410,8
313,0.05,0.85,0.52,-0.55,-1.95,-2.08,208,286,381,469,410,8
314,0.07,0.85,0.51,-0.18,-2.44,-2.75,211,289,380,464,408,8
315,0.08,0.84,0.51,2.69,-4.58,1.34,211,288,377,464,411,8
316,0.09,0.86,0.5,-0.85,-1.65,-3.54,212,287,380,463,408,8
317,0.05,0.85,0.53,0.43,-1.65,-3.23,212,290,378,467,407,8
318,0.05,0.87,0.51,0.67,-3.85,-2.44,212,289,381,462,412,8
319,0.08,0.87,0.5,0.12,-3.3,-1.71,212,289,378,461,412,8
320,0.08,0.87,0.49,0.06,-2.32,-3.48,214,287,379,465,408,8
321,0.07,0.86,0.5,1.4,-3.97,-2.75,206,286,381,459,410,8
322,0.07,0.86,0.5,0.31,-3.48,-1.34,210,287,381,463,412,8
323,0.1,0.87,0.49,1.46,-2.93,-1.59,209,290,380,461,410,8
324,0.08,0.87,0.49,0.18,-1.83,-2.81,232,286,379,462,412,8
325,0.07,0.86,0.5,1.1,-3.17,-1.04,212,287,380,461,411,8
326,0.09,0.87,0.48,0.43,-3.11,-1.89,212,287,382,461,412,8
327,0.08,0.87,0.49,-0.18,-0.49,-3.3,211,287,382,464,413,8
328,0.07,0.86,0.48,1.16,-3.17,-0.73,212,286,380,458,411,8
329,0.09,0.87,0.5,1.4,-4.52,-1.71,215,289,378,456,411,8
330,0.08,0.86,0.49,0.43,-2.99,-4.58,214,289,379,459,411,8
331,0.08,0.86,0.49,0.85,-5.19,-3.11,209,291,380,458,409,8
332,0.03,0.86,0.49,0.61,-3.36,-4.21,210,292,382,462,415,8
333,0.09,0.87,0.5,-0.43,-1.71,-1.53,210,291,381,457,411,8
334,0.1,0.81,0.49,-2.26,-0.06,-1.77,213,289,381,458,411,8
335,0.08,0.87,0.5,-0.73,-3.05,1.28,214,289,379,459,409,8
336,0.07,0.87,0.51,1.46,-3.36,-4.09,236,289,379,459,411,8
337,0.03,0.84,0.52,1.22,-5.74,-0.98,210,290,380,460,411,8
338,0.09,0.85,0.5,0.49,-5.98,-0.18,211,291,381,465,411,8
339,0.07,0.87,0.52,1.16,-5.68,-1.59,214,292,380,458,411,8
340,0.08,0.86,0.52,0.98,-2.99,-1.89,214,293,382,460,406,8
341,0.05,0.83,0.51,-0.67,-2.14,-1.95,215,292,380,462,405,8
342,0.07,0.86,0.52,-0.85,-3.85,-1.53,212,293,383,462,410,8
343,0.08,0.85,0.51,0.67,-2.99,-3.97,212,290,377,460,411,8
344,0.09,0.86,0.49,0.55,-3.66,-1.65,211,290,380,463,409,8
345,0.06,0.84,0.53,0.79,-2.87,-3.36,213,290,377,460,409,8
346,0.07,0.85,0.52,0.43,-3.05,-3.48,218,291,380,463,412,8
347,0.07,0.85,0.52,-0.31,-2.81,-2.2,215,292,382,461,410,8
348,0.06,0.86,0.52,-0.06,-3.23,-3.97,214,290,380,455,411,8
349,0.1,0.85,0.49,-2.14,-1.71,-8.36,213,299,380,463,409,8
350,0.08,0.87,0.51,-0.49,-1.04,-5.74,210,292,380,463,408,8
351,0.03,0.83,0.53,-0.67,-3.05,0.18,215,290,378,463,409,8
352,0.08,0.89,0.53,0.73,-2.26,-6.04,214,291,380,460,409,8
353,-0.0,0.88,0.55,-1.65,0.24,-7.45,211,290,379,463,408,8
354,0.01,0.78,0.54,-1.46,-15.63,9.16,213,293,384,460,409,8
355,0.17,0.84,0.55,-7.39,-12.45,-12.57,214,290,386,459,409,8
356,0.06,0.77,0.57,-0.61,2.5,-6.9,212,290,382,459,410,8
357,0.06,0.83,0.58,1.77,-1.65,1.04,210,290,380,460,405,8
358,0.04,0.79,0.57,0.0,-2.26,-2.75,212,294,383,459,409,8
359,0.02,0.83,0.58,0.67,-0.49,-4.94,214,290,377,455,405,8
360,0.02,0.81,0.57,2.14,-4.82,-1.4,212,291,389,463,407,8
361,0.03,0.81,0.57,2.62,-3.3,-1.95,212,290,380,463,410,8
362,0.03,0.82,0.57,2.81,-2.2,-6.29,214,292,381,459,410,8
363,0.06,0.82,0.55,4.03,-6.16,2.38,212,288,377,456,409,8
364,0.03,0.84,0.56,2.99,-3.42,-2.32,216,288,383,459,409,8
365,0.06,0.84,0.52,8.48,-1.1,0.31,214,291,381,452,385,8
366,0.05,0.85,0.51,-0.73,-1.65,-2.87,214,292,383,452,402,8
367,0.06,0.87,0.52,2.26,-5.37,-2.5,217,296,382,457,398,8
368,0.07,0.86,0.53,-1.83,-3.48,-2.44,214,294,385,454,397,8
369,0.11,0.87,0.52,3.6,-1.53,-3.11,211,297,383,455,401,8
370,0.06,0.82,0.5,3.85,-1.46,-5.86,215,296,388,459,401,8
371,0.05,0.85,0.51,-0.85,0.12,-4.88,213,293,385,455,401,8
372,0.03,0.86,0.52,-0.06,-2.81,-3.05,214,296,389,456,402,8
373,0.07,0.83,0.49,1.59,-3.97,-3.17,216,294,384,462,401,8
374,0.02,0.87,0.52,-2.99,-2.44,-3.17,215,296,387,457,404,8
375,0.04,0.84,0.52,0.73,-3.66,-3.3,222,298,386,456,405,8
376,0.02,0.87,0.54,1.59,3.36,-8.36,215,296,388,461,404,8
377,0.02,0.84,0.52,-3.54,-1.53,-7.32,216,296,384,456,404,8
378,-0.1,0.84,0.53,0.43,-0.73,-10.38,216,293,384,462,405,8
379,-0.05,0.86,0.53,-2.62,-4.09,0.06,212,296,383,455,405,8
380,-0.04,0.82,0.52,0.06,-5.19,-3.17,217,297,389,458,410,8
381,-0.05,0.82,0.51,-2.14,-6.1,-3.78,212,295,381,458,404,8
382,-0.05,0.85,0.56,-0.55,-2.62,-2.87,223,297,380,462,408,8
383,-0.07,0.82,0.56,-0.85,-3.78,-2.93,224,294,384,457,405,8
384,-0.07,0.82,0.56,1.1,-4.21,2.01,224,296,381,459,406,8
385,-0.04,0.82,0.55,-0.92,-6.35,-2.56,218,296,383,462,406,8
386,-0.03,0.83,0.56,7.63,-5.98,6.29,217,297,381,461,405,8
387,-0.06,0.83,0.56,-0.37,-2.2,-1.46,219,296,381,458,406,8
388,0.0,0.83,0.55,1.16,-5.25,-3.36,218,297,387,454,405,8
389,-0.04,0.82,0.53,1.59,-1.28,-6.53,213,299,387,458,404,8
390,-0.03,0.78,0.5,-0.55,-4.21,-7.69,211,296,381,461,406,8
391,-0.03,0.83,0.55,-2.08,-2.62,-4.39,215,291,383,453,407,8
392,-0.04,0.83,0.57,-0.18,-3.05,-2.2,215,299,384,458,407,8
393,-0.03,0.82,0.54,4.15,-3.91,-2.2,217,296,384,459,408,8
394,-0.06,0.82,0.53,1.65,-1.34,-2.81,218,296,385,458,405,8
395,-0.04,0.86,0.53,-3.3,-4.27,-1.4,228,296,382,458,407,8
396,-0.05,0.85,0.55,0.61,-2.69,-1.53,215,296,387,458,418,8
397,-0.04,0.83,0.53,-1.28,-3.42,-2.81,215,296,383,459,407,8
398,-0.05,0.85,0.54,0.06,-3.66,-2.08,213,297,381,459,407,8
399,-0.05,0.84,0.54,1.65,-4.46,-3.72,216,295,386,462,405,8
400,-0.04,0.83,0.52,4.39,-4.64,1.16,217,292,383,461,408,8
401,-0.02,0.85,0.52,-1.83,-3.6,-2.81,215,298,382,457,405,8
402,-0.05,0.84,0.53,-0.73,-2.32,-1.4,214,295,385,463,410,8
403,-0.04,0.87,0.54,1.28,-0.31,-3.85,242,296,384,458,408,8
404,-0.07,0.85,0.52,-0.24,-1.59,-2.5,215,297,385,461,408,8
405,0.03,0.8,0.5,-1.77,-6.04,-3.17,216,296,383,459,407,8
406,-0.03,0.84,0.53,6.1,0.92,-9.46,215,296,383,454,409,8
407,0.06,0.79,0.45,-0.61,-5.43,-2.2,216,296,382,458,406,8
408,-0.03,0.9,0.58,0.92,7.93,-2.2,216,296,383,458,410,8
409,-0.03,0.78,0.49,7.75,5.25,-7.93,224,297,383,464,406,8
410,-0.06,0.84,0.46,-7.39,0.0,0.06,209,299,380,462,408,8
411,-0.05,0.95,0.54,-3.05,-0.79,4.76,217,298,388,461,408,8
412,-0.01,0.91,0.54,-4.27,-10.38,11.05,216,299,384,454,407,8
413,0.08,0.79,0.47,7.32,-8.54,5.74,216,299,383,456,406,8
414,0.08,0.88,0.51,4.33,-2.69,-4.27,216,297,385,455,410,8
415,0.16,0.86,0.45,11.72,-20.39,18.62,214,295,384,455,407,8
416,0.15,0.91,0.48,-0.55,3.05,-0.18,223,293,383,456,408,8
417,0.19,0.98,0.46,-1.16,-2.2,-8.85,214,297,379,455,406,8
418,0.09,0.84,0.5,-3.54,0.85,2.87,216,294,383,452,409,8
419,0.19,0.5,0.31,10.5,-14.22,18.62,215,292,383,454,408,8
420,0.16,0.84,0.41,-0.55,-5.0,-7.63,216,295,384,455,410,8
421,0.19,0.9,0.46,2.32,-7.57,-7.75,249,294,382,457,408,8
422,0.06,0.83,0.51,0.92,-2.5,11.78,214,293,383,461,408,8
423,0.07,0.85,0.5,1.77,-1.16,-13.31,214,294,384,457,407,8
424,0.15,0.87,0.45,-1.53,-1.04,0.67,217,292,380,461,407,8
425,0.12,0.85,0.47,0.98,-4.15,-0.06,214,290,383,461,406,8
426,0.19,0.89,0.44,-5.37,0.31,-5.68,215,293,379,453,404,8
427,0.18,0.87,0.46,3.17,-7.02,0.24,220,295,380,455,410,8
428,0.19,0.84,0.46,-1.1,-1.53,-4.15,215,294,383,463,409,8
429,0.21,0.88,0.44,-1.95,-0.31,-10.56,215,294,383,459,412,8
430,0.2,0.86,0.45,-1.77,-2.32,-0.67,217,293,383,462,411,8
431,0.18,0.87,0.46,-1.65,-1.59,-5.37,213,296,385,462,407,8
432,0.13,0.86,0.47,1.77,0.92,-6.35,219,291,386,464,408,8
433,0.15,0.88,0.47,1.34,-2.69,-2.99,216,295,386,463,411,8
434,0.13,0.88,0.48,0.0,-0.61,-4.33,219,295,381,461,409,8
435,0.11,0.88,0.48,0.06,-2.2,-3.17,215,293,383,464,406,8
436,0.12,0.87,0.47,1.1,-3.05,-2.75,216,296,383,463,407,8
437,0.12,0.89,0.48,0.06,-1.77,-4.64,214,304,385,462,411,8
438,0.11,0.87,0.48,0.79,-3.36,-2.44,216,291,383,464,412,8
439,0.1,0.88,0.47,1.22,-3.05,-3.23,216,294,386,459,409,8
440,0.09,0.86,0.48,-0.49,-1.77,-2.2,218,294,383,461,411,8
441,0.1,0.88,0.48,1.34,-2.75,-3.05,218,294,385,464,412,8
442,0.09,0.87,0.48,-0.55,-1.59,-1.71,216,296,396,467,412,8
443,0.1,0.87,0.47,0.67,-3.42,-1.28,217,295,387,463,409,8
444,0.1,0.88,0.48,0.55,-2.62,-3.42,216,298,382,465,411,8
445,0.1,0.87,0.47,0.92,-2.5,-2.93,219,299,381,460,410,8
446,0.1,0.88,0.48,0.31,-2.75,-2.81,216,294,379,461,411,8
447,0.08,0.88,0.48,-0.67,-2.14,-2.75,216,294,383,462,408,8
448,0.09,0.87,0.49,0.79,-2.93,-2.81,217,296,384,465,412,8
449,0.08,0.89,0.5,1.22,-3.05,-1.34,219,301,383,461,410,8
450,0.1,0.88,0.48,-0.98,-1.95,-4.46,220,297,380,456,412,8
451,0.09,0.87,0.48,-0.12,-3.17,-2.2,208,296,385,461,414,8
452,0.09,0.88,0.48,1.71,-3.48,-3.05,220,296,381,457,413,8
453,0.09,0.87,0.48,0.43,-2.87,-2.56,218,296,383,461,413,8
454,0.09,0.88,0.48,-0.06,-2.62,-2.93,217,294,384,461,414,8
455,0.09,0.88,0.48,0.85,-3.23,-2.69,217,293,382,463,413,8
456,0.1,0.86,0.47,1.28,-2.93,-2.56,218,295,381,473,412,8
457,0.09,0.89,0.48,0.98,-2.5,-2.56,220,294,383,466,412,8
458,0.09,0.87,0.48,-0.18,-1.4,-4.46,216,298,383,468,412,8
459,0.08,0.87,0.48,-0.12,-3.3,-1.83,223,297,385,465,411,8
460,0.12,0.9,0.5,-3.17,2.26,-6.53,218,296,383,461,414,8
461,0.02,0.89,0.54,-11.54,7.2,-2.93,218,300,385,456,416,8
462,0.04,0.8,0.6,-10.19,0.06,-5.31,215,296,384,459,419,8
463,0.14,0.81,0.59,3.66,-5.19,2.75,216,296,387,457,414,8
464,0.12,0.83,0.58,5.19,-11.17,5.31,217,296,383,460,412,8
465,0.09,0.8,0.57,3.48,-4.7,2.5,219,297,380,458,412,8
466,0.15,0.81,0.55,1.34,-5.13,-0.06,216,296,381,460,412,8
467,0.16,0.84,0.54,0.12,-2.87,-3.36,216,297,381,462,412,8
468,0.12,0.84,0.56,0.55,-2.2,-4.88,231,296,384,460,410,8
469,0.12,0.83,0.56,-0.31,-3.23,-3.54,222,298,387,461,411,8
470,0.09,0.83,0.57,-0.73,-1.95,-5.31,220,297,383,461,414,8
471,0.13,0.85,0.6,1.34,-3.78,-3.3,218,299,382,461,412,8
472,-0.09,0.79,0.68,9.4,-2.01,7.57,219,294,386,463,413,8
473,0.01,0.79,0.62,7.32,-8.73,2.56,219,299,385,459,412,8
474,0.1,0.82,0.57,1.77,-5.62,-6.53,217,295,385,461,412,8
475,0.09,0.83,0.56,-0.12,-5.43,-2.26,219,296,382,461,411,8
476,0.11,0.84,0.55,0.43,-3.66,2.87,215,296,382,456,410,8
477,0.06,0.83,0.56,1.65,-4.82,-7.93,218,300,383,464,412,8
478,0.1,0.82,0.55,2.38,-5.0,0.85,217,311,384,460,411,8
479,0.1,0.85,0.54,-3.11,-2.87,-6.41,215,299,383,464,414,8
480,0.1,0.86,0.54,0.55,-4.88,-3.36,216,297,387,466,411,8
481,0.13,0.87,0.52,3.48,-1.53,-0.98,220,300,384,473,413,8
482,0.09,0.84,0.5,11.9,-11.29,16.05,218,297,384,462,409,8
483,0.14,0.84,0.48,-7.39,3.72,-16.6,223,300,383,463,407,8
484,0.2,0.88,0.47,-13.55,5.37,-26.55,217,300,384,462,408,8
485,0.15,0.85,0.5,1.1,-3.6,-2.01,220,300,383,462,411,8
486,0.09,0.75,0.47,-2.56,-1.95,8.54,218,297,385,463,405,8
487,0.3,0.82,0.43,1.95,-14.22,-1.22,217,296,383,456,409,8
488,0.14,0.95,0.5,-0.98,1.46,-7.57,216,299,384,473,409,8
489,0.19,0.86,0.47,-2.26,0.61,-4.88,220,296,383,463,409,8
490,0.14,0.81,0.46,0.79,3.48,-5.07,217,295,386,460,405,8
491,0.07,0.86,0.51,-0.92,-0.24,1.04,219,301,383,460,412,8
492,0.11,0.81,0.49,1.1,-4.7,-3.36,220,301,387,456,411,8
493,0.06,0.86,0.51,-3.48,-1.77,-2.08,217,297,383,462,410,8
494,0.09,0.81,0.47,-0.85,-4.15,-0.73,217,300,385,463,411,8
495,0.07,0.86,0.51,-2.87,-2.38,-2.69,220,298,381,460,412,8
496,0.1,0.86,0.5,1.77,-5.31,-0.73,220,299,381,456,413,8
497,0.09,0.86,0.5,-0.55,-2.87,-3.36,217,301,386,461,412,8
498,0.1,0.85,0.5,2.01,-3.17,-2.99,216,298,384,460,411,8
499,0.08,0.86,0.5,-0.49,-2.81,-1.77,218,301,384,462,404,8
500,0.1,0.85,0.5,0.92,-7.51,-1.83,216,299,384,457,412,8
501,0.09,0.87,0.5,2.56,-2.99,-1.83,216,299,380,464,410,8
502,0.09,0.86,0.49,1.83,-1.71,-4.21,227,299,383,464,409,8
503,0.08,0.89,0.51,0.18,-3.48,-1.22,219,301,387,457,410,8
504,0.09,0.87,0.49,1.04,-3.3,-3.11,216,297,383,463,411,8
505,0.08,0.87,0.49,0.73,-3.42,-1.71,219,296,382,456,409,8
506,0.09,0.87,0.49,1.1,-2.99,-3.11,220,299,384,464,410,8
507,0.1,0.9,0.48,-0.55,-2.99,-2.26,217,299,386,456,412,8
508,0.31,0.95,0.07,-0.43,-4.52,-1.71,407,483,420,318,332,8
509,0.31,0.96,0.06,0.43,-2.38,-3.54,412,482,421,320,332,8
510,0.3,0.95,0.07,-0.06,-2.81,-2.69,412,478,422,316,332,8
511,0.3,0.95,0.07,1.4,-2.2,-4.58,412,483,418,315,330,8
512,0.3,0.94,0.07,0.0,-1.71,-3.72,408,486,418,314,334,8
513,0.29,0.95,0.07,0.18,-1.89,-3.05,412,479,424,315,331,8
514,0.28,0.94,0.07,1.04,-4.03,-3.23,410,487,432,317,329,8
515,0.29,0.95,0.07,0.55,-2.32,-2.56,412,483,420,320,329,8
516,0.3,0.96,0.07,-0.98,-1.89,-2.99,411,488,422,317,344,8
517,0.29,0.95,0.07,0.98,-4.46,-2.14,412,481,423,321,333,8
518,0.28,0.94,0.07,-1.34,-1.59,-2.56,411,479,419,314,330,8
519,0.28,0.96,0.07,0.98,-2.99,-2.14,414,483,420,313,328,8
520,0.29,0.96,0.07,0.98,-4.33,-1.04,410,486,419,314,321,8
521,0.29,0.96,0.07,-2.99,-2.5,-0.18,411,486,417,304,302,8
522,0.31,0.96,0.07,-1.59,-5.68,-0.55,411,489,415,299,299,8
523,0.29,0.95,0.07,1.83,-2.2,-4.15,413,486,416,303,303,8
524,0.28,0.95,0.06,2.38,-3.85,-2.32,407,485,417,304,300,8
525,0.28,0.95,0.06,0.55,-3.6,-2.87,406,482,416,304,304,8
526,0.29,0.96,0.06,-1.22,-2.26,-2.87,410,484,418,306,305,8
527,0.3,0.96,0.06,-0.24,-2.93,-2.2,409,485,417,318,298,8
528,0.29,0.95,0.06,0.85,-2.2,-2.56,411,486,414,308,305,8
529,0.29,0.95,0.07,-0.79,-3.72,-2.75,408,479,417,309,307,8
530,0.3,0.95,0.06,2.2,-3.54,-2.01,409,479,422,310,305,8
531,0.29,0.95,0.07,-0.92,-3.6,-1.34,407,477,414,318,309,8
532,0.3,0.94,0.07,2.14,-4.52,-2.44,409,485,420,312,311,8
533,0.3,0.95,0.06,1.22,-4.15,-1.95,405,480,417,312,309,8
534,0.29,0.95,0.07,0.92,-2.62,-2.5,408,484,414,310,311,8
535,0.29,0.95,0.07,2.01,-3.3,-2.69,407,477,418,312,311,8
536,0.29,0.95,0.07,-0.24,-3.05,-2.81,405,487,415,310,313,8
537,0.28,0.95,0.08,-0.43,-2.62,-3.23,407,486,417,311,313,8
538,0.28,0.95,0.07,0.49,-2.01,-2.69,404,481,413,309,311,8
539,0.29,0.95,0.08,-0.98,-0.92,-2.56,407,486,418,308,313,8
540,0.3,0.96,0.08,0.06,-2.5,-2.93,404,479,415,316,311,8
541,0.29,0.95,0.08,0.55,-3.11,-2.56,406,485,414,309,310,8
542,0.28,0.95,0.09,2.08,-2.5,-1.83,409,482,415,312,307,8
543,0.28,0.95,0.08,0.61,-3.17,-2.5,404,482,420,313,310,8
544,0.29,0.95,0.08,1.83,-2.01,-2.93,406,485,415,308,313,8
545,0.27,0.95,0.09,0.98,-2.08,-3.6,407,478,416,310,307,8
546,0.28,0.95,0.08,1.34,-3.3,-2.26,407,478,413,312,314,8
547,0.29,0.94,0.07,-3.6,-1.77,1.16,408,484,416,308,308,8
548,0.28,0.96,0.07,1.53,-0.79,0.18,402,481,413,308,314,8
549,0.29,0.96,0.08,-0.31,-1.95,-4.88,408,482,412,309,345,8
550,0.3,0.96,0.07,0.85,-2.32,-3.17,406,479,414,312,312,8
551,0.28,0.95,0.07,1.59,-5.25,-2.99,408,476,412,312,311,8
552,0.29,0.95,0.07,0.85,-4.27,-2.99,404,484,411,309,313,8
553,0.28,0.96,0.06,0.85,-3.72,-3.11,406,484,413,312,314,8
554,0.28,0.95,0.06,0.98,-4.33,-2.69,405,482,411,317,312,8
555,0.28,0.95,0.06,1.22,-2.81,-3.48,410,478,414,312,312,8
556,0.27,0.95,0.06,1.04,-1.71,-2.81,404,487,409,314,314,8
557,0.27,0.97,0.1,3.42,-13.06,14.4,405,484,414,317,313,8
558,0.38,0.93,0.04,-0.67,-8.24,-3.42,407,481,413,315,315,8
559,0.3,0.97,0.06,3.36,4.76,-3.54,403,482,415,309,315,8
560,0.35,0.94,0.04,2.32,-0.55,-9.4,404,481,417,312,314,8
561,0.22,0.94,0.11,-5.31,7.63,-11.72,402,480,412,312,315,8
562,0.25,0.93,0.0,8.24,-21.73,18.98,406,482,413,314,307,8
563,0.27,1.0,0.15,-3.6,-5.13,-10.62,406,495,409,319,313,8
564,0.24,0.96,0.15,-3.54,-0.61,-3.91,401,484,407,314,311,8
565,0.25,0.95,0.11,-3.23,-1.59,3.72,407,480,414,315,321,8
566,0.27,0.9,0.09,-7.08,14.47,-17.76,401,480,411,311,342,8
567,0.16,0.96,0.17,-8.91,-4.21,-1.83,406,478,413,313,312,8
568,0.21,0.9,0.08,6.96,-8.24,6.16,407,475,409,308,313,8
569,0.27,0.98,0.13,0.18,10.86,-15.69,407,484,413,311,315,8
570,0.19,0.89,0.15,-3.11,-1.04,7.81,403,482,412,313,313,8
571,0.25,0.94,0.12,1.71,-5.49,-2.26,414,483,408,313,314,8
572,0.25,0.96,0.12,0.31,-5.37,1.16,408,479,409,312,315,8
573,0.29,0.94,0.11,-0.18,-3.91,-2.56,406,476,410,312,317,8
574,0.27,0.97,0.11,3.78,-4.03,-1.89,406,479,416,316,316,8
575,0.28,0.95,0.11,3.54,-4.82,-1.1,405,476,409,312,314,8
576,0.25,0.95,0.1,-1.22,-2.08,-3.85,403,474,409,313,311,8
577,0.29,0.96,0.12,0.49,-2.87,-2.93,406,476,409,315,314,8
578,0.28,0.98,0.11,0.06,-2.56,-0.73,405,477,413,316,314,8
579,0.27,0.97,0.1,2.99,-3.97,-5.86,401,480,411,312,314,8
580,0.25,0.98,0.12,16.11,-6.59,-1.4,405,479,411,312,314,8
581,0.24,0.92,0.06,-3.48,-8.3,-2.01,405,475,410,313,309,8
582,0.29,0.99,0.07,0.49,-0.73,-4.7,405,483,411,314,314,8
583,0.28,0.96,0.09,0.61,-10.07,-2.62,406,477,410,314,317,8
584,0.28,0.93,0.06,-0.85,-5.8,-2.5,404,477,413,312,313,8
585,0.29,0.95,0.06,1.1,-4.46,-2.56,408,478,409,314,314,8
586,0.3,0.93,0.05,0.12,-2.99,-2.14,404,481,414,314,314,8
587,0.28,0.95,0.06,3.11,-2.62,-2.38,404,479,412,315,315,8
588,0.28,1.0,0.06,1.4,0.49,-1.65,405,474,411,311,316,8
589,0.28,0.94,0.05,3.05,-1.46,-5.13,408,479,419,317,313,8
590,0.25,0.98,0.06,0.31,-3.91,-4.09,407,483,405,311,315,8
591,0.25,0.97,0.06,-2.2,-1.89,-1.95,403,478,410,313,314,8
592,0.27,0.96,0.06,-0.31,-5.31,-1.89,406,478,406,312,315,8
593,0.27,0.96,0.06,1.1,-4.33,-3.72,405,478,412,314,316,8
594,0.27,0.95,0.06,1.77,-4.39,-2.62,406,481,408,315,316,8
595,0.27,0.96,0.05,0.79,-3.3,-2.2,406,482,411,314,315,8
596,0.28,0.97,0.06,1.34,-4.03,-2.56,415,473,410,315,316,8
597,0.27,0.93,0.05,0.55,-4.15,-1.95,408,478,404,316,318,8
598,0.27,0.96,0.05,1.22,-1.34,-3.54,410,482,409,315,316,8
599,0.28,0.96,0.05,-0.92,-2.81,-3.05,404,479,406,317,311,8
600,0.28,0.96,0.05,-1.53,-1.83,-2.44,401,483,407,315,318,8
601,0.28,0.94,0.04,1.16,-3.23,-2.56,405,482,407,315,313,8
602,0.27,0.98,0.05,-0.12,-1.89,-2.26,407,477,407,316,314,8
603,0.27,0.97,0.06,-0.43,-1.83,-2.5,406,476,407,314,317,8
604,0.27,0.95,0.05,4.52,-1.04,-6.23,402,477,407,313,354,8
605,0.25,0.99,0.04,-0.18,-2.32,-2.38,404,481,407,316,324,8
606,0.29,0.96,0.02,-4.52,-6.04,2.14,402,481,408,318,316,8
607,0.25,0.97,0.06,-1.83,-2.75,1.04,403,478,408,314,316,8
608,0.26,0.94,0.06,2.38,-3.78,-2.44,403,474,423,316,315,8
609,0.26,0.95,0.06,2.56,-3.54,-0.55,405,481,403,316,319,8
610,0.26,0.93,0.03,0.55,-2.2,-2.81,405,478,405,319,316,8
611,0.26,0.97,0.06,-1.95,-4.64,-0.43,404,476,409,318,317,8
612,0.29,0.96,0.05,-1.89,-3.85,-0.61,405,482,409,314,316,8
613,0.29,0.95,0.04,-0.31,-1.95,-3.05,403,476,408,322,317,8
614,0.3,0.96,0.04,1.04,-4.7,-1.34,403,476,410,316,315,8
615,0.3,0.95,0.03,1.1,-3.78,-3.17,401,473,408,317,319,8
616,0.29,0.96,0.04,0.0,-2.69,-2.2,403,474,406,318,312,8
617,0.3,0.94,0.03,-2.2,-2.93,-2.99,404,477,403,315,316,8
618,0.28,0.96,0.05,-1.04,-5.07,-3.85,404,482,403,319,315,8
619,0.28,0.96,0.04,-1.4,-4.7,-4.52,402,479,410,316,316,8
620,0.28,0.95,0.04,-0.85,-1.28,-2.69,406,477,407,316,317,8
621,0.28,0.98,0.05,-0.18,-5.25,-1.83,404,481,407,313,315,8
622,0.3,0.97,0.04,0.49,-2.2,-2.44,403,482,411,316,316,8
623,0.29,0.96,0.04,1.28,-3.42,-1.71,406,477,406,317,318,8
624,0.29,0.96,0.04,0.73,-3.85,-2.5,404,474,405,312,319,8
625,0.3,0.96,0.04,2.93,-3.36,-2.99,405,471,406,314,315,8
626,0.29,0.94,0.03,0.12,-5.19,-2.08,407,476,408,318,317,8
627,0.28,0.96,0.03,-0.18,-3.11,-2.01,406,479,409,317,318,8
628,0.29,0.93,0.03,1.71,-2.2,-4.03,403,478,406,317,319,8
629,0.27,0.95,0.03,-1.46,-3.72,-1.71,401,477,411,318,309,8
630,0.27,0.97,0.04,-0.55,-1.34,-2.44,406,477,407,318,313,8
631,0.29,0.96,0.03,0.61,-2.2,-3.85,404,482,407,315,315,8
632,0.27,0.95,0.04,-0.12,-2.93,-2.14,403,476,403,315,317,8
633,0.25,0.93,0.05,1.1,1.83,-2.26,406,475,406,318,314,8
634,0.26,0.92,0.03,0.55,-2.44,-0.18,404,476,408,317,318,8
635,0.27,0.96,0.05,-0.12,-1.59,-0.92,408,477,407,312,322,8
636,0.29,0.96,0.04,-0.79,-2.81,-1.71,404,477,406,317,317,8
637,0.3,0.96,0.03,-0.43,-3.91,-1.53,405,472,408,317,318,8
638,0.29,0.95,0.03,1.22,-3.36,-2.44,402,476,408,317,317,8
639,0.26,0.94,0.04,2.99,-1.89,-4.03,404,474,405,315,318,8
640,0.28,0.94,0.03,0.0,-3.78,-1.83,405,475,404,319,316,8
641,0.28,0.96,0.03,0.0,-2.26,-2.69,404,476,404,325,316,8
642,0.29,0.95,0.03,-0.12,-2.5,-2.62,405,476,405,315,318,8
643,0.28,0.95,0.04,-0.06,-2.08,-2.56,403,476,404,315,317,8
644,0.28,0.95,0.03,0.37,-3.23,-1.95,407,471,403,317,315,8
645,0.29,0.95,0.03,1.65,-2.5,-2.38,403,486,407,313,315,8
646,0.28,0.95,0.03,0.92,-4.52,-1.34,404,477,406,315,316,8
647,0.28,0.95,0.02,-0.55,-2.75,-1.95,402,476,401,317,313,8
648,0.29,0.95,0.02,0.49,-3.85,-2.44,406,478,402,319,316,8
649,0.29,0.96,0.02,0.12,-3.42,-2.38,403,476,400,317,317,8
650,0.29,0.96,0.02,0.06,-2.56,-1.95,400,478,406,314,315,8
651,0.29,0.96,0.03,0.43,-2.01,-2.38,404,476,405,321,315,8
652,0.29,0.95,0.02,0.18,-3.54,-2.75,404,476,401,318,316,8
653,0.29,0.95,0.03,0.67,-3.36,-1.46,404,480,403,316,315,8
654,0.3,0.95,0.02,0.12,-4.15,-2.62,401,477,404,317,317,8
655,0.3,0.95,0.02,1.4,-3.3,-3.11,410,480,404,316,313,8
656,0.29,0.95,0.03,0.98,-2.99,-3.6,400,479,402,315,316,8
657,0.29,0.95,0.02,-1.1,-2.81,-3.17,405,475,402,317,317,8
658,0.28,0.94,0.03,0.18,-2.5,-1.46,405,478,398,314,316,8
659,0.29,0.95,0.03,0.55,-3.23,-2.01,403,481,405,316,317,8
660,0.3,0.95,0.02,0.18,-2.01,-2.75,405,476,400,316,313,8
661,0.29,0.96,0.03,0.31,-2.32,-2.81,403,474,402,317,317,8
662,0.29,0.95,0.03,1.16,-3.17,-2.38,402,473,402,319,312,8
663,0.31,0.95,0.02,0.67,-3.11,-3.11,402,480,399,313,318,8
664,0.3,0.95,0.03,0.55,-3.11,-2.87,398,481,402,316,315,8
665,0.28,0.95,0.03,0.79,-2.75,-2.62,403,475,402,315,315,8
666,0.28,0.95,0.03,-0.06,-2.44,-2.87,403,479,399,314,316,8
667,0.29,0.95,0.02,-1.4,-2.32,-2.56,402,476,402,318,320,8
668,0.29,0.95,0.03,0.24,-2.87,-1.89,398,479,404,319,317,8
669,0.29,0.95,0.03,1.16,-2.93,-2.62,401,476,401,316,317,8
670,0.29,0.95,0.02,0.0,-3.42,-2.87,406,477,397,317,318,8
671,0.29,0.96,0.02,1.28,-3.91,-2.62,402,473,401,320,316,8
672,0.29,0.95,0.02,0.12,-3.78,-2.44,402,482,404,317,315,8
673,0.28,0.95,0.02,-0.37,-2.56,-3.66,401,475,401,314,318,8
674,0.28,0.94,0.01,0.43,-2.38,-1.95,403,471,402,317,318,8
675,0.28,0.95,0.02,0.0,-2.75,-2.32,403,479,403,313,315,8
676,0.29,0.95,0.01,-0.18,-2.08,-2.08,398,480,398,312,315,8
677,0.29,0.96,0.02,0.73,-2.14,-2.32,402,472,402,319,314,8
678,0.3,0.95,0.02,1.95,-3.23,-3.05,402,475,403,325,318,8
679,0.3,0.95,0.02,-0.12,-2.56,-3.17,404,480,403,317,316,8
680,0.29,0.95,0.02,0.0,-3.05,-2.14,400,470,403,314,315,8
681,0.28,0.95,0.02,0.49,-3.97,-3.11,398,472,404,319,315,8
682,0.28,0.95,0.02,-0.37,-2.08,-3.54,402,476,401,324,319,8
683,0.29,0.95,0.02,2.01,-2.38,-2.26,398,480,403,318,316,8
684,0.31,0.95,0.02,0.43,-3.66,-1.28,404,476,402,316,318,8
685,0.29,0.95,0.03,-0.79,-2.99,-2.56,402,472,401,317,315,8
686,0.32,0.95,0.01,1.65,1.28,-4.09,401,476,400,316,315,8
687,0.3,0.97,0.02,1.28,-1.83,-3.48,401,471,401,317,315,8
688,0.31,0.98,0.03,0.98,-2.81,-1.71,403,475,404,315,314,8
689,0.32,0.95,0.02,2.69,-5.37,-1.71,402,474,400,319,313,8
690,0.29,0.95,0.03,0.98,-3.85,-2.38,401,477,403,314,314,8
691,0.29,0.95,0.02,0.18,-4.58,-1.89,402,479,400,314,313,8
692,0.31,0.96,0.01,-0.37,-4.27,-0.79,402,468,401,316,317,8
693,0.32,0.98,0.03,-4.09,-6.29,-2.2,403,472,404,317,318,8
694,0.31,0.91,0.01,0.06,-3.6,-3.78,403,475,404,316,321,8
695,0.29,0.95,0.01,-1.28,-1.59,-3.23,405,477,400,319,317,8
696,0.34,0.95,0.01,0.61,-6.16,-4.15,403,475,399,318,315,8
697,0.28,0.94,0.02,0.31,1.53,-1.71,401,478,400,317,317,8
698,0.28,0.96,0.03,3.11,3.6,-2.01,403,478,400,316,314,8
699,0.26,0.96,0.03,2.14,-1.53,-1.46,402,474,408,315,320,8
700,0.29,0.95,0.01,0.61,-4.39,-1.77,400,477,402,315,313,8
701,0.3,0.95,0.01,-0.06,-3.48,-2.01,401,475,403,314,344,8
702,0.3,0.95,0.01,0.12,-3.78,-1.59,403,475,403,315,314,8
703,0.3,0.95,0.02,-1.22,-3.05,-2.93,401,471,399,317,314,8
704,0.29,0.95,0.02,-0.06,-1.28,-2.62,403,469,401,318,315,8
705,0.3,0.94,0.01,0.12,-3.3,-2.38,402,475,403,319,311,8
706,0.3,0.95,0.02,0.31,-0.85,-2.44,402,477,400,317,314,8
707,0.3,0.95,0.03,-1.59,-3.36,-2.2,398,475,400,318,311,8
708,0.3,0.94,0.01,0.31,-1.89,-2.5,397,474,402,315,315,8
709,0.29,0.96,0.02,-1.22,-2.62,-1.22,401,477,399,316,314,8
710,0.3,0.95,0.02,0.0,-3.23,-1.46,404,477,405,319,313,8
711,0.3,0.95,0.02,0.06,-2.99,-1.53,403,476,402,317,313,8
712,0.31,0.94,0.02,1.04,-3.23,-2.08,404,474,408,319,312,8
713,0.28,0.91,-0.02,9.77,12.39,-8.97,402,474,399,318,316,8
714,0.3,0.96,0.03,-3.17,-7.26,-1.53,403,474,402,317,313,8
715,0.29,0.94,0.03,4.09,-6.35,-2.14,399,474,398,317,314,8
716,0.27,0.99,0.05,0.37,-0.73,-2.2,402,476,400,317,313,8
717,0.27,0.96,0.04,0.85,-5.8,-8.91,401,474,400,315,314,8
718,0.31,0.95,0.02,-2.99,-4.33,-1.46,401,478,403,313,316,8
719,0.29,0.95,0.02,1.16,-2.62,-2.38,406,476,400,316,313,8
720,0.29,0.94,0.02,1.95,-2.75,-4.64,399,474,398,316,316,8
721,0.28,0.94,0.01,1.4,-3.05,-2.62,401,475,399,319,315,8
722,0.29,0.94,0.01,1.71,-3.97,-2.81,402,477,403,320,315,8
723,0.28,0.96,0.01,1.65,-2.56,-2.62,403,475,400,317,310,8
724,0.3,0.95,0.01,0.73,-2.44,-2.26,401,474,399,317,314,8
725,0.29,0.95,0.02,-0.43,-4.33,-2.38,402,474,416,318,314,8
726,0.29,0.95,0.02,-0.37,-1.95,-2.44,399,477,401,320,314,8
727,0.3,0.95,0.02,1.53,-3.42,-3.42,399,474,402,316,315,8
728,0.31,0.95,0.02,-0.55,-2.56,-2.99,401,471,400,315,312,8
729,0.3,0.95,0.03,-0.06,-4.09,-2.38,400,473,401,333,314,8
730,0.3,0.95,0.02,1.04,-2.56,-2.26,402,473,399,320,316,8
731,0.3,0.95,0.02,0.31,-3.85,-2.62,402,469,395,317,316,8
732,0.3,0.95,0.02,1.22,-3.11,-2.99,397,474,401,320,310,8
733,0.3,0.95,0.02,1.34,-3.97,-3.48,401,475,399,317,315,8
734,0.31,0.95,0.01,1.1,-3.36,-3.3,400,468,399,313,314,8
735,0.29,0.95,0.02,0.73,-3.97,-2.99,397,477,400,317,316,8
736,0.29,0.95,0.01,0.06,-3.48,-2.56,399,474,399,325,311,8
737,0.29,0.95,0.02,-0.06,-2.69,-2.01,401,477,398,318,314,8
738,0.31,0.94,0.01,-0.24,-3.17,-1.89,399,474,401,316,314,8
739,0.3,0.94,0.01,1.53,-2.44,-1.83,401,473,400,313,316,8
740,0.3,0.95,0.02,-1.16,-1.95,-2.5,400,473,399,316,314,8
741,0.31,0.95,0.01,-1.46,-2.81,-2.93,399,474,396,315,316,8
742,0.3,0.95,0.02,0.49,-2.2,-2.38,399,469,395,316,313,8
743,0.3,0.95,0.01,0.98,-2.87,-2.93,403,474,404,316,315,8
744,0.31,0.95,0.01,0.61,-3.66,-2.44,403,469,400,318,317,8
745,0.3,0.95,0.01,-0.55,-2.62,-2.2,396,483,399,323,314,8
746,0.3,0.95,0.01,-0.49,-3.17,-3.17,400,476,398,317,316,8
747,0.3,0.95,0.01,0.67,-2.44,-2.62,403,474,400,314,317,8
748,0.29,0.96,0.01,1.28,-3.11,-2.75,398,475,401,317,315,8
749,0.3,0.94,0.01,-0.24,-3.48,-2.69,395,473,399,321,316,8
750,0.32,0.95,0.01,-1.1,2.26,-2.99,400,476,399,321,313,8
751,0.28,0.95,0.02,0.18,-2.08,-3.6,398,477,399,320,314,8
752,0.31,0.95,0.01,-1.34,-2.44,-1.34,401,477,398,316,313,8
753,0.32,0.95,0.0,-1.4,-2.2,-0.98,402,474,400,316,317,8
754,0.32,0.96,0.01,6.47,-4.21,-5.0,401,477,401,316,316,8
755,0.29,0.96,0.0,-1.1,-5.07,-3.36,401,477,406,320,314,8
756,0.32,0.96,0.0,-0.18,-1.4,-3.48,400,475,398,320,314,8
757,0.29,0.96,0.01,-0.92,-3.05,-2.26,400,472,399,317,317,8
758,0.27,0.97,0.01,2.14,-0.55,-5.55,399,476,398,320,311,8
759,0.29,0.98,0.01,5.0,-2.99,-6.96,396,474,399,318,315,8
760,0.28,0.96,0.01,-1.65,-2.38,-4.15,398,474,397,317,315,8
761,0.27,0.97,0.02,1.22,-0.85,-5.07,400,479,402,316,304,8
762,0.26,0.94,0.01,0.73,-4.52,-1.89,398,477,401,317,315,8
763,0.26,0.92,-0.01,-0.43,-4.33,-2.08,400,477,397,314,316,8
764,0.26,0.96,0.01,0.12,-2.44,-1.83,397,473,400,321,316,8
765,0.28,0.96,0.03,-4.03,-2.44,1.89,400,476,398,317,319,8
766,0.24,0.95,0.01,3.05,-0.85,-2.26,400,468,399,313,315,8
767,0.26,0.94,-0.01,-1.28,-4.15,-1.65,400,474,400,318,315,8
768,0.26,0.95,-0.01,0.12,-2.01,-2.14,403,471,400,318,314,8
769,0.26,0.94,-0.0,-0.06,-4.15,-1.04,400,477,395,320,314,8
770,0.25,0.97,0.01,-0.12,-2.93,0.0,399,476,400,318,316,8
771,0.28,0.96,0.01,-0.12,-2.56,-4.64,400,468,399,318,316,8
772,0.25,0.95,-0.0,1.4,-2.62,-2.38,401,473,399,315,315,8
773,0.24,0.94,-0.01,1.65,-2.56,-0.79,400,473,398,315,316,8
774,0.25,0.96,-0.02,1.65,-1.77,-2.2,398,474,400,312,314,8
775,0.27,0.95,-0.02,-1.1,-5.8,1.34,400,470,404,315,314,8
776,0.28,0.98,-0.01,-0.49,-3.66,-2.14,401,472,400,317,315,8
777,0.28,0.96,-0.01,0.61,-3.05,-2.99,401,473,403,317,315,8
778,0.27,0.96,-0.01,-0.98,-2.99,-3.05,403,473,395,317,316,8
779,0.27,0.96,-0.01,-0.92,-0.85,-3.42,403,473,398,319,316,8
780,0.28,0.96,-0.01,0.49,-1.89,-1.71,403,477,401,316,317,8
781,0.28,0.95,-0.01,-0.61,-2.69,-2.5,397,473,401,318,315,8
782,0.28,0.95,-0.01,3.54,-1.83,-0.37,403,476,396,316,314,8
783,0.29,0.96,-0.0,1.1,-3.54,-3.48,403,473,399,316,317,8
784,0.3,0.96,-0.0,0.67,-2.99,-2.69,402,474,402,312,314,8
785,0.29,0.95,-0.01,1.28,-2.93,-3.05,407,476,407,323,315,8
786,0.3,0.96,-0.01,0.43,-2.62,-2.14,404,472,399,317,315,8
787,0.29,0.95,-0.01,1.89,-2.32,-2.69,405,468,404,314,334,8
788,0.28,0.96,-0.01,-1.65,-3.11,-1.22,405,472,401,319,315,8
789,0.28,0.96,-0.01,-1.4,-2.56,-1.1,403,476,399,315,318,8
790,0.28,0.94,-0.01,-0.31,-1.4,-1.95,402,469,396,318,342,8
791,0.28,0.95,-0.01,-0.85,-2.75,-1.83,406,475,399,316,317,8
792,0.28,0.94,-0.01,0.61,-3.36,-1.59,408,473,398,315,317,8
793,0.28,0.95,-0.0,0.0,-2.08,-3.48,403,473,401,317,323,8
794,0.28,0.95,-0.0,0.55,-3.78,-2.99,406,472,401,317,317,8
795,0.29,0.96,-0.01,0.79,-2.5,-2.38,406,471,398,314,317,8
796,0.29,0.96,-0.01,0.61,-3.97,-2.93,404,472,401,315,313,8
797,0.29,0.96,-0.0,1.22,-2.87,-2.38,404,471,398,318,317,8
798,0.3,0.96,-0.01,-0.24,-3.78,-2.99,403,469,400,320,315,8
799,0.29,0.96,0.0,-0.18,-2.99,-1.53,405,477,399,316,318,8
800,0.3,0.96,-0.0,1.1,-2.87,-2.38,404,483,395,317,315,8
801,0.3,0.97,0.01,-1.34,-3.11,-2.08,404,469,399,319,317,8
802,0.3,0.98,0.01,-0.55,-6.1,-0.31,404,472,397,320,314,8
803,0.31,0.96,-0.01,-0.18,-3.48,-1.46,400,472,400,319,325,8
804,0.3,0.95,0.0,-1.16,-4.33,-1.59,406,473,402,318,314,8
805,0.3,0.96,0.01,-0.18,-3.05,-2.32,404,474,398,319,315,8
806,0.29,0.95,0.01,0.18,-3.78,-2.14,404,473,400,319,345,8
807,0.3,0.96,0.0,-0.55,-2.62,-3.17,403,469,398,317,312,8
808,0.29,0.95,0.0,-0.12,-2.56,-1.89,404,468,399,318,318,8
809,0.29,0.95,-0.0,-0.79,-2.56,-2.2,402,475,398,320,312,8
810,0.29,0.96,0.0,0.18,-2.32,-2.01,404,472,400,317,314,8
811,0.3,0.95,0.0,-0.06,-2.69,-1.83,405,471,401,314,317,8
812,0.29,0.95,0.0,0.79,-3.17,-1.77,402,468,400,319,312,8
813,0.29,0.95,0.01,-0.61,-2.62,-2.62,400,474,396,316,318,8
814,0.3,0.95,0.0,0.67,-2.81,-2.2,404,473,398,316,309,8
815,0.29,0.96,0.01,0.61,-2.44,-3.17,405,472,395,316,316,8
816,0.3,0.96,-0.0,0.61,-2.87,-2.56,402,471,400,314,314,8
817,0.29,0.96,0.0,1.4,-2.75,-2.32,402,476,398,315,312,8
818,0.3,0.95,-0.0,0.0,-3.17,-2.69,403,473,394,317,315,8
819,0.29,0.96,0.0,-0.85,-3.72,-1.65,402,472,402,322,315,8
820,0.29,0.95,-0.0,0.31,-3.78,-2.87,404,476,398,319,316,8
821,0.3,0.95,-0.01,0.61,-3.42,-2.62,405,475,399,316,312,8
822,0.28,0.95,0.0,0.12,-2.44,-3.23,404,472,396,329,316,8
823,0.29,0.95,-0.0,0.67,-3.36,-2.87,402,473,402,317,314,8
824,0.29,0.94,-0.01,1.28,-2.93,-1.83,401,476,397,317,313,8
825,0.28,0.95,-0.0,0.73,-1.95,-2.87,403,475,399,317,317,8
826,0.3,0.95,-0.0,-0.49,-2.32,-2.32,403,473,399,318,317,8
827,0.29,0.96,0.0,1.89,-2.62,-2.14,401,472,398,322,316,8
828,0.29,0.96,0.01,0.49,-3.23,-1.71,404,473,397,323,314,8
829,0.31,0.95,-0.0,-0.24,-2.93,-2.93,398,476,397,319,316,8
830,0.29,0.95,0.01,-0.85,-2.26,-2.08,403,467,398,318,315,8
831,0.29,0.95,0.01,1.28,-3.11,-2.56,404,467,396,314,317,8
832,0.3,0.95,-0.0,-0.49,-2.93,-3.3,403,474,410,320,314,8
833,0.3,0.97,0.01,-1.46,-2.26,-2.26,404,470,396,320,314,8
834,0.28,0.95,0.01,0.55,-2.26,-3.85,404,470,399,320,314,8
835,0.28,0.93,0.01,-1.1,-1.46,-2.2,401,476,400,317,317,8
836,0.26,0.96,0.05,1.89,-4.09,-2.81,400,467,396,320,314,8
837,0.28,0.95,0.01,-1.22,-3.54,-1.71,402,471,397,318,321,8
838,0.28,0.94,0.01,1.1,-2.56,-1.22,399,474,394,316,314,8
839,0.27,0.95,0.01,1.16,-2.93,-2.75,403,471,397,318,315,8
840,0.28,0.96,0.0,-1.04,-2.14,-2.44,403,480,398,316,316,8
841,0.29,0.94,0.0,0.12,-5.13,-2.26,404,476,397,320,315,8
842,0.29,0.96,0.02,1.59,-2.5,-3.85,405,471,399,323,316,8
843,0.3,0.96,0.02,1.77,-2.5,-3.05,404,472,397,318,313,8
844,0.3,0.95,0.01,-0.18,-3.54,-1.53,406,467,398,317,315,8
845,0.28,0.93,0.01,-2.26,-1.28,-2.93,405,471,398,316,315,8
846,0.3,0.95,0.03,-2.44,-2.5,-2.5,405,471,395,320,315,8
847,0.3,0.96,0.03,-1.04,0.61,-5.68,409,476,397,314,314,8
848,0.29,0.96,0.03,1.16,-5.19,-1.77,406,466,396,322,313,8
849,0.3,0.95,0.02,0.43,-2.93,-3.72,406,472,394,318,314,8
850,0.29,0.96,0.03,0.67,-3.48,-2.5,403,470,410,319,314,8
851,0.29,0.95,0.02,-0.12,-3.42,-2.38,407,468,401,315,314,8
852,0.29,0.95,0.02,1.65,-2.75,-3.17,403,469,395,316,316,8
853,0.28,0.95,0.02,-0.55,-3.17,-2.87,407,471,397,317,316,8
854,0.29,0.95,0.02,0.67,-2.01,-2.26,401,472,400,316,317,8
855,0.29,0.95,0.02,2.08,-3.11,-2.62,405,472,397,317,314,8
856,0.29,0.95,0.02,0.92,-3.11,-1.4,408,473,406,315,314,8
857,0.29,0.94,0.02,-0.67,-2.69,-3.05,406,468,400,320,318,8
858,0.29,0.94,0.02,0.61,-2.5,-2.69,408,477,393,317,316,8
859,0.29,0.95,0.02,1.1,-3.66,-2.26,404,475,404,320,315,8
860,0.29,0.94,0.01,0.31,-3.3,-1.46,407,468,396,314,313,8
861,0.29,0.95,0.02,0.73,-2.38,-2.5,405,473,398,318,316,8
862,0.29,0.94,0.01,-1.28,-1.77,-2.75,406,469,396,313,315,8
863,0.29,0.95,0.02,0.18,-2.38,-2.26,403,478,400,319,313,8
864,0.3,0.96,0.02,-0.06,-2.44,-1.89,405,473,397,316,312,8
865,0.31,0.95,0.02,-0.67,-4.09,-1.71,405,471,397,322,354,8
866,0.3,0.95,0.02,1.53,-3.3,-2.62,401,472,397,317,316,8
867,0.29,0.93,0.0,0.12,-1.46,-3.66,405,476,397,316,313,8
868,0.29,0.94,0.01,1.53,-4.09,-3.23,403,475,396,317,316,8
869,0.29,0.95,0.01,0.43,-3.3,-3.42,402,479,397,323,313,8
870,0.29,0.96,0.02,0.73,-3.42,-1.89,405,473,398,318,314,8
871,0.3,0.96,0.02,-0.67,-2.38,-2.87,403,471,399,318,312,8
872,0.3,0.95,0.01,-0.06,-2.75,-1.53,407,466,396,326,316,8
873,0.31,0.95,0.01,-1.04,-3.05,-2.99,403,475,400,313,314,8
874,0.3,0.95,0.01,-0.49,-2.56,-2.56,401,477,396,318,315,8
875,0.3,0.95,0.02,-0.92,-2.75,-3.48,403,473,397,318,313,8
876,0.3,0.95,0.02,0.31,-2.38,-2.75,405,474,392,317,311,8
877,0.3,0.95,0.03,1.4,-3.91,-2.5,403,476,395,317,313,8
878,0.3,0.95,0.02,-0.24,-3.72,-2.5,405,472,399,320,312,8
879,0.27,0.93,0.02,0.67,0.12,-2.26,405,475,398,317,315,8
880,0.28,0.95,0.04,-2.81,-2.14,0.18,404,476,394,323,313,8
881,0.3,0.94,0.03,-0.49,-1.89,-2.32,405,472,399,318,311,8
882,0.28,0.95,0.04,0.0,-2.2,-2.44,404,476,396,316,312,8
883,0.27,0.94,0.04,-1.04,-2.99,-2.44,406,474,396,313,316,8
884,0.28,0.95,0.04,-0.37,-3.54,-1.53,406,474,396,318,305,8
885,0.29,0.95,0.03,1.16,-4.52,-2.56,405,474,404,317,344,8
886,0.3,0.95,0.02,-0.61,-4.21,-2.99,404,473,395,318,325,8
887,0.31,0.96,0.05,1.1,-2.56,-0.79,405,470,396,319,315,8
888,0.28,0.94,0.03,0.0,-5.13,-2.08,406,475,396,315,315,8
889,0.31,0.94,0.03,-0.18,-3.11,-3.11,406,466,396,314,314,8
890,0.29,0.95,0.03,-0.92,-3.36,-3.48,406,469,396,323,314,8
891,0.31,0.95,0.05,0.12,-2.75,-1.1,400,470,396,315,316,8
892,0.29,0.94,0.05,2.08,-3.91,-5.19,404,472,398,315,315,8
893,0.31,0.98,0.03,1.65,-2.2,-6.16,405,471,398,320,316,8
894,0.31,0.97,0.04,-0.85,-2.56,-0.43,404,474,396,314,315,8
895,0.29,0.95,0.03,0.73,-3.11,-0.85,405,468,398,318,314,8
896,0.33,0.97,0.04,-1.16,-4.39,-3.23,402,471,397,316,315,8
897,0.33,0.95,0.02,0.55,-5.62,-0.92,400,471,399,316,314,8
898,0.32,0.94,0.02,-0.67,-1.28,-1.95,405,469,392,317,314,8
899,0.31,0.95,0.03,2.32,-3.36,-2.44,401,474,399,319,317,8
900,0.32,0.96,0.03,-0.49,-0.85,-5.37,404,470,394,318,314,8
901,0.34,0.96,0.02,-0.55,-6.65,-3.78,405,471,396,313,313,8
902,0.3,0.94,0.01,3.11,-2.99,-3.91,405,466,392,319,313,8
903,0.29,0.97,0.01,0.43,2.08,-4.76,403,472,393,318,313,8
904,0.29,0.96,0.0,3.54,0.0,-4.15,400,470,396,317,313,8
905,0.28,0.96,-0.0,-2.87,-3.91,0.73,407,466,398,313,310,8
906,0.32,0.92,-0.01,-2.75,-6.84,-2.01,408,474,392,318,314,8
907,0.31,0.95,0.01,2.56,-1.71,-2.32,405,469,397,320,314,8
908,0.28,0.96,0.01,1.95,-2.14,-2.56,404,474,392,318,313,8
909,0.29,0.94,0.0,0.18,-5.0,-2.75,400,471,397,318,314,8
910,0.33,0.94,-0.02,0.24,-2.5,-2.14,404,476,399,319,313,8
911,0.29,0.96,0.01,-2.93,-0.55,-3.78,403,471,395,316,314,8
912,0.29,0.93,0.01,-1.71,-3.91,0.12,405,473,395,322,314,8
913,0.3,0.96,0.0,-1.77,-2.44,4.09,407,473,397,318,313,8
914,0.32,0.95,0.01,4.27,-6.16,-1.77,404,470,394,319,314,8
915,0.36,0.93,-0.03,-0.92,0.0,1.4,404,465,398,321,317,8
916,0.33,0.93,-0.0,0.37,-1.65,-5.43,404,471,392,318,313,8
917,0.34,0.93,-0.01,-1.46,-0.73,-3.48,403,474,398,316,313,8
918,0.35,0.95,0.01,7.2,-1.95,-4.21,400,468,394,319,314,8
919,0.28,0.98,0.02,-3.42,-1.71,-5.0,407,470,396,314,313,8
920,0.37,0.96,-0.0,2.38,-11.29,-4.09,406,470,398,316,316,8
921,0.3,0.95,0.0,-1.34,-2.26,-3.48,404,470,401,320,313,8
922,0.3,0.97,0.07,1.1,-3.48,-1.46,404,470,395,314,315,8
923,0.29,0.93,0.01,3.6,-2.01,-3.91,402,468,393,316,312,8
924,0.31,0.96,0.03,-1.71,-3.05,-5.0,406,471,394,319,317,8
925,0.33,0.97,0.04,-0.31,-2.38,-3.42,404,475,396,317,315,8
926,0.32,0.95,0.04,0.49,-3.91,-4.03,404,473,392,319,313,8
927,0.31,0.95,0.05,0.06,-3.3,-2.81,406,472,398,316,313,8
928,0.31,0.96,0.05,0.79,-2.99,-2.44,403,476,407,317,316,8
929,0.3,0.95,0.04,-0.06,-3.66,-2.99,406,473,395,317,314,8
930,0.31,0.95,0.04,-3.17,-3.17,-2.26,406,469,401,317,313,8
931,0.29,0.96,0.05,-1.22,-2.44,-2.62,401,473,396,317,313,8
932,0.3,0.96,0.05,1.46,-1.34,-1.34,403,470,396,318,314,8
933,0.27,0.96,0.04,2.01,-4.7,-4.58,404,473,399,314,313,8
934,0.3,0.95,0.03,1.22,-6.04,0.24,400,469,402,320,312,8
935,0.3,0.96,0.03,0.49,-5.07,-3.42,401,469,400,317,313,8
936,0.3,0.95,0.03,1.04,-4.15,-3.78,404,469,402,317,316,8
937,0.3,0.94,0.03,0.31,-2.69,-1.89,400,473,398,320,315,8
938,0.3,0.96,0.04,0.98,-3.72,-2.26,405,471,411,316,314,8
939,0.29,0.94,0.03,0.37,-1.89,-1.95,405,470,397,317,316,8
940,0.3,0.94,0.02,0.92,-3.66,-1.53,403,469,399,316,315,8
941,0.3,0.95,0.02,-0.98,-3.05,-2.93,403,465,401,330,314,8
942,0.3,0.95,0.01,-0.31,-3.66,-2.26,404,471,400,318,315,8
943,0.3,0.95,0.02,-0.12,-2.56,-2.69,403,470,399,318,313,8
944,0.31,0.95,0.02,1.16,-2.75,-2.5,405,470,400,319,311,8
945,0.29,0.98,0.04,0.61,-3.11,-3.11,405,466,402,320,323,8
946,0.3,0.95,0.02,-1.53,-3.11,-3.23,405,474,395,312,314,8
947,0.3,0.95,0.03,-0.55,-2.5,-1.16,404,468,400,314,316,8
948,0.28,0.95,0.05,0.18,-3.11,-2.69,408,480,401,317,351,8
949,0.29,0.96,0.04,0.18,-3.36,-3.36,400,473,397,317,314,8
950,0.28,0.95,0.04,0.55,-3.3,-1.95,404,472,401,317,315,8
951,0.29,0.95,0.03,-0.12,-3.91,-2.26,401,472,401,323,312,8
952,0.29,0.95,0.03,0.12,-2.38,-2.56,400,470,399,320,312,8
953,0.3,0.95,0.03,-0.79,-3.17,-1.71,403,469,394,317,316,8
954,0.29,0.95,0.04,-0.18,-2.08,-2.87,405,465,398,318,313,8
955,0.3,0.96,0.03,-0.37,-2.75,-2.62,406,474,399,320,311,8
956,0.29,0.95,0.04,1.46,-2.87,-2.87,405,470,397,321,314,8
957,0.29,0.95,0.04,0.0,-3.66,-3.23,405,467,400,319,326,8
958,0.29,0.95,0.03,-0.43,-3.17,-2.14,405,473,397,318,319,8
959,0.3,0.96,0.03,1.89,-4.39,-2.99,406,470,398,318,314,8
960,0.29,0.95,0.03,0.79,-3.54,-2.99,404,473,398,324,315,8
961,0.29,0.96,0.03,0.31,-3.36,-3.48,404,470,401,317,314,8
962,0.3,0.95,0.03,0.98,-3.11,-4.03,403,471,397,317,313,8
963,0.28,0.96,0.04,1.34,-3.11,-3.11,400,466,397,317,316,8
964,0.29,0.95,0.03,0.18,-3.11,-3.72,404,469,400,314,316,8
965,0.28,0.96,0.04,0.06,-2.87,-2.87,400,473,401,316,315,8
966,0.29,0.95,0.04,-0.61,-3.48,-2.26,403,468,398,318,319,8
967,0.29,0.95,0.04,1.16,-3.78,-2.14,405,466,397,318,310,8
968,0.3,0.95,0.03,-0.18,-2.99,-3.11,402,472,399,319,315,8
969,0.28,0.95,0.03,0.12,-3.42,-3.17,404,473,398,317,313,8
970,0.3,0.95,0.03,0.0,-2.38,-3.36,403,475,396,320,312,8
971,0.28,0.95,0.04,0.12,-2.99,-2.14,405,470,398,317,313,8
972,0.35,0.94,-0.04,8.42,22.09,-8.54,403,469,401,314,314,8
973,0.25,0.96,0.04,9.83,14.28,-5.62,400,467,398,320,313,8
974,0.29,0.96,0.05,2.81,1.83,-2.5,405,473,398,320,315,8
975,0.31,0.95,0.02,-2.01,-3.36,2.93,405,469,395,318,314,8
976,0.27,0.93,0.02,-5.25,-8.06,1.71,405,474,397,317,315,8
977,0.28,0.97,0.04,0.55,-3.11,-6.04,402,470,399,322,323,8
978,0.29,0.9,0.04,1.65,-6.53,-3.6,402,468,400,317,311,8
979,0.27,0.94,0.06,-0.43,0.55,-1.46,402,474,399,317,314,8
980,0.31,0.93,0.07,2.08,-6.65,-7.2,402,465,394,319,315,8
981,0.27,0.96,0.09,-2.87,-2.14,1.46,402,470,398,317,315,8
982,0.33,0.93,0.07,0.55,-6.77,-3.6,399,470,399,315,310,8
983,0.29,0.95,0.09,0.43,-1.46,-4.39,404,471,396,316,312,8
984,0.31,0.95,0.07,-0.79,-5.43,-3.17,402,473,396,313,312,8
985,0.29,0.95,0.08,2.08,-1.53,-1.95,404,465,396,315,315,8
986,0.31,0.95,0.07,0.12,-4.76,-2.14,402,473,398,317,311,8
987,0.3,0.94,0.08,0.18,-2.5,-1.83,407,472,395,318,313,8
988,0.32,0.95,0.07,-0.67,-4.82,-1.83,401,473,398,318,315,8
989,0.31,0.95,0.09,-1.1,-5.37,-2.87,401,471,398,315,314,8
990,0.31,0.94,0.09,-0.06,-3.05,-3.42,401,472,392,317,311,8
991,0.3,0.95,0.09,-1.95,-2.2,-3.11,400,472,395,318,312,8
992,0.29,0.95,0.1,-0.79,-2.62,-2.44,399,471,395,319,311,8
993,0.29,0.95,0.1,0.49,-2.62,-2.08,401,464,395,320,312,8
994,0.29,0.95,0.1,-0.37,-3.66,-2.99,398,474,396,316,314,8
995,0.28,0.95,0.09,2.2,-0.55,-5.74,401,470,398,318,314,8
996,0.28,0.96,0.11,-0.49,-4.39,-2.14,402,469,396,317,311,8
997,0.29,0.97,0.12,-0.18,-3.11,-2.75,400,469,397,317,312,8
998,0.27,0.96,0.09,6.9,-6.71,-11.17,395,470,401,317,347,8
999,0.29,0.92,0.06,-1.71,-8.67,-1.4,397,470,395,317,312,8
1000,0.29,0.94,0.07,0.98,-4.33,-2.2,402,469,396,320,312,8
1001,0.28,0.93,0.08,2.01,-5.86,-3.91,395,467,397,318,312,8
1002,0.28,0.94,0.08,1.65,-3.11,-0.61,398,474,397,325,314,8
1003,0.29,0.95,0.08,1.71,-1.89,-1.46,399,471,396,317,309,8
1004,0.3,0.94,0.08,-0.12,-4.64,-2.14,400,470,397,313,312,8
1005,0.31,0.94,0.07,1.83,-2.5,-2.38,398,469,398,318,314,8
1006,0.3,0.94,0.08,-0.18,-3.72,-2.08,398,464,395,314,312,8
1007,0.3,0.94,0.07,0.37,-2.2,-2.99,398,468,393,317,314,8
1008,0.3,0.95,0.08,0.37,-3.6,-2.14,396,465,394,318,312,8
1009,0.31,0.94,0.08,0.24,-3.6,-2.5,396,465,391,317,314,8
1010,0.31,0.95,0.08,-0.37,-3.05,-2.56,394,473,392,318,312,8
1011,0.32,0.87,0.33,-8.06,8.0,4.21,414,471,412,346,220,8
1012,0.26,0.85,0.41,-18.49,0.73,3.91,416,464,412,346,220,8
1013,0.36,0.83,0.4,-0.85,-4.94,1.59,413,466,406,338,212,8
1014,0.35,0.85,0.42,3.42,-3.97,-1.4,410,464,408,333,208,8
1015,0.36,0.84,0.41,-2.62,3.78,-6.71,410,463,406,330,212,8
1016,0.37,0.81,0.45,-1.65,-3.91,1.4,412,470,406,323,208,8
1017,0.39,0.8,0.44,-7.75,-6.65,-1.83,413,470,407,326,209,8
1018,0.39,0.81,0.45,-1.16,0.43,-1.77,411,466,407,327,211,8
1019,0.37,0.78,0.48,-2.32,-1.16,-0.37,417,467,414,331,213,8
1020,0.37,0.8,0.48,4.64,-3.72,-2.32,417,461,407,332,212,8
1021,0.4,0.81,0.46,-0.37,-3.17,-2.26,415,467,405,334,214,8
1022,0.39,0.79,0.45,-0.12,-2.5,-1.22,419,466,408,332,216,8
1023,0.41,0.8,0.45,0.55,-4.03,-2.14,419,467,405,336,216,8
1024,0.42,0.8,0.44,-0.12,-3.17,-1.04,416,466,404,333,215,8
1025,0.45,0.8,0.42,4.27,-3.85,0.49,414,466,405,334,224,8
1026,0.44,0.8,0.4,2.01,-7.14,-3.6,417,465,406,334,216,8
1027,0.41,0.66,0.52,-25.39,25.09,-10.25,416,465,402,335,213,8
1028,0.29,0.74,0.6,-0.31,56.88,-38.88,417,461,405,336,217,8
1029,0.39,0.78,0.59,-4.58,-25.33,7.14,415,469,404,338,217,8
1030,0.36,0.83,0.57,7.93,2.32,-22.22,417,466,407,340,217,8
1031,0.38,0.79,0.55,-8.91,-2.69,4.76,414,465,405,345,221,8
1032,0.29,0.75,0.56,0.49,7.51,0.37,414,462,406,343,223,8
1033,0.38,0.79,0.58,-2.56,2.44,0.24,417,461,402,346,220,8
1034,0.36,0.69,0.59,1.71,-4.09,7.69,417,465,404,345,222,8
1035,0.4,0.68,0.59,-2.38,-13.31,5.37,414,465,402,350,228,8
1036,0.46,0.67,0.61,1.46,1.71,1.53,417,469,399,351,225,8
1037,0.45,0.61,0.6,1.83,-5.98,0.85,416,468,399,349,229,8
1038,0.46,0.64,0.61,-0.85,-7.32,0.79,415,465,398,349,226,8
1039,0.52,0.66,0.59,-2.62,1.46,-6.53,414,466,394,348,226,8
1040,0.53,0.64,0.58,2.08,-10.19,4.76,417,462,397,349,229,8
1041,0.53,0.63,0.58,1.65,-2.75,-7.69,417,468,395,352,228,8
1042,0.46,0.65,0.62,2.87,-13.67,-0.55,418,461,396,352,227,8
1043,0.47,0.63,0.61,-0.12,2.2,2.14,421,464,401,347,260,8
1044,0.51,0.57,0.62,-7.63,1.16,3.23,418,464,397,351,226,8
1045,0.45,0.66,0.61,11.72,-9.77,-7.26,416,468,398,351,227,8
1046,0.46,0.73,0.56,5.13,-6.84,-0.61,417,460,399,349,231,8
1047,0.46,0.67,0.58,5.0,-15.26,-0.55,420,464,398,351,228,8
1048,0.52,0.69,0.51,3.66,-3.42,-7.87,417,469,392,350,228,8
1049,0.51,0.66,0.55,-4.03,-8.42,0.31,416,469,398,352,240,8
1050,0.56,0.68,0.55,-3.91,-6.35,0.24,421,461,393,348,230,8
1051,0.51,0.62,0.53,5.68,-17.58,9.34,418,465,391,352,231,8
1052,0.59,0.66,0.49,2.26,0.24,-8.85,419,465,393,357,227,8
1053,0.56,0.65,0.48,1.16,-1.83,-8.48,416,467,393,349,230,8
1054,0.58,0.67,0.5,-0.24,0.67,-4.03,422,464,395,350,231,8
1055,0.6,0.69,0.49,2.62,-1.4,-4.27,430,471,389,347,230,8
1056,0.57,0.64,0.49,1.22,-5.0,-7.08,423,469,388,351,229,8
1057,0.54,0.67,0.51,6.16,-3.66,-3.23,420,465,390,348,230,8
1058,0.53,0.7,0.5,6.65,0.55,-8.54,421,464,392,353,230,8
1059,0.54,0.69,0.5,0.92,-3.48,-1.22,422,471,392,351,230,8
1060,0.54,0.68,0.49,2.08,-0.85,-2.62,421,465,394,347,226,8
1061,0.52,0.68,0.49,1.46,-4.27,-3.91,424,472,389,352,231,8
1062,0.53,0.7,0.49,-2.26,-3.72,-2.93,417,460,392,350,221,8
1063,0.53,0.71,0.5,0.12,-1.71,-2.93,426,466,392,348,230,8
1064,0.52,0.7,0.49,0.31,-2.69,-4.52,420,465,392,348,232,8
1065,0.51,0.71,0.48,-0.12,-1.59,-3.54,421,466,391,351,234,8
1066,0.51,0.72,0.49,-0.73,-1.89,-3.97,422,459,393,349,231,8
1067,0.47,0.74,0.51,-4.21,3.6,-7.14,422,465,394,350,233,8
1068,0.4,0.73,0.58,0.06,5.74,-8.18,425,454,395,351,234,8
1069,0.36,0.72,0.58,-4.09,7.63,-10.01,421,461,397,354,234,8
1070,0.37,0.73,0.59,3.23,-11.41,2.5,422,463,400,355,235,8
1071,0.38,0.74,0.58,0.06,-3.23,-2.38,422,465,398,356,237,8
1072,0.39,0.74,0.58,1.46,-3.23,-2.87,425,463,399,355,234,8
1073,0.39,0.74,0.58,-1.04,-3.11,-1.46,422,462,399,356,236,8
1074,0.37,0.74,0.56,-0.85,-2.38,-1.46,424,463,399,358,235,8
1075,0.38,0.73,0.57,0.06,-1.22,-3.66,419,462,395,358,236,8
1076,0.41,0.76,0.56,1.34,-3.11,-2.56,418,463,398,356,236,8
1077,0.38,0.76,0.57,-0.43,-2.56,-1.95,419,462,398,358,237,8
1078,0.37,0.73,0.57,3.85,-1.1,-2.44,423,463,397,359,239,8
1079,0.37,0.75,0.56,1.16,-3.48,-4.64,422,464,398,358,238,8
1080,0.4,0.75,0.56,2.38,-3.17,-0.92,423,459,395,359,238,8
1081,0.39,0.76,0.56,0.92,-3.05,-4.39,419,466,400,361,239,8
1082,0.34,0.77,0.55,5.19,-0.43,-3.85,422,461,398,362,246,8
1083,0.37,0.8,0.55,1.28,-4.03,-1.28,423,458,398,357,241,8
1084,0.34,0.77,0.54,-0.73,0.37,-3.97,424,468,398,360,241,8
1085,0.35,0.75,0.54,-9.09,-2.62,-1.65,421,462,399,360,240,8
1086,0.35,0.77,0.55,1.1,-3.48,-3.11,423,461,398,361,240,8
1087,0.36,0.78,0.55,-2.08,-2.14,-3.6,423,457,406,360,248,8
1088,0.34,0.77,0.55,0.24,-3.54,-5.49,426,461,401,358,241,8
1089,0.34,0.76,0.56,1.53,-2.2,-3.42,419,461,401,358,239,8
1090,0.33,0.76,0.57,-1.1,-2.56,-2.81,421,462,395,361,241,8
1091,0.33,0.77,0.57,0.67,-2.87,-2.14,422,461,401,362,250,8
1092,0.33,0.78,0.55,0.24,-2.81,1.16,424,475,405,359,241,8
1093,0.36,0.76,0.58,-0.18,-4.21,-0.37,421,462,399,362,244,8
1094,0.36,0.76,0.57,2.32,-3.97,-3.72,419,464,397,363,243,8
1095,0.36,0.75,0.55,1.59,-1.53,-2.87,421,460,396,363,238,8
1096,0.34,0.78,0.56,-0.85,-5.74,0.0,423,461,397,362,241,8
1097,0.37,0.74,0.56,-4.33,0.61,-0.31,421,460,399,362,243,8
1098,0.36,0.71,0.58,-1.53,-1.1,-1.83,423,461,395,362,244,8
1099,0.38,0.72,0.58,4.46,-10.13,8.06,423,464,400,360,249,8
1100,0.36,0.73,0.59,6.71,-5.07,-0.37,423,462,398,360,240,8
1101,0.35,0.74,0.6,0.73,-3.23,-2.81,420,466,400,362,243,8
1102,0.37,0.73,0.59,-0.37,-1.77,-2.38,420,465,400,363,244,8
1103,0.36,0.73,0.58,1.71,-2.69,-2.26,422,458,398,357,245,8
1104,0.41,0.73,0.57,-0.18,-6.29,0.79,423,461,398,356,245,8
1105,0.37,0.75,0.58,0.06,-2.32,-3.66,423,461,397,362,243,8
1106,0.36,0.74,0.58,0.12,-3.36,-2.01,423,466,398,360,243,8
1107,0.34,0.76,0.59,1.04,-0.49,-3.23,423,455,400,361,245,8
1108,0.36,0.74,0.58,0.31,-2.75,-3.23,425,453,399,372,243,8
1109,0.35,0.75,0.58,0.73,-2.2,-3.3,421,455,401,360,242,8
1110,0.35,0.75,0.56,2.93,-3.3,-2.99,422,451,397,358,243,8
1111,0.35,0.75,0.58,2.14,-1.95,-2.32,424,449,409,360,244,8
1112,0.35,0.75,0.57,0.31,-2.69,-1.65,424,440,395,361,247,8
1113,0.34,0.75,0.58,-1.59,-2.14,-2.2,425,452,396,362,246,8
1114,0.35,0.76,0.57,-0.49,-2.81,-2.87,425,453,394,362,245,8
1115,0.35,0.74,0.57,-0.37,-2.93,-1.83,420,457,400,362,244,8
1116,0.35,0.75,0.58,-0.18,-2.01,-3.72,423,454,397,359,246,8
1117,0.34,0.76,0.58,0.49,-2.81,-2.5,423,452,397,359,246,8
1118,0.36,0.76,0.58,2.44,-3.36,0.37,419,450,399,365,247,8
1119,0.37,0.74,0.58,3.72,-4.7,-2.38,423,459,400,365,247,8
1120,0.35,0.75,0.58,0.24,-4.21,-1.28,421,453,398,363,243,8
1121,0.34,0.73,0.56,-1.83,-3.48,-1.77,421,453,401,368,244,8
1122,0.35,0.73,0.58,-0.49,-1.53,-1.71,421,453,400,362,246,8
1123,0.35,0.75,0.6,1.04,-2.44,-4.94,421,451,395,365,245,8
1124,0.34,0.73,0.6,-3.36,-5.0,-2.01,423,459,396,361,241,8
1125,0.34,0.74,0.6,0.79,-3.66,-1.59,422,469,400,362,245,8
1126,0.34,0.74,0.59,1.59,-4.09,-2.01,422,452,399,362,246,8
1127,0.34,0.74,0.59,0.43,-3.6,-2.14,426,452,401,358,248,8
1128,0.34,0.74,0.59,0.37,-3.11,-1.83,424,451,397,370,246,8
1129,0.34,0.75,0.59,0.06,-2.38,-1.59,422,450,399,362,255,8
1130,0.34,0.74,0.59,-0.73,-2.75,-3.78,423,457,397,361,246,8
1131,0.34,0.74,0.6,-0.06,-3.17,-1.83,422,448,400,366,245,8
1132,0.33,0.74,0.59,-0.67,-3.11,-2.38,423,454,396,365,247,8
1133,0.32,0.72,0.6,0.24,-2.75,-1.77,425,454,395,360,248,8
1134,0.36,0.73,0.6,0.98,-4.03,0.18,423,456,393,364,248,8
1135,0.34,0.73,0.6,0.37,-2.99,-3.42,419,455,401,362,246,8
1136,0.32,0.75,0.6,1.53,-1.53,-2.93,423,453,397,364,246,8
1137,0.33,0.75,0.61,0.67,-3.48,-1.28,425,453,397,364,249,8
1138,0.34,0.74,0.59,0.61,-3.05,-2.99,424,456,398,364,246,8
1139,0.3,0.74,0.62,-1.16,3.72,-8.97,423,454,397,364,247,8
1140,0.33,0.74,0.6,-0.18,-3.91,-3.3,424,453,398,362,248,8
1141,0.31,0.74,0.6,-0.06,-2.5,-3.36,421,457,396,362,249,8
1142,0.3,0.74,0.6,1.53,-3.66,-2.93,423,453,397,363,247,8
1143,0.31,0.75,0.59,-1.04,-2.62,-2.93,425,454,396,357,242,8
1144,0.32,0.75,0.6,-0.24,-2.5,-2.14,424,453,402,358,283,8
1145,0.31,0.74,0.61,-0.79,-2.56,-3.72,423,450,398,366,245,8
1146,0.3,0.77,0.6,-4.21,-9.52,-7.51,423,453,397,362,269,8
1147,0.27,0.75,0.58,6.65,-5.37,-13.73,426,452,396,360,245,8
1148,0.23,0.74,0.57,0.61,-23.07,-17.58,423,455,396,358,251,8
1149,0.28,0.8,0.55,1.71,-4.64,-6.59,422,452,399,363,248,8
1150,0.28,0.8,0.56,-1.46,-2.44,-0.37,426,450,399,378,243,8
1151,0.26,0.82,0.54,-0.73,-1.77,-2.32,421,459,400,365,245,8
1152,0.27,0.79,0.55,3.85,-2.44,-3.48,422,452,394,363,276,8
1153,0.27,0.78,0.57,-2.44,-1.89,-2.32,424,456,394,362,247,8
1154,0.24,0.78,0.58,-1.16,-2.93,-1.16,422,457,394,363,251,8
1155,0.25,0.79,0.58,-0.24,-1.53,-2.93,423,453,398,360,243,8
1156,0.25,0.81,0.58,3.72,-0.61,-2.81,420,457,397,362,248,8
1157,0.27,0.8,0.56,-1.34,-4.21,-1.83,418,458,400,359,249,8
1158,0.26,0.78,0.57,-2.08,-3.72,-2.62,418,457,400,363,248,8
1159,0.25,0.78,0.54,-2.38,-3.3,-5.07,423,455,403,364,246,8
1160,0.26,0.79,0.59,-8.24,-9.16,-2.38,424,454,399,362,248,8
1161,0.31,0.78,0.6,1.77,0.0,-1.4,426,453,401,365,246,8
1162,0.26,0.8,0.6,-1.71,0.67,-12.94,425,457,397,363,247,8
1163,0.22,0.8,0.6,0.31,-3.23,-15.99,425,454,397,363,246,8
1164,0.13,0.77,0.58,3.78,-4.88,-8.42,422,449,398,365,249,8
1165,0.13,0.77,0.6,5.43,-7.63,-12.08,422,455,400,365,247,8
1166,0.13,0.79,0.62,0.61,-0.49,-7.39,424,455,399,358,250,8
1167,0.11,0.83,0.58,4.52,-6.16,-8.85,422,452,401,364,247,8
1168,0.1,0.8,0.57,-5.86,2.5,-5.92,421,453,394,364,246,8
1169,0.1,0.82,0.58,5.07,-3.36,-2.62,421,453,396,363,246,8
1170,0.14,0.83,0.57,-4.52,-4.52,1.16,417,450,397,364,255,8
1171,0.14,0.82,0.59,0.98,-4.52,-2.26,419,453,393,365,247,8
1172,0.12,0.83,0.57,-11.11,0.0,7.63,422,449,399,361,264,8
1173,0.13,0.82,0.57,-1.1,-2.2,-3.72,423,448,398,363,246,8
1174,0.13,0.83,0.6,3.23,-2.81,-4.58,416,453,395,365,246,8
1175,0.12,0.79,0.52,-1.71,-8.91,2.08,420,454,397,365,244,8
1176,0.13,0.77,0.55,5.31,-0.43,-11.29,420,459,399,365,245,8
1177,0.11,0.81,0.56,-2.14,1.4,-3.97,420,454,397,364,253,8
1178,0.11,0.83,0.58,5.37,1.53,-6.04,418,455,393,360,243,8
1179,0.11,0.82,0.55,-2.69,-10.07,4.09,419,459,395,360,245,8
1180,0.06,0.8,0.57,-3.3,4.33,5.13,419,459,396,361,244,8
1181,0.06,0.8,0.55,-0.98,-0.18,1.04,415,458,393,361,243,8
1182,0.09,0.83,0.59,-2.01,-4.15,-5.37,418,451,397,360,244,8
1183,0.05,0.85,0.66,-9.34,-1.83,-0.79,419,455,398,363,280,8
1184,0.05,0.79,0.64,-10.74,-1.53,-9.4,422,456,393,363,243,8
1185,0.01,0.77,0.66,0.31,-2.69,-6.1,418,456,399,364,248,8
1186,0.03,0.72,0.62,7.2,-1.59,-1.77,421,456,397,362,242,8
1187,0.04,0.75,0.62,2.62,-0.92,-3.54,422,459,396,362,243,8
1188,0.05,0.79,0.62,-1.04,-3.72,-0.18,416,458,396,362,250,8
1189,0.02,0.77,0.62,2.81,-3.85,-9.64,415,451,397,362,246,8
1190,0.06,0.81,0.6,7.32,0.18,5.0,416,459,397,368,236,8
1191,0.04,0.81,0.63,-0.85,1.16,-1.46,419,458,396,362,246,8
1192,0.03,0.84,0.63,1.28,6.41,8.12,420,455,397,364,246,8
1193,0.09,0.8,0.61,0.0,-1.04,-4.33,425,455,396,363,248,8
1194,0.06,0.78,0.63,-3.36,5.55,-8.61,420,456,392,370,247,8
1195,0.06,0.79,0.62,2.26,-10.44,1.16,419,459,396,363,245,8
1196,0.07,0.79,0.6,3.72,-5.74,0.18,421,459,392,363,247,8
1197,0.04,0.8,0.61,0.79,-4.52,-3.66,420,449,397,364,246,8
1198,0.09,0.77,0.59,-0.12,-2.93,-4.46,415,454,397,363,246,8
1199,0.09,0.79,0.62,1.46,-3.11,-0.98,426,454,397,363,248,8
1200,0.11,0.81,0.58,4.82,-4.94,1.16,419,452,397,360,248,8
1201,0.16,0.78,0.59,-1.83,-3.6,-2.81,415,445,393,345,236,8
1202,0.13,0.79,0.6,-6.9,0.98,0.98,416,444,396,342,234,8
1203,0.16,0.78,0.65,-0.67,-7.14,-6.16,415,445,387,341,230,8
1204,0.11,0.78,0.64,-3.36,-7.14,-1.65,417,450,386,341,236,8
1205,0.12,0.75,0.63,-1.53,-1.1,-0.92,418,451,388,344,236,8
1206,0.13,0.77,0.64,0.37,-1.77,-2.93,416,450,388,344,234,8
1207,0.14,0.75,0.65,-5.31,-3.72,-1.95,413,450,388,355,233,8
1208,0.13,0.74,0.65,0.24,-1.28,-3.42,416,448,387,346,251,8
1209,0.12,0.74,0.66,1.46,-3.11,-2.62,417,452,387,346,238,8
1210,0.13,0.74,0.65,-1.1,-1.28,-2.38,418,452,388,349,235,8
1211,0.13,0.75,0.64,2.01,-4.7,-0.37,419,452,388,348,238,8
1212,0.14,0.75,0.64,-0.85,-3.42,-1.71,419,449,388,346,240,8
1213,0.15,0.76,0.65,0.73,-4.21,-0.85,421,453,388,347,240,8
1214,0.14,0.75,0.64,-0.79,-2.32,-2.38,419,452,394,348,239,8
1215,0.13,0.74,0.65,2.38,-2.99,-4.15,419,450,390,353,236,8
1216,0.12,0.76,0.64,-5.19,-0.61,-5.92,420,451,391,352,238,8
1217,0.13,0.75,0.66,-0.43,-1.53,-0.73,418,456,390,351,242,8
1218,0.11,0.75,0.65,1.22,-3.91,-2.75,419,448,392,348,238,8
1219,0.12,0.75,0.65,0.24,-2.2,-1.28,419,454,394,353,250,8
1220,0.12,0.75,0.64,4.88,-3.66,-0.06,416,458,391,354,242,8
1221,0.13,0.75,0.67,3.3,-2.93,-8.3,419,448,391,353,242,8
1222,0.13,0.78,0.65,0.06,-5.86,-2.81,420,453,394,351,241,8
1223,0.13,0.76,0.65,-1.59,-1.89,-0.67,423,449,391,354,242,8
1224,0.13,0.75,0.65,0.0,-1.34,-2.44,415,448,394,353,264,8
1225,0.13,0.74,0.67,1.83,-2.32,-3.36,420,454,393,355,239,8
1226,0.14,0.76,0.67,0.12,-3.54,-0.24,418,451,391,352,243,8
1227,0.11,0.76,0.66,1.59,-3.17,-2.62,420,453,391,351,240,8
1228,0.12,0.74,0.65,2.87,-3.66,-0.92,420,455,391,353,242,8
1229,0.13,0.75,0.64,1.04,-4.03,-2.08,419,446,393,352,238,8
1230,0.12,0.77,0.64,7.02,-4.46,-3.11,422,452,392,347,242,8
1231,0.16,0.79,0.63,1.89,-3.78,-1.28,416,453,393,351,240,8
1232,0.14,0.77,0.62,0.73,-2.38,-2.81,417,455,393,351,234,8
1233,0.15,0.77,0.63,1.34,-2.81,-6.16,418,449,394,351,239,8
1234,0.18,0.78,0.63,-1.65,-3.78,-0.49,421,449,391,349,242,8
1235,0.18,0.78,0.62,2.99,-0.73,-0.55,421,456,388,351,241,8
1236,0.17,0.78,0.6,0.79,-3.23,-2.01,421,449,390,352,229,8
1237,0.17,0.77,0.61,-0.24,-3.48,-2.69,421,451,393,350,238,8
1238,0.18,0.8,0.61,4.64,-3.66,-2.32,423,448,393,351,266,8
1239,0.17,0.74,0.59,-4.94,-2.44,0.49,422,453,391,352,240,8
1240,0.2,0.75,0.61,-5.0,-4.03,-4.27,418,455,387,349,240,8
1241,0.19,0.73,0.62,-4.7,-3.66,-5.49,420,452,402,354,239,8
1242,0.17,0.76,0.65,1.34,-1.65,-2.44,422,452,391,353,241,8
1243,0.19,0.78,0.65,-5.31,5.43,-3.66,423,455,393,353,243,8
1244,0.17,0.72,0.64,-11.41,-2.44,2.32,418,457,388,351,237,8
1245,0.17,0.7,0.67,-3.11,-2.44,-2.44,417,453,389,348,239,8
1246,0.2,0.72,0.68,-4.27,-1.59,-0.55,419,448,389,354,243,8
1247,0.18,0.75,0.67,10.31,-7.45,-7.75,417,451,386,350,240,8
1248,0.17,0.74,0.64,2.93,-3.85,-0.73,420,456,389,351,240,8
1249,0.17,0.76,0.63,0.12,-3.42,-4.7,419,455,392,351,241,8
1250,0.17,0.76,0.63,-5.07,-0.55,-1.65,417,451,387,350,240,8
1251,0.17,0.75,0.63,0.37,-3.97,-2.5,421,453,390,352,241,8
1252,0.12,0.77,0.63,0.67,0.61,0.06,421,455,390,353,240,8
1253,0.11,0.73,0.62,-2.75,-1.28,1.28,417,452,389,352,240,8
1254,0.12,0.75,0.65,2.56,-2.5,-3.05,423,448,390,352,243,8
1255,0.16,0.77,0.65,2.69,-4.64,-2.14,417,450,393,352,241,8
1256,0.13,0.74,0.64,-0.67,-5.49,0.85,418,452,396,364,241,8
1257,0.13,0.73,0.63,2.01,-3.05,-5.92,416,455,395,350,243,8
1258,0.15,0.76,0.61,3.05,-6.65,1.53,421,452,390,354,242,8
1259,0.17,0.76,0.66,1.22,-2.99,-3.11,423,453,393,352,260,8
1260,0.15,0.73,0.63,5.8,-4.64,-3.42,418,448,389,350,244,8
1261,0.16,0.78,0.64,2.2,-3.3,-2.38,421,457,394,350,244,8
1262,0.16,0.76,0.63,0.67,-2.87,-2.56,423,448,391,353,241,8
1263,0.16,0.78,0.63,1.53,-2.2,-3.78,422,456,392,354,263,8
1264,0.14,0.76,0.62,-0.49,-3.78,-2.62,421,447,395,352,244,8
1265,0.15,0.76,0.6,0.67,-2.08,-2.87,420,453,395,350,241,8
1266,0.14,0.78,0.59,1.16,-0.92,-2.01,431,454,389,357,244,8
1267,0.14,0.79,0.6,1.16,-2.87,-3.66,424,452,396,357,245,8
1268,0.14,0.79,0.61,0.37,-2.44,-2.62,421,448,394,353,242,8
1269,0.15,0.78,0.61,-2.14,-3.05,-1.46,421,453,391,352,245,8
1270,0.15,0.78,0.61,0.0,-3.78,-2.08,420,456,392,352,244,8
1271,0.14,0.79,0.61,-1.28,-3.23,-1.89,421,454,394,355,243,8
1272,0.14,0.73,0.59,-0.61,-4.03,-12.02,419,453,393,357,243,8
1273,0.13,0.7,0.59,-0.79,-5.31,-9.28,422,452,393,354,243,8
1274,0.11,0.76,0.65,-2.93,-3.6,-3.42,422,458,394,356,243,8
1275,0.04,0.78,0.67,-7.14,-8.85,-4.39,422,458,394,354,245,8
1276,0.1,0.76,0.69,-1.53,-1.4,-3.48,421,452,392,354,245,8
1277,0.03,0.72,0.65,3.17,-1.71,0.06,418,447,395,355,242,8
1278,0.08,0.75,0.64,1.77,-2.69,-0.37,416,461,397,357,243,8
1279,0.1,0.74,0.64,-2.38,-2.44,-3.05,421,455,396,356,244,8
1280,0.08,0.74,0.66,-0.37,-1.83,-3.42,419,449,393,353,246,8
1281,0.08,0.77,0.66,0.98,-1.22,-3.78,421,457,393,355,245,8
1282,0.08,0.75,0.67,0.12,-2.26,-1.83,418,452,394,353,240,8
1283,0.07,0.76,0.66,1.28,-2.01,-2.69,423,455,392,355,243,8
1284,0.06,0.73,0.66,2.81,-3.05,-2.38,417,456,392,356,244,8
1285,0.06,0.76,0.65,0.85,-4.64,-0.92,421,453,392,352,244,8
1286,0.07,0.75,0.65,-0.24,-3.54,-3.6,419,452,394,355,243,8
1287,0.07,0.76,0.65,2.44,-3.6,-1.65,422,457,394,354,276,8
1288,0.07,0.76,0.66,-0.06,-2.69,-2.81,420,453,394,356,246,8
1289,0.05,0.75,0.63,-4.82,0.12,0.06,421,452,390,355,247,8
1290,0.04,0.74,0.66,-1.16,-2.69,-4.7,420,452,393,358,247,8
1291,0.05,0.76,0.66,0.12,-2.56,-1.71,422,452,393,354,245,8
1292,0.05,0.76,0.67,0.24,-3.66,-2.56,421,453,390,357,244,8
1293,0.05,0.74,0.66,-1.83,-3.05,-2.14,421,451,395,358,241,8
1294,0.04,0.75,0.67,-0.12,-2.26,-1.89,424,453,393,354,242,8
1295,0.05,0.75,0.67,-0.37,-2.93,-2.62,417,450,394,356,246,8
1296,0.05,0.76,0.67,1.46,-3.6,-2.32,419,452,395,354,273,8
1297,0.05,0.76,0.67,2.38,-3.11,-2.08,421,452,398,362,243,8
1298,0.06,0.77,0.66,0.92,-3.66,-3.42,418,455,391,359,248,8
1299,0.06,0.76,0.65,0.06,-2.26,-0.79,418,447,397,356,244,8
1300,0.04,0.77,0.63,0.31,-3.85,-0.85,417,453,392,360,245,8
1301,0.04,0.79,0.62,3.78,-3.91,-2.56,421,462,395,354,251,8
1302,0.05,0.79,0.63,0.18,-3.85,-0.85,419,455,385,359,245,8
1303,0.06,0.79,0.64,-3.42,-3.91,-1.28,421,451,388,356,243,8
1304,0.05,0.78,0.64,1.04,-4.09,-3.72,419,456,387,357,243,8
1305,0.07,0.77,0.64,0.92,-3.36,-0.49,423,452,389,356,246,8
1306,0.06,0.77,0.64,2.44,-2.99,-2.44,420,455,388,354,247,8
1307,0.06,0.75,0.62,-1.16,-7.14,-0.98,419,450,391,353,247,8
1308,0.05,0.76,0.63,0.61,-2.32,-2.08,421,456,388,356,244,8
1309,0.06,0.77,0.63,0.43,-3.72,-1.59,421,453,388,359,245,8
1310,0.07,0.77,0.63,0.55,-3.05,-2.32,419,452,385,356,250,8
1311,0.08,0.77,0.63,-0.24,-3.23,-2.26,418,452,384,366,242,8
1312,0.07,0.77,0.63,0.37,-3.17,-1.89,416,457,388,359,246,8
1313,0.08,0.77,0.62,0.67,-3.78,-3.17,418,457,389,356,248,8
1314,0.08,0.78,0.63,-0.24,-2.81,-2.5,420,447,387,353,241,8
1315,0.07,0.78,0.63,1.16,-1.95,-2.08,421,452,388,356,246,8
1316,0.08,0.78,0.61,0.92,-2.87,-0.31,420,455,388,357,246,8
1317,0.07,0.77,0.62,-1.4,-3.42,0.06,421,452,388,359,246,8
1318,0.08,0.79,0.62,-2.01,-4.33,-3.42,421,454,389,358,245,8
1319,0.07,0.79,0.61,1.16,-2.81,-2.62,420,468,390,365,245,8
1320,0.05,0.8,0.61,0.18,-3.17,-3.66,420,446,386,357,247,8
1321,0.06,0.79,0.62,-1.28,-2.01,-2.44,421,454,390,374,247,8
1322,0.06,0.81,0.61,0.31,-1.95,-2.81,420,452,391,357,245,8
1323,0.04,0.8,0.61,0.55,-1.89,-0.73,420,447,391,359,244,8
1324,0.06,0.79,0.61,1.16,-3.54,-2.08,418,453,391,355,245,8
1325,0.06,0.78,0.61,2.26,-2.56,-2.69,421,456,396,357,242,8
1326,0.06,0.8,0.61,-15.5,-3.36,-1.04,420,454,398,357,245,8
1327,0.06,0.79,0.61,1.59,-2.99,-1.89,421,449,393,357,243,8
1328,0.06,0.8,0.61,-1.83,-3.54,-1.89,420,445,392,357,245,8
1329,0.04,0.81,0.6,-1.4,-2.99,-2.75,422,455,392,357,280,8
1330,0.04,0.81,0.59,-2.01,-3.85,-2.08,420,455,390,356,236,8
1331,0.05,0.79,0.59,0.31,-3.11,-2.38,417,446,393,359,247,8
1332,0.07,0.8,0.61,0.61,-5.49,-2.99,419,455,392,356,246,8
1333,0.01,0.83,0.6,0.24,-1.28,-3.23,421,452,392,355,246,8
1334,0.07,0.76,0.62,-23.8,7.14,0.37,420,450,392,357,248,8
1335,0.06,0.73,0.72,-8.91,-1.83,10.8,422,445,394,359,248,8
1336,0.18,0.59,0.75,2.87,-7.69,20.51,419,449,392,357,247,8
1337,0.27,0.58,0.76,1.89,-1.89,6.41,423,450,397,358,249,8
1338,0.22,0.57,0.8,2.01,-13.37,0.85,417,441,391,360,245,8
1339,0.25,0.62,0.78,-7.02,-3.42,-4.15,418,451,393,364,247,8
1340,0.25,0.53,0.79,-4.46,-8.06,-10.8,422,444,393,359,249,8
1341,0.24,0.58,0.8,2.14,0.06,-9.46,420,451,396,357,248,8
1342,0.19,0.63,0.78,1.53,-8.48,-8.12,422,451,393,360,250,8
1343,0.26,0.59,0.78,8.79,-3.48,-4.94,421,453,393,358,248,8
1344,0.13,0.65,0.73,-12.94,-6.84,5.13,423,451,390,360,254,8
1345,0.15,0.61,0.8,-2.5,-3.66,-10.93,421,453,394,363,247,8
1346,0.15,0.59,0.82,-9.4,-9.22,-9.89,423,447,396,358,251,8
1347,0.22,0.51,0.83,-7.39,4.03,-13.18,420,449,394,359,249,8
1348,0.14,0.52,0.86,-1.83,3.91,-3.97,419,446,394,358,251,8
1349,0.03,0.52,0.9,0.24,6.71,-2.08,418,451,393,364,248,8
1350,0.08,0.55,0.89,5.31,-20.02,15.87,417,448,395,360,247,8
1351,0.1,0.5,0.85,-3.91,-5.98,1.04,421,446,394,359,256,8
1352,0.19,0.49,0.88,-2.26,-7.45,6.16,418,445,394,364,255,8
1353,0.19,0.48,0.89,1.77,-1.95,-2.81,415,448,393,364,254,8
1354,0.19,0.5,0.88,0.0,-2.14,-0.79,419,447,392,362,254,8
1355,0.2,0.48,0.88,0.0,-2.56,-2.69,419,446,392,365,252,8
1356,0.2,0.48,0.87,1.1,-2.44,-1.65,420,447,390,359,254,8
1357,0.19,0.48,0.87,1.83,-0.98,0.12,415,447,390,365,255,8
1358,0.18,0.5,0.88,2.44,-2.44,-0.61,419,449,388,360,255,8
1359,0.19,0.5,0.88,-0.06,-1.65,-1.59,420,447,393,368,256,8
1360,0.19,0.5,0.85,3.42,-2.08,-4.94,418,449,388,363,254,8
1361,0.22,0.58,0.79,19.41,8.12,-0.24,421,448,391,361,255,8
1362,0.14,0.66,0.75,15.38,12.76,-10.93,420,441,403,360,253,8
1363,0.14,0.68,0.72,-1.89,-6.77,1.04,417,447,391,365,252,8
1364,0.14,0.68,0.71,2.75,1.77,-0.61,418,440,389,366,248,8
1365,0.11,0.68,0.7,-0.49,-2.08,-2.75,415,439,388,359,253,8
1366,0.12,0.71,0.71,-1.4,3.42,-6.96,431,441,389,366,252,8
1367,0.1,0.71,0.72,-4.94,-9.22,1.04,418,443,392,361,252,8
1368,0.14,0.7,0.7,1.83,-4.82,-1.1,416,446,395,365,253,8
1369,0.15,0.71,0.7,-2.26,-3.66,-2.69,418,441,392,370,254,8
1370,0.16,0.7,0.71,3.36,-1.16,-1.28,415,440,393,367,256,8
1371,0.14,0.7,0.71,0.37,-0.85,-2.75,415,445,391,364,256,8
1372,0.13,0.69,0.72,-2.75,-2.2,-1.65,416,442,390,361,255,8
1373,0.14,0.71,0.72,0.18,-2.87,-1.34,415,439,395,368,254,8
1374,0.13,0.69,0.73,0.49,-3.48,-0.61,421,444,395,364,252,8
1375,0.1,0.65,0.73,-5.37,-8.12,-2.26,418,444,392,367,259,8
1376,0.11,0.66,0.75,0.06,-1.83,-1.83,420,442,392,366,255,8
1377,0.12,0.66,0.75,0.12,-3.54,-1.16,417,446,391,365,252,8
1378,0.14,0.66,0.76,-0.43,-5.98,-0.67,419,440,392,364,256,8
1379,0.16,0.64,0.76,-1.65,-6.9,-2.38,424,446,395,368,255,8
1380,0.17,0.64,0.76,-1.1,-5.49,-5.98,418,445,393,367,255,8
1381,0.16,0.63,0.77,-1.46,-3.23,-2.81,422,446,390,366,250,8
1382,0.16,0.63,0.77,-0.43,-3.85,-3.05,416,444,389,362,253,8
1383,0.15,0.63,0.77,-1.4,-3.05,-2.14,416,448,393,363,252,8
1384,0.16,0.63,0.78,-1.22,-2.44,-3.48,422,447,393,365,258,8
1385,0.15,0.63,0.78,-1.53,-3.42,-4.94,417,446,389,365,257,8
1386,0.16,0.63,0.78,0.12,-1.04,-3.23,421,448,391,364,258,8
1387,0.17,0.61,0.78,-1.77,-3.23,-1.28,420,445,391,365,268,8
1388,0.16,0.62,0.77,0.31,-2.56,-3.97,420,448,392,366,271,8
1389,0.16,0.63,0.78,2.38,-3.6,-1.34,421,448,395,368,258,8
1390,0.16,0.63,0.78,1.28,-3.42,-2.87,422,447,390,368,257,8
1391,0.16,0.64,0.76,6.96,-6.23,-0.92,421,446,392,366,255,8
1392,0.17,0.64,0.75,2.69,-3.23,-4.15,417,444,393,354,247,8
1393,0.16,0.64,0.75,0.31,-2.38,-1.59,419,444,393,357,247,8
1394,0.18,0.65,0.74,0.67,-4.46,-4.46,416,442,393,361,247,8
1395,0.17,0.64,0.75,-2.08,-2.32,-2.2,421,448,394,358,248,8
1396,0.18,0.64,0.76,-1.22,-1.22,-2.87,422,446,394,363,248,8
1397,0.2,0.65,0.77,-8.61,-5.68,3.66,420,443,390,362,249,8
1398,0.2,0.62,0.78,-10.74,-4.58,6.53,421,446,400,359,247,8
1399,0.22,0.58,0.76,-0.79,0.67,-1.77,427,445,389,358,246,8
1400,0.21,0.61,0.76,1.46,-1.28,-3.23,419,444,392,362,245,8
1401,0.19,0.63,0.77,1.53,-2.44,-0.06,420,449,390,359,239,8
1402,0.21,0.62,0.77,-0.98,-2.56,-1.46,416,449,390,359,248,8
1403,0.21,0.63,0.78,0.0,-4.03,-2.44,415,449,391,361,248,8
1404,0.21,0.62,0.77,2.62,-3.23,-1.95,420,442,390,361,246,8
1405,0.21,0.62,0.77,-0.24,-1.83,-4.09,420,449,387,370,258,8
1406,0.2,0.62,0.77,-0.98,-1.65,-3.23,421,446,403,360,248,8
1407,0.2,0.62,0.77,2.87,-2.99,-3.97,423,448,393,367,250,8
1408,0.19,0.65,0.79,-1.77,-2.32,-2.01,421,446,391,359,250,8
1409,0.19,0.64,0.76,-1.95,-1.71,-0.79,420,444,394,360,247,8
1410,0.19,0.63,0.77,-0.55,-2.56,-0.98,419,446,390,363,251,8
1411,0.2,0.62,0.76,0.24,-1.4,-2.99,415,451,387,360,252,8
1412,0.18,0.65,0.78,-0.06,-3.66,-3.36,417,449,394,360,251,8
1413,0.19,0.62,0.76,0.49,-2.26,-2.2,423,444,389,358,250,8
1414,0.18,0.63,0.77,1.22,-2.38,-2.01,420,447,387,363,249,8
1415,0.2,0.64,0.76,-0.24,-3.42,-2.69,423,446,392,361,251,8
1416,0.19,0.61,0.75,3.11,-2.38,-1.65,411,443,394,365,246,8
1417,0.18,0.65,0.75,1.1,-2.5,-1.46,415,451,391,365,253,8
1418,0.18,0.64,0.76,0.92,-3.11,-2.81,418,449,394,365,255,8
1419,0.17,0.64,0.75,0.12,-3.42,-3.72,420,446,388,367,249,8
1420,0.16,0.64,0.73,-1.04,-4.03,-1.4,419,448,389,367,253,8
1421,0.17,0.66,0.76,-0.37,-3.3,-1.34,421,447,390,368,253,8
1422,0.16,0.67,0.77,-0.73,-3.17,-3.36,422,445,391,365,251,8
1423,0.17,0.65,0.75,2.32,-2.56,-2.81,427,445,389,361,250,8
1424,0.16,0.65,0.74,1.83,-3.6,-1.53,416,446,393,368,247,8
1425,0.17,0.66,0.75,-0.92,-2.69,-0.79,421,440,387,364,251,8
1426,0.18,0.65,0.75,-0.85,-2.69,-1.95,419,456,386,367,250,8
1427,0.18,0.65,0.75,-0.18,-2.14,-2.2,421,447,388,366,248,8
1428,0.17,0.65,0.75,-0.06,-2.62,-2.87,423,451,382,365,250,8
1429,0.17,0.65,0.76,0.55,-3.91,-2.62,416,440,385,365,251,8
1430,0.18,0.64,0.75,0.12,-2.93,-2.81,417,444,386,372,249,8
1431,0.17,0.65,0.76,0.37,-2.81,-2.2,423,446,386,362,253,8
1432,0.18,0.65,0.76,0.0,-2.81,-1.89,420,444,388,367,254,8
1433,0.18,0.65,0.76,0.18,-2.87,-2.93,418,451,386,365,253,8
1434,0.17,0.64,0.76,1.16,-3.97,-2.69,423,450,387,364,254,8
1435,0.17,0.63,0.76,0.67,-2.2,-2.08,420,449,389,368,251,8
1436,0.18,0.64,0.76,0.43,-2.56,-2.56,421,445,387,365,254,8
1437,0.18,0.64,0.76,1.16,-1.77,-3.11,422,450,387,365,250,8
1438,0.18,0.64,0.76,0.18,-4.21,-2.44,420,450,385,368,250,8
1439,0.18,0.64,0.76,0.73,-3.36,-1.71,419,446,387,364,252,8
1440,0.18,0.64,0.76,0.98,-3.54,-1.89,420,447,386,367,250,8
1441,0.18,0.64,0.76,0.0,-3.78,-2.56,415,451,390,366,253,8
1442,0.19,0.64,0.76,-0.12,-3.23,-2.01,418,441,386,363,253,8
1443,0.18,0.64,0.77,0.79,-2.75,-2.26,415,443,386,362,252,8
1444,0.17,0.63,0.76,0.06,-2.38,-2.56,419,450,387,368,255,8
1445,0.18,0.63,0.76,0.49,-3.23,-0.92,416,448,384,369,253,8
1446,0.18,0.65,0.76,-2.93,-3.6,-3.23,418,448,386,369,249,8
1447,0.17,0.64,0.76,1.28,-2.26,-2.26,419,446,393,372,250,8
1448,0.18,0.65,0.75,3.54,-5.0,-1.4,421,447,391,364,247,8
1449,0.18,0.65,0.75,1.77,-3.66,-2.62,418,445,386,365,252,8
1450,0.19,0.67,0.75,1.4,-2.81,-2.2,419,443,385,364,247,8
1451,0.19,0.65,0.75,-1.89,-1.34,-1.1,415,446,386,367,252,8
1452,0.19,0.66,0.76,-6.29,-1.95,3.91,417,451,384,365,249,8
1453,0.24,0.63,0.77,-9.22,-0.55,6.96,420,447,387,369,250,8
1454,0.21,0.61,0.78,3.23,-2.75,-4.64,416,450,384,367,245,8
1455,0.22,0.61,0.78,1.95,-3.66,-3.3,416,448,386,366,249,8
1456,0.21,0.61,0.79,0.31,-2.08,-1.46,418,441,385,361,252,8
1457,0.22,0.6,0.78,-1.28,-5.31,-2.08,414,448,383,362,251,8
1458,0.23,0.6,0.78,-0.12,-3.48,-1.95,418,444,379,361,251,8
1459,0.22,0.6,0.78,-2.08,-3.05,-2.69,418,448,382,363,253,8
1460,0.22,0.6,0.79,-0.12,-2.26,-2.75,419,451,383,366,251,8
1461,0.22,0.61,0.78,-0.37,-2.26,-2.56,416,446,381,364,259,8
1462,0.22,0.62,0.77,1.16,-2.08,-3.6,414,446,381,363,248,8
1463,0.22,0.62,0.78,0.43,-3.23,-2.56,417,441,381,372,250,8
1464,0.21,0.61,0.78,-0.06,-3.97,-2.5,416,448,382,361,253,8
1465,0.22,0.62,0.78,1.77,-3.72,-2.44,419,452,379,364,250,8
1466,0.22,0.62,0.78,0.43,-3.48,-1.59,414,448,380,363,253,8
1467,0.22,0.62,0.77,1.59,-2.75,-3.36,417,448,388,364,252,8
1468,0.22,0.62,0.78,-1.34,-1.1,-2.44,420,458,381,364,259,8
1469,0.21,0.63,0.78,2.38,-0.55,-3.6,418,445,380,366,250,8
1470,0.15,0.65,0.77,10.31,4.09,-8.06,417,455,387,365,253,8
1471,0.13,0.69,0.71,16.42,-5.31,-4.82,414,454,390,366,252,8
1472,0.16,0.81,0.62,6.29,-4.94,-8.48,418,454,392,366,254,8
1473,0.12,0.8,0.61,-0.06,-0.98,-2.44,420,454,388,366,255,8
1474,0.07,0.83,0.64,-7.81,-9.16,-11.84,420,454,390,370,252,8
1475,0.11,0.75,0.65,-1.46,-3.17,-1.53,416,448,388,366,253,8
1476,0.1,0.77,0.65,-3.48,-0.85,-1.22,421,458,392,374,251,8
1477,0.12,0.75,0.68,-0.12,-4.15,-4.7,417,456,391,366,254,8
1478,0.12,0.74,0.65,3.36,-4.27,-1.34,422,455,391,368,250,8
1479,0.14,0.75,0.65,-1.89,-3.23,-0.06,416,455,394,368,253,8
1480,0.14,0.75,0.65,-0.06,-2.69,-2.2,418,457,390,368,253,8
1481,0.13,0.75,0.66,0.18,-2.81,-2.32,418,455,392,365,255,8
1482,0.13,0.75,0.66,-0.24,-1.95,-2.08,420,453,393,368,255,8
1483,0.13,0.75,0.65,-0.85,-2.62,-4.88,419,456,394,365,256,8
1484,0.12,0.74,0.67,-2.26,-3.42,-1.89,414,456,392,366,251,8
1485,0.13,0.75,0.67,1.34,-3.91,-1.28,418,453,389,369,255,8
1486,0.13,0.75,0.66,1.22,-3.23,-1.83,419,452,393,363,254,8
1487,0.12,0.74,0.67,0.85,-2.62,-0.85,419,454,390,367,256,8
1488,0.13,0.76,0.67,0.37,-1.89,-3.11,417,448,392,367,272,8
1489,0.15,0.73,0.66,-1.04,-7.02,-7.57,420,454,390,367,253,8
1490,0.13,0.74,0.67,0.37,-2.32,-2.75,417,454,391,366,254,8
1491,0.12,0.75,0.68,0.61,-3.6,-3.17,421,451,392,364,257,8
1492,0.11,0.74,0.67,1.77,-1.83,-2.26,422,450,391,367,253,8
1493,0.12,0.75,0.68,3.48,0.24,0.12,420,452,392,371,254,8
1494,0.14,0.75,0.67,0.12,-1.89,-3.42,414,448,389,366,254,8
1495,0.13,0.73,0.66,0.06,-3.36,-1.71,416,456,392,370,254,8
1496,0.11,0.74,0.67,1.28,-0.85,-2.99,415,453,392,366,253,8
1497,0.12,0.74,0.69,1.1,-4.15,-2.93,419,456,392,369,257,8
1498,0.12,0.72,0.66,1.16,-5.13,-0.98,417,453,393,363,255,8
1499,0.14,0.76,0.69,0.37,-0.37,-2.5,419,452,391,366,251,8
1500,0.16,0.72,0.67,3.42,-5.49,3.54,420,452,391,364,254,8
1501,0.17,0.72,0.67,6.35,-2.32,-3.23,417,448,392,366,253,8
1502,0.2,0.74,0.71,4.46,-2.5,-1.65,418,456,390,365,254,8
1503,0.2,0.75,0.68,7.2,4.64,-7.32,419,452,389,366,253,8
1504,0.17,0.73,0.69,-0.85,-1.4,-2.5,418,452,387,365,255,8
1505,0.17,0.72,0.68,0.73,-2.62,-3.36,419,453,388,367,253,8
1506,0.18,0.72,0.67,12.15,-1.1,-1.77,419,455,389,364,265,8
1507,0.18,0.73,0.66,0.49,-1.83,-3.3,418,452,391,363,255,8
1508,0.18,0.72,0.66,-1.65,-0.92,-3.42,418,452,390,364,253,8
1509,0.17,0.74,0.68,-1.16,-1.1,-3.48,417,456,388,369,255,8
1510,0.17,0.72,0.68,0.31,-2.62,-2.38,420,451,390,366,252,8
1511,0.17,0.72,0.69,-0.43,-3.23,-3.78,419,448,390,364,253,8
1512,0.17,0.72,0.68,-0.67,-3.85,-1.4,419,453,392,365,254,8
1513,0.18,0.73,0.68,-0.67,-3.11,-1.59,419,454,387,366,253,8
1514,0.31,0.82,0.46,-4.21,2.5,-3.11,243,346,410,469,435,8
1515,0.28,0.9,0.47,9.46,6.16,-7.14,240,349,414,479,437,8
1516,0.36,0.87,0.41,-10.5,-0.55,-4.03,241,346,410,473,431,8
1517,0.31,0.84,0.44,7.14,16.11,-3.97,242,346,414,480,437,8
1518,0.32,0.83,0.49,-1.4,12.15,-2.26,243,346,411,473,437,8
1519,0.3,0.79,0.55,3.78,-7.93,6.77,245,347,421,475,436,8
1520,0.29,0.83,0.5,2.08,-7.51,-1.95,244,347,409,475,434,8
1521,0.27,0.79,0.46,13.85,-1.77,-6.23,245,347,410,475,436,8
1522,0.28,1.06,0.51,13.67,-5.37,4.09,246,348,411,477,432,8
1523,0.22,0.86,0.43,-2.44,-9.64,-15.81,247,350,410,473,437,8
1524,0.19,0.9,0.47,3.42,-6.84,3.91,245,351,410,477,440,8
1525,0.21,0.84,0.48,-19.17,-1.34,-2.08,249,351,413,472,439,8
1526,0.24,0.87,0.44,3.66,-8.18,5.19,247,352,410,474,439,8
1527,0.24,0.85,0.47,5.19,-3.66,0.43,245,356,408,473,438,8
1528,0.3,0.82,0.49,-4.64,-2.69,-2.38,247,348,412,474,437,8
1529,0.22,0.83,0.49,0.18,-5.13,11.23,248,348,409,472,439,8
1530,0.4,0.83,0.48,3.54,-16.11,3.36,247,347,412,476,438,8
1531,0.39,0.82,0.49,1.65,1.1,-4.82,243,348,409,476,438,8
1532,0.47,0.82,0.43,2.87,-14.4,2.56,242,349,409,481,438,8
1533,0.3,0.79,0.62,-1.71,12.94,-8.61,241,321,407,478,440,8
1534,0.47,0.76,0.47,12.15,0.49,5.07,237,278,407,488,440,8
1535,0.46,0.78,0.51,-9.83,-1.83,-0.79,247,263,405,479,437,8
1536,0.46,0.7,0.53,-3.3,-14.16,-0.85,245,263,410,464,427,8
1537,0.45,0.83,0.4,45.59,0.18,2.87,245,267,411,470,425,8
1538,0.41,0.83,0.4,11.78,-14.71,3.66,246,283,417,479,438,8
1539,0.44,0.82,0.33,-12.33,-10.19,1.83,246,301,412,473,435,8
1540,0.49,0.83,0.34,-3.97,-2.62,-4.21,244,303,411,482,439,8
1541,0.41,0.83,0.4,-3.85,-1.95,-1.65,247,307,409,475,433,8
1542,0.34,0.83,0.36,6.29,8.12,-21.91,261,308,407,473,429,8
1543,0.31,0.9,0.4,-6.9,-10.93,-3.54,252,312,411,478,431,8
1544,0.35,0.86,0.34,-4.52,1.46,-5.19,252,309,411,477,429,8
1545,0.29,0.87,0.36,0.43,3.48,2.99,252,312,412,479,431,8
1546,0.26,0.92,0.41,7.87,-15.38,9.28,254,318,412,481,430,8
1547,0.27,0.83,0.44,-8.48,-6.96,0.0,254,317,423,471,434,8
1548,0.31,0.87,0.38,-1.89,-8.24,5.37,257,319,409,471,431,8
1549,0.3,0.88,0.44,-4.82,-3.05,4.58,252,323,406,476,430,8
1550,0.27,0.88,0.49,-15.81,-20.39,-7.75,254,323,411,475,433,8
1551,0.52,0.9,0.28,-3.3,-2.32,22.22,254,322,412,477,433,8
1552,0.22,0.99,0.52,-9.46,-23.44,-3.6,251,331,410,475,431,8
1553,0.3,0.19,0.39,-40.34,-22.89,-27.53,253,323,415,466,436,8
1554,0.33,0.86,0.56,19.96,-16.72,-1.22,251,326,415,472,436,8
1555,0.35,0.81,0.53,-4.03,-4.76,-3.17,255,326,413,473,437,8
1556,0.37,0.79,0.49,1.46,-2.5,-3.48,254,329,410,475,433,8
1557,0.4,0.77,0.5,-2.14,-9.34,-3.6,253,331,412,472,430,8
1558,0.35,0.81,0.42,7.26,-1.71,-10.13,252,332,407,469,435,8
1559,0.42,0.89,0.39,11.05,4.94,-6.1,257,334,409,474,435,8
1560,0.25,0.86,0.49,-26.12,7.2,-6.16,253,340,409,474,435,8
1561,0.23,0.86,0.5,11.54,13.12,-8.61,254,336,414,470,435,8
1562,0.3,0.82,0.43,-8.67,7.57,-13.18,255,339,412,472,436,8
1563,0.25,0.88,0.4,-8.12,2.32,-10.62,254,337,411,473,434,8
1564,0.24,0.86,0.42,11.72,-3.54,-3.85,251,340,413,471,436,8
1565,0.25,0.81,0.52,2.32,1.28,-6.77,254,341,413,472,434,8
1566,0.37,1.01,0.17,4.33,-27.95,5.25,256,356,416,477,434,8
1567,0.22,0.93,0.4,-10.19,9.77,1.77,258,343,418,468,431,8
1568,0.18,0.84,0.38,-0.92,-7.14,-4.52,256,344,413,472,430,8
1569,0.1,0.97,0.38,6.96,-1.4,2.62,253,349,413,472,436,8
1570,0.15,0.83,0.46,9.58,1.1,4.46,254,352,410,470,437,8
1571,0.24,0.8,0.45,5.8,-8.36,2.14,259,351,411,468,436,8
1572,0.37,0.7,0.42,-12.02,-3.48,-1.65,255,348,414,464,437,8
1573,0.15,0.82,0.55,22.64,36.87,3.91,255,351,414,473,433,8
1574,0.25,0.93,0.59,-29.79,-21.42,22.34,256,353,411,475,436,8
1575,0.37,0.78,0.46,7.81,5.8,6.04,258,352,412,474,432,8
1576,0.27,0.83,0.38,4.27,-8.12,1.53,255,354,412,475,435,8
1577,0.44,0.79,0.37,-12.88,-15.56,-10.93,257,353,416,475,437,8
1578,0.25,0.85,0.41,-3.78,-8.61,-4.46,257,351,415,473,434,8
1579,0.29,0.81,0.45,-8.24,-6.23,8.3,257,354,415,469,437,8
1580,0.25,0.81,0.43,10.19,-14.83,-16.42,255,353,410,468,434,8
1581,0.31,0.87,0.41,6.84,-1.1,-6.47,256,355,413,472,436,8
1582,0.16,0.9,0.36,-2.81,-22.4,-9.22,254,352,410,471,437,8
1583,0.25,0.85,0.41,-4.21,-10.93,-1.53,255,355,409,471,436,8
1584,0.23,0.88,0.41,4.94,-0.49,6.71,257,355,411,470,435,8
1585,0.25,0.91,0.37,10.8,-0.37,-6.41,265,354,412,470,433,8
1586,0.18,0.8,0.42,-13.0,-3.23,6.29,258,358,413,469,435,8
1587,0.26,0.89,0.35,7.26,-3.72,9.4,253,356,410,468,436,8
1588,0.28,0.88,0.38,5.8,2.01,-6.84,255,354,413,471,436,8
1589,0.24,0.89,0.4,-2.08,-2.81,2.14,255,353,411,473,436,8
1590,0.26,0.92,0.37,4.33,-0.61,-8.18,257,355,414,474,435,8
1591,0.34,0.89,0.38,-15.2,-13.24,-0.61,257,358,408,467,436,8
1592,0.26,0.86,0.4,7.14,4.03,-3.3,252,355,408,473,435,8
1593,0.18,0.88,0.37,-2.2,2.81,-4.39,254,355,406,468,435,8
1594,0.16,0.87,0.42,5.55,-6.71,-0.37,255,358,409,473,438,8
1595,0.25,0.89,0.39,-2.87,-7.57,-8.24,256,357,413,471,438,8
1596,0.24,0.88,0.41,-2.81,-7.93,-2.01,255,356,409,473,434,8
1597,0.22,0.88,0.4,-1.22,-4.52,0.85,253,357,405,473,437,8
1598,0.28,0.87,0.41,0.43,-3.11,-3.42,259,362,408,473,435,8
1599,0.21,0.89,0.39,4.94,-3.11,-4.03,255,356,408,468,434,8
1600,0.23,0.89,0.41,0.85,-3.17,-3.66,258,355,410,466,435,8
1601,0.22,0.88,0.42,-1.89,-0.43,-4.46,257,357,408,468,435,8
1602,0.2,0.87,0.4,-4.52,-0.31,-0.55,259,359,408,468,438,8
1603,0.26,0.91,0.38,-1.89,-0.37,-3.6,255,355,412,472,431,8
1604,0.29,0.75,0.29,6.41,2.62,1.59,258,358,414,473,436,8
1605,0.26,0.9,0.39,4.21,0.92,-19.78,256,360,411,473,435,8
1606,0.21,0.9,0.38,-5.98,-6.23,-6.84,257,357,411,472,432,8
1607,0.23,0.86,0.45,-6.04,-18.07,4.15,252,361,409,479,435,8
1608,0.2,0.87,0.43,-3.78,-5.68,-16.97,259,359,408,474,435,8
1609,0.07,0.9,0.49,15.5,-19.41,7.51,259,361,412,468,435,8
1610,0.17,0.9,0.41,0.12,-2.5,-10.62,260,376,410,474,433,8
1611,0.17,0.89,0.43,-5.37,-11.41,-2.5,257,373,408,469,435,8
1612,0.2,0.94,0.4,-10.86,12.82,-10.8,260,377,405,472,435,8
1613,0.14,0.91,0.41,-9.52,-4.15,-2.44,256,378,407,472,435,8
1614,0.19,0.8,0.54,-0.92,-8.06,-8.61,254,375,411,470,434,8
1615,0.16,0.88,0.45,-6.84,11.41,13.18,261,378,408,470,434,8
1616,0.15,0.86,0.5,12.15,-13.0,-1.65,259,380,411,466,431,8
1617,0.43,0.97,0.45,29.66,-46.51,38.02,257,381,407,470,435,8
1618,0.24,0.85,0.43,-21.91,-7.26,-11.78,259,377,412,467,435,8
1619,0.23,0.76,0.49,2.5,8.36,-10.68,254,379,407,469,438,8
1620,0.27,0.81,0.55,-14.53,-10.31,-1.28,260,378,407,470,435,8
1621,0.2,0.7,0.61,-16.66,-7.39,9.64,256,348,404,471,438,8
1622,0.28,0.79,0.58,10.56,12.02,5.86,243,316,398,468,435,8
1623,0.47,0.8,0.44,26.06,-25.63,24.29,239,292,400,475,427,8
1624,0.47,0.84,0.44,-35.77,-33.2,-5.55,242,313,400,458,408,8
1625,0.45,0.89,0.42,11.72,-11.84,5.31,241,327,398,462,420,8
1626,0.46,0.7,0.51,0.18,-7.57,-14.53,243,344,385,464,424,8
1627,0.37,0.83,0.5,21.42,40.71,-20.51,245,351,405,460,417,8
1628,0.21,0.81,0.58,-25.27,-11.41,31.07,249,350,410,461,423,8
1629,0.23,0.75,0.68,1.65,15.26,-14.53,250,354,412,461,424,8
1630,0.2,0.77,0.61,-11.72,-12.02,4.21,253,354,412,459,419,8
1631,0.3,0.74,0.6,-4.03,-16.85,11.17,247,356,410,461,424,8
1632,0.18,0.78,0.57,22.83,-13.67,31.13,249,356,409,466,426,8
1633,0.23,0.81,0.55,5.43,-2.01,-3.36,250,360,410,458,430,8
1634,0.24,0.75,0.53,-9.09,12.27,-15.44,247,360,411,458,426,8
1635,0.2,0.82,0.55,-2.99,-6.41,-3.36,250,359,412,464,424,8
1636,0.22,0.72,0.61,-11.84,-15.38,3.91,248,358,409,458,425,8
1637,0.2,0.83,0.6,-9.7,-12.15,6.16,251,356,412,465,428,8
1638,0.26,0.77,0.55,13.18,-3.6,0.31,242,361,410,460,426,8
1639,0.22,0.82,0.55,-9.83,-2.14,-2.5,251,359,409,464,425,8
1640,0.23,0.77,0.61,-4.09,-17.52,3.54,248,361,411,460,426,8
1641,0.13,0.84,0.55,20.32,-1.89,7.93,249,362,415,462,425,8
1642,0.15,0.78,0.57,7.81,-8.79,-0.67,249,361,412,461,426,8
1643,0.18,0.8,0.55,7.14,-6.04,-3.78,253,362,411,471,427,8
1644,0.21,0.83,0.54,-3.91,-3.23,-0.61,251,367,410,467,426,8
1645,0.2,0.81,0.54,-0.92,-5.0,-1.65,253,368,408,466,428,8
1646,0.24,0.82,0.51,2.99,-3.85,-1.22,267,368,411,465,429,8
1647,0.21,0.81,0.54,-3.3,-0.06,-5.07,252,373,405,461,426,8
1648,0.19,0.81,0.55,4.46,-3.54,-4.39,251,373,407,469,423,8
1649,0.18,0.8,0.6,-6.16,-2.14,-4.7,256,376,415,463,429,8
1650,0.17,0.79,0.6,-5.62,-3.54,-4.15,250,380,413,463,428,8
1651,0.13,0.75,0.68,4.82,-2.08,-2.75,253,380,412,469,424,8
1652,0.13,0.76,0.67,-5.8,-1.59,-5.0,256,381,414,462,430,8
1653,0.17,0.79,0.6,3.42,-7.63,4.39,256,380,416,467,429,8
1654,0.12,0.75,0.67,9.28,-2.62,5.43,257,379,413,463,430,8
1655,0.27,0.81,0.56,0.61,0.73,12.51,254,382,413,468,428,8
1656,0.28,0.74,0.62,9.34,9.34,-12.08,274,380,411,469,432,8
1657,0.03,0.74,0.65,3.97,10.01,-10.01,257,378,409,470,427,8
1658,0.2,0.82,0.62,-3.54,-4.58,2.26,257,379,410,464,430,8
1659,0.14,0.77,0.58,14.53,1.04,7.32,257,383,407,472,429,8
1660,0.37,0.76,0.51,-9.52,-5.13,-5.13,258,386,407,465,425,8
1661,0.3,0.79,0.52,-0.73,-0.92,-1.4,258,381,409,469,427,8
1662,0.27,0.76,0.6,-3.97,-6.84,-7.14,260,382,407,469,428,8
1663,-0.16,0.73,0.76,-10.62,17.7,-45.47,259,384,411,468,432,8
1664,0.26,0.81,0.54,8.12,-9.64,-2.01,272,385,413,468,429,8
1665,0.2,0.81,0.63,-35.71,-12.57,16.91,258,388,413,462,431,8
1666,0.28,0.68,0.66,-8.61,-11.72,2.26,261,386,415,455,431,8
1667,0.36,0.67,0.6,-6.59,-24.9,1.16,262,386,413,464,430,8
1668,0.37,0.73,0.59,-3.17,-20.02,-7.51,264,389,413,467,425,8
1669,0.39,0.68,0.62,-15.69,-7.2,-6.41,260,386,416,468,431,8
1670,0.45,0.67,0.61,12.08,-13.55,-12.94,262,388,412,464,426,8
1671,0.31,0.74,0.59,-5.07,14.65,-9.89,264,390,417,466,428,8
1672,0.43,0.66,0.64,-3.6,-10.31,-5.8,263,386,413,466,429,8
1673,0.43,0.63,0.67,-13.0,-10.74,7.14,265,393,410,467,427,8
1674,0.36,0.65,0.65,31.62,7.45,-13.49,262,396,409,464,424,8
1675,0.32,0.74,0.59,-4.39,5.62,-1.89,264,387,412,466,428,8
1676,0.3,0.75,0.64,-2.38,0.43,2.38,267,386,410,472,429,8
1677,0.27,0.74,0.59,2.26,-5.13,8.18,266,389,407,463,431,8
1678,0.39,0.72,0.59,15.26,2.08,2.75,265,387,407,468,430,8
1679,0.29,0.81,0.58,-2.87,15.08,-7.2,268,387,410,460,428,8
1680,0.32,0.78,0.57,7.93,10.38,-12.02,263,388,410,465,426,8
1681,0.29,0.8,0.46,11.47,2.38,-3.97,265,391,415,468,427,8
1682,0.32,0.87,0.51,1.34,8.42,5.19,265,393,412,464,429,8
1683,0.24,0.85,0.44,10.93,-3.97,-8.91,268,390,412,468,428,8
1684,0.27,0.81,0.45,12.51,-5.98,-1.71,268,392,413,466,431,8
1685,0.19,0.92,0.57,-37.05,11.72,-28.63,269,389,427,475,429,8
1686,0.15,0.79,0.51,16.66,-5.86,-1.71,271,401,410,473,429,8
1687,0.22,0.85,0.57,-17.27,-7.02,-2.81,269,396,415,472,430,8
1688,0.13,0.86,0.48,1.59,0.12,-10.86,295,397,412,467,430,8
1689,0.19,0.84,0.49,5.8,-5.31,-2.08,267,400,411,467,431,8
1690,0.17,0.82,0.57,-7.08,3.42,-10.01,269,400,411,473,429,8
1691,0.19,0.83,0.52,1.4,-2.2,-2.38,268,397,411,477,431,8
1692,0.19,0.83,0.54,0.92,-3.48,-1.89,269,397,413,476,431,8
1693,0.15,0.83,0.56,2.08,-3.3,-1.4,268,396,415,474,430,8
1694,0.21,0.83,0.54,1.46,-9.64,4.46,268,397,413,472,426,8
1695,0.18,0.81,0.52,7.2,-4.27,0.0,269,401,410,475,432,8
1696,0.21,0.82,0.54,-3.78,-1.04,-2.81,270,397,410,480,431,8
1697,0.24,0.85,0.51,-11.78,3.05,1.77,269,393,410,470,427,8
1698,0.23,0.91,0.61,5.25,8.61,6.71,255,347,410,476,428,8
1699,0.27,0.69,0.64,-4.46,4.27,1.83,246,309,407,475,430,8
1700,0.41,0.73,0.43,6.96,0.73,-19.9,249,319,404,481,426,8
1701,0.53,0.71,0.65,5.92,-29.79,21.73,242,312,407,483,431,8
1702,0.44,0.74,0.55,-22.03,19.1,-25.09,242,306,405,483,428,8
1703,0.51,0.77,0.55,8.36,-15.69,2.2,239,292,410,482,403,8
1704,0.49,0.75,0.49,15.75,4.64,-3.72,265,287,406,483,402,8
1705,0.51,0.81,0.41,11.78,-26.12,-8.18,238,284,407,482,404,8
1706,0.51,0.75,0.37,12.7,-28.08,4.09,243,314,409,483,414,8
1707,0.61,0.71,0.31,2.2,19.35,-12.33,251,329,406,476,420,8
1708,0.46,0.77,0.4,9.46,-0.61,1.71,250,310,409,482,420,8
1709,0.46,0.8,0.35,-21.67,7.14,-16.11,253,344,411,473,420,8
1710,0.5,0.78,0.3,-6.16,-0.12,-13.61,253,350,408,473,418,8
1711,0.42,0.76,0.39,-40.47,40.77,-19.1,255,355,407,471,422,8
1712,0.14,0.81,0.63,19.96,-17.09,14.59,257,353,410,469,419,8
1713,0.22,0.76,0.66,-10.62,13.37,-28.32,252,358,409,469,423,8
1714,0.15,0.82,0.49,23.44,15.14,20.57,259,366,411,471,423,8
1715,0.31,0.84,0.52,-8.61,-6.71,-2.44,261,364,405,463,422,8
1716,0.27,0.84,0.53,-3.66,-8.12,-9.09,255,365,409,470,423,8
1717,0.2,0.8,0.51,-1.34,-4.15,-4.88,258,369,406,468,420,8
1718,0.21,0.79,0.56,-11.6,-0.92,-5.74,256,365,404,471,427,8
1719,0.21,0.81,0.56,6.77,4.09,-2.01,257,369,404,468,427,8
1720,0.22,0.81,0.54,5.31,2.38,0.18,259,371,404,465,423,8
1721,0.2,0.79,0.55,1.46,3.36,4.76,258,373,405,470,421,8
1722,0.23,0.78,0.59,-0.31,-4.76,1.89,260,374,410,470,422,8
1723,0.26,0.76,0.63,1.95,-10.8,-3.36,252,376,410,478,425,8
1724,0.25,0.79,0.58,6.47,-10.56,-6.84,256,377,411,469,422,8
1725,0.31,0.8,0.56,6.16,-2.81,-14.28,262,375,406,468,423,8
1726,0.27,0.82,0.57,-0.43,-3.91,-3.11,259,374,412,464,425,8
1727,0.23,0.78,0.59,2.14,3.54,-1.16,256,375,412,466,425,8
1728,0.15,0.8,0.57,2.14,-4.82,4.09,257,374,411,465,424,8
1729,0.27,0.8,0.57,7.51,0.49,1.71,262,380,413,464,426,8
1730,0.33,0.73,0.59,1.4,5.8,3.54,259,379,408,461,424,8
1731,0.21,0.76,0.6,4.33,14.83,3.17,261,381,409,466,425,8
1732,0.21,0.78,0.57,0.85,5.98,-0.85,264,386,414,466,425,8
1733,0.19,0.77,0.56,-2.5,7.51,0.49,261,383,410,466,426,8
1734,0.25,0.83,0.57,0.43,-9.83,-3.72,269,388,412,471,427,8
1735,0.23,0.79,0.56,0.43,-7.26,-8.0,265,385,411,469,425,8
1736,0.26,0.8,0.57,-7.93,-0.12,-8.73,269,393,410,471,427,8
1737,0.23,0.79,0.58,-0.43,-11.84,-5.37,271,382,412,468,425,8
1738,0.29,0.61,0.49,-21.18,1.1,7.02,272,386,413,467,425,8
1739,0.27,0.77,0.68,6.59,-7.14,-11.41,268,388,410,462,427,8
1740,0.2,0.73,0.69,-9.09,-6.77,-8.85,267,389,408,471,426,8
1741,0.19,0.62,0.72,-3.54,21.55,3.11,270,392,411,467,422,8
1742,0.22,0.75,0.67,10.25,-13.55,-19.96,265,390,411,471,426,8
1743,0.18,0.74,0.66,0.37,-22.89,-5.0,269,389,412,462,428,8
1744,0.29,0.73,0.6,5.62,-11.6,-1.59,270,391,415,474,425,8
1745,0.29,0.79,0.61,5.07,4.33,5.86,264,379,414,467,425,8
1746,0.17,0.78,0.7,6.04,18.43,16.17,265,373,413,461,428,8
1747,0.25,0.71,0.62,6.53,6.77,5.68,262,383,413,466,426,8
1748,0.29,0.78,0.69,-17.58,9.58,10.93,264,388,415,472,424,8
1749,0.18,0.76,0.64,-0.43,3.3,4.27,267,389,413,469,422,8
1750,0.35,0.73,0.69,-10.56,-5.55,-3.97,261,383,410,469,433,8
1751,0.31,0.7,0.6,-4.58,3.66,-2.93,254,320,412,467,430,8
1752,0.37,0.94,0.79,32.78,-76.29,25.45,249,341,412,485,425,8
1753,0.43,0.61,0.63,-1.28,7.87,3.66,252,338,413,474,430,8
1754,0.39,0.65,0.68,13.06,-17.03,-2.44,257,304,411,475,424,8
1755,0.35,0.61,0.62,-20.26,8.3,-3.91,237,312,408,477,427,8
1756,0.43,0.62,0.59,9.28,-3.3,0.55,237,303,410,469,426,8
1757,0.5,0.72,0.71,5.43,-7.14,13.12,238,299,400,473,425,8
1758,0.56,0.72,0.57,29.17,-42.72,2.62,238,308,399,474,423,8
1759,0.51,0.66,0.6,7.02,-4.64,-12.63,246,320,404,481,422,8
1760,0.53,0.73,0.47,27.22,-13.49,8.36,239,307,405,475,426,8
1761,0.48,0.64,0.54,-10.07,1.16,10.99,240,300,406,482,413,8
1762,0.41,0.66,0.56,6.9,-12.45,3.91,243,307,400,475,393,8
1763,0.44,0.72,0.45,-16.6,12.21,-15.44,236,305,406,482,404,8
1764,0.47,0.69,0.62,-2.56,-0.61,-6.41,244,309,400,483,393,8
1765,0.47,0.74,0.52,16.05,-22.64,-1.59,249,308,400,473,404,8
1766,0.41,0.75,0.52,9.89,-0.43,-8.48,245,306,405,483,413,8
1767,0.42,0.76,0.52,1.28,-2.5,0.06,243,306,406,480,418,8
1768,0.43,0.74,0.41,-12.57,-21.79,0.12,256,332,410,468,414,8
1769,0.42,0.7,0.47,8.97,0.67,-0.37,259,367,407,469,420,8
1770,0.26,0.79,0.61,-11.17,14.71,-12.08,259,370,407,474,417,8
1771,0.29,0.81,0.47,18.8,8.42,-13.06,262,370,413,474,421,8
1772,0.32,0.84,0.56,8.12,1.77,12.21,261,372,415,474,418,8
1773,0.14,0.76,0.61,-6.84,15.01,-2.87,263,374,411,472,425,8
1774,0.2,0.88,0.52,-3.54,-0.98,0.85,266,371,409,475,424,8
1775,0.17,0.78,0.49,-8.67,-11.05,-6.1,285,381,412,467,423,8
1776,0.25,0.8,0.6,24.6,0.61,16.11,266,379,411,469,423,8
1777,0.24,0.83,0.47,2.81,-5.37,-0.18,269,391,406,473,418,8
1778,0.24,0.85,0.47,7.57,-5.68,-0.85,269,395,410,475,427,8
1779,0.22,0.82,0.49,3.23,-0.73,-3.23,271,397,410,473,427,8
1780,0.24,0.85,0.5,11.96,2.38,-10.5,266,393,410,473,427,8
1781,0.24,0.88,0.4,17.03,-9.09,-2.81,265,376,406,474,425,8
1782,0.22,0.84,0.49,1.22,1.4,-7.26,264,382,411,473,430,8
1783,0.22,0.86,0.43,4.46,-4.52,-0.55,264,380,415,473,426,8
1784,0.18,0.83,0.48,2.99,-0.85,-2.93,262,388,411,476,425,8
1785,0.16,0.85,0.52,-16.78,-1.04,-1.95,269,391,416,475,426,8
1786,0.26,0.85,0.45,-28.5,-21.0,-7.87,265,383,415,473,426,8
1787,0.34,0.78,0.48,2.99,-23.93,16.05,267,378,417,486,423,8
1788,0.34,0.79,0.55,4.52,7.87,3.54,270,379,410,477,426,8
1789,0.37,0.77,0.61,-6.84,-1.28,17.03,247,320,413,485,425,8
1790,0.35,0.77,0.51,-9.77,-22.4,-14.4,247,300,402,475,430,8
1791,0.37,0.74,0.36,2.2,-21.42,16.24,254,298,411,459,415,8
1792,0.5,0.75,0.31,-4.82,-11.35,-17.88,256,293,410,463,418,8
1793,0.45,0.82,0.4,-4.58,26.86,-10.38,255,306,413,469,417,8
1794,0.26,0.8,0.53,0.61,-4.03,3.72,258,319,412,474,429,8
1795,0.49,0.83,0.39,-0.55,-4.15,2.38,263,322,406,470,426,8
1796,0.38,0.79,0.48,-7.81,28.63,-10.5,260,323,413,473,425,8
1797,0.41,0.79,0.42,10.86,-38.02,16.97,257,333,410,469,420,8
1798,0.45,0.75,0.43,-11.66,-3.6,-9.83,260,342,411,475,426,8
1799,0.52,0.88,0.38,15.2,4.03,-4.33,261,353,406,471,429,8
1800,0.35,0.76,0.39,-18.62,-9.46,-1.28,257,347,410,476,426,8
1801,0.42,0.81,0.44,-15.99,-0.24,-5.74,261,346,404,473,429,8
1802,0.35,0.8,0.47,-1.22,-6.53,-1.34,264,351,410,471,425,8
1803,0.35,0.85,0.5,-9.52,4.09,-5.0,262,348,412,472,424,8
1804,0.36,0.77,0.46,-0.49,1.59,-4.09,264,353,411,474,425,8
1805,0.28,0.85,0.49,-4.94,5.98,-7.32,263,352,412,471,424,8
1806,0.32,0.75,0.49,7.81,-3.36,-1.22,263,353,413,476,424,8
1807,0.39,0.93,0.42,4.52,1.22,15.2,263,357,411,473,424,8
1808,0.34,0.98,0.52,43.95,-24.84,19.53,264,365,426,473,425,8
1809,0.18,0.84,0.55,-6.53,-3.23,-7.39,267,369,415,477,425,8
1810,0.36,0.74,0.56,-12.63,1.16,-30.82,264,395,414,474,424,8
1811,0.21,0.77,0.51,2.62,-6.47,-2.32,268,391,412,472,427,8
1812,0.23,0.76,0.51,-1.71,-2.69,-1.4,265,387,411,476,427,8
1813,0.27,0.86,0.46,31.49,-9.7,5.98,264,392,419,472,426,8
1814,0.26,0.87,0.44,-4.7,-4.94,-2.56,266,397,406,472,427,8
1815,0.27,0.88,0.4,13.92,-3.3,-7.39,271,398,411,473,424,8
1816,0.29,0.83,0.5,-9.09,-0.73,-3.36,270,398,408,469,424,8
1817,0.27,0.81,0.48,14.1,-4.33,-10.44,273,397,413,469,424,8
1818,0.27,0.82,0.45,-0.92,-1.95,0.43,269,393,412,481,421,8
1819,0.28,0.85,0.48,7.39,-2.32,-4.52,272,396,412,472,426,8
1820,0.29,0.83,0.44,6.9,-2.26,-3.85,269,397,407,469,422,8
1821,0.21,0.85,0.49,-7.63,2.14,-4.52,270,399,411,464,424,8
1822,0.29,0.89,0.42,7.45,-3.72,-8.54,271,403,409,471,419,8
1823,0.25,0.87,0.43,-1.1,-9.4,-5.07,271,404,409,472,424,8
1824,0.26,0.92,0.45,-2.01,-7.63,3.17,274,397,404,469,424,8
1825,0.3,0.89,0.38,10.5,-2.32,4.88,273,403,405,475,426,8
1826,0.3,0.89,0.39,-2.26,-5.07,2.38,273,404,406,472,427,8
1827,0.23,0.84,0.43,-5.31,-1.22,-1.71,274,401,412,476,422,8
1828,0.28,0.82,0.44,2.08,-3.42,5.0,279,404,414,470,422,8
1829,0.31,0.82,0.47,-30.21,-3.17,-8.06,270,395,407,472,424,8
1830,0.3,0.89,0.51,4.52,-14.47,10.01,270,381,410,476,426,8
1831,0.35,0.8,0.47,1.71,4.09,-6.65,270,362,410,475,424,8
1832,0.31,0.81,0.47,-6.71,-7.26,0.92,260,325,405,482,428,8
1833,0.4,0.84,0.45,3.05,-8.91,7.75,262,328,389,474,423,8
1834,0.4,0.67,0.48,-20.08,-3.42,-12.7,248,292,380,478,414,8
1835,0.42,0.78,0.44,2.69,3.91,-8.12,258,327,402,472,420,8
1836,0.41,0.8,0.52,-0.43,-1.53,0.43,263,338,407,470,417,8
1837,0.34,0.76,0.5,-0.61,6.59,-6.9,260,330,405,469,423,8
1838,0.41,0.79,0.49,-8.85,-10.8,-0.43,261,331,401,474,421,8
1839,0.36,0.83,0.51,10.5,-7.02,6.65,261,333,403,471,417,8
1840,0.34,0.76,0.5,20.32,-3.05,-2.99,257,329,399,467,420,8
1841,0.3,0.81,0.51,1.83,-4.39,-3.91,258,333,411,465,415,8
1842,0.31,0.82,0.5,0.24,-5.68,-1.77,264,330,408,467,421,8
1843,0.31,0.82,0.48,8.36,-3.72,-4.58,259,330,410,470,421,8
1844,0.29,0.81,0.49,1.95,-2.38,-2.38,259,327,411,471,423,8
1845,0.27,0.83,0.46,17.76,6.29,0.73,260,327,409,476,421,8
1846,0.3,0.89,0.47,-24.54,0.12,-6.16,261,328,408,477,421,8
1847,0.26,0.81,0.57,-0.43,-20.14,12.63,260,340,411,469,416,8
1848,0.43,0.82,0.44,5.74,-0.98,-10.68,265,342,413,465,416,8
1849,0.28,0.8,0.51,4.03,3.3,-3.66,265,344,414,463,420,8
1850,0.33,0.85,0.49,-2.32,-8.67,5.68,264,350,411,465,422,8
1851,0.31,0.83,0.47,1.95,-3.3,-3.54,263,345,410,467,418,8
1852,0.32,0.82,0.47,5.49,-1.04,0.0,266,347,415,473,420,8
1853,0.32,0.82,0.45,4.64,1.59,-0.79,266,352,426,468,421,8
1854,0.26,0.95,0.5,-2.01,6.41,-8.73,265,358,413,472,423,8
1855,0.3,0.73,0.48,5.31,-0.18,-4.27,264,362,412,474,422,8
1856,0.28,0.82,0.46,-1.04,-7.2,-11.54,268,378,410,476,423,8
1857,0.18,0.87,0.47,-10.44,-6.9,0.0,270,379,410,468,422,8
1858,0.32,0.79,0.44,4.76,0.06,-7.63,266,379,408,466,422,8
1859,0.21,0.88,0.42,3.72,-4.88,0.12,269,381,406,472,422,8
1860,0.26,0.88,0.43,2.81,-7.14,-2.38,269,383,403,468,418,8
1861,0.22,0.87,0.45,2.99,-1.04,-4.33,267,382,401,474,423,8
1862,0.25,0.86,0.46,-9.83,-8.91,3.48,268,377,404,474,422,8
1863,0.25,0.8,0.42,-2.32,-0.98,4.76,269,380,402,472,424,8
1864,0.32,0.81,0.44,-8.79,-2.81,-6.23,268,381,398,472,424,8
1865,0.25,0.81,0.49,6.59,0.61,-3.54,267,389,406,471,424,8
1866,0.32,0.86,0.42,-0.79,-12.94,11.54,263,321,406,473,426,8
1867,0.36,0.83,0.49,-29.97,5.43,-8.24,257,312,405,479,429,8
1868,0.3,0.8,0.48,3.85,0.31,-3.36,254,311,404,478,423,8
1869,0.1,0.82,0.57,19.71,-39.55,-11.05,253,304,400,468,405,8
1870,0.29,0.81,0.45,-2.75,-21.24,1.77,250,302,402,472,398,8
1871,0.39,0.78,0.49,-17.88,-49.07,29.79,257,322,379,467,402,8
1872,0.41,0.75,0.42,0.06,10.56,-18.55,264,350,369,462,412,8
1873,0.51,0.83,0.44,5.55,17.82,-18.19,263,354,372,465,415,8
1874,0.22,0.89,0.44,15.08,27.59,-35.03,269,361,381,465,413,8
1875,0.02,0.82,0.68,-5.92,43.09,11.84,267,372,396,464,417,8
1876,-0.06,0.87,0.51,14.71,-9.83,5.07,268,384,407,458,416,8
1877,0.01,0.82,0.53,20.51,-12.76,-8.48,275,387,408,458,416,8
1878,0.04,0.96,0.39,3.54,4.15,2.38,290,396,406,457,416,8
1879,0.07,0.86,0.48,-3.11,-7.26,-1.53,276,387,408,458,417,8
1880,0.06,0.82,0.47,-3.11,-2.87,-3.23,275,387,413,458,419,8
1881,0.06,0.89,0.45,13.79,-9.95,-1.28,277,391,408,460,420,8
1882,0.02,0.87,0.5,-4.09,-0.55,-4.82,277,389,409,460,418,8
1883,0.04,0.87,0.5,-1.04,-3.11,-3.54,276,390,412,464,417,8
1884,0.08,0.87,0.48,4.27,-8.42,-0.98,273,390,408,459,419,8
1885,0.05,0.89,0.49,-2.56,-2.01,-3.42,277,390,412,462,414,8
1886,0.01,0.86,0.5,0.37,-2.87,-4.64,278,395,412,461,418,8
1887,0.0,0.84,0.52,-4.15,-3.17,-1.89,277,392,413,463,414,8
1888,0.03,0.88,0.48,5.07,-7.08,-0.18,276,393,413,458,416,8
1889,0.02,0.87,0.5,3.23,-5.13,0.73,279,394,411,466,419,8
1890,0.0,0.86,0.51,3.54,-6.65,0.0,281,398,415,467,420,8
1891,0.03,0.87,0.5,-0.73,-2.26,-1.04,279,398,412,466,418,8
1892,0.02,0.84,0.48,2.99,-5.25,-2.87,278,395,412,470,419,8
1893,0.01,0.9,0.52,-6.84,0.73,-2.44,277,393,414,463,419,8
1894,-0.0,0.85,0.51,-0.49,-2.01,-4.64,279,397,413,471,419,8
1895,0.01,0.85,0.53,1.65,-5.31,-2.99,283,401,408,462,421,8
1896,0.01,0.83,0.56,-13.12,-1.1,-1.83,280,403,409,466,420,8
1897,0.02,0.84,0.54,0.06,-4.39,-3.42,280,407,409,461,420,8
1898,0.01,0.84,0.58,-7.32,3.78,-7.81,282,408,414,468,420,8
1899,-0.03,0.8,0.54,7.26,-3.11,-0.73,282,399,414,463,418,8
1900,-0.02,0.8,0.57,-8.67,-2.38,-4.52,279,393,415,467,419,8
1901,0.0,0.87,0.55,-1.46,-3.3,-0.67,279,400,411,458,421,8
1902,-0.02,0.84,0.56,-9.83,-1.65,-1.71,282,397,409,457,417,8
1903,-0.0,0.83,0.53,-2.75,-4.03,-1.1,280,401,413,458,420,8
1904,0.0,0.86,0.55,-0.79,-2.81,-0.67,279,395,412,463,421,8
1905,0.02,0.79,0.6,8.61,-11.78,21.85,280,396,414,460,424,8
1906,0.19,0.8,0.56,-1.53,-15.5,4.76,281,396,414,464,423,8
1907,0.19,0.87,0.53,-0.79,-13.0,-0.79,279,370,413,472,423,8
1908,0.17,0.76,0.54,4.88,-0.79,-1.34,276,342,411,468,425,8
1909,0.17,0.78,0.52,3.23,-3.54,-10.38,266,341,408,467,417,8
1910,0.13,0.8,0.51,7.02,-3.36,-1.65,270,345,408,467,423,8
1911,0.1,0.82,0.55,5.0,-6.84,-9.16,269,331,408,471,419,8
1912,0.05,0.83,0.57,3.3,2.14,-6.41,260,318,411,474,421,8
1913,0.05,0.83,0.57,-1.04,-5.49,-2.2,264,322,412,470,421,8
1914,0.09,0.8,0.52,-9.64,-3.6,-11.72,264,316,411,473,422,8
1915,0.01,0.84,0.56,-3.42,-9.09,-7.14,261,312,410,470,423,8
1916,0.09,0.77,0.56,-2.44,-4.46,-3.91,259,314,409,469,425,8
1917,0.05,0.81,0.61,-6.59,-2.69,0.79,260,312,405,470,418,8
1918,0.23,0.7,0.5,3.72,-34.3,24.66,260,315,408,468,417,8
1919,0.14,0.65,0.7,-9.16,0.55,3.36,301,321,410,469,421,8
1920,0.21,0.72,0.7,3.23,-1.46,2.01,263,322,411,462,421,8
1921,0.17,0.68,0.68,-0.31,3.66,-15.2,265,320,411,469,420,8
1922,0.17,0.71,0.68,4.52,-5.98,1.28,261,321,409,465,418,8
1923,0.18,0.72,0.67,0.61,-3.36,-0.31,266,323,415,470,421,8
1924,0.19,0.73,0.66,1.65,-1.16,-1.1,264,324,411,462,420,8
1925,0.19,0.69,0.69,-6.47,-3.17,-1.46,263,323,411,470,420,8
1926,0.17,0.7,0.68,1.16,0.43,-4.82,264,322,413,469,419,8
1927,0.19,0.74,0.68,4.09,-1.71,-3.48,271,321,411,469,423,8
1928,0.2,0.69,0.69,-0.79,-5.07,-1.16,263,324,409,475,419,8
1929,0.2,0.72,0.68,0.61,-4.7,-1.59,263,325,409,471,418,8
1930,0.21,0.71,0.68,-0.24,-2.99,-2.81,265,324,407,470,414,8
1931,0.21,0.71,0.7,-0.98,-5.43,-0.37,261,322,409,470,421,8
1932,0.21,0.7,0.69,2.08,-2.5,-3.91,260,326,413,472,416,8
1933,0.21,0.71,0.69,0.67,-3.54,-2.56,263,322,412,466,419,8
1934,0.21,0.7,0.67,7.81,-4.58,-5.31,279,325,412,474,416,8
1935,0.19,0.7,0.68,-4.21,-1.65,-2.69,262,325,415,470,421,8
1936,0.2,0.72,0.68,1.83,-1.89,-3.72,264,325,412,469,422,8
1937,0.2,0.72,0.67,2.2,-1.46,-3.05,262,326,413,470,416,8
1938,0.19,0.7,0.68,0.85,-3.3,-1.53,290,324,413,472,419,8
1939,0.2,0.74,0.67,-5.13,-4.27,-1.71,265,325,415,481,421,8
1940,0.2,0.74,0.67,1.22,-2.99,-2.08,263,322,415,470,426,8
1941,0.21,0.73,0.68,-0.43,-2.75,-3.17,266,325,413,469,417,8
1942,0.2,0.72,0.67,-1.28,-3.36,-2.08,263,324,414,472,423,8
1943,0.21,0.72,0.68,0.12,-4.15,-2.38,264,323,413,470,421,8
1944,0.21,0.72,0.67,2.01,-1.95,-2.38,264,329,414,473,417,8
1945,0.21,0.72,0.67,1.04,-1.65,-1.22,261,327,413,468,417,8
1946,0.2,0.72,0.68,-2.14,-1.89,-1.22,266,325,415,470,423,8
1947,0.21,0.72,0.68,0.43,-3.42,-3.23,262,326,412,469,421,8
1948,0.2,0.73,0.68,1.53,-2.2,-2.5,263,323,414,474,419,8
1949,0.22,0.72,0.69,0.67,-2.87,-3.3,283,328,414,468,420,8
1950,0.21,0.71,0.68,-1.34,-3.91,-2.08,264,331,413,470,423,8
1951,0.2,0.69,0.67,0.37,-4.03,-2.44,265,328,411,466,422,8
1952,0.2,0.7,0.69,0.37,-2.93,-3.97,260,323,411,472,421,8
1953,0.21,0.71,0.69,2.75,-9.16,2.81,263,321,412,464,421,8
1954,0.27,0.73,0.62,-7.32,5.55,-7.75,265,323,409,466,420,8
1955,0.21,0.76,0.68,-2.44,-6.35,-1.46,270,325,409,471,421,8
1956,0.2,0.74,0.67,-7.26,-6.47,3.36,266,335,413,473,421,8
1957,0.22,0.69,0.68,-10.13,-5.55,-2.44,267,333,412,472,421,8
1958,0.17,0.7,0.7,-18.62,3.78,-5.98,262,330,415,467,421,8
1959,0.2,0.71,0.7,1.77,-2.81,-0.92,269,331,414,467,419,8
1960,0.2,0.68,0.69,5.19,1.22,-6.35,269,333,410,472,418,8
1961,0.19,0.71,0.69,5.8,2.2,-5.62,268,333,409,472,416,8
1962,0.2,0.72,0.68,1.95,-4.15,-1.04,280,329,411,474,420,8
1963,0.36,0.76,0.63,39.06,-49.8,52.8,271,383,414,466,413,8
1964,0.36,0.82,0.45,34.12,-7.2,5.68,273,383,412,469,416,8
1965,0.04,0.94,0.46,5.0,14.22,-11.84,270,381,414,469,417,8
1966,0.16,0.94,0.4,3.48,-8.97,-2.62,270,384,415,461,420,8
1967,0.07,0.85,0.47,0.37,-1.53,-6.77,270,382,413,471,418,8
1968,0.06,0.87,0.47,-0.79,-1.89,-3.72,271,378,411,460,419,8
1969,0.04,0.89,0.44,-3.48,-1.1,-5.86,274,379,415,462,420,8
1970,0.03,0.9,0.45,2.81,-1.53,-3.72,284,377,416,463,416,8
1971,0.07,0.87,0.46,-3.17,-2.2,-3.42,270,381,417,461,420,8
1972,0.02,0.89,0.47,-3.17,-0.73,-6.59,276,388,416,472,416,8
1973,-0.0,0.88,0.48,-7.45,-2.2,-2.14,273,388,417,465,420,8
1974,0.04,0.87,0.5,-0.43,-6.35,0.49,273,389,416,458,420,8
1975,0.04,0.82,0.5,0.37,3.91,-12.51,271,392,417,464,419,8
1976,0.05,0.83,0.53,-5.92,-2.87,-0.79,274,396,416,463,420,8
1977,0.07,0.87,0.52,-9.83,-4.39,-1.4,275,392,414,465,421,8
1978,0.08,0.87,0.51,-0.37,1.83,-7.69,275,391,419,469,420,8
1979,0.03,0.83,0.55,-2.32,-2.14,-2.99,271,389,420,466,422,8
1980,0.03,0.83,0.55,-2.08,-3.17,-4.58,273,392,419,465,418,8
1981,0.05,0.87,0.53,8.06,-2.93,-3.42,277,395,414,466,416,8
1982,0.04,0.82,0.51,5.92,-4.7,-1.89,272,397,422,464,421,8
1983,0.05,0.86,0.52,-0.43,-4.21,-3.05,273,395,418,469,418,8
1984,0.05,0.84,0.52,-1.71,-4.7,-1.77,276,400,417,468,420,8
1985,0.06,0.86,0.54,-2.81,-2.99,-1.95,274,397,414,465,421,8
1986,0.05,0.85,0.54,3.91,-2.69,-3.48,278,399,416,464,419,8
1987,0.07,0.86,0.54,3.42,-1.4,-2.32,275,400,417,466,422,8
1988,0.03,0.82,0.55,1.46,-3.42,-1.04,274,398,416,466,420,8
1989,0.08,0.87,0.52,9.09,-2.5,-3.11,273,401,419,469,416,8
1990,0.06,0.8,0.59,-4.33,-3.3,-1.95,274,409,419,468,418,8
1991,0.05,0.81,0.59,-2.44,-1.59,-4.33,275,396,417,464,421,8
1992,0.06,0.82,0.57,8.06,-5.25,-2.5,276,396,417,466,421,8
1993,0.06,0.78,0.58,5.92,-4.7,-1.89,275,399,419,466,416,8
1994,0.07,0.84,0.56,-1.71,-1.95,-2.26,277,398,418,470,421,8
1995,0.12,0.83,0.58,4.76,0.55,-4.33,276,400,420,472,418,8
1996,0.14,0.82,0.56,-3.36,-3.42,-2.99,274,402,419,470,419,8
1997,0.13,0.83,0.6,-9.89,-1.46,-3.54,278,395,419,470,420,8
1998,0.12,0.79,0.55,9.03,-0.18,-5.31,279,401,418,469,419,8
1999,0.13,0.82,0.54,8.61,-6.35,3.97,275,396,424,470,420,8
2000,0.08,0.82,0.59,11.17,13.61,-2.56,276,401,417,466,421,8
2001,0.1,0.84,0.54,0.06,-5.86,-3.23,278,397,419,467,419,8
2002,0.11,0.81,0.59,-8.54,-0.43,-7.45,284,400,412,460,421,8
2003,0.1,0.83,0.57,-6.47,-3.36,-5.68,279,402,416,466,421,8
2004,0.08,0.8,0.58,0.92,-1.53,-5.62,278,403,417,471,418,8
2005,0.1,0.8,0.56,6.9,-3.11,-3.42,278,400,413,467,421,8
2006,0.06,0.84,0.6,-24.29,-2.69,1.71,277,394,414,467,421,8
2007,0.08,0.81,0.59,1.34,-1.4,-2.93,276,397,426,463,420,8
2008,0.1,0.82,0.57,-4.82,-4.64,-2.14,277,400,414,470,422,8
2009,0.05,0.83,0.57,1.77,2.08,-10.74,279,402,416,468,420,8
2010,0.1,0.8,0.58,4.46,-2.44,-1.83,278,401,419,469,424,8
2011,0.12,0.82,0.57,-3.66,-11.96,-0.24,279,393,416,468,419,8
2012,0.09,0.81,0.6,1.89,-0.79,-2.93,276,400,418,462,421,8
2013,0.1,0.8,0.6,-5.25,-1.22,-2.81,276,401,415,472,423,8
2014,0.09,0.79,0.61,-4.7,-2.56,-4.21,279,409,417,468,420,8
2015,0.1,0.81,0.6,-2.69,-1.77,-0.98,276,400,417,467,425,8
