,aX,aY,aZ,gX,gY,gZ,little,ring,middle,index,thumb,number
0,0.69,0.5,0.65,34.73,-12.02,-16.42,174,444,371,451,260,9
1,0.5,0.71,0.44,49.19,55.05,-51.64,216,463,387,457,276,9
2,0.3,0.81,0.41,-6.16,-25.33,-39.61,256,441,389,438,314,9
3,0.22,0.9,0.38,-6.29,-3.11,-9.7,258,441,396,452,387,9
4,0.19,0.92,0.39,4.21,0.12,5.68,239,335,392,454,389,9
5,0.25,0.91,0.32,6.96,-9.64,2.62,272,446,391,456,390,9
6,0.29,0.9,0.32,0.92,-5.07,3.97,283,449,399,454,385,9
7,0.25,0.94,0.29,3.05,-1.53,10.86,283,463,394,460,386,9
8,0.41,0.84,0.29,8.0,56.95,7.69,287,467,400,465,386,9
9,0.12,1.05,0.39,54.02,43.27,53.59,291,468,402,467,388,9
10,0.05,0.93,0.3,12.7,-2.01,49.13,291,479,402,462,392,9
11,0.3,0.91,0.22,9.09,4.46,8.0,292,469,402,463,392,9
12,0.26,1.02,0.26,-1.71,7.02,5.55,291,469,402,466,392,9
13,0.34,0.96,0.26,2.44,1.83,-7.87,294,468,399,466,393,9
14,0.2,0.91,0.32,-0.12,7.32,-2.2,270,465,401,462,392,9
15,0.27,0.94,0.27,-7.02,-8.54,-8.42,188,465,399,468,395,9
16,0.28,0.93,0.29,0.06,-2.62,0.61,196,465,404,465,399,9
17,0.28,0.91,0.27,-10.38,-6.59,-2.44,184,465,400,466,398,9
18,0.34,0.86,0.35,-23.93,-21.73,-32.47,196,468,396,468,400,9
19,0.2,0.9,0.44,-6.96,8.54,-6.84,197,465,402,471,391,9
20,0.23,0.93,0.39,4.52,-3.72,-0.61,199,464,400,472,398,9
21,0.21,0.89,0.43,1.65,-4.21,-0.61,195,469,405,470,397,9
22,0.24,0.87,0.41,3.66,-2.14,-3.85,209,465,403,474,395,9
23,0.24,0.86,0.4,-3.17,-1.59,-6.41,296,455,399,475,400,9
24,0.23,0.89,0.41,-0.55,-3.85,-4.27,293,455,401,471,403,9
25,0.22,0.91,0.39,3.23,-3.11,-3.91,313,463,400,471,396,9
26,0.22,0.9,0.37,4.09,-3.05,-0.24,321,462,400,467,400,9
27,0.24,0.89,0.34,1.95,-3.91,-3.36,319,471,403,474,398,9
28,0.23,0.9,0.36,-1.59,-0.98,-3.72,314,472,405,471,412,9
29,0.24,0.92,0.35,1.16,-7.75,3.17,316,470,407,469,404,9
30,0.33,0.87,0.4,4.46,-7.93,-2.99,319,471,405,465,402,9
31,0.1,0.86,0.37,-8.54,-2.38,-1.46,312,474,402,470,397,9
32,0.28,0.97,0.35,-0.61,0.12,-17.64,311,470,404,469,401,9
33,0.12,0.9,0.37,-11.72,-19.96,2.2,305,470,401,467,401,9
34,0.52,0.84,0.26,-33.69,-25.57,-38.33,306,467,403,467,403,9
35,0.23,0.88,0.54,-9.58,-71.23,3.85,307,471,403,460,403,9
36,0.21,0.94,0.56,27.28,-72.14,8.36,308,472,403,469,403,9
37,0.24,0.79,0.52,-13.67,-21.42,-29.6,307,469,403,467,399,9
38,0.04,0.6,0.68,5.13,-12.02,-4.09,310,468,404,469,400,9
39,0.0,0.62,0.66,-5.49,3.3,11.05,311,473,406,464,398,9
40,0.29,0.77,0.57,-4.33,15.81,20.94,309,473,404,463,396,9
41,0.12,0.8,0.58,4.52,41.5,54.87,310,470,404,469,399,9
42,0.19,0.59,0.45,-3.97,104.74,-6.84,307,471,405,478,405,9
43,0.19,0.93,0.54,21.18,20.51,-0.37,310,472,406,466,400,9
44,0.49,0.78,0.25,29.72,-12.45,9.34,310,471,418,467,401,9
45,-0.05,0.98,0.49,4.94,22.28,21.18,310,469,403,459,403,9
46,0.15,0.87,0.43,-19.35,-3.97,-25.51,311,474,406,465,404,9
47,0.25,0.95,0.37,-7.51,1.59,-10.99,308,474,404,466,399,9
48,0.33,0.86,0.25,6.47,-31.19,8.06,308,473,404,467,406,9
49,0.36,1.05,0.41,-4.21,-10.74,-9.09,312,469,407,464,403,9
50,0.13,0.9,0.46,-6.53,-0.61,-3.66,309,473,405,468,399,9
51,0.13,0.73,0.5,1.46,-16.91,10.56,309,469,404,460,405,9
52,0.34,0.96,0.42,-3.11,3.11,15.75,310,472,404,466,405,9
53,0.45,1.0,0.37,18.49,22.64,-5.0,311,472,405,469,403,9
54,0.33,1.0,0.36,10.74,7.08,-27.1,310,471,403,467,402,9
55,0.38,0.89,0.33,5.92,-0.92,-19.41,319,471,404,464,403,9
56,0.33,0.93,0.3,5.49,0.31,1.16,307,473,405,471,400,9
57,0.4,0.87,0.34,1.46,21.12,7.32,312,473,404,461,403,9
58,0.26,0.91,0.32,25.45,22.4,-2.87,312,471,405,468,404,9
59,0.21,1.0,0.28,3.54,9.09,-13.92,315,471,403,478,406,9
60,0.28,0.88,0.31,-7.45,-10.5,-15.87,313,470,404,466,402,9
61,0.25,0.95,0.33,2.81,-1.65,-5.43,314,468,405,467,403,9
62,0.15,0.93,0.31,6.04,5.31,-1.77,308,470,405,466,401,9
63,0.29,0.94,0.33,5.37,-0.24,-4.58,306,467,407,482,409,9
64,0.16,0.94,0.3,8.36,6.04,7.26,309,470,407,468,402,9
65,0.18,0.93,0.28,3.66,-3.97,-6.23,310,465,406,467,403,9
66,0.25,0.91,0.26,1.83,-7.51,-1.22,311,468,403,466,410,9
67,0.2,0.94,0.27,-0.12,-11.6,-5.55,313,472,402,469,405,9
68,0.25,0.93,0.24,-3.3,-13.18,-2.08,313,474,402,471,405,9
69,0.22,0.93,0.23,-6.04,-12.94,-4.88,313,471,404,467,406,9
70,0.2,0.92,0.24,-2.75,-5.19,-10.74,312,471,404,466,404,9
71,0.16,0.94,0.25,-0.18,-4.15,-5.13,309,470,404,467,401,9
72,0.15,0.94,0.26,0.98,-4.15,-5.49,303,465,406,469,403,9
73,0.11,0.95,0.28,0.18,-1.16,-2.69,311,467,405,470,405,9
74,0.13,0.95,0.26,2.01,0.31,-7.14,268,462,406,467,407,9
75,0.1,0.95,0.28,2.62,-6.71,-3.6,260,436,406,477,404,9
76,0.12,0.96,0.23,3.85,-6.77,-3.05,282,467,399,469,408,9
77,0.13,1.0,0.21,1.71,-3.91,-2.75,287,456,400,466,403,9
78,0.1,0.93,0.22,0.24,-9.7,-8.24,281,460,403,470,405,9
79,0.11,1.03,0.21,0.06,1.71,7.2,299,460,415,467,406,9
80,0.07,0.92,0.34,5.31,1.53,19.41,340,465,403,467,408,9
81,0.12,1.02,0.24,3.78,-1.53,-1.34,299,464,404,467,406,9
82,0.13,1.0,0.19,5.49,3.36,-0.24,302,460,407,469,408,9
83,0.2,0.97,0.23,-1.4,-3.3,-4.7,302,462,405,465,406,9
84,0.16,0.93,0.24,-0.49,-4.33,-3.54,304,466,406,465,407,9
85,0.18,0.95,0.23,4.52,1.46,-1.4,304,466,404,466,406,9
86,0.18,0.92,0.22,-0.43,-3.97,-3.72,304,461,405,468,407,9
87,0.2,0.97,0.22,-1.04,-0.67,-5.43,305,465,408,463,405,9
88,0.17,0.95,0.22,1.77,-1.34,-1.95,300,465,405,470,405,9
89,0.19,0.95,0.21,1.34,-4.64,-2.14,306,465,405,465,406,9
90,0.17,0.95,0.25,-0.37,1.46,-1.16,302,469,405,465,408,9
91,0.05,0.96,0.23,-4.52,6.35,2.5,303,466,405,464,406,9
92,0.15,0.96,0.25,-3.54,-4.39,-2.38,304,465,407,460,406,9
93,0.13,0.9,0.29,0.06,-14.53,0.92,302,470,405,466,402,9
94,0.21,1.02,0.28,0.61,-4.94,-11.72,301,468,406,464,406,9
95,0.24,1.05,0.12,4.94,14.16,-18.62,303,471,405,467,407,9
96,0.22,0.86,0.21,2.32,-19.53,10.31,300,471,405,466,406,9
97,0.29,0.95,0.15,1.59,-7.51,-2.93,334,473,407,465,410,9
98,0.19,0.93,0.2,-5.13,0.31,-8.97,304,467,406,461,407,9
99,0.23,0.97,0.25,3.66,2.38,-7.45,305,466,406,465,407,9
100,0.16,1.05,0.3,3.72,2.44,-7.93,305,472,406,462,407,9
101,0.18,0.95,0.19,-0.79,-5.92,-3.85,308,470,407,465,404,9
102,0.14,0.95,0.24,-0.61,-14.22,17.94,303,469,406,465,409,9
103,0.23,0.99,0.2,-10.44,-7.75,-13.67,309,467,406,471,404,9
104,0.2,0.88,0.18,2.75,-4.27,-5.19,310,460,404,467,407,9
105,0.18,0.95,0.15,4.33,0.12,0.06,313,459,405,473,404,9
106,0.1,0.96,0.18,-3.11,-5.0,-4.94,312,467,403,471,407,9
107,0.14,0.98,0.19,0.73,-1.28,-0.37,315,469,405,470,409,9
108,0.13,0.96,0.2,2.01,-1.71,-2.2,312,467,406,468,407,9
109,0.15,0.99,0.19,0.92,-0.85,-2.26,312,469,407,468,407,9
110,0.15,0.93,0.18,0.79,-5.8,1.89,314,469,409,463,404,9
111,0.13,0.95,0.19,-3.42,-7.32,0.31,315,469,406,466,410,9
112,0.15,0.95,0.2,-0.37,-1.83,-0.92,314,467,408,475,406,9
113,0.14,0.99,0.26,-5.19,-11.17,15.56,315,473,404,463,410,9
114,0.18,0.98,0.22,3.11,2.38,-11.23,314,472,409,462,408,9
115,0.2,1.0,0.25,-0.55,0.0,-1.83,315,472,408,461,407,9
116,0.17,0.96,0.24,1.71,-1.22,-8.3,316,466,409,469,404,9
117,0.21,0.93,0.21,-1.1,-10.62,0.92,315,469,404,469,408,9
118,0.16,0.89,0.17,-1.89,-36.99,22.03,315,468,409,466,409,9
119,0.27,0.99,0.25,-1.16,-0.79,-8.36,316,471,407,466,408,9
120,0.3,0.87,0.25,-10.86,-15.44,-2.93,314,471,405,465,405,9
121,0.27,0.65,0.26,-5.74,-22.03,6.77,295,469,405,464,407,9
122,0.35,0.98,0.26,12.76,0.79,-3.72,296,468,407,468,407,9
123,0.29,0.81,0.31,-1.95,-1.1,0.67,309,464,404,471,407,9
124,0.25,0.89,0.33,-17.09,9.09,-28.26,312,470,407,472,408,9
125,0.11,0.81,0.42,1.77,-14.59,4.46,311,467,407,467,405,9
126,0.31,0.9,0.33,-3.66,6.77,-23.19,312,466,409,467,389,9
127,0.24,0.86,0.3,7.69,8.3,-0.24,312,468,407,474,391,9
128,0.16,1.01,0.37,14.65,5.07,14.53,311,468,410,472,402,9
129,0.22,0.9,0.31,-0.24,-2.93,-5.49,312,466,404,469,407,9
130,0.17,0.9,0.34,9.58,-2.14,8.36,313,469,413,473,397,9
131,0.21,0.8,0.28,-14.4,5.07,-19.35,314,472,408,468,401,9
132,0.13,0.96,0.29,-11.84,-8.61,35.58,311,472,406,464,401,9
133,0.29,0.95,0.44,-14.77,5.13,-29.05,313,470,411,467,401,9
134,0.2,0.87,0.31,30.64,-19.41,17.7,314,471,405,480,401,9
135,0.26,0.91,0.29,-19.29,19.9,-40.83,314,471,408,469,402,9
136,0.13,0.97,0.36,8.48,-13.43,22.77,309,467,406,472,403,9
137,0.22,1.02,0.37,4.88,-7.75,3.6,314,469,407,463,404,9
138,0.28,0.92,0.32,-4.58,-2.5,-3.78,312,465,407,464,403,9
139,0.29,0.89,0.31,4.15,-4.33,3.42,312,468,410,459,403,9
140,0.28,0.89,0.3,7.63,-5.37,8.3,316,469,417,461,399,9
141,0.35,0.92,0.25,-1.34,-0.37,-6.65,312,471,407,470,399,9
142,0.32,0.87,0.26,-2.38,-6.04,2.75,313,473,408,462,405,9
143,0.25,0.87,0.33,-2.69,4.21,-9.46,314,469,408,468,403,9
144,0.21,0.88,0.32,-3.72,2.81,-14.53,313,468,406,470,402,9
145,0.28,0.93,0.35,3.23,-5.55,-3.78,296,470,408,468,403,9
146,0.26,0.93,0.32,3.78,-5.25,1.65,284,469,406,465,399,9
147,0.27,0.88,0.31,2.32,-4.76,-3.23,292,470,408,468,405,9
148,0.28,0.91,0.32,1.77,-5.07,-1.4,295,468,405,468,401,9
149,0.25,0.89,0.32,-3.23,1.83,-7.14,297,467,408,472,402,9
150,0.28,0.92,0.29,-2.38,-4.21,-13.61,295,471,408,464,405,9
151,0.27,0.99,0.3,2.14,-13.55,1.77,297,474,407,467,406,9
152,0.26,0.88,0.29,-3.05,2.08,-2.38,296,471,404,471,405,9
153,0.13,0.91,0.31,3.6,-27.34,17.4,294,472,406,470,404,9
154,0.27,0.99,0.38,-11.47,8.3,-17.82,295,472,409,465,406,9
155,0.2,0.86,0.31,-1.59,-10.5,0.55,294,473,408,471,404,9
156,0.22,1.0,0.27,10.07,16.78,7.02,327,471,408,473,407,9
157,0.16,1.01,0.43,13.92,-6.65,6.59,298,470,407,471,405,9
158,0.34,0.94,0.36,6.29,-6.29,3.42,301,470,404,468,402,9
159,0.26,0.84,0.39,-4.33,2.75,-5.98,300,467,404,464,406,9
160,0.25,0.86,0.32,4.7,-7.81,7.32,303,473,409,464,405,9
161,0.21,0.95,0.34,-0.79,2.93,-2.93,301,467,409,465,401,9
162,0.32,0.95,0.37,5.62,-0.61,1.77,302,471,407,467,407,9
163,0.16,0.87,0.42,-18.92,6.59,-32.29,304,470,406,464,410,9
164,0.15,0.87,0.33,-1.95,-11.05,-0.73,301,472,407,469,406,9
165,0.15,1.02,0.44,-6.71,6.77,-22.09,304,468,407,460,408,9
166,0.16,0.92,0.41,23.25,-8.73,31.07,304,471,409,465,408,9
167,0.2,1.0,0.37,-16.3,7.14,-31.13,302,471,408,466,409,9
168,0.18,0.85,0.41,15.99,-11.05,22.22,302,470,404,467,407,9
169,0.12,0.86,0.38,-6.04,-1.83,-1.46,304,472,404,465,408,9
170,0.23,0.98,0.37,-2.99,5.13,-3.91,303,478,411,469,408,9
171,0.35,0.84,0.25,0.92,-20.02,45.84,304,466,404,470,408,9
172,0.2,0.87,0.35,-8.73,3.48,-38.51,302,469,406,468,409,9
173,0.06,1.02,0.35,27.89,5.25,3.36,308,475,409,471,408,9
174,0.24,0.86,0.36,15.14,25.45,10.07,307,471,410,465,408,9
175,0.01,0.96,0.39,8.3,20.2,7.08,308,470,407,462,409,9
176,0.13,0.91,0.3,8.85,29.42,8.12,307,468,409,468,409,9
177,0.29,1.06,0.25,-5.43,1.53,-14.16,307,469,408,465,406,9
178,0.29,0.97,0.18,2.44,3.42,-8.06,307,470,409,471,407,9
179,0.24,0.95,0.14,42.66,49.56,-1.95,305,468,408,461,403,9
180,0.15,1.0,-0.04,9.16,55.6,10.44,306,468,409,466,405,9
181,-0.35,0.88,0.55,1.22,53.04,0.55,306,473,408,469,406,9
182,-0.1,1.03,0.27,3.85,4.94,-19.47,307,468,408,470,406,9
183,-0.09,1.05,0.28,-0.12,-38.09,12.02,310,471,410,468,404,9
184,0.1,0.89,0.27,28.99,20.57,18.13,310,469,408,470,402,9
185,-0.07,0.94,0.28,17.09,26.18,34.55,303,470,414,480,411,9
186,-0.11,0.94,0.29,-17.09,3.85,-1.65,309,470,417,467,408,9
187,-0.15,0.89,0.22,18.07,-25.57,16.48,310,472,410,470,407,9
188,0.02,1.04,0.03,-11.78,-185.49,-34.48,310,470,406,466,410,9
189,0.09,1.21,0.33,-66.04,-98.14,-24.41,311,473,409,471,408,9
190,0.25,0.71,0.34,44.92,10.38,35.03,307,469,418,471,406,9
191,0.16,1.24,0.23,-4.82,3.85,-5.19,311,471,416,467,406,9
192,0.16,0.89,0.23,7.08,9.46,2.32,309,470,410,471,409,9
193,0.16,1.06,0.27,32.84,0.06,-4.27,310,471,410,462,412,9
194,0.12,0.91,0.08,5.55,2.01,-7.02,309,471,411,472,409,9
195,0.16,0.95,0.11,-2.38,-0.98,5.19,308,467,411,470,410,9
196,0.13,0.96,0.17,-6.53,-1.1,3.72,312,470,409,468,408,9
197,0.28,0.97,0.22,-1.22,-6.65,-6.23,307,470,407,480,408,9
198,0.19,0.91,0.23,8.67,4.39,0.18,310,470,406,471,410,9
199,0.16,0.93,0.21,-4.88,-24.9,-5.0,309,471,409,471,411,9
200,0.25,0.96,0.19,5.25,-17.76,-3.78,310,473,409,466,409,9
201,0.22,0.93,0.23,0.43,-6.16,4.39,311,474,406,464,409,9
202,0.22,1.02,0.21,-3.17,0.73,-0.37,309,471,408,466,408,9
203,0.25,0.76,0.29,-32.9,2.2,2.5,311,471,409,466,409,9
204,0.43,0.76,0.5,-0.37,-9.95,-9.83,311,473,409,466,408,9
205,0.34,0.88,0.45,0.24,9.89,-3.54,308,467,410,462,408,9
206,0.37,0.83,0.48,10.62,-6.1,-9.95,317,471,416,465,408,9
207,0.35,0.81,0.36,11.17,-9.16,3.3,309,473,411,470,408,9
208,0.31,0.85,0.38,2.38,8.12,7.2,309,466,410,467,405,9
209,0.22,0.91,0.41,3.78,4.21,-8.3,313,465,409,470,411,9
210,0.22,0.9,0.41,0.79,3.11,-7.39,315,465,408,466,406,9
211,0.23,0.93,0.46,6.71,4.27,-11.9,315,464,407,466,409,9
212,0.19,0.77,0.32,-12.7,3.48,-5.55,315,468,412,464,407,9
213,0.16,0.91,0.4,-22.46,-3.42,-12.15,317,465,410,468,409,9
214,0.18,0.91,0.46,1.34,1.22,-4.21,316,470,410,468,410,9
215,0.18,0.88,0.42,-2.08,-0.98,-3.85,317,469,410,464,409,9
216,0.24,0.88,0.37,-9.22,-6.04,-0.43,317,471,415,462,408,9
217,0.19,0.85,0.45,6.84,-23.86,28.75,312,469,409,466,411,9
218,0.2,0.85,0.52,3.72,-7.39,0.37,315,472,407,467,409,9
219,0.13,0.87,0.5,-1.77,1.71,-6.47,315,473,407,466,409,9
220,0.15,0.85,0.49,9.46,1.59,-1.65,313,473,410,466,403,9
221,0.13,0.83,0.49,0.61,-9.4,-0.73,315,469,407,470,406,9
222,0.12,0.87,0.43,-7.26,-2.69,1.46,314,467,410,467,405,9
223,0.09,0.85,0.48,0.37,-0.18,2.44,317,469,410,466,408,9
224,0.11,0.9,0.54,-1.59,-4.15,-4.58,315,472,412,462,407,9
225,0.09,0.83,0.5,-4.52,-0.43,-5.68,317,473,413,467,408,9
226,0.09,0.89,0.49,-8.67,-5.19,-1.77,318,466,410,469,403,9
227,0.12,0.81,0.5,-3.72,-9.22,0.31,314,470,409,468,399,9
228,0.11,0.82,0.53,2.38,-5.43,2.56,318,472,409,467,402,9
229,0.11,0.91,0.55,-3.05,-2.44,-18.74,313,472,412,472,403,9
230,0.16,0.87,0.44,-1.1,-9.52,10.44,318,471,410,467,405,9
231,0.08,0.82,0.52,11.6,-26.25,29.11,318,469,411,467,406,9
232,0.19,0.88,0.48,4.39,2.38,-8.24,318,469,413,466,405,9
233,0.19,0.95,0.42,7.32,7.69,-20.02,320,469,410,469,407,9
234,0.13,0.86,0.43,-2.75,1.1,-11.23,322,472,410,478,404,9
235,0.33,0.89,0.41,-1.04,-8.85,-1.71,318,471,407,459,406,9
236,0.1,0.94,0.42,5.68,4.15,-10.44,355,473,405,462,403,9
237,0.16,0.74,0.38,-13.06,-16.54,11.66,320,471,408,473,404,9
238,0.17,0.89,0.41,-4.58,-5.62,8.18,317,474,409,468,404,9
239,0.17,0.91,0.44,4.52,2.01,-5.07,320,475,407,460,407,9
240,0.17,0.91,0.42,-4.39,-2.5,-3.05,320,469,408,465,407,9
241,0.22,0.96,0.4,4.15,-1.53,-6.96,321,471,409,469,404,9
242,0.18,0.86,0.39,-1.53,-1.1,-4.09,319,469,409,472,407,9
243,0.19,0.94,0.4,1.1,0.79,-3.48,320,472,413,466,407,9
244,0.17,0.9,0.42,-1.46,-3.85,0.92,321,471,412,463,406,9
245,0.17,0.85,0.4,-5.07,-3.36,-2.56,323,470,412,460,404,9
246,0.24,0.91,0.37,5.74,-8.85,-9.83,322,469,410,463,412,9
247,0.21,0.89,0.36,-2.14,-1.34,0.73,323,471,410,467,406,9
248,0.22,0.89,0.41,0.55,-2.08,-8.12,323,469,413,470,407,9
249,0.26,0.9,0.35,-0.92,-3.91,-3.05,322,466,410,467,403,9
250,0.24,0.87,0.36,-0.79,-6.1,-2.01,322,468,410,464,406,9
251,0.24,0.89,0.34,5.19,-3.05,0.18,322,469,408,467,407,9
252,0.24,0.89,0.35,-3.23,-3.85,-1.22,325,472,407,469,409,9
253,0.23,0.92,0.36,-1.22,-2.75,-3.05,327,473,414,474,408,9
254,0.24,0.89,0.34,-1.59,-1.71,-5.0,324,467,409,471,406,9
255,0.24,0.89,0.35,0.85,-0.43,-5.55,323,473,410,465,405,9
256,0.24,0.9,0.34,-0.24,-1.89,0.06,322,471,411,473,406,9
257,0.24,0.92,0.35,-0.24,-1.65,-5.25,319,472,411,466,406,9
258,0.22,0.92,0.34,0.0,-4.03,-1.65,329,471,412,468,410,9
259,0.22,0.93,0.36,0.31,-2.56,-5.8,322,472,409,471,409,9
260,0.22,0.91,0.35,1.59,-5.07,-4.33,324,471,417,469,409,9
261,0.26,0.94,0.33,1.28,0.92,-11.05,323,472,411,470,404,9
262,0.2,0.92,0.35,-1.59,-3.05,-2.62,330,468,412,472,407,9
263,0.21,0.92,0.33,0.85,-5.37,-1.22,325,471,414,470,403,9
264,0.22,0.91,0.33,-0.24,-2.62,-1.89,326,471,411,474,408,9
265,0.21,0.9,0.32,-4.46,-4.46,-1.16,323,469,411,472,410,9
266,0.2,0.92,0.35,-0.67,-4.09,-0.31,326,470,410,466,407,9
267,0.18,0.93,0.35,2.01,-2.01,-2.87,325,469,411,472,407,9
268,0.16,0.9,0.35,7.2,0.92,-6.71,326,477,415,476,415,9
269,0.18,0.94,0.33,-1.89,-3.3,-1.59,324,481,419,473,404,9
270,0.18,0.91,0.34,0.55,-1.34,-4.27,326,473,412,473,409,9
271,0.19,0.93,0.34,-0.12,-2.14,-4.39,323,469,411,468,409,9
272,0.18,0.92,0.34,-0.18,-1.71,-3.72,333,470,409,474,409,9
273,0.19,0.92,0.35,1.34,-0.43,-2.56,322,473,412,473,410,9
274,0.16,0.95,0.35,-0.85,-1.1,-1.22,326,468,408,473,412,9
275,0.19,0.92,0.34,0.67,-5.07,-2.62,323,471,412,472,409,9
276,0.24,0.88,0.27,2.75,-3.97,7.75,325,488,413,474,409,9
277,0.21,0.9,0.33,8.48,-0.79,-5.55,325,474,411,478,408,9
278,0.22,0.9,0.28,10.01,1.77,-7.26,327,469,412,477,410,9
279,0.26,0.93,0.3,-8.42,-6.29,-3.72,326,473,415,479,410,9
280,0.25,0.98,0.26,6.71,-0.31,-6.65,325,487,408,477,409,9
281,0.28,0.92,0.26,-4.64,-7.51,-2.08,322,474,408,468,408,9
282,0.31,0.9,0.35,13.06,-0.67,-4.94,326,468,410,472,408,9
283,0.19,0.89,0.25,14.59,-0.43,-12.21,327,472,416,467,407,9
284,0.24,0.92,0.27,7.08,-4.21,-4.7,326,472,411,474,406,9
285,0.23,0.95,0.24,1.95,-0.12,-1.83,326,468,414,477,409,9
286,0.21,0.95,0.26,2.56,-3.05,-1.83,326,473,411,474,409,9
287,0.25,0.91,0.25,2.08,-4.82,-4.03,324,471,415,477,409,9
288,0.22,0.98,0.25,0.55,4.09,-3.85,327,471,414,472,418,9
289,0.25,0.96,0.25,5.68,-5.43,-1.95,324,473,411,472,411,9
290,0.25,0.94,0.24,-0.55,-5.74,1.04,324,471,411,476,407,9
291,0.22,0.91,0.27,0.79,0.55,13.49,326,471,410,472,410,9
292,0.29,0.93,0.29,0.43,14.77,-29.24,314,480,414,479,409,9
293,0.38,0.9,0.23,0.92,-7.93,-12.63,324,471,414,471,410,9
294,0.32,0.93,0.27,-0.73,-3.23,-3.6,323,468,411,474,409,9
295,0.27,0.93,0.29,9.22,-11.23,14.1,319,471,411,473,407,9
296,0.32,0.9,0.29,-4.46,-5.31,3.17,328,470,411,476,407,9
297,0.38,0.91,0.34,1.53,-3.54,14.95,326,471,413,478,408,9
298,0.41,0.77,0.36,-0.37,-6.77,-2.75,326,474,412,476,408,9
299,0.55,1.08,0.15,-2.44,13.12,-56.88,323,468,414,477,406,9
300,0.37,0.82,0.28,-5.92,13.06,-24.48,326,468,415,478,412,9
301,0.18,0.93,0.33,4.52,0.06,-5.8,323,471,413,479,406,9
302,0.26,1.03,0.28,-3.97,7.81,-23.32,325,478,412,478,405,9
303,0.23,0.94,0.25,-1.95,-2.62,-4.82,325,470,414,477,407,9
304,0.17,0.89,0.31,-3.36,-2.87,-4.94,325,470,414,475,404,9
305,0.1,0.94,0.42,-6.59,-28.08,39.98,325,471,415,473,407,9
306,0.25,0.84,0.38,2.69,2.08,-5.13,323,472,411,469,408,9
307,0.25,0.92,0.38,17.46,-7.93,-1.65,325,471,411,473,388,9
308,0.28,0.9,0.25,6.84,0.92,-11.35,321,471,415,478,380,9
309,0.26,0.9,0.24,-3.78,-2.69,7.57,323,472,411,477,387,9
310,0.29,0.85,0.22,19.9,-23.25,12.39,321,471,412,478,385,9
311,0.35,0.93,0.14,9.09,6.1,-1.53,319,474,412,485,393,9
312,0.21,0.9,0.13,10.38,10.74,-22.28,321,472,409,478,393,9
313,0.25,0.94,0.15,-9.52,-6.9,-6.59,316,469,410,485,391,9
314,0.26,1.01,0.15,0.92,2.08,-4.52,319,467,413,483,394,9
315,0.25,0.96,0.14,-0.31,-4.21,-2.38,322,472,414,481,392,9
316,0.26,0.97,0.15,-1.59,0.24,-8.3,323,468,414,477,395,9
317,0.24,0.94,0.14,-2.44,-3.6,-4.21,321,469,426,480,398,9
318,0.21,0.96,0.14,-2.2,-3.36,-1.83,323,467,417,479,396,9
319,0.21,0.96,0.15,1.83,-4.7,-0.98,325,467,410,478,396,9
320,0.21,0.93,0.17,0.55,-2.32,-5.07,324,467,410,480,391,9
321,0.21,0.97,0.17,4.64,-2.44,-0.67,327,469,407,477,395,9
322,0.23,0.96,0.17,-5.74,-2.08,-1.34,328,466,411,479,396,9
323,0.2,0.94,0.21,0.12,1.04,-5.98,325,471,409,483,396,9
324,0.23,0.96,0.18,-0.73,-1.77,-3.6,336,470,411,485,397,9
325,0.23,0.95,0.2,3.91,-8.3,0.73,328,468,411,484,397,9
326,0.23,0.95,0.2,1.04,-4.46,-0.85,331,469,419,484,398,9
327,0.24,0.96,0.19,-3.17,-3.97,-0.79,329,472,416,482,399,9
328,0.23,0.96,0.21,0.49,-3.11,-2.38,330,468,415,475,396,9
329,0.22,0.96,0.21,-0.55,-4.03,-4.27,327,468,411,481,393,9
330,0.22,0.94,0.21,0.31,-1.95,-3.72,327,469,411,479,395,9
331,0.22,0.95,0.2,0.18,-2.99,-4.94,327,471,414,480,401,9
332,0.22,0.96,0.2,-15.2,-4.09,-1.59,329,468,419,483,398,9
333,0.21,0.95,0.17,6.9,-8.24,-7.2,331,469,411,484,397,9
334,0.2,0.95,0.2,-2.14,-1.4,1.71,327,470,410,481,400,9
335,0.21,0.97,0.19,1.59,3.3,-8.91,329,468,423,481,398,9
336,0.14,0.99,0.26,-3.97,-0.73,-10.93,331,469,414,480,402,9
337,0.16,1.0,0.29,-5.68,-8.0,-2.69,329,470,415,475,401,9
338,0.17,0.93,0.26,6.35,-7.87,1.65,331,471,415,479,398,9
339,0.19,0.96,0.25,2.38,-5.68,0.85,327,470,413,479,400,9
340,0.19,0.93,0.25,3.23,-6.71,6.47,327,472,413,485,398,9
341,0.25,0.92,0.25,0.0,-0.06,7.45,331,473,415,483,403,9
342,0.23,0.98,0.25,-0.61,0.43,5.55,329,471,414,476,403,9
343,0.3,0.9,0.26,0.55,-7.2,6.9,327,473,412,478,402,9
344,0.28,0.95,0.24,8.12,-6.71,-11.66,329,470,414,480,403,9
345,0.31,1.0,0.21,0.67,4.27,-7.75,330,474,416,476,403,9
346,0.24,0.9,0.19,-0.85,6.9,-8.79,329,474,426,479,402,9
347,0.28,0.92,0.17,-2.01,-5.19,-3.11,332,473,414,477,402,9
348,0.28,0.93,0.19,4.33,2.01,0.18,329,474,414,479,401,9
349,0.26,0.96,0.21,-0.31,-4.27,-2.69,329,471,414,474,403,9
350,0.3,0.91,0.18,3.42,-6.9,3.78,358,474,414,485,405,9
351,0.28,0.94,0.19,0.73,-2.69,-4.7,328,470,419,475,403,9
352,0.3,0.97,0.2,6.84,-1.65,4.46,330,483,413,475,400,9
353,0.27,0.92,0.19,-1.59,-3.91,-1.4,330,475,416,479,403,9
354,0.28,0.95,0.2,0.55,-4.88,-1.34,336,468,421,483,401,9
355,0.29,0.95,0.2,0.06,-2.99,-2.81,330,470,415,476,400,9
356,0.29,0.93,0.19,0.79,-2.5,-3.48,332,467,413,478,402,9
357,0.28,0.92,0.19,9.58,-10.68,5.98,329,467,418,482,403,9
358,0.27,0.94,0.18,-3.11,-1.4,-4.33,332,471,425,481,405,9
359,0.32,0.95,0.17,3.78,-7.2,2.2,329,480,415,476,401,9
360,0.29,0.93,0.2,-5.86,0.24,-5.49,330,470,414,477,400,9
361,0.29,0.83,0.25,-5.86,-5.86,12.02,331,471,412,483,400,9
362,0.33,0.88,0.22,-1.59,5.37,-3.23,329,470,414,481,401,9
363,0.4,0.93,0.17,-1.04,-13.55,0.67,332,475,415,483,400,9
364,0.43,0.87,0.15,0.31,-9.09,3.66,329,473,412,484,405,9
365,0.41,0.87,0.23,-1.77,-4.76,0.98,339,473,415,479,403,9
366,0.44,0.92,0.24,-4.27,3.05,-2.69,338,473,413,477,402,9
367,0.44,0.88,0.19,3.23,-0.55,-10.86,330,473,411,480,404,9
368,0.41,0.88,0.21,5.68,-8.12,-8.24,327,472,414,474,400,9
369,0.39,0.9,0.15,4.64,-1.89,-0.92,330,473,418,484,405,9
370,0.38,0.92,0.18,1.83,-5.07,-4.52,329,474,415,480,399,9
371,0.38,0.9,0.14,2.08,-2.44,-0.73,332,472,417,476,401,9
372,0.36,0.92,0.16,0.12,-3.11,-3.72,331,480,415,483,406,9
373,0.34,0.91,0.17,1.83,-2.26,-2.38,329,470,413,478,406,9
374,0.34,0.92,0.15,0.61,-4.03,-0.37,331,470,414,495,406,9
375,0.34,0.91,0.16,2.5,-3.3,-1.34,332,469,415,474,401,9
376,0.34,0.91,0.15,1.89,-4.52,-3.78,331,474,414,474,404,9
377,0.28,0.78,0.08,-10.62,-13.18,21.12,330,472,414,473,404,9
378,0.38,0.92,0.16,-4.33,-5.86,-1.59,347,468,413,482,403,9
379,0.39,0.88,0.16,-0.61,-1.1,-5.68,332,472,413,479,403,9
380,0.39,0.93,0.15,-0.49,-1.59,-5.74,332,473,415,487,404,9
381,0.38,0.92,0.14,-0.92,-3.05,-3.05,330,475,413,480,402,9
382,0.37,0.92,0.15,0.24,-1.65,-4.7,331,474,416,478,406,9
383,0.38,0.91,0.14,1.59,-2.99,-2.5,330,474,415,480,404,9
384,0.37,0.91,0.14,1.65,-2.87,-2.08,331,471,414,478,404,9
385,0.37,0.91,0.14,2.2,-2.69,-2.5,332,472,414,480,404,9
386,0.35,0.91,0.16,2.08,-1.95,-2.08,330,468,415,482,406,9
387,0.37,0.93,0.12,1.46,-2.14,-6.1,331,480,416,480,402,9
388,0.38,0.92,0.14,0.73,-3.11,-2.14,332,470,412,474,402,9
389,0.38,0.92,0.13,-1.83,-2.01,-4.52,329,474,413,473,407,9
390,0.36,0.92,0.15,-1.89,-5.74,-1.71,328,474,410,477,404,9
391,0.37,0.91,0.16,0.67,-1.4,-3.17,330,469,409,477,398,9
392,0.36,0.94,0.17,0.92,-3.17,-1.83,332,469,413,480,400,9
393,0.38,0.93,0.15,3.23,-5.86,0.0,329,471,415,479,402,9
394,0.36,0.91,0.14,0.49,-2.99,-1.59,330,477,413,474,404,9
395,0.36,0.93,0.16,0.12,-2.99,-3.17,331,478,414,471,403,9
396,0.39,0.91,0.14,-2.14,1.28,-4.7,320,471,411,477,403,9
397,0.37,0.93,0.16,2.75,-2.69,-1.04,318,473,413,476,404,9
398,0.36,0.92,0.16,1.1,-2.81,-1.22,324,471,412,477,402,9
399,0.38,0.93,0.14,-0.37,-1.83,-2.38,330,475,412,478,403,9
400,0.36,0.93,0.15,0.43,-2.32,-4.39,327,472,413,487,404,9
401,0.34,0.91,0.16,-2.44,-2.56,-0.98,328,471,410,475,403,9
402,0.35,0.92,0.15,0.37,-4.09,-1.71,330,471,415,477,404,9
403,0.37,0.93,0.15,-0.67,-2.93,-2.62,332,473,413,471,405,9
404,0.34,0.9,0.16,-5.49,-1.83,-2.99,332,474,416,476,404,9
405,0.36,0.92,0.17,-0.92,-2.93,-2.56,332,472,409,479,400,9
406,0.36,0.9,0.16,1.34,-4.52,-1.4,333,475,411,491,403,9
407,0.35,0.9,0.18,-0.18,-3.17,-0.92,331,469,411,473,405,9
408,0.39,0.96,0.16,-2.81,-1.16,-5.74,332,472,414,478,402,9
409,0.45,0.88,0.18,-5.62,-2.01,0.73,333,473,413,480,404,9
410,0.34,0.91,0.28,-1.53,-3.05,1.04,331,472,414,475,408,9
411,0.35,0.88,0.22,-7.93,-2.56,-20.45,326,472,413,479,406,9
412,0.28,0.91,0.19,15.32,-1.65,-21.85,325,470,411,448,402,9
413,0.23,1.0,0.25,-6.65,9.22,-27.77,326,473,412,451,406,9
414,0.29,0.89,0.35,1.77,-3.66,-4.76,329,474,413,460,402,9
415,0.27,0.88,0.21,6.65,-26.18,49.44,328,471,419,466,393,9
416,0.35,0.88,0.22,-4.03,-1.04,-0.43,326,474,413,462,396,9
417,0.33,0.89,0.2,-6.77,2.81,-28.87,327,473,413,458,402,9
418,0.36,0.93,0.24,-11.17,-6.29,-7.75,328,475,413,468,398,9
419,0.29,0.92,0.17,6.35,10.07,-8.73,334,468,417,459,397,9
420,0.17,1.04,0.3,-12.02,3.6,-0.49,328,472,415,469,399,9
421,0.28,0.93,0.3,4.33,15.5,-45.78,323,473,411,470,402,9
422,0.23,0.91,0.24,3.3,-0.12,25.27,321,476,413,471,404,9
423,0.12,0.96,0.35,2.5,14.71,-0.98,323,471,412,471,401,9
424,0.33,0.97,0.34,2.87,-23.86,15.44,317,472,416,471,405,9
425,0.32,0.73,0.23,-0.37,-23.19,13.18,322,471,410,460,400,9
426,0.29,0.83,0.27,9.89,-1.28,-3.11,318,474,415,463,400,9
427,0.27,0.84,0.27,-5.43,-11.66,8.79,323,471,416,465,405,9
428,0.25,0.88,0.33,-1.1,-2.26,-8.67,323,471,415,460,402,9
429,0.32,0.95,0.32,1.77,-2.99,0.18,323,473,411,468,403,9
430,0.31,0.89,0.33,2.5,-1.34,-1.71,320,471,411,465,402,9
431,0.24,0.88,0.34,0.73,-4.7,4.7,324,471,416,465,403,9
432,0.36,0.85,0.35,-1.1,-4.88,-6.35,350,472,415,465,405,9
433,0.2,0.9,0.37,-2.01,-1.71,-6.16,328,469,411,469,403,9
434,0.3,0.86,0.33,-0.12,-18.49,-2.87,323,474,414,469,399,9
435,0.33,0.87,0.32,1.95,-6.47,3.23,326,471,411,470,405,9
436,0.33,0.87,0.33,-1.4,-2.26,-0.98,325,473,416,468,403,9
437,0.31,0.87,0.35,-0.18,-2.32,-0.37,339,471,415,470,404,9
438,0.31,0.87,0.34,-1.4,-4.52,-2.01,325,472,410,468,400,9
439,0.31,0.86,0.35,1.89,2.38,-1.34,352,472,416,466,399,9
440,0.28,0.87,0.35,-0.98,-2.56,-5.74,323,472,414,464,406,9
441,0.32,0.88,0.35,-0.61,0.06,-6.1,326,471,413,466,404,9
442,0.27,0.88,0.35,2.62,-4.39,3.97,322,471,418,468,402,9
443,0.34,0.87,0.33,-1.16,-5.19,-1.28,327,471,413,470,402,9
444,0.34,0.88,0.34,-2.75,-0.31,-2.81,326,472,414,470,404,9
445,0.31,0.91,0.35,-3.66,-5.92,-4.82,324,469,416,464,404,9
446,0.32,0.88,0.34,-0.55,-3.48,-2.62,326,470,413,471,403,9
447,0.33,0.95,0.36,0.12,-5.74,2.87,325,471,413,467,405,9
448,0.34,0.85,0.34,2.08,3.17,-3.85,325,471,416,466,405,9
449,0.35,0.87,0.33,-1.04,-2.38,-5.8,326,471,413,466,404,9
450,0.29,0.76,0.33,1.77,-9.95,5.13,326,472,415,462,404,9
451,0.21,0.98,0.42,-19.84,24.9,-14.22,325,472,416,465,405,9
452,0.16,1.02,0.5,2.93,2.44,-7.08,325,470,409,470,405,9
453,0.21,0.9,0.46,4.58,-2.26,-6.53,323,472,412,461,400,9
454,0.23,0.9,0.43,-3.11,4.39,-12.15,324,473,413,463,404,9
455,0.18,0.87,0.45,2.56,-5.55,0.06,323,471,425,466,400,9
456,0.22,0.87,0.43,-0.98,-3.23,-1.46,337,474,412,468,404,9
457,0.24,0.87,0.42,1.34,-3.91,-2.14,324,472,413,468,406,9
458,0.27,0.82,0.45,-0.24,-18.98,19.29,326,482,414,471,404,9
459,0.22,0.81,0.4,8.36,-12.15,16.78,324,470,415,469,401,9
460,0.35,0.88,0.36,-0.85,-11.54,6.41,327,471,413,463,402,9
461,0.32,0.92,0.38,-4.21,0.61,-0.61,324,472,415,463,401,9
462,0.34,0.86,0.37,0.61,-3.85,-2.2,324,470,415,463,404,9
463,0.31,0.86,0.38,3.72,-2.5,-4.33,326,474,413,468,404,9
464,0.33,0.88,0.37,2.5,-2.56,-4.7,322,474,412,469,403,9
465,0.33,0.88,0.36,1.34,-3.05,-2.08,326,471,413,468,404,9
466,0.34,0.88,0.37,-0.06,-4.15,-2.62,326,471,413,468,404,9
467,0.33,0.87,0.35,-1.34,-2.87,-1.95,324,476,410,467,404,9
468,0.33,0.87,0.37,1.34,-2.38,-3.11,324,470,414,466,405,9
469,0.33,0.88,0.37,0.31,-3.6,-2.08,324,472,415,464,404,9
470,0.34,0.87,0.36,1.53,-3.91,-1.53,324,475,415,467,403,9
471,0.33,0.87,0.37,0.61,-1.53,-3.36,327,472,410,465,404,9
472,0.33,0.87,0.36,0.12,-2.44,-3.36,315,471,413,468,404,9
473,0.34,0.87,0.36,0.55,-2.81,-2.81,327,471,414,464,405,9
474,0.33,0.87,0.36,-0.12,-2.99,-2.93,323,471,414,465,404,9
475,0.32,0.88,0.36,1.04,-2.38,-3.48,347,471,414,467,404,9
476,0.3,0.87,0.35,0.06,-5.31,-2.26,325,474,414,470,407,9
477,0.34,0.87,0.36,-0.61,-1.77,-0.73,324,470,410,471,403,9
478,0.36,0.86,0.34,1.4,-6.35,-2.93,325,470,411,468,404,9
479,0.31,0.89,0.34,0.73,-3.78,-4.52,350,472,413,467,403,9
480,0.36,0.82,0.36,18.86,-4.88,23.74,320,471,413,469,404,9
481,0.36,0.91,0.28,2.87,1.65,-2.81,325,470,416,468,400,9
482,0.5,0.95,0.19,0.92,-2.2,-4.52,326,471,414,471,404,9
483,0.33,0.88,0.29,-4.03,5.25,-15.87,328,470,413,466,406,9
484,0.38,0.88,0.27,-5.55,-0.12,-5.92,327,467,409,464,406,9
485,0.37,0.9,0.27,1.16,-3.17,-3.11,323,473,416,472,403,9
486,0.37,0.92,0.27,-0.98,-3.6,-4.27,327,479,415,466,409,9
487,0.4,0.89,0.25,-0.49,-3.36,-2.32,328,472,413,468,403,9
488,0.38,0.89,0.27,-0.43,1.16,-2.87,326,472,412,467,404,9
489,0.37,0.89,0.28,0.67,-1.71,-3.54,329,472,414,473,406,9
490,0.36,0.88,0.28,-0.24,-2.75,-2.5,325,474,413,468,402,9
491,0.37,0.88,0.28,-1.53,-2.93,-1.65,327,471,412,466,403,9
492,0.37,0.89,0.28,1.16,-3.3,-2.62,323,474,414,473,401,9
493,0.37,0.88,0.28,0.37,-3.42,-1.77,326,472,412,468,405,9
494,0.36,0.89,0.28,1.1,-2.5,-3.23,328,471,411,472,403,9
495,0.36,0.87,0.27,0.55,-1.16,-4.09,329,473,413,471,404,9
496,0.36,0.88,0.28,0.85,-3.91,-2.56,324,472,415,469,406,9
497,0.36,0.88,0.29,-1.1,-1.28,-3.85,329,473,413,467,402,9
498,0.35,0.9,0.3,0.85,-2.75,-2.99,333,474,410,468,401,9
499,0.36,0.89,0.28,-0.49,-2.69,-2.99,326,470,416,469,404,9
500,0.35,0.89,0.29,-0.98,-2.2,-5.31,326,474,414,465,406,9
501,0.36,0.89,0.3,-0.43,-4.03,-0.31,326,474,412,473,404,9
502,0.36,0.89,0.3,0.24,-2.75,-2.5,327,469,416,470,404,9
503,0.37,0.9,0.28,0.18,-3.36,-2.69,325,470,414,468,404,9
504,0.37,0.9,0.3,-1.77,-3.05,-3.36,327,471,413,467,402,9
505,0.35,0.89,0.3,-1.28,-3.91,-1.83,326,474,414,475,409,9
506,0.36,0.9,0.29,-0.92,-3.97,0.43,328,473,410,472,405,9
507,0.36,0.89,0.3,-0.06,-3.6,-3.42,326,469,409,471,405,9
508,0.36,0.88,0.3,0.12,-3.6,-2.5,329,471,415,465,406,9
509,0.36,0.88,0.29,-0.37,-3.85,-2.08,324,472,417,464,403,9
510,0.35,0.9,0.29,2.81,-2.38,-1.65,327,470,415,473,404,9
511,0.36,0.9,0.3,0.49,-2.69,-3.78,329,470,416,468,404,9
512,0.35,0.88,0.29,-0.18,-2.38,-2.99,326,471,412,468,404,9
513,0.36,0.89,0.29,1.53,-1.89,-3.72,327,470,413,480,402,9
514,0.35,0.89,0.3,0.43,-3.97,-2.62,326,474,415,466,399,9
515,0.36,0.88,0.29,-1.04,-2.99,-1.71,329,471,413,468,405,9
516,0.36,0.88,0.29,-0.85,-2.44,-2.38,330,471,427,464,402,9
517,0.36,0.88,0.32,-0.92,-4.58,-1.46,326,468,412,467,399,9
518,0.35,0.88,0.3,2.87,-3.17,-1.89,327,469,416,473,404,9
519,0.37,0.9,0.27,0.06,-4.27,-1.77,332,469,410,471,403,9
520,0.36,0.89,0.29,-0.18,-2.75,-2.93,326,471,413,468,401,9
521,0.35,0.89,0.29,-0.85,-3.54,-3.48,326,475,412,472,402,9
522,0.35,0.89,0.29,0.12,-3.05,-0.92,329,474,410,464,401,9
523,0.36,0.88,0.29,1.46,-4.27,-0.55,326,468,412,469,402,9
524,0.36,0.89,0.29,0.37,-4.15,-4.09,326,473,414,468,404,9
525,0.35,0.89,0.29,1.46,-3.42,-3.11,328,472,415,471,403,9
526,0.36,0.88,0.29,0.37,-1.89,-3.42,333,472,414,468,404,9
527,0.35,0.89,0.28,0.49,-2.99,-2.01,327,475,414,469,404,9
528,0.36,0.89,0.3,-1.89,-1.4,-1.04,326,469,413,469,404,9
529,0.36,0.9,0.3,1.22,-0.37,-2.26,327,469,416,470,404,9
530,0.33,0.88,0.29,0.73,-2.81,0.37,328,473,414,471,403,9
531,0.53,0.79,-0.13,-2.81,-8.73,4.52,393,475,407,485,339,9
532,0.52,0.87,-0.03,-3.72,-5.37,-5.0,395,475,399,485,340,9
533,0.54,0.85,-0.08,7.39,13.06,-32.41,396,474,402,489,342,9
534,0.4,0.97,-0.09,4.21,-6.65,-18.49,398,479,396,481,340,9
535,0.46,0.91,-0.05,-2.14,23.93,-2.44,398,476,400,487,352,9
536,0.41,0.95,-0.11,10.44,-10.62,-6.71,395,473,400,483,334,9
537,0.39,0.96,-0.12,-11.05,-13.67,-5.0,395,474,400,483,331,9
538,0.5,0.83,-0.07,-2.38,-8.0,16.85,394,475,410,485,334,9
539,0.5,0.77,0.0,-0.73,-0.06,-2.32,401,478,406,486,347,9
540,0.5,0.91,-0.07,13.0,15.63,-2.5,395,480,401,484,337,9
541,0.42,0.85,-0.14,21.18,-39.86,1.16,394,471,398,480,334,9
542,0.48,0.94,-0.13,3.72,9.09,-4.27,392,475,402,482,336,9
543,0.48,1.14,-0.56,-27.77,-7.87,-24.05,394,474,401,484,336,9
544,0.34,0.96,-0.17,-33.75,-2.08,-6.47,394,476,397,484,325,9
545,0.38,0.82,-0.06,14.83,-34.18,23.68,395,476,402,488,336,9
546,0.36,1.0,-0.04,2.08,-6.04,15.99,397,477,401,486,342,9
547,0.41,0.94,0.04,-2.44,-2.38,6.77,397,477,401,486,343,9
548,0.39,0.85,-0.01,3.6,-12.82,-4.64,398,475,402,485,344,9
549,0.48,0.94,-0.05,13.43,-18.55,-3.97,399,475,402,484,337,9
550,0.43,0.88,-0.08,-9.95,-20.57,-7.93,395,476,398,485,338,9
551,0.44,0.94,-0.07,0.0,2.5,-12.7,398,475,396,484,339,9
552,0.45,0.91,-0.07,3.17,-1.59,10.13,397,476,400,483,339,9
553,0.45,0.89,-0.11,-4.76,-1.16,-11.6,395,468,398,478,332,9
554,0.41,0.87,-0.07,-7.51,-3.05,6.35,397,474,399,480,329,9
555,0.44,0.87,-0.04,-5.55,-9.52,-1.53,398,478,398,484,334,9
556,0.44,0.91,-0.04,-4.82,0.49,-2.14,393,476,398,488,333,9
557,0.46,0.9,-0.05,-0.55,-6.04,-5.43,393,468,401,488,334,9
558,0.41,0.89,-0.01,3.42,1.16,2.81,394,469,400,482,336,9
559,0.45,0.91,0.0,1.71,-2.38,-2.99,393,473,397,480,334,9
560,0.44,0.88,0.0,-0.31,-2.93,-1.65,389,473,400,482,334,9
561,0.43,0.9,0.0,2.93,-0.67,-3.23,391,469,399,480,336,9
562,0.44,0.9,-0.01,-1.46,-4.09,-2.01,390,474,400,479,336,9
563,0.43,0.87,-0.02,-0.98,-1.83,-2.01,392,482,397,482,335,9
564,0.45,0.91,-0.01,0.73,-2.99,-3.54,389,477,395,485,337,9
565,0.42,0.9,0.01,2.69,-2.08,-3.23,389,475,397,482,339,9
566,0.43,0.9,-0.03,0.73,-5.37,-2.38,389,482,397,480,326,9
567,0.45,0.88,-0.03,1.1,-3.54,-0.92,389,468,397,481,333,9
568,0.48,0.92,-0.01,-2.2,-2.44,-3.42,391,472,397,482,335,9
569,0.44,0.87,-0.03,2.87,-2.32,-3.6,386,473,392,479,334,9
570,0.45,0.9,-0.01,1.53,-5.31,-2.38,389,473,398,480,341,9
571,0.45,0.9,-0.01,-2.62,-2.32,-0.43,386,473,396,477,329,9
572,0.45,0.89,-0.01,1.59,-4.46,-3.54,386,472,399,480,337,9
573,0.44,0.89,-0.01,2.93,-2.81,-2.62,391,469,395,482,335,9
574,0.45,0.9,-0.01,0.18,-2.81,-2.62,385,478,395,481,337,9
575,0.45,0.89,-0.01,-0.06,-2.81,-2.99,388,473,398,481,338,9
576,0.44,0.89,-0.02,0.43,-2.01,-2.2,388,473,395,477,337,9
577,0.45,0.89,-0.01,0.98,-3.3,-3.3,387,473,398,478,332,9
578,0.45,0.89,-0.01,0.61,-3.48,-2.32,389,473,396,477,338,9
579,0.45,0.89,-0.02,2.08,-3.23,-3.17,387,473,396,479,338,9
580,0.44,0.9,-0.02,0.24,-3.11,-2.87,387,477,393,473,330,9
581,0.47,0.88,-0.04,1.53,-5.92,2.38,387,475,394,480,333,9
582,0.45,0.88,-0.03,-5.31,-2.93,-2.14,389,472,394,475,335,9
583,0.45,0.89,-0.02,0.12,-3.36,-2.62,392,472,400,478,335,9
584,0.46,0.89,-0.01,1.71,-2.26,-0.24,389,480,396,475,334,9
585,0.45,0.88,-0.03,2.01,-4.15,-1.34,385,471,400,483,332,9
586,0.46,0.92,-0.01,0.24,-5.13,-3.72,390,472,399,478,333,9
587,0.45,0.89,-0.03,2.38,-2.44,0.31,390,478,396,478,335,9
588,0.43,0.89,-0.04,1.04,1.83,-2.56,391,476,397,478,336,9
589,0.46,0.93,0.03,2.44,0.49,-5.43,388,478,396,478,339,9
590,0.42,0.84,0.02,-4.03,-5.86,-1.59,387,476,395,484,338,9
591,0.43,0.88,0.0,-0.31,-1.83,-1.89,388,472,399,479,333,9
592,0.41,0.89,-0.01,-0.43,-1.16,-1.16,389,473,393,475,334,9
593,0.37,0.9,0.01,1.77,-0.18,-0.98,386,470,396,475,335,9
594,0.44,0.88,-0.01,-6.65,-8.24,-5.43,390,474,396,477,338,9
595,0.43,0.91,-0.0,4.64,-5.68,-3.17,383,472,396,478,337,9
596,0.45,0.93,-0.06,1.16,-8.85,-9.46,390,467,396,479,339,9
597,0.41,0.91,-0.09,2.56,-3.05,-4.7,383,472,392,480,337,9
598,0.39,1.0,-0.1,-5.43,-3.05,-3.11,387,471,397,479,339,9
599,0.4,0.92,-0.07,6.16,-0.55,-2.87,386,474,395,476,336,9
600,0.39,0.94,-0.04,-0.06,-0.92,-0.49,387,472,396,478,336,9
601,0.41,0.91,-0.06,-0.18,-3.85,-4.88,385,470,400,477,339,9
602,0.38,0.92,-0.06,2.32,-2.69,-3.23,385,472,392,478,337,9
603,0.38,0.91,-0.06,0.24,-3.36,-2.56,385,470,396,479,337,9
604,0.38,0.92,-0.08,0.18,-2.01,-3.11,388,475,396,474,338,9
605,0.39,0.93,-0.07,0.98,-4.58,-4.64,395,476,395,478,339,9
606,0.36,0.91,-0.07,0.0,-4.09,-2.87,387,469,397,487,335,9
607,0.38,0.93,-0.09,-0.06,-5.62,-3.17,386,471,393,479,330,9
608,0.37,0.93,-0.07,-1.46,-3.78,-0.92,386,475,394,477,331,9
609,0.38,0.92,-0.07,-0.61,-3.3,-2.32,390,470,396,473,333,9
610,0.37,0.92,-0.06,2.08,-3.54,-1.1,388,471,395,479,329,9
611,0.38,0.92,-0.07,-1.83,-3.42,-2.32,387,471,395,478,332,9
612,0.38,0.91,-0.07,-0.18,-3.72,-3.17,390,471,392,479,336,9
613,0.37,0.93,-0.06,0.24,-2.26,-1.71,388,474,396,479,338,9
614,0.37,0.91,-0.06,-0.79,-2.14,-4.46,388,471,395,477,335,9
615,0.35,0.91,-0.06,0.49,-3.17,-3.23,386,475,398,478,333,9
616,0.38,0.93,-0.05,-0.18,-2.26,-2.81,387,472,399,479,337,9
617,0.37,0.92,-0.06,2.2,-2.75,-2.26,385,470,391,479,335,9
618,0.37,0.93,-0.06,-0.24,-2.01,-3.3,388,472,397,488,336,9
619,0.37,0.93,-0.07,-0.37,-2.2,-2.08,384,466,395,478,337,9
620,0.35,0.92,-0.06,-2.08,-3.66,-1.53,381,475,394,479,336,9
621,0.36,0.91,-0.06,-0.18,-1.95,-2.62,382,472,399,479,335,9
622,0.37,0.94,-0.05,0.31,-2.44,-2.81,387,472,397,476,335,9
623,0.37,0.92,-0.07,1.16,-3.6,-2.08,385,476,397,482,335,9
624,0.37,0.93,-0.06,-2.93,-2.5,-0.43,386,474,395,481,336,9
625,0.37,0.93,-0.05,2.32,-3.66,-1.34,384,466,396,481,336,9
626,0.39,0.92,-0.06,1.34,-2.62,-4.76,387,477,409,478,337,9
627,0.37,0.97,-0.07,1.22,-2.56,-5.98,382,477,395,478,334,9
628,0.37,0.92,-0.07,1.59,-5.68,-5.31,384,474,395,477,338,9
629,0.37,0.93,-0.07,0.0,0.43,-5.68,385,470,404,477,336,9
630,0.4,0.93,-0.09,2.75,-4.82,-6.29,382,470,395,477,348,9
631,0.38,0.91,-0.08,-0.55,-2.32,-5.13,382,465,395,480,338,9
632,0.37,0.95,-0.1,3.85,2.2,-3.6,375,475,394,476,339,9
633,0.35,0.92,-0.11,5.07,-7.08,-2.87,375,468,395,480,336,9
634,0.37,0.97,-0.1,1.95,-2.75,-6.1,382,471,395,476,335,9
635,0.34,0.92,-0.11,-0.73,-1.95,-7.2,382,472,394,481,334,9
636,0.32,0.94,-0.11,-2.14,-1.28,-2.75,380,473,396,476,335,9
637,0.31,0.95,-0.1,-1.34,-3.54,-2.32,381,474,395,476,338,9
638,0.3,0.95,-0.13,0.67,-1.53,-6.1,383,474,403,475,338,9
639,0.3,0.93,-0.12,-0.31,-8.0,-5.98,379,488,392,476,337,9
640,0.3,0.98,-0.12,0.73,-2.44,3.05,381,472,391,475,336,9
641,0.32,0.96,-0.1,-1.22,-1.04,-1.95,380,467,394,471,338,9
642,0.34,0.97,-0.12,0.55,-4.15,-3.23,381,468,397,476,338,9
643,0.31,0.93,-0.11,1.65,-2.32,-1.65,379,476,394,472,336,9
644,0.32,0.95,-0.11,-0.49,-2.38,-1.59,383,466,397,479,340,9
645,0.31,0.92,-0.11,-1.22,-2.69,-0.92,381,473,393,476,337,9
646,0.31,0.94,-0.12,-5.86,-2.38,4.09,382,470,397,478,337,9
647,0.34,0.93,-0.09,-1.71,-2.44,3.72,378,475,395,476,332,9
648,0.37,0.92,-0.07,-4.88,-5.98,2.99,382,471,394,474,344,9
649,0.35,0.88,-0.08,-2.99,-7.14,-0.98,380,471,394,476,334,9
650,0.4,0.95,-0.09,4.21,0.18,-4.03,381,469,393,479,335,9
651,0.35,0.91,-0.08,-0.12,-2.69,-3.85,395,472,395,477,336,9
652,0.39,0.91,-0.1,-3.91,-5.8,-0.31,393,470,396,476,334,9
653,0.36,0.91,-0.09,-0.31,-3.11,-1.28,399,471,397,477,334,9
654,0.41,0.89,-0.1,-4.88,-6.16,-2.56,407,472,394,474,332,9
655,0.43,0.92,-0.09,0.55,-3.6,-5.62,413,469,392,480,336,9
656,0.39,0.89,-0.09,-0.24,-3.11,-3.23,415,467,395,480,336,9
657,0.38,0.92,-0.08,0.85,-3.11,-2.81,415,476,397,486,335,9
658,0.4,0.91,-0.1,1.22,-6.23,-3.48,418,470,390,474,333,9
659,0.37,0.91,-0.09,-1.95,-2.01,-2.14,416,469,396,479,333,9
660,0.39,0.92,-0.09,-3.54,-4.09,-2.87,417,465,390,472,327,9
661,0.38,0.92,-0.07,-0.55,-2.81,-2.2,414,470,394,476,328,9
662,0.38,0.91,-0.07,-2.26,-2.5,-2.26,416,469,396,479,330,9
663,0.38,0.92,-0.07,0.98,-3.23,-3.36,416,473,401,479,332,9
664,0.37,0.92,-0.06,-0.92,-3.05,-2.32,415,467,398,477,332,9
665,0.38,0.92,-0.06,0.12,-3.66,-1.34,414,471,395,474,333,9
666,0.38,0.93,-0.07,0.24,-3.91,-1.46,416,471,396,478,332,9
667,0.38,0.91,-0.07,-0.79,-3.3,-0.92,414,470,396,478,334,9
668,0.38,0.92,-0.08,0.24,-2.87,-1.83,417,473,400,474,335,9
669,0.38,0.92,-0.07,3.54,-4.33,-2.56,414,473,397,478,337,9
670,0.36,0.91,-0.07,-1.4,-2.14,-3.97,416,464,395,481,332,9
671,0.37,0.92,-0.07,0.79,-4.39,-1.53,414,469,400,476,336,9
672,0.37,0.92,-0.08,-0.18,-3.66,-2.26,416,470,393,474,333,9
673,0.37,0.92,-0.07,0.43,-3.6,-1.59,413,470,394,478,336,9
674,0.37,0.91,-0.08,0.0,-3.97,-1.77,414,473,400,478,336,9
675,0.37,0.92,-0.08,1.46,-2.81,-1.77,415,468,396,474,337,9
676,0.37,0.91,-0.08,0.31,-4.21,-2.38,412,469,395,477,336,9
677,0.37,0.92,-0.07,-2.2,-2.44,-2.87,412,466,394,478,335,9
678,0.36,0.92,-0.07,0.24,-2.87,-4.94,415,472,390,479,338,9
679,0.37,0.92,-0.06,-0.43,-1.46,-1.71,410,474,393,478,338,9
680,0.37,0.91,-0.07,-1.28,-3.36,-3.17,412,472,398,478,336,9
681,0.38,0.92,-0.07,2.2,-3.72,-1.89,412,473,394,479,333,9
682,0.37,0.92,-0.06,-1.53,-3.36,-0.79,410,473,392,479,336,9
683,0.38,0.92,-0.07,-0.85,-2.81,-1.4,410,469,397,477,338,9
684,0.38,0.93,-0.07,1.28,-2.44,-2.01,414,473,394,481,335,9
685,0.37,0.92,-0.07,-0.31,-2.69,-3.17,410,467,395,475,337,9
686,0.36,0.92,-0.06,1.53,-2.14,-3.11,410,469,395,478,334,9
687,0.36,0.92,-0.06,-0.49,-1.65,-2.5,408,471,395,473,326,9
688,0.36,0.93,-0.06,-1.04,-3.48,-2.08,409,474,393,478,338,9
689,0.37,0.93,-0.07,1.77,-3.91,-2.69,414,471,399,478,338,9
690,0.36,0.93,-0.06,-0.61,-2.99,-3.91,409,470,396,476,336,9
691,0.37,0.93,-0.06,2.62,-2.01,-3.78,412,469,396,475,339,9
692,0.35,0.92,-0.06,-0.37,-2.81,-3.48,411,472,400,477,339,9
693,0.38,0.92,-0.07,-0.24,-2.56,-2.99,411,475,397,478,337,9
694,0.35,0.92,-0.05,-0.79,-1.83,-3.3,411,472,396,477,335,9
695,0.35,0.92,-0.06,-1.16,-3.05,-2.38,410,467,395,473,337,9
696,0.35,0.93,-0.06,0.49,-3.3,-2.2,406,472,394,474,339,9
697,0.35,0.92,-0.07,-0.06,-4.09,-2.26,407,473,394,477,334,9
698,0.35,0.93,-0.06,1.22,-2.32,-2.93,409,467,394,477,338,9
699,0.35,0.93,-0.07,-1.22,-4.52,-1.53,406,468,394,475,337,9
700,0.35,0.94,-0.06,0.98,-2.62,-0.55,411,472,395,477,339,9
701,0.35,0.92,-0.08,-0.55,-2.81,-2.81,410,466,394,483,335,9
702,0.36,0.93,-0.07,1.95,-2.5,-1.1,412,461,393,479,338,9
703,0.36,0.92,-0.07,0.37,-2.93,-3.66,409,468,389,475,337,9
704,0.36,0.92,-0.07,0.92,-1.95,-2.44,408,465,389,478,338,9
705,0.36,0.93,-0.06,-0.37,-2.75,-3.97,410,469,392,477,334,9
706,0.36,0.92,-0.08,1.4,-2.81,-3.05,408,470,395,476,337,9
707,0.34,0.94,-0.07,1.16,-2.5,-3.05,407,463,394,473,337,9
708,0.34,0.93,-0.08,0.06,-4.7,-2.2,407,465,392,481,339,9
709,0.34,0.92,-0.08,-0.24,-3.17,-1.59,407,469,396,476,337,9
710,0.35,0.94,-0.08,1.04,-4.15,-1.04,405,482,394,480,333,9
711,0.38,0.92,-0.09,-2.14,0.43,0.98,405,468,392,473,340,9
712,0.34,0.93,-0.06,-2.69,6.77,-17.03,404,466,392,480,333,9
713,0.34,0.95,-0.05,-2.2,-6.1,-0.12,406,465,395,477,338,9
714,0.39,0.91,-0.07,1.89,-7.39,3.48,405,466,392,478,338,9
715,0.36,0.93,-0.05,0.55,-3.05,-1.28,401,467,394,474,339,9
716,0.37,0.93,-0.07,-0.55,-5.43,-1.89,404,467,392,476,336,9
717,0.36,0.93,-0.05,-0.73,-2.69,-3.36,405,465,391,479,333,9
718,0.38,0.94,-0.08,2.2,-3.91,-3.17,400,467,393,475,335,9
719,0.36,0.92,-0.08,3.54,-2.75,-3.78,403,465,395,474,336,9
720,0.38,0.94,-0.07,0.06,-4.15,-1.71,405,477,402,478,336,9
721,0.39,0.92,-0.08,2.81,-4.46,-1.59,404,467,390,476,334,9
722,0.38,0.9,-0.06,4.88,-0.06,2.87,403,471,392,476,336,9
723,0.38,0.91,-0.08,0.49,-4.52,-4.52,405,467,392,473,337,9
724,0.41,0.91,-0.08,0.18,-3.97,-0.37,403,471,396,476,338,9
725,0.39,0.92,-0.08,0.37,-1.89,-1.71,402,468,394,476,335,9
726,0.4,0.91,-0.06,0.43,-4.15,-2.08,400,467,396,478,341,9
727,0.38,0.89,-0.08,1.22,3.85,-6.84,402,465,391,473,339,9
728,0.37,0.99,-0.06,8.18,2.93,-18.62,403,467,389,479,340,9
729,0.36,0.91,-0.11,-8.24,-14.71,11.05,404,471,391,476,337,9
730,0.42,0.93,-0.1,-2.99,-0.12,-8.85,399,468,394,479,338,9
731,0.39,0.91,-0.06,1.34,-7.93,-2.44,403,467,392,477,338,9
732,0.43,0.93,-0.09,-1.77,-0.43,-6.77,403,466,393,476,338,9
733,0.37,0.89,-0.06,-0.24,0.37,3.42,402,463,395,475,338,9
734,0.42,0.87,-0.04,-5.43,-3.78,1.16,401,469,395,476,337,9
735,0.42,0.92,-0.04,0.31,-2.26,-1.34,403,469,392,478,338,9
736,0.43,0.9,-0.03,-2.5,-5.55,-1.04,400,461,393,477,346,9
737,0.43,0.89,-0.02,-0.92,-4.88,-3.36,405,471,393,472,337,9
738,0.42,0.86,-0.04,0.98,-4.09,-3.72,400,467,395,473,337,9
739,0.4,0.91,-0.03,-2.08,0.18,-0.37,396,471,393,477,340,9
740,0.43,0.9,-0.03,3.48,-3.36,-4.27,396,461,394,475,339,9
741,0.42,0.89,-0.05,-3.05,-2.26,-2.01,392,461,387,476,339,9
742,0.43,0.91,-0.04,-0.37,-4.15,-1.83,391,467,392,476,339,9
743,0.46,0.88,0.02,3.91,-5.25,0.85,393,466,390,471,339,9
744,0.39,0.95,-0.16,-3.66,-7.26,-6.9,390,465,394,476,341,9
745,0.4,0.9,-0.08,1.34,-14.59,1.89,394,461,394,477,337,9
746,0.4,0.84,-0.06,-6.65,-0.61,3.17,398,471,391,475,334,9
747,0.44,0.93,-0.09,1.28,2.26,0.0,396,471,394,476,336,9
748,0.46,0.84,-0.09,-0.98,-6.53,-0.31,396,471,393,477,342,9
749,0.45,0.79,-0.16,-3.72,-3.42,-14.89,392,469,392,477,336,9
750,0.42,0.93,0.01,-10.86,6.9,-10.38,396,463,393,471,339,9
751,0.4,0.9,-0.01,-2.81,-2.14,-9.77,396,467,396,477,333,9
752,0.41,0.92,-0.0,-0.61,-3.3,-3.23,395,472,391,476,334,9
753,0.4,0.92,-0.02,1.83,-1.28,-1.95,392,467,392,478,337,9
754,0.41,0.91,-0.02,-0.61,-4.46,-2.2,393,467,394,473,338,9
755,0.4,0.92,-0.0,-0.61,-3.36,-0.43,390,468,391,475,337,9
756,0.39,0.89,-0.02,-2.01,-2.87,-2.01,395,464,393,479,364,9
757,0.41,0.91,-0.01,-1.16,-3.11,-1.34,392,467,393,475,338,9
758,0.43,0.91,-0.02,-0.73,-3.54,-2.26,394,468,390,474,335,9
759,0.42,0.9,-0.01,0.73,-2.5,-0.67,393,466,394,473,339,9
760,0.44,0.9,-0.01,-0.61,-2.08,-1.89,391,468,392,477,338,9
761,0.43,0.91,0.0,-0.61,-2.81,-2.56,391,470,396,473,340,9
762,0.43,0.9,0.01,0.85,-0.85,-4.39,387,470,391,474,341,9
763,0.44,0.9,-0.0,2.32,-4.7,-4.94,389,470,393,473,350,9
764,0.43,0.91,0.0,0.06,-2.32,-3.6,390,467,392,477,337,9
765,0.42,0.91,0.01,-0.55,-1.4,-5.13,391,466,391,474,335,9
766,0.42,0.91,0.01,-0.06,-2.81,-3.54,392,465,390,473,339,9
767,0.42,0.91,0.0,-0.12,-2.32,-2.01,391,470,391,475,338,9
768,0.42,0.91,0.01,0.55,-4.15,-3.23,389,475,395,475,336,9
769,0.42,0.91,0.01,0.31,-3.17,-2.75,386,461,392,474,339,9
770,0.43,0.91,0.01,1.65,-3.97,-2.99,389,467,391,475,338,9
771,0.42,0.9,0.01,-0.49,-2.69,-4.03,389,461,391,475,340,9
772,0.42,0.91,0.01,0.37,-3.48,-1.28,385,466,390,476,336,9
773,0.42,0.91,0.01,1.53,-3.78,-3.17,389,466,396,475,338,9
774,0.42,0.9,0.02,0.18,-0.79,-3.11,392,470,391,476,340,9
775,0.42,0.91,0.02,-0.12,-2.14,-2.99,385,461,391,477,338,9
776,0.44,0.9,0.0,0.55,-3.23,-2.56,389,466,391,473,338,9
777,0.42,0.89,0.01,-0.43,-2.56,-2.56,388,468,395,477,338,9
778,0.43,0.9,0.01,1.65,-2.87,-3.3,389,466,393,477,337,9
779,0.42,0.91,0.01,2.32,-2.26,-2.38,391,478,395,475,335,9
780,0.42,0.89,0.01,-0.55,-3.11,-3.42,393,466,393,476,339,9
781,0.43,0.9,0.0,-0.37,-2.75,-2.2,390,467,393,474,338,9
782,0.42,0.91,0.01,2.14,-2.93,-3.6,390,470,395,476,344,9
783,0.42,0.9,0.01,1.16,-2.75,-3.42,389,466,394,474,338,9
784,0.42,0.9,0.01,-0.31,-3.17,-1.83,390,461,388,476,335,9
785,0.42,0.9,0.01,0.31,-4.39,-3.23,389,471,390,484,338,9
786,0.41,0.9,0.0,-0.43,-2.69,-3.97,389,470,389,472,339,9
787,0.4,0.9,0.0,-1.22,-3.3,-1.77,389,463,391,478,343,9
788,0.42,0.92,0.01,-0.37,-4.15,0.55,390,467,393,477,335,9
789,0.43,0.89,-0.03,2.69,-7.02,-3.42,386,466,392,475,338,9
790,0.42,0.91,-0.0,-1.71,-2.56,-2.62,389,461,390,477,343,9
791,0.39,0.93,0.01,1.83,-2.14,-4.64,390,461,395,475,335,9
792,0.39,0.93,0.01,-2.81,-0.24,-2.5,390,467,389,475,334,9
793,0.38,0.93,0.03,0.24,-6.1,-5.19,390,467,390,474,334,9
794,0.39,0.91,0.0,3.66,-3.42,-2.26,393,470,390,475,336,9
795,0.38,0.92,0.03,-1.22,-3.91,-5.0,391,467,391,474,333,9
796,0.38,0.91,0.01,1.34,-3.6,-6.04,394,469,390,473,335,9
797,0.37,0.94,0.01,1.65,-3.48,-5.19,394,466,392,471,332,9
798,0.37,0.93,0.0,-0.92,-1.53,-1.95,391,468,392,474,332,9
799,0.36,0.92,0.01,-0.43,-3.91,-4.03,388,470,395,475,337,9
800,0.35,0.92,0.01,-1.4,-4.03,-2.01,390,466,388,472,337,9
801,0.36,0.93,0.01,-0.85,-2.99,-1.22,393,471,393,475,346,9
802,0.35,0.94,0.03,0.61,-0.61,-2.01,388,467,391,473,335,9
803,0.39,0.94,0.01,4.27,-6.77,-5.13,396,467,394,478,336,9
804,0.37,0.93,-0.02,-1.4,7.14,-4.82,393,469,393,479,336,9
805,0.23,0.88,0.08,-1.46,1.46,-0.61,394,467,395,473,340,9
806,0.31,0.97,0.11,-10.93,-3.23,12.88,389,469,392,474,336,9
807,0.29,0.84,0.12,-5.55,12.15,-26.49,396,469,395,473,336,9
808,0.19,1.0,0.15,3.97,4.09,-0.55,392,464,393,470,334,9
809,0.22,0.95,0.12,-16.78,4.64,-7.39,392,466,392,466,335,9
810,0.34,0.97,0.09,-4.58,-0.98,-14.77,393,467,394,473,336,9
811,0.24,0.96,0.14,-12.57,8.36,-6.29,394,464,393,470,343,9
812,0.27,1.01,0.14,2.26,-1.1,-9.28,394,463,394,474,335,9
813,0.24,0.96,0.14,5.62,-3.66,-1.16,394,469,389,474,334,9
814,0.23,0.95,0.11,-1.89,0.43,-1.4,396,470,393,474,333,9
815,0.22,0.98,0.1,-0.43,0.18,-4.94,397,470,392,473,335,9
816,0.25,0.96,0.09,2.81,-5.19,-2.01,399,469,395,474,336,9
817,0.2,0.98,0.1,1.83,-0.12,-5.55,392,467,406,473,338,9
818,0.2,0.97,0.09,1.4,-3.54,-2.62,390,470,390,477,336,9
819,0.22,0.98,0.08,1.83,-2.5,-3.6,395,466,392,471,335,9
820,0.21,0.96,0.07,1.46,-4.64,-2.26,394,466,391,472,335,9
821,0.22,0.96,0.07,-0.98,-2.87,-1.59,393,477,392,471,335,9
822,0.21,0.97,0.07,1.22,-2.87,-3.11,397,466,393,477,337,9
823,0.2,0.96,0.08,0.18,-2.44,-2.2,396,460,393,472,335,9
824,0.21,0.97,0.07,-0.18,-3.3,-2.56,394,471,393,473,335,9
825,0.22,0.97,0.06,0.49,-1.89,-5.43,393,465,390,474,339,9
826,0.21,0.97,0.07,1.65,-3.66,-3.42,397,464,401,474,335,9
827,0.2,0.97,0.07,-0.31,-3.11,-3.42,396,467,397,473,334,9
828,0.21,0.97,0.07,1.16,-3.54,-3.17,393,470,389,474,339,9
829,0.21,0.97,0.07,-1.16,-2.87,-2.44,394,470,389,470,337,9
830,0.2,0.97,0.07,1.34,-3.78,-4.09,391,470,393,473,336,9
831,0.21,0.97,0.06,-0.92,-1.89,-5.43,396,465,391,471,341,9
832,0.2,0.97,0.06,2.26,-4.15,-3.11,395,466,393,477,335,9
833,0.21,0.97,0.07,0.12,-2.87,-2.38,393,470,391,473,335,9
834,0.21,0.97,0.07,-0.61,-3.3,-1.77,390,462,394,475,339,9
835,0.22,0.97,0.06,-1.46,-2.2,-2.14,393,467,392,472,334,9
836,0.21,0.97,0.07,0.85,-3.23,-1.1,398,470,392,474,337,9
837,0.22,0.97,0.07,0.55,-2.44,-2.87,396,469,393,470,338,9
838,0.23,0.96,0.06,-0.18,-2.44,-2.69,395,469,393,478,335,9
839,0.23,0.98,0.07,0.92,-3.23,-3.42,395,466,390,474,337,9
840,0.22,0.97,0.07,0.31,-3.78,-2.62,391,476,393,473,339,9
841,0.22,0.98,0.07,0.55,-2.69,-3.54,381,465,392,470,340,9
842,0.22,0.97,0.06,0.79,-3.54,-3.11,395,464,390,473,336,9
843,0.21,0.97,0.06,0.73,-3.6,-1.83,394,469,387,473,337,9
844,0.22,0.96,0.06,0.31,-3.72,-2.01,397,467,392,472,337,9
845,0.22,0.97,0.06,-1.46,-2.56,-1.71,393,470,391,476,339,9
846,0.23,0.96,0.06,0.0,-5.07,-0.37,389,463,388,476,337,9
847,0.22,0.97,0.06,1.46,-3.72,-2.44,395,466,389,474,338,9
848,0.22,0.97,0.05,2.01,-4.33,-3.48,394,465,387,473,338,9
849,0.21,0.98,0.06,1.65,-4.39,-2.87,396,465,393,473,337,9
850,0.2,0.97,0.04,0.55,-1.83,-1.22,394,466,392,472,335,9
851,0.18,0.89,0.06,-1.53,3.91,-6.35,397,466,391,471,336,9
852,0.22,1.0,0.06,-2.08,-4.76,5.31,395,462,391,473,338,9
853,0.23,0.99,0.05,-3.42,-9.7,0.98,393,467,392,474,333,9
854,0.26,0.97,0.07,0.73,-7.45,-7.87,395,470,389,472,334,9
855,0.22,0.94,0.1,-0.61,-10.38,4.88,393,479,393,470,334,9
856,0.26,0.96,0.1,-1.59,-0.55,-5.62,395,467,391,474,332,9
857,0.24,0.94,0.12,-3.42,-0.61,-2.38,394,466,392,471,336,9
858,0.24,0.96,0.13,1.28,-3.54,-2.44,391,465,393,468,333,9
859,0.24,0.97,0.11,-2.14,-0.49,-1.53,395,468,390,469,337,9
860,0.26,0.93,0.15,-0.31,-4.52,1.34,394,460,389,472,338,9
861,0.26,0.94,0.19,2.81,-3.91,-4.64,394,465,391,468,334,9
862,0.24,0.96,0.16,-1.34,-5.86,1.53,397,466,390,468,335,9
863,0.24,0.94,0.16,1.16,-2.75,-4.94,397,464,394,470,336,9
864,0.24,0.93,0.16,-4.76,-2.93,-3.48,395,468,387,469,339,9
865,0.27,0.96,0.16,1.71,-4.03,-0.49,393,460,393,469,334,9
866,0.26,0.96,0.14,3.05,-2.32,-5.68,397,468,389,469,333,9
867,0.27,0.96,0.13,-1.1,-4.03,-5.13,393,466,392,466,330,9
868,0.26,0.96,0.14,0.24,-2.87,-1.16,395,462,389,470,331,9
869,0.26,0.95,0.15,0.18,-3.11,-1.83,394,469,388,470,331,9
870,0.3,0.94,0.13,0.85,2.32,-6.59,394,467,392,467,334,9
871,0.24,0.96,0.14,-5.25,-4.58,-2.75,392,470,390,470,337,9
872,0.27,0.96,0.15,1.53,-4.46,-0.18,396,468,392,472,337,9
873,0.28,0.94,0.15,-1.77,-4.46,-1.89,397,464,393,469,337,9
874,0.28,0.94,0.14,-0.06,-4.39,-2.32,397,466,390,467,347,9
875,0.27,0.96,0.15,1.95,-2.93,-1.16,394,465,393,469,336,9
876,0.28,0.95,0.15,-1.83,-2.32,-2.26,395,477,386,465,332,9
877,0.29,0.94,0.14,0.49,-5.19,-0.37,393,464,389,466,329,9
878,0.29,0.94,0.14,-0.43,-1.53,-2.32,390,463,391,468,339,9
879,0.29,0.94,0.14,0.24,-2.38,-2.26,394,460,388,468,329,9
880,0.28,0.95,0.15,1.77,-5.0,-1.53,394,469,386,470,333,9
881,0.28,0.94,0.13,-1.89,-2.44,-2.44,394,465,388,470,334,9
882,0.28,0.96,0.15,0.18,-3.36,-2.87,392,470,394,469,335,9
883,0.28,0.93,0.14,-0.55,-3.48,-1.83,390,468,392,469,337,9
884,0.31,0.99,0.14,1.1,-2.69,-7.2,390,464,388,468,334,9
885,0.28,0.94,0.15,-0.43,-3.85,-1.71,394,465,392,471,337,9
886,0.29,0.95,0.13,0.37,-3.42,-2.44,392,470,389,465,338,9
887,0.29,0.95,0.14,1.46,-3.85,-2.2,395,466,390,470,336,9
888,0.28,0.95,0.14,1.34,-4.15,-2.38,390,464,388,469,338,9
889,0.28,0.94,0.14,-0.06,-2.5,-2.5,389,467,388,470,333,9
890,0.29,0.94,0.14,0.43,-3.72,-2.81,389,465,389,468,348,9
891,0.3,0.96,0.11,3.3,-1.65,-3.48,392,461,391,470,337,9
892,0.26,0.92,0.13,-0.55,-2.44,-4.27,392,471,389,468,348,9
893,0.27,0.96,0.14,-2.38,-3.78,-0.92,390,466,391,473,336,9
894,0.27,0.96,0.13,2.38,-5.31,-2.87,393,466,392,468,336,9
895,0.28,0.93,0.13,-2.56,-4.15,-1.22,393,466,389,466,332,9
896,0.28,0.95,0.14,2.32,-2.62,-3.05,393,466,399,471,338,9
897,0.26,0.94,0.14,1.04,-3.23,-2.5,391,464,393,475,336,9
898,0.28,0.95,0.14,-0.67,-1.89,-2.87,393,469,389,470,368,9
899,0.28,0.94,0.14,-0.55,-2.81,-2.01,392,468,389,467,338,9
900,0.29,0.95,0.14,-5.19,-1.95,2.14,393,459,390,470,335,9
901,0.29,0.93,0.16,1.34,-2.32,-2.14,393,464,392,466,335,9
902,0.34,0.95,0.15,2.32,-8.3,11.6,395,467,388,471,335,9
903,0.34,0.94,0.15,3.3,-6.23,-2.26,395,468,388,470,334,9
904,0.32,0.93,0.14,2.62,-4.09,-3.3,393,458,386,472,336,9
905,0.32,0.94,0.13,-0.18,-4.94,-1.53,393,467,389,472,336,9
906,0.33,0.92,0.14,0.73,-3.85,-1.59,392,459,392,469,337,9
907,0.34,0.96,0.13,-0.79,-3.17,-2.75,390,465,392,472,339,9
908,0.33,0.94,0.13,1.34,-2.87,-2.69,393,460,390,471,338,9
909,0.32,0.94,0.13,-0.92,-2.93,-3.11,393,467,391,472,354,9
910,0.33,0.93,0.12,1.28,-1.71,-2.38,394,466,387,471,335,9
911,0.34,0.91,0.11,1.46,-3.23,-0.98,392,469,385,472,337,9
912,0.33,0.93,0.13,1.71,-1.22,-3.54,391,465,387,471,335,9
913,0.34,0.93,0.13,0.12,-1.4,0.24,392,465,391,472,338,9
914,0.34,0.98,0.12,-0.55,-1.65,-1.71,393,468,389,466,337,9
915,0.33,0.92,0.12,3.3,-2.81,0.06,391,468,390,472,338,9
916,0.34,0.92,0.12,-0.67,-2.75,-4.33,389,465,390,465,348,9
917,0.32,0.95,0.13,0.43,-1.53,-2.2,390,464,388,468,337,9
918,0.32,0.92,0.11,-1.22,-4.7,-1.28,389,465,387,464,337,9
919,0.32,0.95,0.13,1.16,-3.3,-1.28,389,460,389,468,336,9
920,0.32,0.94,0.13,0.92,-3.3,-2.87,387,468,387,464,338,9
921,0.33,0.93,0.13,0.67,-2.93,-2.32,389,465,388,468,336,9
922,0.33,0.94,0.12,0.18,-2.5,-2.2,387,464,389,468,336,9
923,0.33,0.93,0.12,0.31,-3.48,-1.53,390,464,389,469,339,9
924,0.33,0.94,0.12,0.73,-2.75,-3.36,386,464,390,471,339,9
925,0.34,0.92,0.13,2.81,-1.59,0.79,387,459,388,469,337,9
926,0.31,0.93,0.12,1.4,-2.56,-1.65,388,468,390,468,333,9
927,0.33,0.94,0.12,1.53,-3.54,-2.44,386,466,388,465,353,9
928,0.38,0.93,0.11,1.4,-8.42,-3.17,392,459,389,467,336,9
929,0.34,0.91,0.12,0.12,-3.11,-1.1,394,465,384,472,338,9
930,0.35,0.93,0.09,13.92,-5.25,-8.06,392,460,388,471,337,9
931,0.31,0.95,0.11,3.54,1.22,-1.59,391,465,388,471,339,9
932,0.32,0.96,0.11,-10.44,1.59,0.18,393,468,385,470,337,9
933,0.32,0.94,0.12,6.47,-5.49,-6.9,390,465,391,477,334,9
934,0.34,0.93,0.1,0.85,-3.78,-3.23,391,469,389,478,337,9
935,0.32,0.93,0.1,1.46,-2.08,-4.21,391,468,389,471,337,9
936,0.33,0.94,0.1,-1.1,-2.75,1.46,392,462,391,472,338,9
937,0.31,0.92,0.12,-1.89,-3.85,2.14,394,466,390,472,338,9
938,0.34,0.94,0.09,1.89,-4.03,-2.08,392,468,387,466,337,9
939,0.33,0.93,0.11,-0.79,-5.25,-4.39,391,459,390,471,339,9
940,0.32,0.94,0.1,2.75,-0.98,-1.16,392,460,388,470,337,9
941,0.33,0.94,0.1,0.49,-3.91,-3.3,392,458,388,472,339,9
942,0.32,0.93,0.11,3.42,-1.83,-2.44,389,464,385,467,337,9
943,0.34,0.93,0.09,0.49,-4.39,-2.75,391,465,391,467,334,9
944,0.33,0.93,0.08,0.24,-2.14,-2.75,391,465,401,465,335,9
945,0.33,0.94,0.09,-1.89,-4.33,-2.99,391,468,390,465,339,9
946,0.35,0.94,0.09,0.92,-2.38,-1.65,392,465,389,470,340,9
947,0.32,0.91,0.1,2.44,-5.37,-0.12,388,466,388,470,340,9
948,0.34,0.92,0.09,-2.44,-3.36,0.31,390,459,388,466,337,9
949,0.34,0.93,0.11,-2.62,-2.81,-0.79,389,463,385,470,340,9
950,0.35,0.93,0.11,0.31,-0.98,-1.1,392,465,391,468,338,9
951,0.35,0.92,0.11,1.1,-2.32,-3.91,392,464,386,470,337,9
952,0.32,0.91,0.12,-1.53,-1.71,-4.64,392,464,384,470,339,9
953,0.37,0.97,0.14,-1.83,-1.34,-7.63,390,468,390,470,339,9
954,0.32,0.92,0.14,9.46,-6.96,-2.26,394,464,387,470,338,9
955,0.36,0.93,0.15,3.85,-5.92,-5.55,388,465,388,471,337,9
956,0.33,0.91,0.11,4.21,2.87,-1.95,394,466,389,482,337,9
957,0.35,0.91,0.11,-0.61,-3.66,-1.71,388,469,389,468,346,9
958,0.39,0.92,0.12,4.82,-5.19,-6.41,388,468,393,470,340,9
959,0.33,0.92,0.12,-0.37,-2.26,0.37,390,464,388,472,338,9
960,0.38,0.93,0.11,-2.01,-4.27,-3.85,392,468,385,469,339,9
961,0.36,0.94,0.1,0.12,-0.24,-8.36,393,468,392,470,337,9
962,0.37,0.92,0.14,-4.82,-7.26,1.59,392,464,389,474,346,9
963,0.37,0.91,0.14,1.77,-2.81,-2.5,394,464,387,470,337,9
964,0.36,0.91,0.14,1.04,-4.46,-4.15,392,465,389,467,339,9
965,0.37,0.93,0.13,-2.56,-3.91,-0.49,388,468,389,473,338,9
966,0.36,0.92,0.13,-0.18,-3.3,-2.38,394,463,389,473,347,9
967,0.37,0.92,0.14,-0.31,-3.23,-1.34,393,459,389,470,337,9
968,0.36,0.91,0.14,0.85,-3.23,-2.56,391,465,389,472,336,9
969,0.37,0.91,0.13,0.67,-4.33,-0.92,392,464,388,466,334,9
970,0.36,0.91,0.13,0.06,-1.71,-2.99,393,466,389,471,346,9
971,0.38,0.92,0.13,-1.77,-3.48,-2.87,395,471,390,470,331,9
972,0.37,0.93,0.11,1.1,-0.49,-4.33,393,472,387,472,338,9
973,0.35,0.93,0.12,0.0,-3.17,-1.4,392,478,388,469,333,9
974,0.37,0.93,0.12,2.2,-2.93,-2.08,388,459,390,473,334,9
975,0.36,0.91,0.12,-0.98,-3.17,-2.56,388,467,385,469,338,9
976,0.37,0.91,0.12,-0.92,-2.26,-2.44,391,459,392,469,333,9
977,0.38,0.91,0.11,1.53,-4.21,-2.69,392,468,385,469,334,9
978,0.36,0.91,0.12,1.22,-3.11,-2.81,392,464,389,473,335,9
979,0.37,0.92,0.11,-0.73,-2.32,-2.75,392,468,388,469,337,9
980,0.36,0.92,0.11,0.61,-3.17,-3.23,393,464,389,471,339,9
981,0.36,0.92,0.12,1.89,-3.11,-2.26,392,465,388,470,337,9
982,0.36,0.92,0.12,-1.77,-3.05,-2.87,393,458,387,471,332,9
983,0.36,0.93,0.11,-0.49,-3.11,-1.71,392,468,389,469,339,9
984,0.37,0.92,0.12,0.67,-3.72,-2.93,393,462,389,473,337,9
985,0.36,0.92,0.12,-1.04,-2.81,-2.44,393,466,388,467,335,9
986,0.37,0.91,0.12,0.49,-3.66,-1.46,395,465,390,468,336,9
987,0.37,0.91,0.12,-2.14,-1.77,-2.26,392,468,391,469,338,9
988,0.38,0.93,0.12,0.24,-2.99,-1.89,390,468,388,468,339,9
989,0.37,0.92,0.12,0.18,-4.09,-2.5,391,468,388,469,338,9
990,0.37,0.9,0.11,0.12,-2.81,-3.97,390,463,387,464,337,9
991,0.36,0.93,0.13,2.14,-2.2,-3.97,390,464,388,465,339,9
992,0.35,0.92,0.12,-0.24,-2.56,-3.72,392,467,384,469,368,9
993,0.35,0.92,0.12,1.22,-2.26,-4.58,389,468,390,470,345,9
994,0.36,0.93,0.11,0.12,-3.78,-2.26,390,470,389,465,336,9
995,0.36,0.92,0.12,-0.31,-3.23,-2.81,392,461,388,469,338,9
996,0.36,0.92,0.11,-0.67,-2.08,-2.81,388,463,389,467,335,9
997,0.37,0.92,0.11,-0.06,-4.21,-1.71,390,464,388,471,337,9
998,0.36,0.92,0.12,0.55,-3.85,-1.83,393,463,388,470,336,9
999,0.36,0.93,0.1,0.73,-3.3,-3.97,392,465,391,468,336,9
1000,0.35,0.92,0.11,1.34,-3.36,-2.08,390,468,391,471,337,9
1001,0.37,0.93,0.11,-0.43,-2.5,-3.48,391,468,391,468,338,9
1002,0.36,0.92,0.11,1.77,-3.3,-2.62,388,468,388,467,336,9
1003,0.36,0.92,0.11,0.0,-3.17,-2.93,388,468,385,467,335,9
1004,0.36,0.93,0.11,2.5,-3.72,-3.11,388,465,386,467,340,9
1005,0.36,0.93,0.11,0.79,-3.36,-2.81,385,467,388,464,337,9
1006,0.36,0.92,0.11,-0.37,-3.91,-2.75,387,460,388,468,337,9
1007,0.36,0.93,0.11,0.73,-3.97,-2.56,387,465,391,464,337,9
1008,0.35,0.93,0.11,-0.67,-3.36,-2.14,387,466,392,471,337,9
1009,0.35,0.93,0.12,1.65,-2.44,-2.75,387,459,391,466,333,9
1010,0.35,0.92,0.11,0.06,-2.93,-2.75,386,465,390,475,334,9
1011,0.36,0.93,0.11,0.98,-2.75,-3.54,382,464,388,464,339,9
1012,0.36,0.92,0.11,0.55,-2.99,-2.44,385,464,387,466,337,9
1013,0.34,0.92,0.12,1.83,-2.5,-3.17,386,461,386,466,339,9
1014,0.35,0.92,0.11,-1.89,-2.38,-3.42,386,463,388,464,337,9
1015,0.35,0.93,0.11,0.61,-2.5,-2.5,386,464,387,462,338,9
1016,0.34,0.92,0.11,0.49,-2.62,-3.97,387,462,387,469,336,9
1017,0.35,0.93,0.12,-0.12,-1.16,-2.01,388,467,386,465,336,9
1018,0.35,0.94,0.12,2.08,-15.5,-2.75,390,464,392,466,337,9
1019,0.37,0.9,0.12,-1.1,-2.87,-1.59,391,467,389,470,337,9
1020,0.37,0.93,0.13,-0.67,-5.31,-3.54,387,465,390,468,338,9
1021,0.38,0.92,0.12,1.04,-1.71,-5.86,393,467,397,466,339,9
1022,0.36,0.93,0.13,4.33,-1.95,-4.33,391,466,390,471,340,9
1023,0.35,0.92,0.13,1.28,-2.08,-4.15,393,468,389,466,338,9
1024,0.34,0.93,0.12,0.06,-1.65,-3.85,387,460,390,469,336,9
1025,0.33,0.93,0.12,0.06,-3.72,-3.23,391,463,390,468,332,9
1026,0.33,0.94,0.12,-2.14,-4.09,-1.1,389,458,392,468,334,9
1027,0.33,0.93,0.14,-0.06,-2.75,-2.2,391,467,390,465,332,9
1028,0.34,0.92,0.12,4.27,-4.03,-1.83,390,464,390,466,337,9
1029,0.33,0.92,0.13,-0.37,-2.26,-2.69,391,459,393,467,334,9
1030,0.33,0.93,0.13,0.98,-1.77,-4.33,392,457,390,471,331,9
1031,0.31,0.82,0.5,-1.28,-4.21,-0.92,421,464,412,430,255,9
1032,0.31,0.81,0.5,-0.61,-4.15,-2.14,422,462,409,437,259,9
1033,0.32,0.81,0.49,5.25,0.85,-0.24,424,468,411,436,254,9
1034,0.31,0.81,0.5,-2.69,-2.38,-2.38,422,460,411,436,258,9
1035,0.31,0.8,0.5,1.46,-3.36,0.24,421,458,416,437,259,9
1036,0.34,0.82,0.48,1.46,-3.42,-2.62,420,461,407,435,257,9
1037,0.33,0.82,0.49,-2.38,-3.6,-1.53,424,461,413,438,256,9
1038,0.35,0.83,0.48,0.06,-1.77,-3.72,425,457,411,458,289,9
1039,0.32,0.79,0.5,0.49,-2.87,-3.48,420,464,411,460,270,9
1040,0.34,0.81,0.5,-0.73,-2.75,-2.93,425,462,416,459,267,9
1041,0.32,0.81,0.49,0.98,-2.75,-2.44,423,459,415,449,269,9
1042,0.33,0.81,0.48,1.59,-3.78,-2.5,423,464,414,450,266,9
1043,0.32,0.82,0.49,-1.53,-2.26,-1.59,420,476,413,440,265,9
1044,0.33,0.82,0.49,0.49,-2.32,-1.1,420,461,410,444,268,9
1045,0.31,0.82,0.48,1.65,-1.34,-5.62,427,458,410,423,257,9
1046,0.31,0.82,0.49,0.18,-2.26,-2.38,423,466,413,438,264,9
1047,0.31,0.82,0.48,1.53,-3.36,-2.08,425,461,412,441,287,9
1048,0.32,0.82,0.48,1.22,-2.69,-2.56,425,457,409,440,264,9
1049,0.3,0.83,0.49,-0.55,-1.95,-2.01,426,465,424,433,268,9
1050,0.3,0.8,0.48,-2.26,-2.87,-4.46,421,462,412,436,267,9
1051,0.25,0.95,0.6,1.59,-6.1,-6.9,424,465,408,450,268,9
1052,0.27,0.78,0.52,-0.24,-10.13,-4.46,426,461,410,432,270,9
1053,0.25,0.66,0.39,2.87,15.08,-2.01,423,464,410,438,270,9
1054,0.33,0.88,0.49,3.85,-5.0,-3.78,421,460,417,436,271,9
1055,0.27,0.85,0.48,-3.3,-4.03,-4.94,429,462,412,433,271,9
1056,0.28,0.88,0.5,3.42,-18.43,12.02,425,459,416,439,271,9
1057,0.24,0.77,0.5,2.99,-6.71,-11.05,424,463,414,438,274,9
1058,0.26,0.88,0.51,5.31,-5.19,3.78,422,461,408,438,271,9
1059,0.26,0.81,0.48,2.01,-0.43,-3.42,426,462,411,435,268,9
1060,0.24,0.86,0.48,3.6,-1.95,-6.35,423,463,414,433,276,9
1061,0.24,0.87,0.47,6.53,-1.59,-2.62,423,465,412,439,270,9
1062,0.22,0.84,0.43,0.61,-3.97,-0.31,424,462,411,430,269,9
1063,0.23,0.9,0.45,-0.61,1.28,-1.89,430,454,414,430,269,9
1064,0.23,0.84,0.47,-0.67,-4.33,-5.8,426,461,412,436,273,9
1065,0.23,0.86,0.43,0.61,-1.59,1.83,422,464,409,439,274,9
1066,0.24,0.85,0.45,-2.14,-1.65,-5.62,427,461,409,427,297,9
1067,0.21,0.86,0.48,-9.83,0.98,-8.85,424,466,409,428,272,9
1068,0.22,0.87,0.49,-2.44,-1.65,-2.81,433,459,413,428,268,9
1069,0.23,0.83,0.5,1.46,-5.86,-2.69,427,464,411,426,270,9
1070,0.21,0.84,0.48,0.31,-2.87,0.0,422,467,411,425,263,9
1071,0.22,0.85,0.48,-1.65,-2.56,-4.33,426,464,410,424,294,9
1072,0.25,0.88,0.47,4.94,-3.3,-7.51,427,467,409,420,266,9
1073,0.23,0.8,0.49,-5.68,-5.31,-0.61,421,458,413,424,265,9
1074,0.22,0.85,0.46,-2.62,-2.5,-2.38,424,466,408,427,267,9
1075,0.21,0.83,0.49,-2.87,-4.03,-4.64,428,457,412,425,272,9
1076,0.2,0.82,0.5,-4.94,-1.95,-9.28,424,467,408,424,270,9
1077,0.23,0.84,0.51,-1.04,-1.28,-5.43,426,459,410,427,274,9
1078,0.16,0.85,0.53,0.24,-3.17,-5.25,431,461,405,428,273,9
1079,0.18,0.82,0.51,0.85,-1.04,-4.09,425,463,405,423,274,9
1080,0.2,0.86,0.49,2.56,-2.26,-2.32,426,459,406,424,262,9
1081,0.23,0.84,0.47,2.38,-8.3,5.25,428,461,409,426,270,9
1082,0.2,0.86,0.48,-0.79,-3.85,-3.23,427,460,411,423,276,9
1083,0.19,0.85,0.48,3.85,-2.99,-3.48,427,464,409,420,256,9
1084,0.18,0.86,0.48,-1.89,-2.99,-2.14,428,460,407,418,265,9
1085,0.19,0.79,0.48,3.48,0.06,13.55,428,460,412,415,264,9
1086,0.2,0.84,0.58,1.1,-10.68,5.43,427,458,409,416,265,9
1087,0.29,0.82,0.46,20.32,-1.71,2.99,426,464,411,417,270,9
1088,0.32,0.89,0.38,9.22,0.06,-6.47,426,464,409,418,268,9
1089,0.14,0.91,0.39,-7.2,-9.4,-7.2,427,463,405,419,265,9
1090,0.22,0.91,0.41,2.38,-4.33,-6.65,426,459,407,420,266,9
1091,0.2,0.92,0.37,13.24,-3.05,-3.17,423,461,409,416,261,9
1092,0.2,0.89,0.39,-2.2,-2.44,-0.55,425,460,407,417,266,9
1093,0.18,0.9,0.41,-4.46,-3.05,-4.03,430,457,407,416,265,9
1094,0.19,0.88,0.42,-1.16,-3.54,-0.12,424,462,414,412,257,9
1095,0.17,0.88,0.43,-2.93,-0.73,-10.07,430,463,410,414,265,9
1096,0.17,0.91,0.42,-0.18,-2.99,-0.37,429,461,418,413,263,9
1097,0.14,0.88,0.47,-3.54,0.43,-2.87,428,465,409,417,263,9
1098,0.13,0.86,0.48,8.12,4.09,-8.97,431,460,413,424,266,9
1099,0.2,0.89,0.42,2.5,-6.96,-4.21,430,465,412,407,263,9
1100,0.19,0.94,0.45,6.41,-1.89,-4.52,429,460,412,410,265,9
1101,0.21,0.83,0.4,0.31,-7.87,7.32,428,459,407,412,263,9
1102,0.18,0.83,0.46,-0.06,-2.81,10.38,430,460,414,418,268,9
1103,0.23,0.83,0.44,5.31,-6.41,-1.16,429,456,410,415,267,9
1104,0.21,0.88,0.46,-7.87,2.87,-3.23,427,460,410,416,270,9
1105,0.28,0.9,0.42,13.61,-16.54,3.97,428,459,410,422,270,9
1106,0.34,0.89,0.38,10.01,-4.94,-3.42,427,459,409,417,268,9
1107,0.31,0.83,0.33,-2.69,-9.89,3.17,425,456,411,384,247,9
1108,0.25,0.91,0.35,-0.85,-4.09,-5.98,424,463,407,397,265,9
1109,0.3,0.88,0.4,-11.35,-10.01,9.22,421,460,412,398,248,9
1110,0.23,0.86,0.48,3.91,4.39,-1.71,423,459,408,398,252,9
1111,0.34,0.87,0.39,3.3,-11.05,-1.28,430,458,406,398,255,9
1112,0.34,0.91,0.31,-1.83,-10.8,14.65,424,451,410,401,254,9
1113,0.35,0.98,0.45,1.89,-16.6,-1.46,428,461,406,398,257,9
1114,0.38,0.79,0.51,2.14,3.66,-5.43,427,456,408,401,273,9
1115,0.56,0.78,0.4,8.61,2.14,10.44,428,457,406,403,261,9
1116,0.46,0.76,0.43,-5.55,-3.11,-10.68,438,459,404,405,271,9
1117,0.25,0.69,0.57,-8.12,-8.79,-10.19,426,461,402,404,264,9
1118,0.28,0.69,0.55,7.14,-5.68,-2.62,427,454,408,405,263,9
1119,0.26,0.8,0.53,-6.29,-2.38,1.89,426,455,408,404,266,9
1120,0.26,0.82,0.55,11.6,-5.92,-5.8,428,461,406,405,265,9
1121,0.28,0.8,0.53,4.21,-2.08,-6.35,426,460,407,405,267,9
1122,0.3,0.79,0.55,-1.4,-1.53,1.53,428,463,404,402,274,9
1123,0.32,0.81,0.56,3.05,-1.59,-6.59,429,463,406,401,268,9
1124,0.34,0.81,0.53,5.43,-2.93,-2.93,425,462,407,403,272,9
1125,0.33,0.79,0.54,5.0,-1.95,-2.01,428,458,402,404,269,9
1126,0.31,0.77,0.53,5.13,-9.64,9.4,430,460,405,402,266,9
1127,0.34,0.79,0.54,-3.11,-0.37,-2.2,424,461,408,405,272,9
1128,0.35,0.78,0.54,-2.75,-4.88,0.73,425,460,407,398,269,9
1129,0.35,0.75,0.56,-8.48,-3.3,-3.17,429,460,402,406,269,9
1130,0.36,0.74,0.57,-2.62,-2.99,0.06,426,456,408,402,272,9
1131,0.37,0.75,0.57,-3.23,-5.92,-0.55,430,459,409,414,270,9
1132,0.37,0.74,0.59,-3.72,-3.85,-1.46,430,463,403,409,272,9
1133,0.38,0.75,0.58,-4.21,-2.75,-0.98,427,460,405,403,274,9
1134,0.39,0.67,0.57,-1.77,-1.89,-7.75,429,461,406,402,274,9
1135,0.38,0.71,0.55,2.14,-1.04,-8.3,425,461,408,401,275,9
1136,0.37,0.74,0.57,2.08,-3.11,-3.6,425,463,421,403,271,9
1137,0.37,0.76,0.58,0.37,-1.95,-2.93,427,457,407,402,276,9
1138,0.4,0.73,0.58,1.53,-5.19,0.06,427,460,405,402,273,9
1139,0.42,0.72,0.58,0.12,-5.37,-0.12,427,464,407,406,275,9
1140,0.45,0.71,0.58,-1.22,-2.26,-2.08,428,459,405,405,274,9
1141,0.43,0.69,0.58,0.12,-3.91,-2.2,427,463,411,404,276,9
1142,0.42,0.71,0.58,3.23,-2.14,-5.25,428,462,405,403,274,9
1143,0.41,0.73,0.56,-0.92,-0.06,-5.43,428,462,402,399,248,9
1144,0.41,0.74,0.55,-0.24,-2.56,-0.73,428,463,405,404,250,9
1145,0.41,0.73,0.56,-2.32,-6.29,0.85,428,462,403,412,262,9
1146,0.41,0.7,0.54,-2.08,-2.87,-2.5,428,455,402,404,264,9
1147,0.46,0.7,0.57,-1.1,-2.32,-1.34,427,461,405,403,274,9
1148,0.44,0.72,0.57,-0.06,-1.65,-2.5,428,456,411,404,268,9
1149,0.44,0.71,0.57,0.12,-2.75,-2.62,427,459,405,404,269,9
1150,0.44,0.7,0.58,-0.24,-2.87,-2.62,429,460,402,402,269,9
1151,0.45,0.69,0.59,2.26,-2.87,-2.32,428,456,405,404,269,9
1152,0.46,0.68,0.58,0.12,-4.39,-1.89,421,460,408,400,272,9
1153,0.45,0.69,0.58,0.37,-1.04,-3.6,425,460,404,406,273,9
1154,0.45,0.67,0.58,-0.92,-2.81,-2.2,425,456,405,405,272,9
1155,0.45,0.68,0.57,-1.1,-0.92,-2.2,426,459,405,404,274,9
1156,0.44,0.7,0.59,2.26,-2.32,-6.53,425,459,405,405,257,9
1157,0.42,0.73,0.56,3.72,-2.32,-1.1,424,455,408,403,257,9
1158,0.42,0.73,0.57,10.19,3.54,-13.67,429,464,405,402,258,9
1159,0.31,0.77,0.5,4.15,1.71,-8.85,426,460,405,412,265,9
1160,0.27,0.82,0.53,-0.31,0.61,-1.77,426,460,416,412,266,9
1161,0.31,0.74,0.55,0.37,-4.27,-0.55,427,463,405,413,271,9
1162,0.34,0.81,0.53,-1.16,-5.43,0.98,427,456,408,408,273,9
1163,0.35,0.78,0.5,1.65,-2.38,-4.27,428,462,406,408,300,9
1164,0.34,0.79,0.5,-4.88,-2.01,1.95,429,459,406,409,274,9
1165,0.36,0.81,0.53,-4.27,-2.01,-1.1,428,461,402,405,274,9
1166,0.35,0.74,0.53,1.04,-6.1,-0.06,429,461,408,406,276,9
1167,0.38,0.8,0.53,1.65,-4.82,1.59,430,461,402,408,276,9
1168,0.38,0.77,0.51,-1.28,-4.94,0.55,425,460,405,404,276,9
1169,0.36,0.76,0.52,-0.92,-2.69,-3.36,425,459,406,405,276,9
1170,0.33,0.76,0.51,2.32,2.75,-9.7,428,464,406,406,273,9
1171,0.34,0.79,0.53,1.77,-3.6,-4.03,428,456,404,404,265,9
1172,0.36,0.79,0.52,3.11,-0.98,-4.52,425,462,406,418,264,9
1173,0.35,0.79,0.5,-0.31,-4.39,-2.38,420,448,408,431,263,9
1174,0.36,0.8,0.5,3.6,-0.61,-2.5,422,453,416,432,267,9
1175,0.36,0.8,0.51,3.48,-4.21,-6.41,424,457,407,425,274,9
1176,0.36,0.78,0.48,4.46,-0.31,-4.21,424,454,404,428,273,9
1177,0.35,0.8,0.51,1.34,-3.36,-2.38,425,454,402,427,275,9
1178,0.35,0.79,0.5,-1.16,0.98,-1.22,424,458,406,422,280,9
1179,0.33,0.8,0.52,1.65,-2.26,-1.89,421,451,405,419,278,9
1180,0.34,0.79,0.51,-1.46,-3.48,-2.56,421,455,402,423,286,9
1181,0.3,0.78,0.52,-2.08,0.67,-2.5,420,459,405,420,278,9
1182,0.34,0.79,0.52,-0.98,-2.56,-3.6,426,455,406,422,277,9
1183,0.32,0.79,0.52,-0.79,-0.98,-3.11,425,460,405,424,277,9
1184,0.33,0.8,0.51,0.18,-0.98,-3.23,426,458,407,421,280,9
1185,0.33,0.8,0.51,0.24,-4.21,1.89,422,456,400,420,280,9
1186,0.34,0.8,0.5,-3.36,-2.38,-1.04,425,459,404,422,279,9
1187,0.34,0.8,0.51,-0.12,-3.17,-0.79,426,457,405,423,281,9
1188,0.35,0.77,0.49,1.16,-3.97,-2.99,427,457,402,424,278,9
1189,0.35,0.8,0.52,1.28,-2.69,-1.83,429,455,403,424,278,9
1190,0.35,0.8,0.52,0.85,-1.4,-4.58,427,454,406,421,278,9
1191,0.35,0.78,0.51,2.08,-2.44,-3.85,427,456,406,424,277,9
1192,0.36,0.78,0.5,0.06,-2.08,-2.14,428,458,401,424,278,9
1193,0.37,0.79,0.5,-2.56,-2.26,-3.97,426,457,407,420,277,9
1194,0.34,0.78,0.52,-0.31,-1.65,-2.01,426,452,406,422,278,9
1195,0.35,0.8,0.51,1.22,-3.78,-2.5,426,453,404,420,276,9
1196,0.37,0.8,0.51,-0.61,-3.36,-0.37,426,458,403,422,277,9
1197,0.36,0.79,0.51,-0.55,-4.46,-0.31,425,474,407,418,271,9
1198,0.36,0.8,0.49,1.46,-1.59,-2.62,423,462,404,421,271,9
1199,0.35,0.79,0.51,0.06,-3.05,-3.54,432,461,407,423,271,9
1200,0.37,0.79,0.5,0.49,-1.65,-4.46,426,458,404,420,272,9
1201,0.36,0.8,0.51,1.22,-2.62,-0.79,427,458,405,419,275,9
1202,0.36,0.77,0.5,0.0,-2.14,-2.69,427,458,404,419,274,9
1203,0.36,0.82,0.5,-3.54,-2.99,-1.95,425,460,407,420,275,9
1204,0.37,0.79,0.5,-7.14,-2.2,-5.8,432,462,403,420,268,9
1205,0.34,0.8,0.5,0.37,-3.72,-0.49,423,458,407,428,273,9
1206,0.33,0.8,0.51,0.92,-2.32,-2.93,425,455,405,428,262,9
1207,0.33,0.8,0.51,-0.49,-4.33,-1.59,427,458,404,434,264,9
1208,0.31,0.82,0.48,-4.46,-7.02,-4.03,431,459,405,428,265,9
1209,0.33,0.75,0.52,6.65,-6.1,-8.06,427,454,401,428,276,9
1210,0.32,0.78,0.44,0.06,-9.64,-20.32,427,455,403,426,276,9
1211,0.26,0.95,0.45,6.84,-16.05,-18.74,428,453,406,429,275,9
1212,0.25,0.9,0.41,-10.31,-11.47,-4.7,425,459,406,431,277,9
1213,0.28,0.82,0.33,-11.41,-18.07,-15.01,427,460,403,428,270,9
1214,0.17,0.88,0.43,5.74,0.73,1.95,426,461,404,425,265,9
1215,0.21,0.89,0.42,3.97,-1.34,-5.55,425,464,404,423,260,9
1216,0.16,0.89,0.43,3.36,-6.1,-2.01,426,459,406,421,254,9
1217,0.22,0.82,0.39,-0.06,-5.49,-4.09,434,454,407,423,258,9
1218,0.19,0.85,0.42,1.34,-2.87,-1.83,427,463,404,425,258,9
1219,0.18,0.89,0.43,5.86,-4.82,-8.79,422,459,405,415,271,9
1220,0.17,0.89,0.44,-1.46,-2.5,-1.59,424,463,405,418,269,9
1221,0.18,0.9,0.46,0.43,-2.44,-2.08,426,457,404,416,301,9
1222,0.16,0.87,0.45,-2.01,-2.62,-2.99,427,463,406,411,270,9
1223,0.17,0.89,0.45,-0.61,0.61,-2.44,423,463,402,416,271,9
1224,0.15,0.88,0.4,6.71,1.65,-1.83,422,465,407,417,268,9
1225,0.13,0.9,0.43,3.11,-4.46,-3.85,423,455,407,420,273,9
1226,0.12,0.88,0.42,-4.7,-3.17,1.04,429,464,406,419,278,9
1227,0.13,0.91,0.41,14.53,-1.28,-3.05,425,459,406,398,266,9
1228,0.13,0.88,0.42,3.23,-3.97,-2.32,430,460,405,412,270,9
1229,0.15,0.9,0.43,1.65,-1.1,-4.33,426,459,408,413,270,9
1230,0.14,0.89,0.43,0.55,-4.64,-2.99,423,453,399,421,269,9
1231,0.12,0.9,0.41,7.26,-2.69,-3.85,421,455,404,406,260,9
1232,0.11,0.9,0.42,1.1,-4.58,-2.69,424,451,404,416,259,9
1233,0.12,0.89,0.43,-0.55,-2.08,-2.5,424,458,405,417,268,9
1234,0.1,0.92,0.44,-2.44,-0.61,-5.98,424,459,404,421,263,9
1235,0.09,0.93,0.44,4.39,-6.47,-6.23,429,457,405,418,269,9
1236,0.09,0.89,0.46,-1.71,-1.59,-4.64,429,451,405,419,269,9
1237,0.01,0.87,0.47,1.16,-7.93,-1.83,426,457,405,419,268,9
1238,0.06,0.91,0.47,3.36,-0.24,-1.65,422,461,409,421,270,9
1239,0.06,0.88,0.47,5.13,-7.32,3.54,424,457,405,420,271,9
1240,0.08,0.88,0.46,-2.44,-2.5,-4.76,430,456,404,422,271,9
1241,0.06,0.89,0.46,-1.28,-3.11,-0.49,427,457,400,421,272,9
1242,0.07,0.88,0.45,-0.37,-4.46,-3.97,427,455,407,412,274,9
1243,0.07,0.89,0.48,-0.06,-3.97,-0.85,427,457,410,416,272,9
1244,0.05,0.89,0.46,-0.55,-3.11,-2.01,424,457,404,420,274,9
1245,0.1,0.87,0.45,9.89,-1.1,-11.72,427,457,407,422,274,9
1246,0.11,0.93,0.45,3.72,-3.42,-5.74,428,460,404,420,272,9
1247,0.1,0.9,0.44,4.58,-3.85,-7.32,429,458,405,419,276,9
1248,0.06,0.9,0.41,0.79,-3.11,-3.91,426,461,401,417,280,9
1249,0.08,0.89,0.43,2.01,-3.3,-2.81,425,454,400,422,277,9
1250,0.07,0.89,0.41,2.08,-0.98,-3.11,428,448,404,422,274,9
1251,0.08,0.92,0.4,-2.87,-6.1,-2.38,427,451,406,418,276,9
1252,0.09,0.9,0.39,-1.16,-4.39,-4.33,423,454,400,431,274,9
1253,0.05,0.91,0.38,1.65,-0.49,-2.01,425,453,403,432,277,9
1254,0.05,0.9,0.39,-0.18,-2.69,-3.97,428,446,404,435,275,9
1255,0.05,0.91,0.41,-0.67,-2.2,-3.48,426,450,405,435,277,9
1256,0.06,0.91,0.39,-1.22,-3.17,-2.14,425,451,404,430,281,9
1257,0.05,0.89,0.41,-3.91,-3.6,-4.94,425,456,404,436,281,9
1258,0.03,0.89,0.42,-5.37,-2.69,-3.36,428,451,404,432,271,9
1259,0.03,0.91,0.44,2.01,-1.34,-3.11,426,454,403,431,280,9
1260,0.03,0.92,0.43,-0.55,-1.28,-2.5,428,454,403,430,281,9
1261,0.03,0.91,0.43,0.85,-3.17,-2.62,427,451,406,421,279,9
1262,0.03,0.9,0.43,1.46,-2.08,-2.5,425,452,406,422,281,9
1263,0.01,0.88,0.4,-1.22,-2.93,-1.04,426,455,403,427,277,9
1264,0.05,0.91,0.44,-0.67,0.12,-4.21,426,451,401,430,285,9
1265,0.01,0.9,0.44,2.26,-3.97,-3.78,421,451,404,426,285,9
1266,0.02,0.9,0.43,2.81,-2.44,-3.23,425,452,402,422,286,9
1267,0.02,0.91,0.42,0.55,-3.05,-1.22,425,456,405,421,274,9
1268,0.02,0.9,0.43,-1.4,-3.42,-2.38,429,447,401,420,262,9
1269,0.02,0.91,0.42,-2.2,-2.81,-2.56,418,447,404,410,254,9
1270,0.02,0.9,0.43,-0.67,-2.62,-1.71,428,449,406,415,255,9
1271,0.01,0.9,0.43,1.1,-3.23,-3.23,426,454,404,414,263,9
1272,0.0,0.85,0.44,-3.6,-1.1,1.16,429,454,403,417,267,9
1273,0.06,0.87,0.47,-2.5,-6.23,-3.11,430,453,403,419,266,9
1274,0.09,0.88,0.49,-1.53,-4.7,-0.79,422,453,403,415,268,9
1275,0.1,0.83,0.5,1.34,-7.39,-0.18,424,459,404,414,273,9
1276,0.11,0.85,0.51,-0.98,-4.82,-3.11,427,448,405,413,273,9
1277,0.11,0.85,0.53,-0.73,-3.17,-2.01,426,453,401,414,271,9
1278,0.09,0.86,0.52,2.44,-3.23,-4.39,426,454,402,416,276,9
1279,0.07,0.85,0.54,-1.1,-3.36,-1.53,427,454,405,418,270,9
1280,0.1,0.84,0.52,1.53,-2.93,-0.61,424,457,405,416,278,9
1281,0.09,0.85,0.52,-2.75,-3.48,-3.48,429,455,403,417,277,9
1282,0.09,0.85,0.55,-0.06,-2.2,-2.56,430,456,403,414,273,9
1283,0.09,0.85,0.54,0.55,-3.85,-2.01,424,457,403,415,278,9
1284,0.09,0.85,0.54,0.67,-2.38,-3.42,427,452,406,416,278,9
1285,0.09,0.86,0.53,1.65,-3.85,-2.14,423,449,405,417,274,9
1286,0.09,0.85,0.53,0.24,-2.5,-3.91,427,453,403,416,283,9
1287,0.09,0.85,0.53,0.61,-2.99,-1.77,427,454,405,418,279,9
1288,0.08,0.84,0.53,0.55,-1.95,-2.26,423,452,405,418,277,9
1289,0.07,0.84,0.54,-0.55,-2.69,-2.32,423,452,406,426,278,9
1290,0.08,0.85,0.53,1.34,-2.08,-3.72,431,454,402,417,280,9
1291,0.07,0.85,0.55,0.49,-1.46,0.12,427,453,401,417,275,9
1292,0.11,0.84,0.55,-0.24,-1.16,-1.59,425,451,406,418,276,9
1293,0.07,0.86,0.52,0.61,-0.49,-9.89,425,456,402,418,277,9
1294,0.03,0.86,0.52,2.32,-1.71,-5.13,426,457,419,418,277,9
1295,0.02,0.85,0.5,-4.46,1.77,-8.36,427,452,402,418,276,9
1296,-0.0,0.85,0.53,5.43,0.24,-7.08,428,452,402,413,276,9
1297,-0.03,0.87,0.5,5.13,-1.53,5.07,424,451,403,419,262,9
1298,0.14,0.84,0.45,9.4,-19.04,18.31,417,454,405,428,263,9
1299,0.13,0.89,0.44,1.77,-0.37,1.65,419,453,404,424,265,9
1300,0.15,0.86,0.45,-2.01,-2.01,-3.11,424,459,404,430,275,9
1301,0.12,0.86,0.44,0.0,0.73,-3.17,423,457,400,430,303,9
1302,0.12,0.9,0.45,-0.85,-2.2,-1.28,423,458,402,438,269,9
1303,0.1,0.88,0.44,5.43,3.17,-16.11,421,453,402,424,285,9
1304,0.08,0.88,0.44,-1.59,-5.92,-1.46,423,447,403,419,271,9
1305,0.08,0.87,0.42,18.13,2.81,-19.1,424,452,404,413,264,9
1306,0.06,0.88,0.43,0.0,-7.63,-0.85,418,455,407,414,267,9
1307,0.09,0.88,0.44,-2.75,-2.87,-1.4,417,452,403,419,260,9
1308,0.09,0.88,0.45,-2.38,-1.77,-2.08,418,453,405,414,263,9
1309,0.07,0.87,0.46,-3.66,-2.5,-4.39,420,455,401,414,254,9
1310,0.08,0.88,0.44,-8.3,-4.03,-6.84,418,460,406,409,264,9
1311,0.06,0.88,0.45,-2.44,-1.77,-1.4,421,461,402,411,266,9
1312,0.07,0.88,0.48,0.37,-3.23,-2.01,422,457,400,408,264,9
1313,0.05,0.88,0.45,1.95,-3.66,-1.53,424,453,405,410,265,9
1314,0.07,0.87,0.43,2.87,-0.79,-0.31,425,457,406,405,267,9
1315,0.05,0.91,0.45,2.69,-2.32,1.04,421,461,405,405,266,9
1316,0.07,0.92,0.44,3.17,0.24,0.98,428,457,402,408,269,9
1317,0.06,0.87,0.41,2.32,-1.46,-2.26,424,460,403,408,268,9
1318,0.03,0.89,0.41,-5.19,5.86,-12.21,428,457,405,403,271,9
1319,0.1,0.92,0.41,-1.83,-1.77,-9.83,430,453,405,406,272,9
1320,0.1,0.92,0.41,0.98,-6.16,1.95,423,456,401,405,273,9
1321,0.12,0.92,0.41,0.12,-4.82,-7.81,419,457,400,397,261,9
1322,0.1,0.89,0.42,-4.82,-5.68,-5.19,423,457,411,405,265,9
1323,0.1,0.9,0.44,-5.62,-3.36,1.46,425,461,400,407,264,9
1324,0.11,0.87,0.44,-4.09,1.46,-13.73,423,459,401,404,269,9
1325,0.09,0.86,0.46,-0.61,-1.95,-6.23,422,454,403,409,269,9
1326,0.1,0.87,0.45,0.55,-4.39,-1.59,425,461,401,409,270,9
1327,0.08,0.91,0.48,2.2,-3.36,-2.26,421,458,401,412,268,9
1328,0.1,0.89,0.45,3.42,-2.32,-2.62,423,454,405,399,264,9
1329,0.09,0.92,0.46,0.49,-3.11,-3.6,424,455,400,392,261,9
1330,0.1,0.9,0.46,-0.55,-2.14,-0.61,424,460,401,399,260,9
1331,0.11,0.89,0.44,3.17,-1.83,-1.65,423,453,402,418,268,9
1332,0.09,0.89,0.44,-3.54,-2.14,-3.23,428,456,402,420,269,9
1333,0.09,0.9,0.45,1.4,-2.2,-4.09,423,454,403,423,269,9
1334,0.08,0.87,0.45,1.53,-1.71,-2.93,423,455,402,420,265,9
1335,0.05,0.89,0.46,-1.1,-3.17,-2.56,420,450,403,422,269,9
1336,0.04,0.88,0.48,0.67,-1.71,-2.38,425,451,403,430,277,9
1337,0.07,0.89,0.46,-0.55,-1.83,-1.71,423,456,403,431,278,9
1338,0.07,0.88,0.46,-1.4,-4.58,-1.59,428,457,403,441,279,9
1339,0.07,0.87,0.47,-0.49,-3.11,-4.09,425,450,405,443,286,9
1340,0.05,0.89,0.45,3.54,-0.92,-2.56,424,454,404,444,282,9
1341,0.06,0.88,0.46,-0.24,-3.23,-2.56,424,451,405,445,287,9
1342,0.05,0.88,0.46,-1.95,-2.62,-1.95,427,456,407,457,288,9
1343,0.05,0.89,0.47,-0.31,-2.81,-2.75,421,453,406,453,294,9
1344,0.06,0.89,0.48,-0.79,-3.42,-2.32,426,456,408,458,312,9
1345,0.06,0.89,0.47,-0.43,-2.81,-2.44,428,455,411,454,294,9
1346,0.04,0.89,0.47,1.1,-3.23,-1.53,426,458,411,457,290,9
1347,0.05,0.89,0.45,3.17,-2.81,-2.75,429,459,409,454,267,9
1348,0.05,0.9,0.45,-1.28,-1.59,-1.46,423,457,411,453,263,9
1349,0.05,0.9,0.44,3.3,-4.33,-2.38,426,451,412,447,267,9
1350,0.05,0.89,0.45,-0.73,-1.89,-2.5,435,460,416,449,268,9
1351,0.03,0.89,0.46,-0.55,-1.46,-2.26,423,460,415,451,271,9
1352,0.04,0.89,0.45,2.32,-3.85,-2.99,426,458,414,449,293,9
1353,0.02,0.89,0.46,-0.49,-2.2,-2.5,427,460,411,451,277,9
1354,0.04,0.88,0.46,0.24,-2.69,-2.14,430,455,416,451,279,9
1355,0.03,0.89,0.46,2.93,-2.62,-3.6,426,462,413,448,273,9
1356,0.03,0.89,0.46,1.4,-3.23,-3.48,428,462,413,451,278,9
1357,0.04,0.89,0.45,1.71,-1.4,-2.32,422,457,424,448,276,9
1358,0.03,0.89,0.45,-0.98,-2.38,-2.08,422,464,410,432,264,9
1359,0.02,0.88,0.46,-1.1,-5.25,-4.09,426,464,411,427,264,9
1360,0.27,1.01,0.29,7.08,-19.47,-13.92,422,459,413,428,265,9
1361,0.19,0.95,0.31,-0.49,-6.16,-1.83,427,459,408,431,272,9
1362,0.21,0.86,0.35,-5.13,-3.72,10.8,413,457,413,432,270,9
1363,0.23,0.87,0.41,-2.26,17.03,-10.38,417,459,413,430,271,9
1364,0.23,0.87,0.37,-2.69,-1.34,-0.98,420,461,410,419,268,9
1365,0.23,0.87,0.42,-2.81,-2.69,-5.68,420,465,413,425,263,9
1366,0.18,0.86,0.42,-2.87,-3.97,-2.32,423,463,412,417,267,9
1367,0.25,0.87,0.37,2.01,-6.71,-2.99,424,463,410,412,270,9
1368,0.27,0.92,0.37,0.43,-1.59,-8.12,422,457,412,408,270,9
1369,0.21,0.91,0.38,-0.49,-2.26,-2.44,422,460,410,414,274,9
1370,0.21,0.9,0.38,-0.37,-1.89,-5.37,421,463,411,418,271,9
1371,0.21,0.91,0.38,-2.14,-1.65,-1.71,426,457,412,417,275,9
1372,0.19,0.89,0.37,2.2,-2.62,-2.5,425,455,408,417,275,9
1373,0.2,0.89,0.37,-2.69,-2.44,-3.17,423,460,412,416,274,9
1374,0.19,0.89,0.38,0.0,-2.08,-3.85,422,465,410,416,278,9
1375,0.17,0.91,0.39,-1.46,-2.32,-2.26,423,457,410,420,277,9
1376,0.19,0.9,0.38,0.92,-2.56,-3.97,423,460,411,428,283,9
1377,0.17,0.89,0.39,-1.34,-4.27,-5.62,428,461,413,423,272,9
1378,0.16,0.9,0.41,-0.92,-1.89,-3.72,424,460,414,424,275,9
1379,0.17,0.9,0.41,-1.04,-4.88,-2.38,422,461,414,425,269,9
1380,0.17,0.89,0.42,-1.77,-2.87,-2.62,424,465,412,425,276,9
1381,0.16,0.89,0.42,1.71,-1.59,-3.42,426,461,413,425,281,9
1382,0.15,0.89,0.42,-1.28,-0.49,-3.3,426,466,408,429,281,9
1383,0.15,0.89,0.42,-0.49,-4.21,-1.65,427,461,409,436,278,9
1384,0.13,0.9,0.44,1.34,-0.37,-2.93,427,456,415,428,283,9
1385,0.17,0.9,0.42,-1.16,-4.09,-2.75,425,470,412,431,285,9
1386,0.14,0.89,0.42,1.1,-2.44,-1.4,422,461,411,429,281,9
1387,0.17,0.89,0.41,2.5,-3.05,-3.97,428,457,412,430,283,9
1388,0.15,0.9,0.43,1.65,-4.46,-2.62,425,456,412,428,284,9
1389,0.15,0.9,0.42,1.1,-3.85,-2.32,426,456,411,430,275,9
1390,0.18,0.89,0.41,2.08,-2.81,-1.59,421,465,412,420,303,9
1391,0.16,0.9,0.4,3.3,-4.88,-2.69,426,465,414,421,269,9
1392,0.17,0.91,0.4,3.66,-0.98,-6.53,426,463,411,416,270,9
1393,0.13,0.92,0.39,6.77,-2.56,-1.95,426,464,409,419,266,9
1394,0.14,0.91,0.36,1.4,-4.7,0.79,427,462,409,415,275,9
1395,0.15,0.9,0.39,0.49,1.1,-5.13,426,461,412,418,272,9
1396,0.16,0.91,0.4,0.18,-1.59,-2.75,423,463,412,420,282,9
1397,0.15,0.9,0.39,-3.17,-2.75,-2.87,427,467,410,419,277,9
1398,0.15,0.89,0.4,-3.72,0.0,-7.45,427,470,411,418,281,9
1399,0.16,0.88,0.41,-1.34,-5.62,-7.08,426,460,413,416,277,9
1400,0.11,0.9,0.41,1.65,-2.81,-3.17,423,463,408,410,277,9
1401,0.12,0.92,0.43,-1.46,-4.39,-2.32,426,463,409,420,279,9
1402,0.12,0.91,0.43,0.61,-2.93,-1.4,431,463,412,418,299,9
1403,0.15,0.89,0.41,-1.46,-6.1,-1.22,423,463,411,417,281,9
1404,0.13,0.9,0.42,0.92,-2.01,-3.36,425,462,406,418,285,9
1405,0.12,0.9,0.41,-0.06,-2.14,-3.48,422,459,408,432,296,9
1406,0.13,0.9,0.43,1.83,-3.91,-2.81,428,461,411,428,282,9
1407,0.11,0.91,0.42,1.22,-2.87,-2.99,425,467,412,420,272,9
1408,0.12,0.9,0.41,0.73,-2.62,-2.81,428,465,410,425,271,9
1409,0.12,0.9,0.39,-1.04,-3.3,-2.08,423,466,411,424,269,9
1410,0.13,0.9,0.4,-0.98,-1.77,-3.78,427,463,410,425,278,9
1411,0.14,0.9,0.4,-1.77,-2.62,-0.18,427,466,408,423,279,9
1412,0.13,0.9,0.42,1.65,-2.93,-2.69,424,468,410,422,279,9
1413,0.12,0.92,0.41,7.14,-3.23,-1.1,429,460,413,424,282,9
1414,0.14,0.91,0.41,0.31,-2.93,-1.59,428,463,413,423,283,9
1415,0.16,0.9,0.4,-1.89,-1.34,-3.48,429,463,414,424,287,9
1416,0.15,0.9,0.42,-2.14,-2.75,-0.61,426,464,411,430,292,9
1417,0.16,0.89,0.4,-1.4,-3.17,-2.93,426,464,407,431,294,9
1418,0.15,0.9,0.41,0.0,-2.99,-3.66,427,462,412,431,290,9
1419,0.16,0.89,0.41,2.38,-2.32,-3.54,429,463,411,429,298,9
1420,0.14,0.9,0.41,0.85,-4.46,-2.08,425,458,413,427,285,9
1421,0.14,0.91,0.4,0.18,-3.23,-2.81,424,467,410,429,288,9
1422,0.16,0.89,0.4,-0.24,-4.94,-4.09,427,463,407,434,298,9
1423,0.15,0.91,0.42,0.06,-4.03,-2.93,423,466,412,429,282,9
1424,0.14,0.91,0.41,1.16,-3.3,-0.61,423,464,409,435,280,9
1425,0.13,0.9,0.4,0.61,-3.48,-3.66,427,467,408,441,286,9
1426,0.14,0.89,0.41,-2.26,-3.72,-2.01,429,474,407,435,289,9
1427,0.15,0.91,0.42,3.36,-4.39,-1.46,428,458,411,440,291,9
1428,0.15,0.9,0.4,2.01,-5.07,-2.75,428,459,410,450,295,9
1429,0.15,0.9,0.41,1.16,-2.38,-3.17,426,463,409,452,301,9
1430,0.15,0.9,0.41,-0.12,-3.36,-1.77,429,464,413,465,302,9
1431,0.14,0.9,0.41,-0.06,-2.87,-2.14,428,463,413,453,302,9
1432,0.13,0.9,0.4,-1.04,-1.65,-2.01,425,456,413,457,297,9
1433,0.12,0.9,0.4,0.67,-1.1,-2.14,424,466,412,456,303,9
1434,0.12,0.89,0.41,-1.53,0.31,-3.72,424,463,412,454,305,9
1435,0.14,0.89,0.43,1.95,-4.03,-1.59,427,463,412,451,300,9
1436,0.15,0.86,0.41,-0.85,-4.15,-4.94,429,474,412,448,338,9
1437,0.14,0.89,0.41,-0.92,-2.75,-2.38,426,462,413,451,302,9
1438,0.14,0.88,0.42,1.04,-3.66,-1.77,428,468,414,452,298,9
1439,0.13,0.9,0.41,-1.83,-5.68,-5.68,426,459,413,452,301,9
1440,0.13,0.88,0.43,-2.26,-0.92,0.37,427,458,413,445,305,9
1441,0.1,0.9,0.44,-1.16,-2.08,-4.64,426,464,416,448,304,9
1442,0.11,0.89,0.43,3.3,-1.77,-2.93,428,463,410,451,300,9
1443,0.1,0.91,0.44,-0.06,-3.23,-2.08,430,461,413,453,290,9
1444,0.12,0.9,0.42,0.37,-2.56,-1.65,429,464,412,455,297,9
1445,0.09,0.92,0.45,1.83,-0.24,-1.16,426,468,409,448,316,9
1446,0.12,0.9,0.43,-1.34,-3.23,0.92,431,463,415,452,305,9
1447,0.13,0.89,0.43,-3.54,-2.14,-0.49,429,464,414,454,306,9
1448,0.13,0.9,0.46,-0.18,-1.16,-2.01,428,468,413,456,302,9
1449,0.1,0.88,0.43,-1.89,-1.83,-2.32,425,463,412,454,298,9
1450,0.1,0.89,0.44,-0.43,-2.14,-3.48,427,464,414,452,298,9
1451,0.14,0.9,0.45,2.32,-3.3,-0.06,431,463,412,452,304,9
1452,0.13,0.89,0.44,0.24,-4.15,-3.23,428,468,414,452,300,9
1453,0.12,0.89,0.45,0.24,-2.2,-3.6,430,460,414,448,299,9
1454,0.11,0.9,0.44,0.37,-3.66,-1.28,427,468,409,449,302,9
1455,0.12,0.89,0.44,-3.11,-5.43,-1.83,423,464,412,446,300,9
1456,0.15,0.87,0.44,1.34,-4.52,-5.07,425,464,415,451,303,9
1457,0.1,0.89,0.46,0.92,-0.31,-6.71,423,468,413,452,304,9
1458,0.11,0.88,0.45,-0.24,-2.2,-1.4,427,465,411,449,303,9
1459,0.09,0.89,0.48,-5.0,-2.44,-6.04,424,462,414,450,305,9
1460,0.12,0.89,0.47,0.73,-4.27,-2.14,427,461,412,450,303,9
1461,0.1,0.87,0.45,-2.01,-3.48,0.31,427,468,411,451,302,9
1462,0.1,0.88,0.45,-1.83,-3.97,-1.77,430,465,414,445,304,9
1463,0.11,0.89,0.46,0.43,-4.21,-1.89,428,464,411,446,306,9
1464,0.12,0.89,0.43,3.66,-4.94,-2.44,424,466,411,451,301,9
1465,0.11,0.9,0.43,-2.2,-2.81,-0.67,428,459,413,445,272,9
1466,0.13,0.88,0.4,2.14,-1.04,-1.34,431,464,411,442,272,9
1467,0.14,0.87,0.4,-1.65,-3.3,-1.95,428,466,413,446,279,9
1468,0.15,0.88,0.4,0.49,-2.99,-1.46,429,466,415,457,282,9
1469,0.17,0.9,0.41,0.98,-1.77,-2.26,424,459,415,442,285,9
1470,0.15,0.9,0.41,-1.1,-2.62,-1.4,428,459,412,444,290,9
1471,0.15,0.9,0.43,-2.5,-1.46,-5.43,423,466,412,453,290,9
1472,0.11,0.9,0.38,-13.31,-7.2,-0.24,426,463,413,442,292,9
1473,0.12,0.87,0.44,-18.19,-7.02,3.48,424,464,413,445,289,9
1474,0.22,0.78,0.58,-12.94,-1.59,17.82,427,458,413,447,292,9
1475,0.27,0.8,0.62,-3.3,9.34,15.26,428,465,414,443,294,9
1476,0.25,0.69,0.64,0.98,0.31,5.13,428,458,417,446,291,9
1477,0.29,0.69,0.63,-0.31,3.85,7.69,431,458,413,440,292,9
1478,0.29,0.71,0.64,-4.27,-3.66,3.78,427,468,410,440,296,9
1479,0.34,0.66,0.66,-5.19,-7.2,-0.31,429,460,414,441,315,9
1480,0.31,0.69,0.66,2.99,0.24,-13.61,426,465,414,439,294,9
1481,0.31,0.72,0.66,3.17,-3.72,-3.72,427,463,427,441,291,9
1482,0.31,0.72,0.64,0.37,-1.71,-1.34,429,465,410,443,294,9
1483,0.35,0.73,0.67,-0.37,-4.03,-4.58,429,460,414,440,296,9
1484,0.31,0.68,0.65,0.98,-0.31,-0.24,429,468,417,441,293,9
1485,0.4,0.66,0.63,4.88,-3.05,-9.77,430,463,413,437,297,9
1486,0.37,0.7,0.64,0.31,-3.91,-3.23,427,467,419,441,296,9
1487,0.32,0.69,0.65,-0.73,-2.87,-2.2,428,464,412,443,296,9
1488,0.32,0.7,0.64,-3.11,-3.72,1.4,430,463,414,442,299,9
1489,0.37,0.68,0.67,-1.71,-5.25,-5.19,430,464,414,444,296,9
1490,0.33,0.7,0.68,-2.32,0.85,1.89,424,464,412,439,300,9
1491,0.34,0.67,0.69,0.12,-2.08,-4.7,425,468,411,440,299,9
1492,0.35,0.67,0.67,-1.22,-3.85,-2.26,427,463,412,444,318,9
1493,0.35,0.66,0.66,1.04,-4.76,0.55,424,463,412,449,296,9
1494,0.35,0.66,0.69,0.67,-1.53,-2.62,427,466,415,441,300,9
1495,0.37,0.64,0.68,-3.48,-3.97,-4.46,425,465,411,441,299,9
1496,0.35,0.67,0.67,3.42,-2.81,-4.94,426,468,414,438,307,9
1497,0.35,0.69,0.64,1.4,-4.27,-2.14,428,464,415,447,277,9
1498,0.35,0.69,0.65,-2.5,-2.81,-1.83,424,464,410,448,286,9
1499,0.31,0.66,0.65,-6.59,-16.3,-5.13,425,461,411,448,290,9
1500,0.33,0.7,0.68,2.14,-2.99,-12.33,413,435,412,449,293,9
1501,0.27,0.72,0.63,13.79,-8.42,-4.52,413,431,413,448,290,9
1502,0.29,0.77,0.55,4.88,-4.15,-1.65,414,437,414,446,294,9
1503,0.27,0.8,0.56,4.58,-1.04,-2.87,409,439,416,446,290,9
1504,0.31,0.79,0.56,-1.89,-4.33,-0.73,414,440,415,443,279,9
1505,0.31,0.77,0.56,3.11,-3.72,-0.55,414,441,413,450,264,9
1506,0.31,0.77,0.56,0.61,-4.03,2.81,417,440,413,445,270,9
1507,0.31,0.77,0.57,-1.71,-2.56,-1.59,420,444,414,445,276,9
1508,0.32,0.77,0.58,-2.2,-2.01,0.67,417,448,417,442,278,9
1509,0.33,0.77,0.59,-3.17,-1.4,-0.61,418,445,413,461,281,9
1510,0.34,0.73,0.59,-3.17,-0.49,-5.8,418,450,413,450,284,9
1511,0.32,0.73,0.58,6.04,-4.7,-5.49,420,446,410,448,277,9
1512,0.35,0.76,0.58,-0.79,-2.81,-2.32,421,449,412,445,278,9
1513,0.35,0.76,0.57,-0.24,-2.26,-2.01,418,453,413,443,270,9
1514,0.36,0.76,0.56,2.32,-4.7,-1.83,421,449,412,443,266,9
1515,0.34,0.75,0.57,-1.46,-1.53,-2.93,418,449,413,441,272,9
1516,0.34,0.76,0.57,-1.95,3.48,-10.13,416,446,416,442,279,9
1517,0.32,0.75,0.59,1.71,-1.65,-1.89,419,447,413,435,277,9
1518,0.32,0.76,0.57,-1.4,-2.99,-2.14,421,445,409,439,287,9
1519,0.32,0.76,0.59,-0.55,-2.62,-2.38,421,448,415,435,282,9
1520,0.32,0.76,0.59,-2.2,-3.48,-3.54,424,450,414,434,283,9
1521,0.31,0.76,0.59,0.79,-2.69,-2.08,421,446,416,430,282,9
1522,0.31,0.75,0.59,-0.55,-3.11,-1.71,420,448,413,433,284,9
1523,0.31,0.76,0.59,0.31,-2.38,-2.44,423,448,416,434,282,9
1524,0.31,0.74,0.59,-0.06,-3.05,-2.32,421,445,415,433,279,9
1525,0.32,0.75,0.59,0.24,-3.42,-1.4,418,452,414,434,283,9
1526,0.32,0.76,0.6,0.0,-3.11,-3.3,422,448,418,432,285,9
1527,0.32,0.76,0.6,0.67,-3.42,-4.21,423,451,412,433,285,9
1528,0.3,0.75,0.6,-0.12,-4.39,-2.69,418,449,413,433,287,9
1529,0.31,0.76,0.59,-0.92,-3.78,-2.56,422,446,412,437,278,9
1530,0.31,0.75,0.58,0.43,-2.38,-2.38,423,450,410,433,275,9
1531,0.32,0.75,0.58,1.71,-4.64,-2.75,420,452,412,437,269,9
1532,0.32,0.76,0.59,0.24,-3.72,-2.32,424,447,409,437,271,9
1533,0.32,0.75,0.59,-1.46,-2.81,-2.81,419,453,409,438,271,9
1534,0.33,0.75,0.59,-0.06,-3.11,-3.05,422,451,410,439,276,9
1535,0.46,0.89,0.2,-11.54,18.86,-0.67,261,456,430,478,431,9
1536,0.32,0.81,0.3,15.56,-2.38,8.36,264,457,425,474,433,9
1537,0.43,0.89,0.32,1.22,-13.31,3.97,267,456,422,477,434,9
1538,0.4,0.78,0.43,-57.01,34.42,-20.02,295,458,427,475,430,9
1539,0.47,0.75,0.36,-1.16,-18.68,-14.1,267,454,426,475,433,9
1540,0.47,0.85,0.4,8.0,7.93,-0.92,267,458,425,468,435,9
1541,0.38,0.83,0.39,-4.09,-2.81,0.0,267,459,425,472,436,9
1542,0.5,0.76,0.38,-4.27,-13.61,-8.97,267,458,423,473,439,9
1543,0.4,0.9,0.42,6.35,-2.5,-11.47,271,458,427,472,436,9
1544,0.47,0.82,0.35,0.37,-2.44,-10.07,260,458,426,486,433,9
1545,0.29,0.86,0.4,-4.46,0.0,-8.06,269,457,431,473,433,9
1546,0.34,0.83,0.4,2.08,-8.3,-1.04,270,475,423,476,438,9
1547,0.3,0.86,0.4,-0.49,-1.77,-2.75,269,458,425,473,430,9
1548,0.29,0.86,0.42,3.72,2.08,-0.55,269,456,426,473,434,9
1549,0.31,0.87,0.39,-1.59,-2.14,-2.14,273,459,428,474,433,9
1550,0.3,0.86,0.39,-0.18,-2.32,-3.11,274,461,425,477,436,9
1551,0.32,0.88,0.4,-1.22,-2.5,-2.75,272,461,426,473,434,9
1552,0.33,0.87,0.39,-0.67,-4.52,-0.61,272,458,424,473,433,9
1553,0.32,0.88,0.36,5.55,-4.33,-3.91,274,464,425,470,434,9
1554,0.31,0.86,0.38,2.14,-4.03,-1.83,271,458,426,472,432,9
1555,0.32,0.87,0.39,-1.77,-3.23,-2.56,273,461,425,472,436,9
1556,0.31,0.87,0.38,-0.31,-2.38,-3.42,274,459,423,467,433,9
1557,0.32,0.87,0.36,1.34,-2.81,-2.75,274,460,424,474,434,9
1558,0.32,0.87,0.38,-0.55,-2.75,-2.69,273,462,423,472,430,9
1559,0.31,0.87,0.38,-0.06,-2.08,-2.62,276,461,426,472,432,9
1560,0.32,0.87,0.38,-1.59,-2.62,-2.14,275,461,425,473,434,9
1561,0.32,0.87,0.38,-2.75,-3.42,-1.28,277,464,427,474,433,9
1562,0.3,0.87,0.37,2.38,-4.21,-1.65,277,464,424,470,435,9
1563,0.29,0.88,0.4,-1.59,-1.16,-1.53,277,463,421,466,436,9
1564,0.31,0.88,0.38,-0.92,-5.13,0.43,277,462,423,473,432,9
1565,0.26,0.98,0.49,-47.06,2.2,-10.38,277,462,424,470,432,9
1566,0.23,0.64,0.57,3.6,3.36,-10.86,278,460,425,466,430,9
1567,0.23,0.87,0.64,8.91,-5.19,10.25,279,462,420,464,433,9
1568,0.33,0.76,0.56,-12.82,-8.54,-3.66,276,464,425,471,434,9
1569,0.24,0.95,0.67,1.95,2.26,15.63,279,461,426,470,435,9
1570,0.41,0.78,0.42,2.56,-15.08,-0.73,278,462,421,469,435,9
1571,0.3,0.7,0.52,-1.04,-9.7,-0.49,279,472,423,464,433,9
1572,0.44,0.77,0.5,0.85,-6.16,12.15,280,459,425,470,433,9
1573,0.36,0.83,0.41,8.61,-0.12,9.58,278,460,424,467,434,9
1574,0.44,0.86,0.48,-1.22,-2.87,1.77,280,458,423,469,434,9
1575,0.33,0.78,0.56,-6.84,0.06,-8.06,280,464,426,468,434,9
1576,0.34,0.75,0.51,5.43,-3.17,-3.72,281,465,422,469,431,9
1577,0.4,0.79,0.46,2.5,-2.93,-0.92,280,463,418,468,428,9
1578,0.44,0.77,0.49,-2.81,-6.35,1.34,280,465,421,468,429,9
1579,0.41,0.78,0.49,3.42,-0.12,-4.52,280,460,432,466,427,9
1580,0.41,0.79,0.49,1.71,-1.4,-2.81,281,460,421,465,432,9
1581,0.42,0.78,0.48,1.04,-4.52,-3.54,281,464,415,466,433,9
1582,0.41,0.75,0.51,-1.53,-4.03,-2.14,282,466,419,476,431,9
1583,0.4,0.79,0.42,4.46,0.37,-5.86,282,466,420,467,431,9
1584,0.37,0.8,0.45,1.28,-2.75,-11.72,283,462,417,466,429,9
1585,0.36,0.81,0.47,1.28,-1.77,4.21,285,465,423,466,426,9
1586,0.39,0.8,0.49,-2.56,-4.21,-8.06,282,463,418,466,432,9
1587,0.38,0.78,0.47,0.73,-5.92,3.78,283,466,419,467,433,9
1588,0.4,0.79,0.48,-4.27,-4.21,-1.1,283,464,420,467,426,9
1589,0.42,0.81,0.47,4.33,0.06,-1.77,283,465,421,466,431,9
1590,0.37,0.79,0.49,-4.76,-5.07,-1.16,283,466,420,466,430,9
1591,0.43,0.81,0.49,-3.97,-3.48,0.79,285,462,419,467,430,9
1592,0.4,0.78,0.5,-5.92,-9.83,1.22,282,462,416,471,429,9
1593,0.41,0.75,0.5,5.31,-5.37,6.16,284,462,418,464,431,9
1594,0.45,0.75,0.44,-9.09,-12.21,7.69,286,465,417,467,427,9
1595,0.5,0.74,0.48,-5.07,-2.5,-8.48,287,463,417,466,433,9
1596,0.5,0.74,0.47,-6.41,-4.94,-5.8,286,461,413,467,428,9
1597,0.35,0.7,0.58,18.19,21.67,-12.45,285,457,421,463,423,9
1598,0.36,0.8,0.53,-3.42,-6.59,-8.97,286,462,423,466,428,9
1599,0.32,0.82,0.54,-7.02,4.33,1.77,290,461,420,466,425,9
1600,0.36,0.76,0.53,-5.49,-15.26,10.62,307,464,420,468,428,9
1601,0.36,0.76,0.54,1.77,-4.27,-0.79,287,461,422,466,429,9
1602,0.39,0.75,0.5,3.97,-1.59,4.03,297,463,421,466,428,9
1603,0.34,0.81,0.51,4.82,-3.54,-1.28,291,459,423,470,424,9
1604,0.36,0.83,0.49,11.17,7.75,-11.9,287,462,419,466,426,9
1605,0.32,0.81,0.44,1.53,-5.98,6.53,286,457,423,461,425,9
1606,0.37,0.84,0.48,0.73,1.65,0.85,286,455,421,467,427,9
1607,0.37,0.82,0.47,2.75,-4.64,-2.62,291,457,424,470,425,9
1608,0.39,0.81,0.46,0.31,-1.77,-5.98,289,463,422,467,423,9
1609,0.35,0.81,0.46,12.08,2.44,-8.12,290,458,419,470,427,9
1610,0.37,0.84,0.39,5.37,-1.59,-4.27,288,459,424,470,425,9
1611,0.34,0.84,0.42,-8.0,-1.16,-3.85,289,457,420,471,427,9
1612,0.34,0.85,0.42,2.75,-6.16,-1.53,291,458,425,476,426,9
1613,0.37,0.85,0.4,-3.97,-6.29,1.04,293,459,422,472,428,9
1614,0.36,0.84,0.42,-0.98,-3.6,-1.46,294,463,422,473,427,9
1615,0.39,0.83,0.42,-2.81,-3.48,-4.58,293,462,424,470,430,9
1616,0.35,0.84,0.4,-1.16,-6.96,1.1,298,464,424,473,427,9
1617,0.37,0.82,0.44,1.34,-3.6,-1.46,292,466,423,473,427,9
1618,0.34,0.82,0.45,-4.33,-1.71,-4.21,292,464,426,471,430,9
1619,0.36,0.84,0.45,0.0,-3.42,-2.81,289,465,423,473,425,9
1620,0.37,0.83,0.44,2.99,-3.36,-2.44,294,463,427,474,422,9
1621,0.36,0.83,0.46,-1.83,-2.08,-2.32,291,460,426,468,425,9
1622,0.31,0.82,0.47,13.61,7.08,-8.97,291,455,422,471,429,9
1623,0.32,0.83,0.42,-10.93,-8.42,1.59,294,458,423,473,428,9
1624,0.35,0.83,0.41,-0.73,-2.87,-1.1,285,459,426,476,424,9
1625,0.32,0.85,0.43,4.33,-2.69,-5.25,305,462,421,472,426,9
1626,0.33,0.86,0.43,1.28,-3.66,-0.79,294,468,424,472,427,9
1627,0.35,0.85,0.4,-1.77,-5.25,-2.32,296,462,425,476,427,9
1628,0.34,0.86,0.43,-0.12,-1.59,-2.14,298,463,419,472,428,9
1629,0.33,0.83,0.39,9.46,1.28,-10.01,295,461,423,476,425,9
1630,0.23,0.97,0.41,11.11,-8.18,-3.91,294,457,420,473,428,9
1631,0.22,0.86,0.38,-3.54,-13.73,-8.61,306,463,430,476,430,9
1632,0.27,0.86,0.44,5.31,-15.26,5.07,293,460,425,477,418,9
1633,0.35,0.83,0.36,-0.55,-8.48,5.31,296,460,427,488,426,9
1634,0.34,0.83,0.37,5.98,0.61,0.43,299,460,430,479,429,9
1635,0.4,0.82,0.29,3.3,10.31,3.66,298,462,427,480,431,9
1636,0.28,0.85,0.37,15.5,1.65,-1.34,298,462,427,481,428,9
1637,0.37,0.92,0.28,6.1,-3.85,-4.15,294,455,424,483,431,9
1638,0.39,0.89,0.26,2.62,-3.6,10.74,299,465,427,481,425,9
1639,0.29,0.9,0.25,11.41,5.86,0.0,333,461,427,486,434,9
1640,0.2,0.85,0.46,-48.71,53.47,-37.11,296,460,429,486,436,9
1641,0.23,0.84,0.38,-5.07,-13.37,-14.65,296,460,424,483,432,9
1642,0.32,0.89,0.38,4.76,-10.5,-10.38,294,460,426,486,435,9
1643,0.46,0.96,0.32,25.94,-24.9,-8.3,297,459,422,482,435,9
1644,0.06,0.77,0.38,-12.33,-4.27,0.43,299,460,425,480,434,9
1645,0.41,0.87,0.33,-29.91,-33.14,-1.04,290,459,422,479,435,9
1646,0.25,0.9,0.33,-10.07,-27.04,9.89,296,462,425,476,434,9
1647,0.34,0.88,0.37,-62.93,41.38,-27.65,295,460,424,480,434,9
1648,0.47,0.73,0.44,-31.86,37.78,5.62,295,463,424,479,436,9
1649,0.61,0.74,0.36,-11.96,-3.48,-29.05,296,464,426,482,435,9
1650,0.49,0.75,0.45,-7.14,13.18,-6.53,329,467,427,479,434,9
1651,0.52,0.69,0.48,0.12,-2.44,-1.34,296,465,427,483,436,9
1652,0.55,0.69,0.46,0.43,-9.28,-2.93,296,465,427,480,435,9
1653,0.51,0.77,0.41,18.74,8.61,-23.25,298,461,423,478,435,9
1654,0.44,0.78,0.47,-3.11,-7.57,-1.04,297,465,421,476,437,9
1655,0.45,0.74,0.46,2.32,-1.89,-11.05,296,465,425,476,435,9
1656,0.42,0.81,0.44,14.47,-1.28,3.42,299,462,425,476,433,9
1657,0.38,0.81,0.4,9.83,8.48,-17.21,296,463,426,474,433,9
1658,0.39,0.83,0.4,-0.61,-4.09,2.14,298,462,425,482,434,9
1659,0.39,0.83,0.42,-3.72,0.24,-5.8,297,462,424,483,429,9
1660,0.43,0.82,0.4,-4.21,-4.64,0.67,296,464,423,471,434,9
1661,0.38,0.81,0.41,6.35,-4.52,-3.97,299,469,427,473,433,9
1662,0.4,0.84,0.42,3.17,-3.23,1.65,297,463,426,480,432,9
1663,0.43,0.81,0.39,4.33,-6.23,0.37,297,463,421,473,436,9
1664,0.38,0.8,0.4,1.89,-2.87,-3.42,297,462,424,477,435,9
1665,0.33,0.83,0.43,1.95,5.07,-10.44,292,466,422,476,432,9
1666,0.34,0.85,0.4,-0.12,-3.36,-0.67,297,463,420,475,431,9
1667,0.38,0.84,0.39,1.71,-4.21,-1.34,295,464,427,480,436,9
1668,0.38,0.84,0.41,-3.3,-3.3,-2.2,299,465,423,474,434,9
1669,0.37,0.84,0.41,-1.28,-2.08,-2.81,300,463,427,475,435,9
1670,0.38,0.82,0.43,-2.69,-3.85,-2.69,295,459,421,474,436,9
1671,0.38,0.81,0.42,2.81,-2.56,-3.42,296,467,420,474,433,9
1672,0.38,0.83,0.43,-0.79,-3.6,-1.65,300,464,419,469,432,9
1673,0.37,0.83,0.43,1.77,-2.44,1.53,297,464,423,467,432,9
1674,0.38,0.83,0.41,3.17,-4.64,-0.55,298,466,419,475,434,9
1675,0.36,0.84,0.42,0.12,-4.52,-1.65,298,461,423,473,434,9
1676,0.38,0.82,0.43,0.31,-5.07,-3.11,300,464,424,473,434,9
1677,0.4,0.84,0.42,-1.53,-2.26,-6.53,297,460,422,470,429,9
1678,0.37,0.81,0.41,3.97,-7.93,0.67,298,464,421,470,434,9
1679,0.37,0.82,0.42,0.37,-5.8,-4.09,301,466,422,472,433,9
1680,0.38,0.84,0.42,4.15,-4.82,-2.26,299,466,423,477,433,9
1681,0.37,0.82,0.43,1.77,-3.66,-4.15,298,462,423,477,430,9
1682,0.37,0.83,0.43,2.44,-3.85,-2.99,300,468,423,473,434,9
1683,0.37,0.83,0.42,3.05,-3.54,-0.49,300,468,421,468,432,9
1684,0.38,0.8,0.4,3.97,-7.08,-0.49,301,463,425,473,433,9
1685,0.38,0.8,0.41,-1.53,-3.6,-0.37,303,466,421,476,433,9
1686,0.41,0.84,0.42,0.79,-3.85,-2.44,302,463,422,472,435,9
1687,0.35,0.82,0.43,-0.79,-1.53,-3.85,305,463,423,470,434,9
1688,0.37,0.83,0.42,0.85,-2.2,-3.85,301,465,425,474,435,9
1689,0.36,0.79,0.42,0.0,-1.22,-2.99,297,465,425,471,435,9
1690,0.37,0.84,0.44,0.79,-1.71,-3.05,299,463,421,471,433,9
1691,0.38,0.82,0.4,-2.69,-4.39,-1.28,299,462,422,471,432,9
1692,0.38,0.84,0.43,0.18,-2.14,-7.39,322,465,423,476,429,9
1693,0.35,0.82,0.42,2.08,-2.99,-1.28,311,462,419,473,434,9
1694,0.37,0.83,0.44,-3.6,-3.78,-2.99,301,461,423,471,433,9
1695,0.38,0.82,0.42,0.18,-4.88,-3.3,301,463,422,476,431,9
1696,0.37,0.83,0.43,0.37,-4.64,-3.05,299,461,425,477,433,9
1697,0.37,0.82,0.42,-1.77,-3.23,-2.62,299,466,423,471,435,9
1698,0.38,0.82,0.42,1.71,-3.91,-2.62,313,463,425,472,430,9
1699,0.37,0.83,0.43,0.0,-4.33,-1.65,299,465,422,472,429,9
1700,0.4,0.85,0.43,-3.17,-2.99,-3.85,299,464,421,475,431,9
1701,0.37,0.79,0.42,0.67,-6.29,-2.01,296,461,425,477,433,9
1702,0.38,0.82,0.44,-2.62,-2.62,-1.22,298,463,425,471,430,9
1703,0.38,0.81,0.44,3.42,-2.87,-4.94,302,466,422,471,434,9
1704,0.38,0.84,0.4,3.54,2.01,-6.9,303,464,424,475,432,9
1705,0.34,0.84,0.38,-3.6,-1.04,-5.13,301,461,421,468,428,9
1706,0.37,0.85,0.4,-3.97,-3.17,-0.61,302,464,424,477,433,9
1707,0.38,0.83,0.4,-0.92,-4.46,-3.11,298,463,426,470,434,9
1708,0.38,0.85,0.41,-2.56,-4.58,4.82,299,466,422,473,435,9
1709,0.4,0.82,0.42,-2.93,-4.27,-1.83,301,463,423,469,434,9
1710,0.38,0.82,0.43,-0.06,-4.64,-2.08,302,465,425,472,434,9
1711,0.36,0.84,0.42,-1.71,2.56,-4.46,300,464,421,469,432,9
1712,0.36,0.87,0.46,5.98,-2.2,-0.73,301,466,418,468,429,9
1713,0.4,0.82,0.43,1.16,-2.56,-5.74,301,461,432,470,433,9
1714,0.41,0.82,0.42,-4.46,-2.99,-0.12,299,462,421,469,428,9
1715,0.38,0.8,0.44,0.06,-1.4,-1.28,302,463,422,473,433,9
1716,0.41,0.81,0.44,2.5,-3.17,-1.53,300,460,422,473,433,9
1717,0.4,0.82,0.43,-0.67,-3.78,-3.66,313,475,424,469,432,9
1718,0.38,0.8,0.48,1.1,-1.59,-2.26,300,460,423,472,432,9
1719,0.39,0.81,0.42,-2.38,-2.93,-2.38,300,461,426,469,430,9
1720,0.39,0.81,0.44,-0.49,-1.22,-0.67,301,460,423,469,432,9
1721,0.42,0.81,0.44,-7.51,-3.85,-5.92,299,467,422,473,432,9
1722,0.4,0.79,0.44,2.08,-3.72,-1.4,301,466,422,468,433,9
1723,0.4,0.79,0.44,5.07,-2.62,-4.82,300,464,418,469,433,9
1724,0.4,0.8,0.44,-0.73,-2.75,-2.87,300,467,422,471,433,9
1725,0.41,0.81,0.43,-0.37,-2.44,-1.71,302,467,425,470,432,9
1726,0.41,0.8,0.43,1.77,-3.17,-2.81,296,464,420,472,431,9
1727,0.39,0.8,0.46,1.22,-2.14,-2.81,300,467,421,464,433,9
1728,0.41,0.78,0.45,5.49,-4.03,-1.28,300,465,424,471,434,9
1729,0.42,0.81,0.45,-0.43,-2.56,-4.21,299,463,421,466,434,9
1730,0.4,0.79,0.45,0.06,-3.11,-0.67,302,464,420,471,432,9
1731,0.42,0.83,0.45,0.12,-3.36,-2.26,328,463,420,468,434,9
1732,0.39,0.8,0.46,-0.85,0.73,-1.89,303,463,419,471,430,9
1733,0.43,0.81,0.45,6.23,-1.77,-3.36,300,464,420,466,432,9
1734,0.41,0.79,0.44,0.49,-4.03,-2.44,303,463,422,472,433,9
1735,0.4,0.81,0.44,0.24,-3.23,3.48,300,463,426,470,427,9
1736,0.4,0.82,0.48,0.31,-0.92,-5.86,301,462,421,469,428,9
1737,0.41,0.84,0.48,12.02,0.98,-1.71,300,462,420,465,433,9
1738,0.35,0.82,0.45,1.65,-2.14,-5.0,299,459,422,467,434,9
1739,0.33,0.83,0.48,-0.79,1.4,3.6,297,454,423,474,432,9
1740,0.36,0.83,0.48,2.62,-0.92,1.53,305,460,424,474,434,9
1741,0.39,0.8,0.47,2.2,-3.05,-2.44,303,460,424,472,434,9
1742,0.38,0.81,0.47,-1.16,-2.62,-5.31,302,460,420,472,433,9
1743,0.41,0.83,0.49,-2.01,-3.85,1.65,303,462,424,475,431,9
1744,0.38,0.78,0.47,3.6,-5.55,-2.44,302,477,423,471,431,9
1745,0.41,0.78,0.45,-1.22,-4.58,-3.78,303,465,422,474,432,9
1746,0.41,0.81,0.46,2.2,-1.95,-4.21,305,463,420,476,434,9
1747,0.4,0.82,0.47,3.36,-1.1,-5.19,307,467,418,471,429,9
1748,0.36,0.79,0.47,2.01,-2.08,-3.17,305,480,423,470,426,9
1749,0.39,0.79,0.46,-3.17,-3.91,-2.81,300,464,420,475,431,9
1750,0.39,0.8,0.47,-1.22,-2.99,-2.26,304,467,423,472,432,9
1751,0.39,0.81,0.47,1.04,-3.11,-1.46,303,464,421,470,429,9
1752,0.39,0.81,0.47,-1.16,-2.44,-3.05,305,463,421,470,429,9
1753,0.4,0.81,0.48,-0.55,-2.32,-3.11,304,465,422,469,433,9
1754,0.39,0.8,0.45,1.04,-4.21,-4.21,301,466,422,476,427,9
1755,0.38,0.8,0.44,4.94,-2.14,-5.19,302,463,423,471,433,9
1756,0.38,0.84,0.49,-6.41,-7.93,-6.35,301,456,422,474,426,9
1757,0.37,0.8,0.48,3.6,0.12,-6.41,305,456,418,477,430,9
1758,0.32,0.82,0.41,8.54,9.46,-4.27,302,459,422,477,428,9
1759,0.52,0.8,0.34,21.85,-3.85,18.86,301,456,428,476,428,9
1760,0.31,0.98,0.31,-13.61,-2.2,-35.28,305,458,423,474,428,9
1761,0.29,0.83,0.5,-0.79,-6.23,-10.13,302,454,422,473,432,9
1762,0.11,0.89,0.46,9.46,-19.04,-7.08,304,458,422,479,432,9
1763,0.22,0.85,0.48,6.96,-10.25,-2.38,302,456,423,477,431,9
1764,0.25,0.87,0.44,1.16,0.18,-3.54,304,457,418,468,428,9
1765,-0.04,0.75,0.67,-45.9,38.51,-50.35,297,461,422,471,431,9
1766,0.21,0.81,0.52,-6.23,-0.67,2.2,340,460,432,476,435,9
1767,0.23,0.8,0.56,-4.15,-1.04,-5.19,303,462,423,474,437,9
1768,0.37,0.89,0.47,-15.87,-2.38,7.02,303,460,419,480,432,9
1769,0.45,0.81,0.4,2.5,-12.51,-9.28,301,460,427,483,431,9
1770,0.38,0.81,0.48,-6.47,7.2,-11.23,301,461,426,481,433,9
1771,0.34,0.8,0.47,-5.74,22.34,-28.69,304,461,420,477,432,9
1772,0.27,0.87,0.43,-3.05,-13.49,5.13,311,459,422,471,431,9
1773,0.29,0.81,0.34,28.81,0.43,29.85,308,458,425,480,433,9
1774,0.23,0.87,0.39,6.04,12.76,-25.45,305,457,426,468,423,9
1775,0.29,0.88,0.37,-1.95,-1.04,-9.34,341,458,423,449,425,9
1776,0.18,0.84,0.38,-1.83,-1.83,6.23,334,462,424,460,426,9
1777,0.29,0.91,0.48,-17.4,-4.64,13.98,295,462,426,475,434,9
1778,0.29,0.82,0.48,-8.48,-4.76,-7.93,283,452,418,475,422,9
1779,0.26,0.93,0.47,31.19,-25.33,2.93,294,452,420,467,430,9
1780,0.26,0.85,0.38,-10.93,-33.33,-18.07,288,456,421,458,431,9
1781,0.51,0.81,0.45,-1.83,19.78,12.33,285,449,426,462,430,9
1782,0.17,0.7,0.65,-2.69,-1.77,1.28,291,456,427,464,430,9
1783,0.24,0.77,0.6,3.91,-4.94,-1.46,292,454,422,467,431,9
1784,0.25,0.73,0.63,-4.15,-1.89,6.35,293,452,427,473,433,9
1785,0.26,0.87,0.54,-67.08,-4.33,-103.82,295,457,425,468,439,9
1786,0.17,0.59,0.73,5.62,-27.47,9.03,299,456,423,471,427,9
1787,0.26,0.67,0.7,-0.24,17.4,6.23,300,459,423,484,431,9
1788,0.27,0.67,0.62,25.21,-6.65,9.83,304,454,421,476,436,9
1789,0.28,0.81,0.55,13.67,1.4,0.61,298,458,422,475,432,9
1790,0.29,0.76,0.56,2.08,-0.43,4.76,301,458,422,477,428,9
1791,0.3,0.8,0.54,0.49,7.14,0.12,299,460,423,467,429,9
1792,0.26,0.79,0.6,-4.88,-0.55,-11.84,301,458,424,471,429,9
1793,0.25,0.78,0.6,0.0,1.53,-4.03,301,458,424,468,427,9
1794,0.28,0.76,0.56,2.14,-5.13,-3.23,299,459,429,475,429,9
1795,0.2,0.85,0.52,4.21,1.04,5.19,302,457,422,474,432,9
1796,0.26,0.84,0.5,1.89,-4.09,-2.56,299,456,424,467,431,9
1797,0.3,0.7,0.55,-0.73,-19.29,-25.51,298,458,424,468,433,9
1798,0.27,0.84,0.45,-11.47,16.78,-4.33,301,457,423,468,430,9
1799,0.17,0.86,0.54,-1.95,-6.47,-15.69,301,457,424,471,440,9
1800,0.09,0.67,0.59,14.4,-47.91,43.33,299,460,425,473,434,9
1801,0.46,0.53,0.81,-29.42,-21.36,0.18,298,459,423,472,433,9
1802,0.27,0.69,0.6,9.16,4.88,8.61,298,470,419,469,434,9
1803,0.27,0.73,0.65,2.5,5.13,-6.04,300,459,423,470,441,9
1804,0.26,0.74,0.64,13.98,-1.4,10.74,304,455,423,472,431,9
1805,0.3,0.76,0.59,1.28,4.64,-1.77,301,457,422,472,436,9
1806,0.26,0.76,0.6,-0.18,-2.2,-5.86,298,456,424,471,434,9
1807,0.26,0.76,0.61,-5.8,-2.2,-0.85,303,460,421,471,433,9
1808,0.26,0.72,0.62,-1.53,-4.27,-4.03,301,458,425,468,435,9
1809,0.28,0.75,0.62,-5.07,-3.72,0.79,302,464,420,465,431,9
1810,0.29,0.75,0.6,4.09,-2.75,-4.94,302,463,425,473,432,9
1811,0.28,0.74,0.61,-0.85,-2.62,-2.5,301,460,418,473,432,9
1812,0.31,0.7,0.59,-9.34,6.35,-14.65,301,463,423,470,431,9
1813,0.33,0.73,0.61,-4.27,-3.05,-2.75,299,460,419,467,436,9
1814,0.31,0.75,0.59,2.2,-2.01,-6.16,302,461,422,464,435,9
1815,0.29,0.74,0.59,2.5,-1.34,-4.15,303,459,425,473,432,9
1816,0.3,0.75,0.58,11.17,-3.6,-8.06,300,463,422,467,434,9
1817,0.28,0.79,0.59,2.87,-4.46,-0.73,300,459,421,469,433,9
1818,0.27,0.78,0.6,-1.16,-4.33,-5.19,302,462,421,462,433,9
1819,0.27,0.77,0.59,8.36,-1.95,-4.09,303,458,419,468,433,9
1820,0.26,0.77,0.58,-1.71,-1.77,-4.39,302,460,420,473,434,9
1821,0.16,0.94,0.66,-2.14,-19.71,-47.36,305,457,420,463,432,9
1822,0.22,0.84,0.34,13.61,-0.18,-5.0,303,459,423,466,430,9
1823,0.21,0.88,0.42,-7.87,3.05,-4.15,302,462,421,460,421,9
1824,0.33,0.88,0.4,2.26,-0.85,-0.06,302,461,420,463,416,9
1825,0.25,0.88,0.43,5.07,-3.97,3.17,303,459,422,464,423,9
1826,0.29,0.84,0.37,0.67,-5.86,-1.46,302,464,422,464,421,9
1827,0.28,0.88,0.41,-5.13,-7.87,-1.4,304,463,421,464,425,9
1828,0.29,0.89,0.38,-3.6,-0.92,-1.65,305,460,419,461,428,9
1829,0.3,0.89,0.39,3.6,-5.19,-3.36,304,464,419,461,432,9
1830,0.28,0.9,0.37,1.83,-0.67,-5.8,304,461,417,468,426,9
1831,0.27,0.87,0.37,3.48,-3.36,-6.41,304,457,421,464,427,9
1832,0.26,0.88,0.39,-6.23,-2.26,-3.6,304,459,422,461,427,9
1833,0.27,0.88,0.4,-2.08,0.67,-7.51,305,462,421,464,425,9
1834,0.25,0.86,0.41,-0.37,0.85,-6.84,305,466,422,464,426,9
1835,0.26,0.9,0.4,-1.53,-2.87,-2.75,306,462,422,469,426,9
1836,0.28,0.89,0.37,0.06,-4.94,-2.01,307,463,424,469,432,9
1837,0.23,0.92,0.43,16.05,-19.78,4.94,307,461,423,470,425,9
1838,0.24,0.86,0.39,3.11,-6.53,-10.19,299,459,417,464,430,9
1839,0.23,0.88,0.44,1.16,-4.33,-1.04,302,456,422,465,432,9
1840,0.22,0.89,0.42,5.98,-3.97,-8.48,302,460,421,465,428,9
1841,0.25,0.87,0.43,3.54,-3.97,1.46,304,460,422,464,429,9
1842,0.24,0.88,0.43,-6.23,-2.38,-1.4,303,458,425,468,430,9
1843,0.25,0.88,0.4,-1.59,-2.32,-2.32,299,457,423,463,430,9
1844,0.25,0.89,0.42,2.14,-4.46,-1.4,302,455,418,463,429,9
1845,0.24,0.88,0.43,0.31,-1.95,-2.01,302,458,422,459,427,9
1846,0.24,0.87,0.44,2.08,-3.78,-1.77,303,460,420,467,427,9
1847,0.27,0.89,0.43,2.01,-7.45,2.99,302,459,425,464,432,9
1848,0.24,0.86,0.46,-2.38,-4.58,-3.48,302,458,421,471,429,9
1849,0.25,0.85,0.46,-0.55,-2.08,-4.33,305,459,419,461,431,9
1850,0.26,0.82,0.45,3.54,-4.94,-2.62,304,457,421,463,431,9
1851,0.24,0.83,0.48,-1.77,-3.3,-2.26,303,456,424,462,432,9
1852,0.26,0.84,0.49,-5.68,-3.66,-2.26,303,459,425,472,435,9
1853,0.25,0.82,0.47,1.4,-3.36,-2.56,305,456,426,474,432,9
1854,0.28,0.84,0.49,4.76,-3.17,-0.55,307,460,424,475,428,9
1855,0.25,0.85,0.5,-2.75,0.12,-4.7,307,457,424,475,432,9
1856,0.23,0.83,0.52,-1.95,-4.03,-0.67,307,461,422,482,434,9
1857,0.25,0.81,0.51,4.52,-6.04,-3.11,308,462,420,472,433,9
1858,0.24,0.81,0.56,-6.16,-0.55,-5.43,307,461,422,477,433,9
1859,0.26,0.82,0.49,15.5,-6.77,-2.93,309,458,424,477,430,9
1860,0.28,0.83,0.49,-1.4,-6.59,-0.12,306,463,425,477,432,9
1861,0.24,0.84,0.54,-5.98,-0.43,-3.66,306,466,426,477,430,9
1862,0.23,0.83,0.51,8.61,-0.67,-2.38,302,457,426,474,431,9
1863,0.25,0.82,0.52,-4.58,-4.09,-2.38,308,462,426,483,430,9
1864,0.27,0.84,0.47,-3.91,-2.01,-2.44,307,462,424,468,430,9
1865,0.25,0.85,0.5,2.26,-2.93,-2.99,306,461,424,478,431,9
1866,0.26,0.83,0.48,0.0,-3.54,-2.75,304,461,424,476,432,9
1867,0.27,0.85,0.46,11.47,-3.11,-5.86,308,463,423,469,433,9
1868,0.27,0.82,0.51,2.81,-3.78,-2.56,310,465,428,479,429,9
1869,0.26,0.87,0.5,3.05,-3.3,-1.65,319,464,425,478,434,9
1870,0.25,0.82,0.45,-0.92,-1.34,-1.53,330,462,425,474,430,9
1871,0.26,0.81,0.45,-1.34,-3.17,-1.59,312,465,424,476,432,9
1872,0.25,0.9,0.52,-5.19,-2.2,-3.42,309,463,426,473,429,9
1873,0.25,0.75,0.48,5.43,-3.23,-5.92,300,463,426,474,432,9
1874,0.25,0.79,0.48,1.4,-4.7,-1.71,307,459,424,475,433,9
1875,0.27,0.85,0.5,1.83,-4.58,-1.65,309,461,425,479,431,9
1876,0.2,0.85,0.51,8.36,-2.5,2.87,308,467,425,471,430,9
1877,0.25,0.91,0.48,0.85,-13.37,3.54,305,465,428,472,432,9
1878,0.27,0.86,0.48,1.77,-7.51,-0.73,308,465,425,473,431,9
1879,0.2,0.84,0.48,-6.59,3.66,5.43,306,461,425,473,431,9
1880,0.24,0.85,0.47,0.79,-3.42,-0.43,307,461,422,473,430,9
1881,0.23,0.86,0.51,0.67,1.04,-1.83,308,465,423,474,430,9
1882,0.28,0.84,0.47,6.35,-3.85,-5.13,308,462,423,475,427,9
1883,0.26,0.88,0.5,-1.53,-3.91,-3.42,307,469,429,476,432,9
1884,0.24,0.76,0.52,-3.78,-5.31,1.83,307,464,423,473,432,9
1885,0.25,0.81,0.5,-7.14,-3.91,-4.58,309,464,434,468,432,9
1886,0.24,0.82,0.54,-2.08,-2.93,-1.77,310,464,430,476,431,9
1887,0.3,0.86,0.49,11.96,-10.38,-3.17,316,465,421,472,426,9
1888,0.27,0.8,0.5,5.86,-3.36,-3.23,310,462,425,477,430,9
1889,0.38,0.79,0.47,8.79,-8.85,10.19,309,459,422,475,426,9
1890,0.09,0.88,0.67,-12.94,-12.33,-5.92,309,459,423,474,431,9
1891,0.35,0.89,0.52,-18.31,-21.97,-39.18,310,460,423,475,429,9
1892,0.21,0.78,0.38,0.49,-29.72,-37.41,309,462,420,473,431,9
1893,0.27,0.81,0.43,-2.56,6.04,2.69,312,460,420,464,429,9
1894,0.28,0.88,0.46,-10.44,11.05,-22.46,311,460,419,461,426,9
1895,0.2,0.87,0.48,17.09,-5.86,1.16,315,464,423,465,434,9
1896,0.2,0.82,0.45,-2.44,-4.46,2.08,314,461,423,471,431,9
1897,0.22,0.83,0.52,-22.77,1.77,4.58,318,464,417,471,431,9
1898,0.11,0.87,0.56,21.3,4.15,11.29,312,464,418,478,430,9
1899,0.27,0.87,0.49,2.87,12.39,14.28,310,463,424,481,433,9
1900,0.16,0.82,0.56,-6.53,9.46,-5.43,321,460,423,445,429,9
1901,0.31,0.94,0.43,16.66,0.18,-2.87,298,459,420,444,430,9
1902,0.17,0.83,0.48,2.32,-1.71,-4.94,301,456,422,445,427,9
1903,0.05,0.94,0.39,-43.88,33.51,18.43,300,458,424,454,430,9
1904,0.24,0.59,0.93,43.09,-45.65,18.86,317,461,426,461,430,9
1905,0.21,0.73,0.59,-7.32,-20.69,-32.23,302,458,424,457,432,9
1906,0.25,0.84,0.62,0.18,-19.78,-12.88,306,459,422,454,427,9
1907,0.28,0.76,0.6,-2.75,-5.92,-3.11,303,460,424,459,431,9
1908,0.22,0.75,0.61,-0.85,-2.93,0.12,307,460,426,459,429,9
1909,0.21,0.77,0.63,-1.95,-1.59,-3.05,305,463,427,459,429,9
1910,0.21,0.75,0.61,2.01,0.49,-2.2,308,458,425,458,429,9
1911,0.2,0.77,0.62,-0.55,-2.08,-3.54,305,460,426,458,428,9
1912,0.21,0.78,0.62,9.58,-3.72,-2.62,308,462,424,458,430,9
1913,0.2,0.77,0.62,-7.69,-1.04,-0.43,301,456,425,458,425,9
1914,0.2,0.76,0.6,3.36,-2.44,-5.07,301,456,420,454,431,9
1915,0.21,0.77,0.65,-6.47,-5.19,-0.85,302,462,424,458,430,9
1916,0.21,0.78,0.62,8.0,2.81,-13.06,304,459,425,463,430,9
1917,0.19,0.78,0.61,1.22,-1.16,-3.05,307,458,424,464,431,9
1918,0.2,0.78,0.61,3.23,-3.85,-2.01,306,454,427,452,426,9
1919,0.18,0.76,0.62,-1.4,-2.69,-3.05,305,459,423,458,429,9
1920,0.2,0.76,0.62,-0.18,-5.19,-4.09,306,455,424,457,428,9
1921,0.2,0.76,0.63,-4.76,-4.46,-0.61,307,461,422,457,427,9
1922,0.16,0.76,0.64,-8.3,-1.34,-4.09,308,454,423,457,431,9
1923,0.21,0.76,0.63,3.3,-2.56,5.98,307,456,423,457,430,9
1924,0.2,0.75,0.64,0.0,-3.17,-2.26,308,461,423,463,429,9
1925,0.19,0.75,0.66,-2.81,-2.2,-1.34,310,461,424,462,425,9
1926,0.23,0.75,0.62,5.62,-4.15,-4.27,307,457,423,459,429,9
1927,0.2,0.75,0.63,1.59,-2.08,-2.38,311,467,424,459,429,9
1928,0.22,0.77,0.63,2.2,-3.17,-1.83,308,460,428,463,430,9
1929,0.23,0.76,0.63,5.25,-5.0,-0.12,340,459,428,470,432,9
1930,0.39,0.68,0.61,-1.04,19.96,0.85,310,461,425,469,428,9
1931,0.25,0.72,0.6,-6.35,-10.99,10.74,308,459,425,470,438,9
1932,0.29,0.72,0.62,5.19,-9.34,-4.64,279,463,418,476,421,9
1933,0.38,0.83,0.56,18.13,-29.3,-15.01,274,461,418,460,395,9
1934,0.3,0.82,0.32,3.42,-0.43,-33.81,284,458,418,447,404,9
1935,0.3,0.91,0.32,1.04,-8.18,-8.36,287,453,416,452,409,9
1936,0.31,0.92,0.39,5.49,-12.39,-5.19,284,456,417,452,405,9
1937,0.29,0.84,0.43,10.99,-2.93,-6.29,286,457,419,457,403,9
1938,0.23,0.87,0.35,-10.25,-1.53,1.95,289,451,420,452,402,9
1939,0.28,0.86,0.37,-3.17,-0.98,0.67,291,452,419,452,404,9
1940,0.3,1.0,0.28,-6.53,-3.48,-12.39,290,456,417,448,403,9
1941,0.3,0.96,0.38,-8.97,-2.81,-5.37,287,451,415,448,406,9
1942,0.4,0.9,0.29,6.77,-5.92,-2.01,293,445,417,440,415,9
1943,0.39,0.99,0.28,-59.94,34.67,-51.39,295,443,418,445,421,9
1944,0.1,0.94,0.56,10.93,0.43,12.82,294,443,415,450,419,9
1945,0.15,0.92,0.54,-34.85,0.73,11.23,294,441,421,453,420,9
1946,0.05,0.79,0.62,11.23,-8.91,-9.46,304,437,421,464,427,9
1947,0.28,0.67,0.6,6.29,-4.33,11.05,302,445,425,464,427,9
1948,0.2,0.89,0.51,16.17,10.62,0.55,301,449,420,459,429,9
1949,0.09,0.75,0.69,-6.47,10.99,12.7,305,450,425,460,430,9
1950,0.21,0.73,0.61,-5.43,-14.89,-5.98,307,448,420,469,428,9
1951,0.24,0.88,0.61,21.91,-18.74,2.81,304,459,417,467,429,9
1952,0.3,0.67,0.54,-12.08,-14.34,15.08,305,457,417,462,431,9
1953,0.29,0.65,0.59,-44.01,-8.61,-15.75,296,456,417,468,427,9
1954,0.2,0.55,0.68,-65.67,-8.36,-23.74,270,456,415,466,408,9
1955,0.49,1.06,0.55,56.58,16.85,-48.77,262,454,416,452,401,9
1956,0.46,1.21,0.0,2.62,15.01,-26.67,289,451,418,454,422,9
1957,0.01,1.06,0.6,51.82,-8.36,-28.5,295,459,420,455,425,9
1958,0.16,0.89,0.39,-1.46,5.37,26.73,296,454,420,459,427,9
1959,0.15,0.66,0.67,-35.4,-18.01,27.77,295,453,417,453,425,9
1960,0.6,0.51,0.82,-23.99,8.97,-3.78,297,454,418,455,426,9
1961,0.25,0.53,0.82,23.44,13.79,-1.04,294,452,415,452,424,9
1962,-0.29,0.96,0.95,59.45,18.37,29.54,298,450,413,457,422,9
1963,0.41,0.84,0.75,-11.11,-13.0,-39.37,299,457,420,458,414,9
1964,0.21,0.62,0.88,-72.63,3.66,-35.16,303,457,416,466,417,9
1965,0.25,0.74,0.9,86.49,14.28,1.71,302,451,417,466,417,9
1966,0.37,0.54,0.68,31.56,-8.67,4.33,303,449,416,463,420,9
1967,0.25,0.68,0.74,-0.49,10.99,-10.99,304,449,413,460,421,9
1968,0.27,0.68,0.73,-0.79,-6.41,9.95,309,455,413,464,424,9
1969,0.3,0.65,0.68,27.65,-7.51,5.8,310,453,415,469,420,9
1970,0.25,0.69,0.63,8.18,-4.64,-0.85,311,458,415,472,425,9
1971,0.24,0.73,0.68,0.49,-3.05,-3.54,307,458,418,468,424,9
1972,0.21,0.69,0.7,-7.08,0.67,-13.49,309,457,415,471,422,9
1973,0.16,0.73,0.77,23.32,-18.55,4.88,307,456,418,470,420,9
1974,0.28,0.71,0.46,-5.62,-5.31,2.14,309,454,419,471,420,9
1975,0.27,0.76,0.67,3.42,-6.1,1.04,306,456,414,470,421,9
1976,0.27,0.76,0.58,7.39,-3.3,-7.02,301,455,418,467,420,9
1977,0.24,0.77,0.59,1.71,2.81,-16.6,303,458,417,468,412,9
1978,0.22,0.81,0.6,-1.04,-2.26,5.37,308,456,421,470,420,9
1979,0.2,0.77,0.57,14.34,1.83,-14.71,305,451,420,466,420,9
1980,0.2,0.84,0.54,1.34,-0.61,1.1,304,458,422,469,425,9
1981,0.14,0.86,0.51,4.46,-1.53,-8.0,309,454,417,471,425,9
1982,0.15,0.84,0.52,0.06,-1.1,-3.36,304,457,419,469,423,9
1983,0.19,0.87,0.5,10.25,-3.05,-0.61,298,457,418,465,421,9
1984,0.18,0.85,0.5,-1.46,2.69,-0.31,301,450,416,465,424,9
1985,0.18,0.8,0.56,-3.91,-4.09,-0.06,305,441,418,470,421,9
1986,0.19,0.83,0.55,-1.71,-4.64,1.83,306,451,421,475,420,9
1987,0.21,0.84,0.54,1.65,-0.31,0.31,306,451,422,472,422,9
1988,0.22,0.81,0.55,-1.71,-3.48,0.24,308,451,422,478,418,9
1989,0.26,0.78,0.56,-2.14,-0.43,8.67,310,455,420,476,419,9
1990,0.29,0.79,0.57,-1.89,-8.61,-6.53,304,449,422,475,423,9
1991,0.23,0.81,0.58,2.56,-3.54,-1.1,305,453,421,475,420,9
1992,0.24,0.81,0.55,-6.23,-4.33,0.79,303,454,420,487,422,9
1993,0.24,0.81,0.55,0.18,1.53,-8.79,304,455,418,479,423,9
1994,0.24,0.81,0.54,12.51,2.01,-6.47,307,458,419,477,421,9
1995,0.23,0.83,0.56,-5.07,-7.08,-3.36,304,452,422,470,421,9
1996,0.22,0.77,0.58,-1.83,-4.94,-2.81,308,454,425,475,424,9
1997,0.23,0.79,0.57,3.54,-1.77,-5.55,304,456,420,479,418,9
1998,0.22,0.79,0.58,-2.87,-2.44,-0.61,333,455,420,474,422,9
1999,0.2,0.78,0.58,1.04,-3.3,-1.77,307,456,424,473,421,9
2000,0.22,0.79,0.57,2.01,-3.05,-2.01,301,457,424,473,419,9
2001,0.22,0.8,0.58,-0.55,-1.53,-0.55,302,457,420,473,421,9
2002,0.22,0.81,0.57,-0.98,-3.36,-0.55,300,465,418,474,419,9
2003,0.2,0.8,0.59,-2.14,-1.34,-1.59,296,456,419,473,419,9
2004,0.19,0.78,0.58,8.0,-1.53,-5.0,302,460,420,474,419,9
2005,0.23,0.79,0.58,-5.0,-3.91,0.37,304,457,420,476,421,9
2006,0.22,0.8,0.59,-2.5,-4.09,-2.32,304,455,419,475,420,9
2007,0.28,0.71,0.68,-27.04,12.82,6.65,306,453,421,467,420,9
2008,0.14,0.63,0.66,11.9,7.08,12.33,305,452,419,477,420,9
2009,0.25,0.68,0.73,-9.22,-5.62,-9.52,301,452,421,470,416,9
2010,0.2,0.74,0.68,0.12,2.26,-8.06,303,455,417,468,421,9
2011,0.14,0.79,0.62,7.2,3.3,-7.81,303,472,420,472,423,9
2012,0.25,0.78,0.64,12.45,-7.51,-8.79,304,454,417,469,421,9
2013,0.19,0.79,0.61,6.71,-4.46,-2.62,302,458,420,475,420,9
2014,0.18,0.79,0.61,-6.47,-3.66,0.85,304,459,420,470,422,9
2015,0.25,0.68,0.61,-6.65,-8.61,-0.61,307,453,421,468,421,9
2016,0.14,0.77,0.68,-3.85,7.02,-2.75,305,456,415,469,419,9
2017,0.2,0.76,0.68,-1.04,-1.22,-2.32,306,456,416,470,421,9
2018,0.22,0.73,0.67,0.79,-4.52,-2.14,310,453,417,472,420,9
2019,0.11,0.7,0.75,-40.41,-12.08,-19.47,314,452,415,474,416,9
2020,0.11,0.6,0.76,-15.08,3.11,-15.93,309,456,417,471,422,9
2021,0.12,0.67,0.72,20.75,0.31,-6.65,314,453,418,471,422,9
2022,0.24,0.65,0.69,8.61,-5.68,7.57,309,450,418,466,415,9
2023,0.25,0.75,0.6,67.02,-79.1,89.23,311,454,421,472,419,9
2024,0.26,0.86,0.6,0.43,12.82,-13.37,313,459,420,477,417,9
2025,0.3,0.8,0.54,0.18,-3.05,0.55,311,459,418,474,421,9
2026,0.24,0.86,0.54,-3.48,-0.73,6.23,303,450,422,474,423,9
2027,0.28,0.8,0.57,1.1,-6.04,3.17,315,454,431,484,421,9
2028,0.29,0.79,0.55,-1.34,-3.17,-5.13,307,452,426,481,419,9
2029,0.28,0.8,0.53,5.13,-2.38,-0.98,314,455,425,480,424,9
2030,0.27,0.81,0.5,5.37,5.07,-13.37,313,455,423,474,426,9
2031,0.3,0.8,0.47,7.32,-0.55,-1.46,317,460,421,483,424,9
2032,0.32,0.87,0.47,-3.85,-1.53,-3.05,312,459,422,475,424,9
2033,0.29,0.84,0.49,-0.79,-2.93,-3.23,310,455,418,479,430,9
2034,0.29,0.82,0.51,-5.31,-0.67,-4.09,313,460,421,475,424,9
2035,0.28,0.84,0.49,0.61,-1.16,-4.64,314,462,422,477,426,9
2036,0.27,0.82,0.51,-5.43,-2.2,0.49,309,454,418,481,424,9
2037,0.28,0.82,0.53,-1.22,-2.32,2.26,315,456,420,472,429,9
2038,0.26,0.78,0.49,0.37,-6.84,0.0,315,458,423,480,429,9
2039,0.26,0.81,0.49,3.78,1.04,-1.59,310,456,422,481,427,9
2040,0.25,0.84,0.49,-4.64,-2.56,-3.97,314,454,422,483,427,9
2041,0.28,0.82,0.48,3.6,-0.49,-3.66,316,455,426,479,427,9
2042,0.27,0.88,0.41,21.55,-1.16,-8.73,317,466,422,486,426,9
2043,0.29,0.86,0.42,-1.04,0.0,-5.07,316,459,422,484,422,9
2044,0.31,0.87,0.39,-2.5,-3.6,-3.17,316,464,423,479,427,9
2045,0.3,0.88,0.4,-9.64,-7.39,-2.56,308,455,426,486,427,9
2046,0.29,0.86,0.42,2.14,-3.85,-1.4,308,459,424,479,428,9
2047,0.26,0.9,0.44,-7.08,-2.56,-4.76,310,462,422,475,430,9
2048,0.29,0.89,0.47,-9.83,-4.52,-0.31,314,463,428,474,428,9
