,aX,aY,aZ,gX,gY,gZ,little,ring,middle,index,thumb,number
0,-0.23,0.52,0.68,-82.09,-5.74,28.87,229,332,388,276,366,10
1,0.46,0.24,1.28,81.12,-36.13,-19.59,223,317,387,256,359,10
2,0.19,0.83,0.64,45.1,6.77,-24.05,203,307,396,254,385,10
3,0.27,0.83,0.56,2.26,-7.57,1.04,203,301,396,261,384,10
4,0.39,0.98,0.47,-5.25,2.5,-15.69,201,301,395,257,383,10
5,0.36,0.83,0.44,2.01,-1.89,2.99,197,302,398,258,382,10
6,0.33,0.81,0.47,-6.29,7.45,-12.21,198,298,396,258,384,10
7,0.25,0.86,0.54,5.37,-0.12,-4.46,198,282,392,256,380,10
8,0.26,0.83,0.5,0.61,11.29,-18.31,201,284,398,251,383,10
9,0.3,0.85,0.46,-2.87,-7.69,6.04,197,287,393,258,383,10
10,0.33,0.82,0.48,-3.72,3.3,-3.91,197,289,396,251,387,10
11,0.3,0.86,0.5,1.34,-1.22,-3.6,198,291,394,255,382,10
12,0.31,0.8,0.48,-0.43,-5.55,-1.83,198,290,393,258,384,10
13,0.28,0.82,0.52,-3.23,-7.39,6.84,197,290,393,258,388,10
14,0.33,0.74,0.47,-1.46,-8.3,-4.39,202,287,390,261,387,10
15,0.09,0.69,0.65,-49.68,38.45,-25.27,202,291,389,258,379,10
16,0.37,0.81,0.6,15.93,-3.6,-24.66,206,295,388,255,383,10
17,0.25,0.82,0.76,-2.93,-47.0,9.95,208,296,392,265,380,10
18,0.25,0.8,0.67,24.72,18.19,-31.01,205,296,394,264,377,10
19,0.26,0.72,0.57,21.79,-15.75,20.63,205,297,392,268,370,10
20,0.32,0.74,0.53,12.39,-6.71,-1.22,206,297,397,264,378,10
21,0.28,0.74,0.58,-1.16,-17.09,7.08,206,298,392,268,380,10
22,0.36,0.76,0.58,3.3,-1.04,3.78,206,299,392,264,377,10
23,0.33,0.75,0.58,-2.2,-5.31,-4.7,206,300,392,266,377,10
24,0.34,0.75,0.57,1.16,-0.85,-3.05,207,299,389,264,382,10
25,0.32,0.75,0.57,-0.43,-7.45,-2.32,209,304,390,263,380,10
26,0.29,0.64,0.52,-2.69,-0.67,-8.54,205,305,391,267,380,10
27,0.44,0.68,0.48,7.63,-11.35,5.74,207,303,393,267,381,10
28,0.34,0.67,0.58,10.5,-27.22,30.15,209,300,387,266,378,10
29,0.5,0.83,0.41,5.31,-11.47,0.61,209,303,390,266,381,10
30,0.5,0.74,0.5,5.43,-10.93,1.65,207,301,390,265,386,10
31,0.41,0.76,0.48,-0.37,-1.59,-1.89,206,303,390,264,384,10
32,0.37,0.76,0.54,0.37,-6.16,-0.24,207,301,390,270,385,10
33,0.44,0.73,0.49,-7.08,1.83,-13.55,210,301,392,270,380,10
34,0.38,0.72,0.51,1.46,-3.66,4.03,207,304,387,268,378,10
35,0.42,0.75,0.53,-0.18,-0.98,-7.2,209,300,391,264,383,10
36,0.42,0.76,0.52,1.77,-1.16,-4.09,221,303,390,269,378,10
37,0.39,0.75,0.5,5.74,-3.23,-1.77,208,300,389,264,383,10
38,0.37,0.81,0.54,3.85,-0.61,-9.09,212,304,392,264,388,10
39,0.41,0.79,0.49,-13.55,33.08,-38.45,206,302,389,266,399,10
40,0.29,0.81,0.54,2.14,-5.8,-0.24,208,305,387,267,404,10
41,0.3,0.79,0.59,-11.17,1.89,-0.67,209,305,390,271,408,10
42,0.28,0.68,0.62,-5.19,-9.46,0.49,205,306,392,267,402,10
43,0.14,0.54,0.54,12.33,-26.98,10.38,209,304,391,268,405,10
44,0.33,0.73,0.64,7.75,-18.49,13.18,207,301,394,269,405,10
45,0.39,0.73,0.58,1.71,-8.85,7.51,211,301,393,269,404,10
46,0.28,0.75,0.64,-5.07,13.98,-20.87,211,303,393,268,403,10
47,0.18,0.74,0.69,5.68,-16.24,4.39,209,305,393,267,401,10
48,0.36,0.74,0.63,3.48,-5.49,1.28,210,303,389,274,402,10
49,0.34,0.73,0.61,-0.67,10.62,-7.32,210,307,394,271,403,10
50,0.3,0.76,0.59,0.37,-9.89,-8.0,212,305,391,272,402,10
51,0.34,0.71,0.56,3.78,-9.7,4.09,212,305,391,269,405,10
52,0.21,0.81,0.67,-3.3,5.8,-8.91,209,301,390,266,405,10
53,0.33,0.77,0.57,-2.26,-4.82,2.87,214,307,389,267,406,10
54,0.31,0.77,0.61,-0.43,2.93,-4.7,214,308,391,276,404,10
55,0.3,0.75,0.56,1.59,-2.62,-11.05,228,307,386,275,398,10
56,0.27,0.76,0.59,-1.04,-3.23,-2.93,215,307,389,274,403,10
57,0.3,0.78,0.59,-1.1,-1.65,-6.29,214,308,388,276,399,10
58,0.28,0.74,0.58,2.38,-5.19,-1.89,213,307,389,272,398,10
59,0.28,0.77,0.59,-0.24,-2.2,-3.66,212,309,393,269,397,10
60,0.28,0.76,0.58,0.55,-5.25,-1.22,216,308,390,272,397,10
61,0.29,0.78,0.58,0.85,-3.11,-1.89,213,307,387,274,397,10
62,0.28,0.78,0.58,-0.06,-5.49,0.12,213,310,386,275,397,10
63,0.31,0.79,0.55,1.1,-6.59,-3.17,213,306,389,270,401,10
64,0.28,0.76,0.57,0.12,-4.52,-2.44,214,312,391,282,401,10
65,0.29,0.78,0.57,2.62,-4.09,-1.89,215,311,393,285,397,10
66,0.29,0.77,0.57,-1.1,-2.93,-1.46,215,307,392,280,397,10
67,0.3,0.73,0.58,-0.12,-4.03,-2.08,212,308,390,281,400,10
68,0.26,0.75,0.59,0.43,0.24,-5.31,215,327,393,286,401,10
69,0.3,0.72,0.52,-2.93,-11.66,-7.32,213,310,386,287,397,10
70,0.32,0.79,0.57,-1.4,0.55,-3.97,211,309,387,286,395,10
71,0.36,0.78,0.56,2.69,-10.01,9.7,211,309,387,286,395,10
72,0.29,0.75,0.58,21.67,-23.62,34.79,212,312,389,293,393,10
73,0.4,0.71,0.51,-23.01,45.23,-49.19,215,312,386,289,393,10
74,0.48,0.72,0.54,5.8,-19.1,10.31,210,313,391,293,397,10
75,0.4,0.73,0.56,2.87,-4.15,0.85,215,312,392,287,391,10
76,0.37,0.75,0.57,0.24,-2.38,-4.7,214,315,393,286,395,10
77,0.37,0.74,0.57,-0.85,-3.91,-2.81,215,314,394,293,391,10
78,0.36,0.7,0.56,-3.05,-4.82,-1.22,213,311,392,290,389,10
79,0.38,0.76,0.55,-5.98,-2.56,-10.8,216,313,390,292,389,10
80,0.4,0.73,0.58,2.93,-0.85,-0.37,213,314,392,294,390,10
81,0.36,0.74,0.57,0.73,1.1,-2.32,216,315,392,294,387,10
82,0.34,0.75,0.59,1.1,-2.93,-4.09,212,311,391,295,388,10
83,0.37,0.74,0.56,-0.92,-4.94,-5.98,221,319,389,293,384,10
84,0.36,0.76,0.58,1.71,-1.4,-6.47,216,314,393,289,385,10
85,0.36,0.75,0.57,0.24,-3.6,-3.05,216,313,392,291,383,10
86,0.35,0.75,0.57,0.92,-2.99,-2.75,213,310,401,285,384,10
87,0.34,0.75,0.57,-0.06,-5.19,-1.59,216,311,390,294,383,10
88,0.33,0.75,0.57,-0.73,-4.33,-4.7,215,312,389,290,384,10
89,0.36,0.75,0.55,-0.79,-2.01,-2.93,214,314,391,294,384,10
90,0.34,0.75,0.55,2.62,0.67,-0.79,217,312,391,295,384,10
91,0.32,0.77,0.58,-0.12,-4.39,-6.23,224,314,388,292,383,10
92,0.32,0.76,0.57,1.71,-8.61,-1.77,218,314,391,291,383,10
93,0.38,0.77,0.52,0.31,8.36,1.1,214,312,390,292,386,10
94,0.28,0.79,0.58,-2.38,-8.18,-8.42,214,312,390,296,385,10
95,0.36,0.78,0.56,-3.42,-4.15,-5.25,217,311,392,291,385,10
96,0.3,0.75,0.54,-3.6,-6.35,-6.53,216,312,389,294,384,10
97,0.28,0.77,0.56,3.3,5.62,2.08,214,314,390,294,386,10
98,0.3,0.73,0.53,2.93,-6.59,5.92,218,311,389,293,387,10
99,0.27,0.77,0.58,0.0,1.89,-3.3,218,315,389,293,387,10
100,0.27,0.78,0.59,0.18,-6.16,0.73,217,316,395,297,388,10
101,0.29,0.77,0.58,-1.71,-6.96,-4.39,221,312,388,294,387,10
102,0.34,0.77,0.56,-1.04,-4.39,-3.23,215,310,388,293,383,10
103,0.25,0.75,0.6,1.53,4.15,-5.74,218,316,389,295,388,10
104,0.27,0.76,0.59,2.81,-5.55,-6.1,220,314,389,291,388,10
105,0.3,0.76,0.59,-1.04,-5.13,-2.99,218,321,388,297,382,10
106,0.29,0.76,0.58,-0.18,-3.48,-1.1,217,313,388,300,388,10
107,0.28,0.78,0.58,-0.18,-1.89,-2.01,217,315,394,292,388,10
108,0.29,0.76,0.58,-1.1,-2.75,-2.56,219,315,389,297,386,10
109,0.29,0.76,0.6,0.12,-3.05,-3.48,217,314,403,300,387,10
110,0.27,0.77,0.58,2.2,-2.75,-2.44,218,317,387,300,383,10
111,0.28,0.76,0.57,0.31,-5.62,-1.1,217,316,389,299,388,10
112,0.3,0.76,0.58,0.55,-4.09,-1.89,221,314,392,296,389,10
113,0.3,0.76,0.61,4.21,-0.24,-5.49,219,316,388,300,387,10
114,0.24,0.71,0.56,2.2,-6.16,0.18,221,322,388,294,391,10
115,0.31,0.8,0.61,0.49,-3.72,-4.03,219,317,387,292,389,10
116,0.29,0.75,0.59,0.18,-1.89,-1.22,220,317,388,297,392,10
117,0.3,0.77,0.61,0.31,-0.67,-4.82,221,317,391,296,392,10
118,0.28,0.77,0.59,-0.61,-2.87,-1.83,242,321,390,299,386,10
119,0.29,0.74,0.59,0.43,-3.91,-2.5,216,316,390,293,386,10
120,0.37,0.74,0.53,5.8,-15.69,-1.59,219,316,390,300,387,10
121,0.33,0.76,0.59,-1.89,-1.1,-4.82,218,318,391,298,389,10
122,0.28,0.76,0.6,0.24,-0.61,-3.11,217,316,391,293,382,10
123,0.29,0.76,0.59,-0.24,-5.25,-1.77,223,316,389,292,383,10
124,0.28,0.75,0.58,3.97,-7.81,0.31,219,317,391,295,381,10
125,0.29,0.73,0.63,2.75,-1.4,9.7,218,316,390,293,384,10
126,0.29,0.67,0.51,-21.73,23.32,-32.04,222,316,391,296,386,10
127,0.35,0.92,0.63,2.08,-6.59,-1.95,222,320,394,301,380,10
128,0.25,0.76,0.6,-2.75,2.44,-1.46,227,317,393,298,384,10
129,0.24,0.72,0.6,-3.66,-5.0,-9.95,220,320,391,300,384,10
130,0.24,0.75,0.63,0.98,-1.83,-2.99,218,321,393,297,386,10
131,0.24,0.76,0.63,-0.06,-2.87,-3.05,216,317,400,303,379,10
132,0.23,0.74,0.62,0.61,-2.69,-3.66,221,318,392,300,382,10
133,0.22,0.77,0.61,-11.29,0.43,-4.21,237,319,393,294,383,10
134,0.2,0.77,0.51,-2.99,-16.6,-8.48,217,321,393,295,384,10
135,0.25,0.62,0.56,-8.3,-12.02,6.04,221,317,392,297,385,10
136,0.17,0.87,0.68,-7.08,-12.33,10.62,222,317,396,300,379,10
137,0.23,0.7,0.58,-1.65,3.42,2.38,221,320,393,296,381,10
138,0.33,0.81,0.68,-1.04,2.14,13.18,222,319,390,299,382,10
139,0.27,0.44,0.39,15.44,-22.28,7.57,220,318,392,299,376,10
140,0.26,0.66,0.59,-5.74,3.97,5.43,220,322,392,299,379,10
141,0.26,0.75,0.69,-18.8,32.65,-38.09,223,317,393,306,383,10
142,0.31,0.81,0.65,37.96,-38.27,7.75,220,319,392,304,380,10
143,0.29,0.74,0.53,-7.93,5.74,-12.94,219,320,403,297,374,10
144,0.25,0.85,0.6,-5.92,1.46,-4.39,241,321,391,297,376,10
145,0.34,0.74,0.5,-6.41,-10.31,-14.22,221,318,394,304,377,10
146,0.31,0.76,0.56,-1.34,-15.69,12.45,220,319,394,308,373,10
147,0.34,0.67,0.6,-6.77,5.86,-12.45,222,318,395,307,375,10
148,0.34,0.85,0.66,-14.34,8.79,9.58,220,321,397,307,376,10
149,0.48,0.67,0.59,-0.79,-14.16,-30.03,219,319,393,307,376,10
150,0.38,0.76,0.62,-2.44,2.99,0.79,220,321,395,304,377,10
151,0.36,0.75,0.57,7.14,5.25,-10.44,220,321,394,308,377,10
152,0.36,0.79,0.54,-11.54,17.33,-26.79,223,322,391,302,376,10
153,0.4,0.85,0.64,-1.16,-2.87,-17.46,226,322,391,307,373,10
154,0.36,0.81,0.58,0.92,-3.54,6.47,222,320,393,302,376,10
155,0.33,0.72,0.53,3.23,6.35,2.26,224,323,394,302,376,10
156,0.26,0.69,0.51,53.41,-28.99,-4.94,223,322,392,305,378,10
157,0.34,0.77,0.5,-4.03,1.04,-5.31,228,323,395,304,375,10
158,0.27,0.76,0.52,-3.17,-3.54,-8.48,223,322,394,305,380,10
159,0.32,0.8,0.56,0.24,-0.73,1.4,223,317,396,301,378,10
160,0.16,0.84,0.6,-11.54,-3.36,-12.82,226,320,394,306,381,10
161,0.39,0.87,0.64,10.19,-5.98,-2.32,222,320,394,304,379,10
162,0.38,0.67,0.41,31.56,-14.16,8.67,225,319,394,303,378,10
163,0.25,0.79,0.56,-7.63,3.91,-4.76,224,322,398,305,378,10
164,0.3,0.74,0.53,10.31,-17.88,10.93,221,317,394,300,381,10
165,0.3,0.79,0.53,8.0,0.92,-11.47,222,319,398,293,383,10
166,0.31,0.82,0.54,-4.27,-3.05,-2.01,220,317,397,298,396,10
167,0.31,0.78,0.54,0.18,1.22,-3.11,220,313,394,296,401,10
168,0.28,0.8,0.55,-0.37,-1.89,-4.88,227,315,397,298,400,10
169,0.29,0.78,0.52,-3.36,-5.37,-1.95,220,316,395,297,393,10
170,0.22,0.75,0.58,-3.78,-3.6,1.83,217,300,395,296,398,10
171,0.29,0.82,0.57,0.79,-7.26,-5.49,211,295,392,295,391,10
172,0.23,0.78,0.58,-0.55,-1.34,-3.11,218,299,392,295,386,10
173,0.23,0.77,0.56,0.98,-4.27,-4.21,212,297,392,297,391,10
174,0.21,0.81,0.6,-2.99,1.83,2.01,214,295,395,293,391,10
175,0.25,0.77,0.59,-3.6,-1.1,-1.77,214,303,393,295,393,10
176,0.25,0.75,0.59,6.23,-12.76,5.25,214,302,393,297,392,10
177,0.26,0.74,0.57,0.43,0.49,1.16,241,303,393,300,394,10
178,0.25,0.79,0.61,-3.72,6.84,0.49,214,300,396,297,390,10
179,0.28,0.76,0.6,-0.73,-6.96,-5.07,215,303,396,301,388,10
180,0.25,0.76,0.61,-1.22,-1.22,-5.62,218,302,396,299,386,10
181,0.27,0.76,0.59,-0.18,-7.51,-3.72,215,310,394,297,385,10
182,0.3,0.76,0.58,-2.44,-3.23,-9.89,216,301,392,298,389,10
183,0.29,0.77,0.58,2.32,1.28,-4.21,217,302,395,300,386,10
184,0.2,0.74,0.63,-4.88,15.38,-13.0,217,302,395,299,386,10
185,0.2,0.79,0.61,-15.56,-5.98,-1.53,217,303,397,303,385,10
186,0.23,0.79,0.6,0.67,-5.86,-4.27,217,304,392,296,384,10
187,0.18,0.78,0.61,-11.47,-8.54,-7.32,219,307,394,304,387,10
188,0.35,0.74,0.47,1.65,6.77,1.22,218,303,394,303,386,10
189,0.25,0.87,0.6,42.18,28.99,15.87,219,307,395,299,386,10
190,0.19,0.95,0.4,12.94,43.4,17.03,219,304,391,299,386,10
191,0.3,0.85,0.46,-28.2,4.09,-12.94,219,305,398,304,385,10
192,0.17,0.74,0.48,5.49,-23.07,-8.73,214,303,401,299,388,10
193,0.25,0.91,0.4,-2.2,-16.48,3.17,218,306,397,302,386,10
194,0.1,0.89,0.41,0.61,4.82,-1.34,217,305,409,305,386,10
195,0.12,0.92,0.38,6.65,-10.19,2.87,217,304,401,305,388,10
196,0.13,0.93,0.43,-1.65,2.62,-0.12,208,304,401,306,388,10
197,0.05,0.89,0.44,0.43,1.34,-3.97,217,307,402,298,384,10
198,0.12,0.93,0.43,1.65,-2.81,-2.75,219,305,403,302,388,10
199,0.22,0.87,0.47,11.29,-0.18,-3.3,217,303,400,307,386,10
200,0.22,0.96,0.39,1.53,-5.86,0.92,217,307,398,302,393,10
201,0.16,0.88,0.41,0.06,-8.73,-5.0,219,305,402,305,389,10
202,0.16,0.9,0.4,2.08,-0.18,-3.6,218,308,403,304,393,10
203,0.28,0.93,0.35,21.42,-28.14,27.04,216,305,404,301,385,10
204,0.17,0.83,0.56,-12.27,13.61,-19.84,217,307,399,302,390,10
205,0.18,0.9,0.36,3.6,26.55,-13.85,218,306,409,302,393,10
206,-0.06,0.88,0.42,-27.53,-69.52,-31.92,219,308,402,307,387,10
207,0.17,0.88,0.41,4.52,-70.74,-6.71,218,304,400,302,392,10
208,0.21,0.83,0.48,-8.85,-4.82,4.15,218,305,401,300,392,10
209,0.3,0.82,0.6,-13.06,-5.43,-2.87,221,305,397,304,394,10
210,0.12,0.69,0.7,-29.24,-1.65,-1.4,217,303,401,302,395,10
211,0.52,0.82,0.71,-31.62,22.03,-42.36,218,307,400,302,391,10
212,0.14,0.75,0.67,-11.84,12.76,-25.09,218,306,402,303,391,10
213,0.45,0.71,0.68,3.11,41.02,-37.48,225,308,401,306,391,10
214,0.25,1.29,1.15,71.96,-78.86,81.79,219,310,397,299,393,10
215,0.27,0.8,0.77,-46.69,84.05,-69.95,219,310,402,303,389,10
216,0.22,0.52,0.74,-11.23,8.48,15.81,220,310,401,308,386,10
217,0.09,0.52,0.86,-3.48,7.93,-0.98,217,310,400,304,389,10
218,0.37,0.55,0.68,-7.57,8.91,-19.78,222,310,400,308,387,10
219,0.27,0.51,0.76,7.51,-14.71,15.14,221,308,402,306,386,10
220,0.33,0.55,0.68,-6.16,-7.26,7.69,220,304,402,303,383,10
221,0.26,0.59,0.75,0.49,-3.05,2.32,220,306,402,307,385,10
222,0.34,0.6,0.72,3.42,-4.52,0.55,221,306,398,297,376,10
223,0.29,0.64,0.77,-1.4,2.75,-11.11,234,305,394,299,378,10
224,0.28,0.62,0.75,24.54,-30.7,11.41,238,308,400,306,378,10
225,0.13,0.48,0.72,19.53,-27.71,11.41,222,308,397,303,375,10
226,0.32,0.55,0.66,23.13,-24.23,24.23,221,310,394,303,375,10
227,0.23,0.58,0.73,6.96,-9.28,3.85,228,313,394,300,372,10
228,0.28,0.61,0.69,1.1,-2.62,-0.18,223,310,394,300,381,10
229,0.25,0.61,0.71,2.5,-2.01,-4.09,221,310,393,309,378,10
230,0.26,0.65,0.72,1.34,-1.16,-2.56,224,317,393,308,379,10
231,0.28,0.7,0.75,-1.95,-1.89,-4.64,223,311,391,306,381,10
232,0.23,0.62,0.72,-4.03,-0.31,-3.11,224,311,394,303,386,10
233,0.27,0.64,0.67,-1.53,-4.88,1.4,225,314,392,298,379,10
234,0.25,0.64,0.71,3.11,-3.66,-1.53,224,313,394,306,377,10
235,0.23,0.79,0.78,12.39,-0.61,-6.53,221,325,393,309,383,10
236,0.26,0.71,0.72,10.8,-5.49,17.52,224,315,391,301,385,10
237,0.25,0.66,0.74,-15.93,-1.04,-5.74,224,313,387,306,381,10
238,0.34,0.65,0.68,-3.85,-3.17,-6.04,226,310,389,309,383,10
239,0.14,0.67,0.74,-18.19,14.28,-34.91,225,316,391,311,381,10
240,0.32,0.47,0.49,-11.05,-72.45,41.93,225,317,392,304,386,10
241,0.2,0.48,0.7,-35.58,52.86,-46.51,226,318,392,312,385,10
242,0.05,0.6,0.72,-0.12,-1.28,-4.64,224,318,395,303,387,10
243,0.05,0.65,0.77,-1.04,-4.94,0.37,224,320,396,309,388,10
244,0.03,0.7,0.79,-2.2,-11.05,8.79,225,317,395,311,386,10
245,0.11,0.59,0.71,-6.96,-4.33,-17.4,224,318,394,303,384,10
246,0.12,0.66,0.74,0.18,1.22,-0.06,227,320,397,308,388,10
247,0.09,0.62,0.73,-0.37,-0.73,-5.0,224,317,396,309,385,10
248,0.08,0.7,0.78,-1.83,-0.18,3.48,222,316,391,308,382,10
249,0.09,0.66,0.74,0.37,-4.09,-0.67,224,318,393,311,381,10
250,0.08,0.66,0.74,-0.49,-2.56,-4.09,243,317,392,312,380,10
251,0.06,0.68,0.77,-1.34,-2.81,-3.48,226,317,392,311,383,10
252,0.06,0.64,0.72,4.58,-5.19,0.61,225,317,393,313,383,10
253,0.08,0.67,0.79,-12.7,-1.53,3.85,226,320,400,309,383,10
254,0.24,0.61,0.7,5.68,-17.09,-0.12,223,316,397,307,379,10
255,0.19,0.48,0.66,22.22,-70.74,34.3,222,318,396,311,382,10
256,0.56,0.79,0.59,-3.97,7.2,-19.23,223,321,396,314,377,10
257,0.32,0.63,0.75,18.86,-3.66,17.88,231,316,400,310,376,10
258,0.29,0.66,0.79,-5.07,3.85,0.06,225,319,399,312,378,10
259,0.29,0.63,0.78,-3.72,-2.32,-4.09,224,325,396,309,382,10
260,0.28,0.6,0.71,-1.59,-5.62,0.24,225,317,397,313,376,10
261,0.27,0.65,0.69,-2.75,-5.0,-6.53,226,319,397,311,376,10
262,0.26,0.68,0.72,2.44,-5.8,1.34,222,319,395,315,378,10
263,0.29,0.68,0.72,1.46,-3.05,-5.25,227,317,397,315,376,10
264,0.29,0.73,0.72,0.24,-10.38,2.5,227,318,397,311,382,10
265,0.28,0.71,0.75,2.44,1.04,-1.04,251,317,396,311,382,10
266,0.3,0.71,0.75,-3.91,-1.22,-3.17,224,322,395,314,377,10
267,0.29,0.65,0.7,1.77,-11.9,-3.54,237,318,397,313,381,10
268,0.32,0.69,0.69,-2.56,-0.18,-8.91,225,320,396,316,385,10
269,0.38,0.72,0.68,0.55,-0.98,-8.48,223,317,399,316,381,10
270,0.32,0.67,0.67,0.73,-0.18,-2.99,224,318,397,314,381,10
271,0.27,0.7,0.66,-4.58,2.08,-0.37,228,317,394,311,384,10
272,0.26,0.66,0.66,0.12,-4.94,-3.3,227,320,396,316,381,10
273,0.25,0.69,0.69,-0.92,-5.86,-8.97,226,320,396,314,381,10
274,0.27,0.69,0.7,-0.61,-0.79,-3.11,224,315,397,316,379,10
275,0.2,0.68,0.72,3.85,-9.64,2.2,228,316,399,316,381,10
276,0.29,0.71,0.66,0.61,-2.87,-6.23,225,321,396,312,382,10
277,0.27,0.69,0.69,0.92,-3.05,-4.82,223,313,396,313,382,10
278,0.27,0.79,0.73,0.79,-10.99,1.89,222,314,397,313,376,10
279,0.21,0.58,0.66,-9.22,13.43,-4.46,227,317,399,312,378,10
280,0.12,0.88,0.86,2.99,-16.11,38.76,227,323,396,320,378,10
281,0.23,0.69,0.71,-3.42,1.95,-1.34,224,317,396,314,379,10
282,0.13,0.65,0.76,-12.51,8.06,-11.29,225,320,398,314,382,10
283,0.26,0.69,0.73,2.2,-8.48,1.53,233,321,398,319,382,10
284,0.23,0.69,0.73,3.78,-3.54,-1.16,225,320,396,318,380,10
285,0.23,0.66,0.71,-0.06,-9.89,-7.14,225,317,396,323,378,10
286,0.29,0.64,0.69,-3.54,-1.83,-4.82,224,326,397,313,381,10
287,0.37,0.71,0.69,0.55,1.95,-5.8,227,316,395,321,377,10
288,0.26,0.68,0.67,-0.55,-7.08,-4.39,226,317,397,315,379,10
289,0.21,0.66,0.71,-3.05,5.62,-6.77,228,317,397,321,375,10
290,0.24,0.69,0.74,-6.23,16.48,-15.93,228,322,396,321,377,10
291,0.19,0.65,0.74,0.49,4.52,-5.55,225,316,398,317,374,10
292,0.08,0.64,0.74,-7.93,-13.98,0.67,224,319,394,318,376,10
293,0.24,0.65,0.57,20.57,-4.27,8.73,228,331,396,322,370,10
294,0.41,0.68,0.76,-11.41,22.89,-31.62,228,320,394,323,374,10
295,0.23,0.81,0.68,0.31,-3.11,12.15,226,322,396,328,371,10
296,0.12,0.52,0.69,-1.95,6.35,14.4,226,331,395,322,370,10
297,0.21,0.67,0.61,-22.89,-23.44,7.51,226,319,396,322,371,10
298,0.21,0.69,0.74,24.54,-27.83,4.33,225,321,396,319,375,10
299,0.11,0.69,0.71,-2.62,3.11,-1.04,225,320,397,314,371,10
300,0.14,0.68,0.73,0.12,-2.2,-0.92,226,318,397,323,375,10
301,0.23,0.66,0.69,-0.55,0.67,-2.81,226,321,397,320,376,10
302,0.22,0.7,0.69,3.17,-1.59,2.5,227,318,397,324,375,10
303,0.18,0.68,0.7,-1.95,-1.53,-2.93,224,336,396,328,374,10
304,0.22,0.71,0.71,0.55,-2.81,-5.13,227,321,396,315,376,10
305,0.19,0.63,0.66,-2.99,-3.97,-6.96,225,321,396,316,375,10
306,0.19,0.73,0.73,3.11,-10.19,3.11,228,321,395,322,377,10
307,0.16,0.68,0.73,-0.12,-1.65,-0.49,224,318,397,317,377,10
308,0.17,0.75,0.77,-0.31,-1.1,-3.3,224,317,398,324,375,10
309,0.18,0.67,0.74,-4.64,-4.27,-1.4,226,320,396,313,379,10
310,0.2,0.71,0.72,9.16,-12.63,1.95,225,319,397,317,375,10
311,0.58,0.71,0.54,-25.76,0.31,-13.06,224,322,398,317,377,10
312,0.1,0.63,0.69,-0.92,-29.05,38.94,224,321,395,321,376,10
313,0.31,0.68,0.66,-0.31,1.77,-24.35,227,320,391,312,377,10
314,0.34,0.77,0.69,-3.78,5.92,-4.33,227,330,396,317,380,10
315,0.29,0.71,0.68,-0.24,-5.92,-0.49,226,317,399,316,380,10
316,0.28,0.66,0.68,3.48,-6.1,-1.16,227,321,398,317,381,10
317,0.37,0.7,0.66,3.36,-13.67,2.38,225,327,397,315,381,10
318,0.38,0.68,0.65,-0.24,-5.07,-6.29,227,321,394,313,385,10
319,0.37,0.7,0.62,4.7,6.04,-18.25,227,320,393,318,381,10
320,0.34,0.63,0.65,-0.98,-11.47,10.86,224,322,396,323,384,10
321,0.42,0.69,0.64,3.42,-5.0,-8.79,223,320,396,320,387,10
322,0.37,0.67,0.59,-9.52,5.98,-3.66,225,318,397,315,385,10
323,0.37,0.68,0.61,-2.87,-5.31,-0.24,226,316,396,313,384,10
324,0.39,0.68,0.61,-0.79,-0.31,-3.78,226,319,400,310,383,10
325,0.34,0.67,0.63,-0.06,-16.17,3.54,218,316,396,321,386,10
326,0.38,0.68,0.62,0.73,1.34,-3.54,223,317,402,309,387,10
327,0.41,0.69,0.61,0.43,-6.04,-2.14,221,313,403,305,383,10
328,0.4,0.67,0.62,0.55,-3.23,-3.05,221,312,402,310,387,10
329,0.43,0.69,0.6,1.22,-4.46,-4.33,223,313,402,314,384,10
330,0.43,0.7,0.6,0.92,-1.04,-2.38,223,313,402,307,383,10
331,0.42,0.69,0.61,-0.37,-2.44,-3.48,219,313,401,310,380,10
332,0.29,0.65,0.68,3.05,-7.63,4.03,222,311,404,308,380,10
333,0.36,0.75,0.67,0.67,-12.88,-20.45,220,312,403,308,378,10
334,0.39,0.74,0.61,4.33,1.28,-5.07,218,310,401,305,376,10
335,0.28,0.73,0.66,-0.98,0.85,-7.57,220,310,403,309,377,10
336,0.31,0.7,0.62,-2.26,-2.69,-3.11,229,313,411,309,378,10
337,0.29,0.74,0.7,-0.73,3.78,-5.07,223,313,401,311,379,10
338,0.34,0.68,0.66,7.75,-13.18,11.17,223,308,399,309,380,10
339,0.35,0.61,0.64,3.17,-4.09,-5.19,222,312,396,305,379,10
340,0.3,0.72,0.64,1.34,-1.28,-2.75,226,311,398,310,380,10
341,0.35,0.68,0.62,-8.61,-5.86,-14.1,224,308,400,315,378,10
342,0.31,0.75,0.65,4.15,1.89,-1.53,224,312,401,314,381,10
343,0.25,0.73,0.7,-1.71,-2.62,-8.18,222,312,403,308,379,10
344,0.25,0.69,0.69,-11.11,-1.16,-10.74,221,310,403,312,374,10
345,0.18,0.71,0.75,11.72,-12.51,8.79,223,312,403,312,374,10
346,0.36,0.59,0.59,5.43,-13.43,12.33,223,313,400,311,378,10
347,0.16,0.73,0.77,-3.66,-3.91,20.32,221,323,402,314,375,10
348,0.27,0.74,0.73,7.93,-26.31,6.04,224,315,403,314,373,10
349,0.22,0.67,0.74,2.62,-6.1,5.49,224,320,398,314,377,10
350,0.35,0.56,0.67,3.6,3.85,-7.75,220,316,400,315,369,10
351,0.23,0.61,0.68,-1.46,-1.53,-1.34,225,316,403,313,367,10
352,0.24,0.71,0.7,3.36,-14.59,-2.81,226,316,403,312,372,10
353,0.29,0.71,0.67,-8.85,4.64,-6.1,222,319,400,311,374,10
354,0.23,0.7,0.69,1.34,-5.74,-4.21,223,320,398,316,371,10
355,0.25,0.7,0.66,6.1,-11.96,-1.22,227,308,398,310,372,10
356,0.32,0.73,0.65,0.0,-0.37,-3.97,224,317,401,311,371,10
357,0.23,0.71,0.64,4.64,-10.38,-0.37,224,316,397,315,372,10
358,0.29,0.71,0.64,-1.34,-0.12,-1.59,221,320,401,318,371,10
359,0.29,0.7,0.63,-0.55,0.61,-2.81,225,319,398,314,371,10
360,0.29,0.71,0.66,0.31,-2.62,-0.61,224,318,399,315,372,10
361,0.31,0.71,0.65,0.18,-1.1,-2.2,225,320,400,311,371,10
362,0.31,0.67,0.67,-4.52,-1.71,-1.89,226,317,397,316,371,10
363,0.32,0.72,0.66,-0.79,-0.37,-4.58,226,319,397,312,374,10
364,0.29,0.7,0.66,1.77,-3.72,-1.59,223,317,398,319,373,10
365,0.3,0.71,0.66,0.06,-4.64,-1.28,224,315,399,316,375,10
366,0.31,0.7,0.66,0.73,-1.71,-2.93,223,316,400,315,374,10
367,0.29,0.7,0.66,-0.43,-1.89,-1.89,222,313,399,318,376,10
368,0.28,0.7,0.67,-0.18,-1.95,0.55,225,316,400,317,373,10
369,0.32,0.7,0.66,1.4,-2.81,-2.62,225,315,398,313,374,10
370,0.32,0.7,0.66,0.61,-2.87,-1.22,227,315,398,315,374,10
371,0.33,0.69,0.65,-0.31,-2.08,-1.65,225,314,398,321,375,10
372,0.3,0.68,0.64,0.18,-2.08,-4.27,221,318,400,331,371,10
373,0.33,0.7,0.66,0.49,-1.83,-3.6,226,315,396,315,372,10
374,0.32,0.7,0.65,0.37,-2.87,-2.93,224,317,395,312,374,10
375,0.34,0.7,0.65,-1.4,0.49,-1.83,214,320,402,320,374,10
376,0.31,0.7,0.66,2.01,-2.87,-4.21,224,319,393,314,372,10
377,0.3,0.68,0.67,0.0,-2.75,-0.79,253,317,398,313,374,10
378,0.32,0.67,0.65,1.22,-4.88,-1.46,225,317,397,315,374,10
379,0.31,0.69,0.67,-0.12,-3.54,-2.56,219,319,396,317,372,10
380,0.32,0.69,0.66,-0.18,-3.05,-2.44,226,316,397,314,373,10
381,0.32,0.69,0.67,0.73,-3.42,-2.32,231,321,398,314,371,10
382,0.32,0.69,0.66,0.49,-1.28,-4.33,225,324,394,315,375,10
383,0.33,0.76,0.68,-2.01,0.67,-9.83,224,321,398,314,373,10
384,0.33,0.69,0.67,-1.71,2.08,-3.97,224,318,398,315,374,10
385,0.31,0.69,0.67,-2.08,-2.75,-5.8,227,322,395,315,372,10
386,0.29,0.69,0.67,2.93,-4.7,-2.2,226,318,395,321,375,10
387,0.32,0.69,0.66,1.53,-2.32,-4.21,227,322,400,315,373,10
388,0.31,0.67,0.66,0.18,-3.6,-0.43,229,322,398,317,374,10
389,0.31,0.69,0.67,1.22,-5.0,-0.37,224,324,393,321,373,10
390,0.33,0.7,0.66,5.55,-9.58,3.97,227,326,397,318,372,10
391,0.33,0.68,0.65,-0.98,-4.03,0.43,227,323,395,313,374,10
392,0.34,0.69,0.65,0.24,-3.42,-1.77,224,322,395,316,373,10
393,0.34,0.68,0.65,2.75,-4.03,-2.5,226,324,395,317,370,10
394,0.37,0.69,0.64,0.43,-5.07,-1.95,226,322,394,316,372,10
395,0.38,0.7,0.64,1.34,-4.15,0.37,229,322,394,320,371,10
396,0.4,0.7,0.62,-1.1,-1.95,-4.39,225,323,396,314,371,10
397,0.37,0.69,0.63,0.18,-3.48,-3.3,227,319,398,319,373,10
398,0.36,0.7,0.63,-2.99,-1.04,-7.26,227,321,399,313,364,10
399,0.36,0.69,0.64,-1.1,-2.69,-3.36,225,319,398,316,371,10
400,0.36,0.69,0.65,0.49,-2.99,-2.44,227,321,399,313,373,10
401,0.36,0.69,0.64,0.12,-1.83,-2.56,226,321,400,319,373,10
402,0.35,0.7,0.65,0.49,-3.78,-2.93,229,320,403,317,372,10
403,0.35,0.69,0.65,0.49,-3.17,-2.38,225,321,397,316,371,10
404,0.34,0.69,0.65,0.98,-3.66,-2.62,227,324,404,313,372,10
405,0.35,0.7,0.65,-1.77,-2.38,-3.78,226,322,399,313,372,10
406,0.34,0.69,0.65,-0.49,-2.75,-2.56,228,324,402,314,373,10
407,0.34,0.69,0.65,-0.55,-2.38,-2.93,227,329,399,317,372,10
408,0.36,0.69,0.65,-0.24,-3.42,-2.2,228,321,400,320,371,10
409,0.34,0.69,0.65,0.49,-2.62,-3.11,227,321,401,319,371,10
410,0.35,0.69,0.64,-0.55,-3.3,-2.38,226,320,400,312,370,10
411,0.35,0.69,0.65,0.49,-2.69,-2.38,229,322,399,317,371,10
412,0.33,0.69,0.66,0.67,-3.54,-2.56,229,320,400,313,371,10
413,0.33,0.69,0.67,1.59,-3.85,-2.14,229,324,400,317,371,10
414,0.34,0.7,0.66,-0.31,-2.75,-2.44,234,328,399,313,371,10
415,0.35,0.69,0.65,-1.53,-3.17,-2.87,227,322,400,323,377,10
416,0.35,0.69,0.66,3.23,-3.66,-1.4,226,324,402,317,373,10
417,0.33,0.67,0.65,0.67,-1.59,-4.09,226,322,398,321,372,10
418,0.36,0.7,0.65,-0.61,-2.5,-3.3,237,325,398,313,371,10
419,0.34,0.7,0.66,1.22,-4.21,-1.65,229,323,400,314,373,10
420,0.34,0.68,0.66,-0.24,-3.6,-2.75,229,324,401,318,364,10
421,0.34,0.69,0.66,-0.61,-1.95,-3.11,227,321,406,317,372,10
422,0.33,0.7,0.67,0.61,-2.5,-3.42,228,324,402,321,371,10
423,0.32,0.69,0.66,0.24,-3.6,-1.77,228,320,401,316,372,10
424,0.34,0.71,0.68,3.05,-1.59,-1.59,226,318,400,314,384,10
425,0.35,0.68,0.65,-1.77,-1.4,-4.15,216,320,403,314,374,10
426,0.34,0.68,0.65,-1.34,-3.42,-2.87,225,318,400,319,373,10
427,0.32,0.68,0.67,-0.79,-2.69,-2.01,226,323,399,311,378,10
428,0.29,0.7,0.67,1.71,-0.67,-16.3,227,315,401,309,388,10
429,0.27,0.71,0.68,-1.95,-1.59,-3.6,227,321,400,315,396,10
430,0.26,0.69,0.66,0.43,-2.26,-3.11,228,318,403,313,404,10
431,0.26,0.7,0.68,0.49,-2.2,-2.14,227,320,401,318,405,10
432,0.27,0.65,0.64,-2.32,-0.85,-6.1,225,323,400,314,407,10
433,0.27,0.7,0.69,0.67,-4.46,-2.75,228,323,400,320,406,10
434,0.26,0.69,0.67,0.18,-1.77,-2.01,227,321,399,316,406,10
435,0.29,0.69,0.68,-0.12,-3.42,-2.56,225,319,401,319,408,10
436,0.27,0.7,0.68,0.49,-2.01,-2.87,228,318,404,317,406,10
437,0.27,0.7,0.69,-0.49,-2.14,-3.72,229,323,402,315,409,10
438,0.26,0.68,0.69,-2.08,-0.67,-5.98,228,323,407,314,410,10
439,0.27,0.69,0.69,-0.92,-1.95,-2.32,230,337,400,314,409,10
440,0.24,0.68,0.7,1.16,-2.87,-3.85,229,321,400,315,409,10
441,0.25,0.69,0.69,0.43,-3.23,-2.01,229,322,401,317,409,10
442,0.22,0.69,0.71,-8.12,11.72,-18.74,227,323,399,316,409,10
443,0.21,0.69,0.71,0.18,-2.69,-1.16,227,321,402,315,408,10
444,0.23,0.7,0.7,1.59,-3.66,-1.89,227,323,402,314,411,10
445,0.24,0.68,0.68,0.0,-2.01,-4.15,226,321,403,327,409,10
446,0.24,0.69,0.69,-0.37,-3.11,-2.44,228,321,400,315,411,10
447,0.22,0.69,0.7,1.34,-3.3,-2.32,225,324,400,319,408,10
448,0.23,0.69,0.7,1.16,-2.93,-2.5,228,321,400,320,412,10
449,0.23,0.68,0.69,-0.12,-1.95,-3.23,229,320,401,310,412,10
450,0.23,0.68,0.7,0.67,-4.03,-2.93,224,324,400,310,411,10
451,0.22,0.69,0.7,0.49,-3.72,-2.56,230,323,399,315,411,10
452,0.22,0.7,0.7,0.79,-3.17,-2.14,228,323,403,311,410,10
453,0.45,0.67,0.57,5.31,-0.61,6.16,230,323,402,325,408,10
454,0.24,0.69,0.67,-2.38,-2.08,-1.77,228,322,396,314,408,10
455,0.28,0.73,0.67,1.89,-4.15,-0.43,229,325,401,314,410,10
456,0.31,0.7,0.64,3.72,-3.17,-2.14,230,322,397,312,407,10
457,0.31,0.72,0.65,0.43,-1.89,-3.72,226,322,398,315,412,10
458,0.31,0.7,0.64,-0.12,-1.16,-2.62,229,321,401,314,411,10
459,0.29,0.71,0.66,-1.28,-4.03,-3.54,229,326,400,313,409,10
460,0.29,0.69,0.63,-1.22,-3.78,-2.44,227,322,399,312,406,10
461,0.3,0.72,0.66,2.69,-3.6,-0.37,226,323,399,312,405,10
462,0.29,0.73,0.65,3.42,-1.71,-2.81,229,322,401,316,412,10
463,0.29,0.73,0.65,1.59,-3.66,-2.99,226,323,399,310,410,10
464,0.29,0.71,0.64,-0.85,-2.32,-4.46,231,323,400,312,412,10
465,0.28,0.78,0.64,2.69,0.43,-2.99,229,324,402,315,411,10
466,0.27,0.71,0.69,-2.38,-2.93,0.43,229,325,397,313,409,10
467,0.26,0.74,0.68,-5.74,0.79,-7.93,229,328,400,312,405,10
468,0.21,0.67,0.73,14.04,-5.13,4.27,229,317,399,311,406,10
469,0.23,0.78,0.74,-3.36,5.74,-15.87,227,323,401,314,403,10
470,0.05,0.58,0.77,3.17,-24.11,23.44,229,318,398,310,402,10
471,0.23,0.56,0.72,-32.23,-30.52,-1.16,229,319,402,307,403,10
472,0.16,0.38,0.68,-0.37,-4.94,0.24,225,315,402,316,390,10
473,0.24,0.76,0.91,-10.07,-34.12,37.72,233,314,398,316,394,10
474,0.1,0.28,0.59,0.79,-3.91,2.56,231,318,396,317,394,10
475,0.4,0.73,0.62,15.14,-39.67,52.25,223,321,398,318,393,10
476,0.34,0.67,0.71,11.11,-23.8,44.86,224,321,401,313,396,10
477,0.37,0.76,0.71,-11.72,-15.93,3.6,225,333,400,314,392,10
478,0.24,0.67,0.75,-0.67,4.39,-7.51,227,320,400,311,394,10
479,0.26,0.67,0.72,-6.9,9.64,-18.92,226,318,399,320,396,10
480,0.25,0.66,0.71,4.09,-8.54,1.4,228,321,399,317,393,10
481,0.27,0.65,0.69,2.62,-4.46,-1.4,225,320,399,319,391,10
482,0.28,0.68,0.7,0.49,-0.79,-3.85,227,320,400,320,387,10
483,0.25,0.6,0.63,12.94,-11.9,5.98,229,323,400,315,387,10
484,0.29,0.69,0.69,3.85,-13.98,-7.75,227,323,400,322,388,10
485,0.22,0.45,0.52,-18.98,-1.71,-16.97,227,321,399,320,390,10
486,0.32,0.76,0.75,-3.05,6.47,-2.69,226,324,399,320,391,10
487,0.3,0.69,0.71,2.75,2.81,0.12,236,323,392,322,388,10
488,0.19,0.79,0.78,17.15,-11.41,16.42,230,328,394,331,389,10
489,0.29,0.68,0.7,7.75,-12.02,6.1,230,325,394,313,386,10
490,0.32,0.65,0.67,11.17,-20.87,12.57,241,323,394,318,390,10
491,0.36,0.73,0.68,1.22,-4.88,2.56,229,326,393,315,391,10
492,0.36,0.71,0.67,-1.83,-3.66,-0.12,230,326,395,319,389,10
493,0.36,0.69,0.65,-0.43,-3.54,-1.28,229,325,394,320,391,10
494,0.46,0.69,0.62,9.83,-21.61,18.37,229,327,405,317,390,10
495,0.42,0.66,0.59,-3.05,-4.76,-2.99,229,328,393,314,392,10
496,0.43,0.67,0.62,2.2,-7.32,-1.95,230,325,392,317,390,10
497,0.47,0.69,0.63,-9.89,13.61,-16.24,229,324,395,317,388,10
498,0.43,0.66,0.63,-13.55,-4.15,0.24,230,328,401,323,389,10
499,0.41,0.67,0.64,2.2,-5.68,0.31,226,325,392,319,388,10
500,0.39,0.68,0.63,-0.98,-1.95,-1.71,230,326,394,316,385,10
501,0.36,0.87,0.35,16.66,9.16,-10.74,384,300,395,302,228,10
502,0.32,0.89,0.32,-1.77,-0.24,-4.27,388,286,396,300,233,10
503,0.33,0.91,0.34,1.1,2.81,-0.18,385,296,394,304,237,10
504,0.25,0.88,0.27,4.03,9.09,-4.58,385,292,396,308,233,10
505,0.27,0.9,0.33,0.67,-2.32,-2.75,387,296,394,307,236,10
506,0.24,0.91,0.32,-2.08,-3.72,-0.12,382,298,398,309,239,10
507,0.24,0.91,0.32,-0.43,-4.21,-5.86,385,301,394,311,238,10
508,0.26,0.9,0.31,-2.26,-4.09,1.71,385,302,398,311,244,10
509,0.26,0.91,0.31,2.44,-3.72,-4.33,385,302,399,309,240,10
510,0.26,0.91,0.32,-2.75,-1.65,-5.07,387,303,399,310,237,10
511,0.26,0.9,0.32,-1.16,-1.71,-2.26,383,301,396,311,240,10
512,0.25,0.92,0.33,2.38,-1.59,-4.88,386,305,395,308,238,10
513,0.25,0.91,0.32,-0.49,-3.23,-2.08,382,305,395,308,242,10
514,0.25,0.91,0.31,1.4,-4.21,-2.62,381,304,394,310,241,10
515,0.25,0.91,0.32,2.44,-2.75,-2.93,383,299,394,314,240,10
516,0.25,0.92,0.3,0.37,-3.36,-2.87,383,307,394,312,242,10
517,0.24,0.92,0.31,-1.89,-3.11,-1.83,383,300,392,314,258,10
518,0.26,0.9,0.33,-11.41,-1.04,5.68,378,305,396,309,232,10
519,0.26,0.91,0.35,-1.22,-0.98,-1.46,381,308,392,312,243,10
520,0.25,0.9,0.35,-0.31,-3.78,-2.14,379,308,392,314,244,10
521,0.26,0.9,0.35,3.23,-2.81,-3.48,379,305,396,311,243,10
522,0.25,0.9,0.34,-0.12,-2.75,-3.85,381,306,393,310,244,10
523,0.24,0.9,0.34,0.12,-3.78,-3.72,380,308,392,312,241,10
524,0.25,0.89,0.36,-5.74,-3.05,-2.44,380,308,391,316,244,10
525,0.25,0.89,0.38,-1.34,-4.27,-1.59,378,308,395,314,242,10
526,0.27,0.88,0.37,0.0,-3.54,-2.5,375,310,392,316,241,10
527,0.26,0.89,0.38,2.93,-0.73,-2.5,379,310,396,314,244,10
528,0.26,0.89,0.37,1.89,-2.93,-3.23,377,315,395,313,244,10
529,0.25,0.9,0.37,2.08,-2.62,-2.62,380,315,399,314,245,10
530,0.26,0.89,0.36,2.01,-2.08,-2.99,380,309,396,315,243,10
531,0.27,0.88,0.36,0.79,-4.94,-2.01,379,315,397,313,243,10
532,0.27,0.9,0.36,2.44,-1.71,-1.89,377,310,396,312,245,10
533,0.27,0.89,0.36,0.73,-3.78,-4.88,380,315,395,310,243,10
534,0.26,0.89,0.37,0.92,-2.87,-2.32,373,306,393,311,242,10
535,0.27,0.89,0.36,1.16,-2.99,-3.11,378,309,392,316,245,10
536,0.27,0.9,0.37,0.06,-3.3,-2.38,376,313,396,313,243,10
537,0.27,0.9,0.37,0.55,-2.32,-2.93,381,307,393,318,244,10
538,0.27,0.88,0.38,-1.71,-2.99,-2.08,375,309,394,316,246,10
539,0.26,0.88,0.39,2.32,-2.56,-3.42,378,311,393,314,245,10
540,0.27,0.86,0.37,-2.2,1.28,0.06,381,315,401,313,245,10
541,0.25,0.88,0.37,0.0,-2.56,-4.15,380,315,396,314,248,10
542,0.27,0.9,0.36,-0.24,-3.72,-0.73,379,315,396,316,244,10
543,0.27,0.91,0.37,3.66,-2.56,-1.53,378,309,395,314,244,10
544,0.26,0.89,0.36,-2.14,-3.54,-4.27,380,313,397,318,245,10
545,0.28,0.89,0.36,0.31,-1.83,-2.44,378,314,395,318,246,10
546,0.26,0.88,0.36,-0.61,-2.56,-2.69,379,313,397,314,245,10
547,0.26,0.9,0.36,-0.79,-4.82,-3.05,384,308,394,318,247,10
548,0.27,0.89,0.36,0.43,-4.94,-2.56,376,317,394,312,246,10
549,0.25,0.9,0.37,1.28,-0.85,-4.27,379,314,395,314,254,10
550,0.26,0.9,0.36,1.16,-1.04,-3.05,373,314,403,314,246,10
551,0.26,0.89,0.37,1.71,-4.21,-1.83,376,316,396,316,246,10
552,0.26,0.9,0.35,1.16,-3.66,-2.56,371,314,396,314,247,10
553,0.27,0.9,0.37,-2.38,-1.59,-3.17,375,319,408,319,246,10
554,0.26,0.89,0.37,-0.37,-2.14,-3.11,379,318,396,316,253,10
555,0.26,0.89,0.37,0.12,-3.23,-2.44,372,315,397,317,248,10
556,0.25,0.88,0.36,-3.85,-8.06,-2.38,376,316,393,318,246,10
557,0.21,0.9,0.4,-2.99,1.65,-0.49,372,315,397,317,247,10
558,0.22,0.89,0.42,-0.85,-3.97,-1.16,373,315,394,314,247,10
559,0.26,0.87,0.4,0.43,-3.85,-4.33,374,315,395,316,248,10
560,0.24,0.88,0.39,0.18,-2.5,-0.61,374,317,399,316,252,10
561,0.25,0.88,0.41,-3.42,-6.47,-2.38,373,317,397,319,248,10
562,0.26,0.87,0.41,-1.04,-2.62,-2.75,375,332,396,317,250,10
563,0.25,0.87,0.4,-1.34,-2.99,-3.42,373,316,395,317,251,10
564,0.25,0.88,0.41,1.28,-4.09,-2.93,371,315,395,317,250,10
565,0.25,0.88,0.4,0.18,-3.17,-3.17,371,317,394,316,250,10
566,0.26,0.87,0.4,1.1,-5.37,-2.87,367,319,394,314,248,10
567,0.27,0.89,0.42,-1.28,-11.35,-0.92,372,326,397,320,249,10
568,0.26,0.88,0.4,6.96,-0.37,-1.95,370,316,395,317,249,10
569,0.25,0.88,0.42,-0.67,-2.08,-0.12,372,323,393,317,250,10
570,0.31,0.86,0.41,-6.29,-5.25,0.43,373,315,394,318,251,10
571,0.31,0.87,0.42,2.93,-2.38,-0.79,369,314,394,318,251,10
572,0.28,0.86,0.4,1.59,-2.38,2.38,369,318,398,318,251,10
573,0.31,0.88,0.38,4.7,4.76,-9.28,370,312,399,317,248,10
574,0.28,0.91,0.41,8.3,3.48,-2.87,368,316,396,318,251,10
575,0.22,0.89,0.42,-4.39,-6.29,-0.37,370,318,395,317,249,10
576,0.3,0.85,0.4,-5.68,-14.71,-5.43,366,312,398,321,250,10
577,0.27,0.85,0.35,1.28,-8.91,-3.97,366,313,401,320,248,10
578,0.27,0.9,0.41,-2.08,-4.46,-3.85,369,322,397,318,248,10
579,0.26,0.87,0.37,2.87,-1.95,-1.65,367,320,398,322,251,10
580,0.27,0.86,0.35,2.93,-6.04,-4.33,367,316,398,319,249,10
581,0.3,0.88,0.41,-23.01,-8.67,-2.75,368,317,395,322,248,10
582,0.25,0.9,0.4,-3.05,1.83,0.18,365,320,399,322,247,10
583,0.28,0.88,0.39,8.12,-3.66,-5.49,365,320,399,323,249,10
584,0.28,0.89,0.37,0.06,-0.06,0.37,365,314,398,318,249,10
585,0.31,0.88,0.38,1.46,-5.25,-5.25,366,316,397,318,250,10
586,0.27,0.89,0.38,2.56,-2.75,-0.49,366,317,397,318,249,10
587,0.28,0.88,0.37,-0.31,4.82,-0.24,361,311,397,321,252,10
588,0.27,0.87,0.42,-0.73,2.87,-2.56,366,316,405,320,253,10
589,0.27,0.86,0.41,-2.38,-5.8,-2.26,367,319,398,317,250,10
590,0.28,0.88,0.43,-0.06,-4.09,-4.03,369,316,397,316,247,10
591,0.28,0.87,0.41,0.37,-4.39,-2.93,364,315,397,320,251,10
592,0.27,0.87,0.43,0.85,-0.98,-2.26,364,311,395,320,250,10
593,0.27,0.87,0.42,-2.2,-3.23,-1.71,367,316,399,317,257,10
594,0.27,0.87,0.42,0.31,-3.23,-3.23,375,320,395,320,252,10
595,0.27,0.87,0.42,1.46,-1.71,-2.44,360,313,393,322,248,10
596,0.28,0.86,0.41,-3.17,-8.24,-1.71,363,313,397,321,253,10
597,0.27,0.86,0.43,-2.56,-5.49,0.18,363,320,391,322,250,10
598,0.29,0.86,0.41,0.49,-5.49,-0.43,356,321,395,323,250,10
599,0.3,0.86,0.41,-0.55,-6.04,0.31,360,314,396,324,250,10
600,0.29,0.84,0.4,-1.34,-2.32,-2.62,361,322,395,321,251,10
601,0.31,0.85,0.41,2.01,-5.8,-3.54,360,312,398,322,251,10
602,0.27,0.85,0.42,-3.23,-4.15,-3.3,363,317,402,321,252,10
603,0.3,0.87,0.43,3.85,-0.79,-2.44,359,314,393,326,250,10
604,0.27,0.87,0.41,1.28,-1.59,-1.95,363,312,397,321,251,10
605,0.29,0.87,0.4,3.91,-0.67,-0.55,363,307,397,321,249,10
606,0.27,0.89,0.42,3.66,1.4,-1.28,364,306,397,324,251,10
607,0.28,0.87,0.39,-2.2,-6.71,-2.56,365,308,400,320,251,10
608,0.31,0.88,0.39,4.15,-3.23,-4.88,366,310,401,324,254,10
609,0.3,0.87,0.38,2.81,-3.54,1.46,364,316,397,322,248,10
610,0.3,0.88,0.35,3.97,-2.08,-3.23,365,314,394,325,249,10
611,0.32,0.87,0.36,-0.37,-4.52,-2.99,361,318,396,318,248,10
612,0.31,0.89,0.36,-0.85,-2.75,-3.66,365,317,395,321,251,10
613,0.3,0.88,0.37,0.43,-3.6,-3.05,360,317,394,316,250,10
614,0.3,0.89,0.35,-2.08,-5.92,-4.46,364,313,397,322,251,10
615,0.3,0.87,0.35,-2.26,-7.2,-6.23,366,310,406,322,253,10
616,0.33,0.86,0.39,-0.12,-0.73,0.73,361,313,396,323,252,10
617,0.31,0.89,0.34,0.73,-0.61,-1.77,364,316,398,322,250,10
618,0.32,0.86,0.36,0.12,-9.58,-0.55,366,312,396,322,251,10
619,0.34,0.89,0.37,1.22,-2.32,-1.77,358,318,393,326,250,10
620,0.33,0.86,0.41,-0.55,3.42,-0.73,362,316,395,325,253,10
621,0.29,0.87,0.38,2.38,-6.35,4.82,365,314,400,325,251,10
622,0.37,0.9,0.38,1.4,-5.8,-3.6,363,315,396,325,250,10
623,0.37,0.85,0.35,-0.55,-4.7,-2.75,366,316,398,324,254,10
624,0.36,0.88,0.37,2.01,-5.37,-5.0,364,313,400,318,260,10
625,0.36,0.86,0.35,0.73,-3.05,-2.99,366,312,400,321,252,10
626,0.37,0.87,0.34,0.31,-2.08,-2.87,362,316,400,325,251,10
627,0.38,0.86,0.34,0.0,-3.54,-3.11,364,310,398,321,249,10
628,0.38,0.86,0.33,0.06,-4.09,-1.53,365,314,399,321,253,10
629,0.39,0.86,0.35,-0.55,-1.46,-2.08,363,314,397,318,250,10
630,0.38,0.86,0.34,0.12,-2.44,-2.2,362,310,396,324,243,10
631,0.39,0.86,0.34,0.06,-3.23,-4.21,364,312,398,325,250,10
632,0.38,0.86,0.34,1.71,-1.95,-2.32,363,311,397,323,252,10
633,0.38,0.86,0.33,0.06,-4.03,-2.44,361,311,396,323,273,10
634,0.39,0.87,0.32,1.16,-4.39,-2.14,362,320,394,322,252,10
635,0.39,0.86,0.34,-0.24,-2.75,-2.99,364,321,394,322,253,10
636,0.38,0.87,0.34,0.43,-3.3,-3.05,363,322,396,321,258,10
637,0.38,0.86,0.34,-2.08,-2.75,-2.93,361,317,396,322,251,10
638,0.37,0.85,0.34,-1.1,-2.14,-2.69,361,321,392,323,252,10
639,0.37,0.86,0.35,-0.24,-2.75,-2.26,359,312,394,324,249,10
640,0.38,0.86,0.35,0.31,-3.66,-1.83,364,318,395,321,254,10
641,0.38,0.87,0.36,-1.77,-2.62,-2.56,363,320,394,322,255,10
642,0.39,0.87,0.35,0.92,-1.95,-3.54,363,319,396,322,253,10
643,0.37,0.85,0.35,-0.06,-3.78,-1.53,359,321,396,320,251,10
644,0.39,0.85,0.34,1.59,-3.85,-1.71,363,318,395,320,257,10
645,0.4,0.86,0.35,0.92,-1.28,-2.44,365,315,397,322,254,10
646,0.39,0.84,0.34,-0.73,-4.94,-15.5,360,315,398,325,250,10
647,0.41,0.83,0.36,-1.95,3.48,3.05,364,313,398,322,254,10
648,0.39,0.84,0.37,-2.62,-0.18,-1.77,365,312,396,320,256,10
649,0.4,0.91,0.38,-8.06,-12.02,-7.57,362,318,397,323,252,10
650,0.4,0.85,0.37,-8.97,-11.66,3.42,366,311,397,323,250,10
651,0.46,0.81,0.37,-0.37,-9.03,3.17,367,313,402,327,255,10
652,0.47,0.79,0.38,5.19,1.22,-0.61,364,318,396,322,253,10
653,0.46,0.81,0.39,-1.1,-2.26,-2.2,358,315,397,329,253,10
654,0.46,0.8,0.39,0.43,-1.65,0.55,360,321,394,323,253,10
655,0.48,0.81,0.4,-0.79,-1.71,-1.46,362,318,394,324,254,10
656,0.47,0.79,0.38,5.98,-4.7,-0.85,360,320,397,324,253,10
657,0.49,0.8,0.35,3.6,-1.89,-4.15,360,317,397,322,253,10
658,0.47,0.79,0.38,-1.71,-7.39,-0.73,361,317,395,322,255,10
659,0.48,0.78,0.38,0.31,-2.56,-2.87,361,314,397,322,279,10
660,0.47,0.79,0.37,-1.89,-3.72,-2.75,361,316,394,323,254,10
661,0.48,0.79,0.38,1.46,-1.53,-3.42,358,320,397,327,255,10
662,0.48,0.8,0.38,-0.24,-4.15,-3.11,358,314,398,327,255,10
663,0.47,0.79,0.39,-0.85,-2.93,-2.44,354,313,398,327,256,10
664,0.47,0.8,0.39,-1.1,-2.75,-1.71,360,313,396,323,263,10
665,0.48,0.79,0.39,-3.48,-2.62,-2.38,358,319,401,325,255,10
666,0.47,0.8,0.39,0.0,-2.99,-2.32,360,318,400,327,256,10
667,0.47,0.79,0.4,0.12,-2.87,-1.89,362,313,396,324,256,10
668,0.49,0.79,0.39,0.85,-3.36,-3.11,358,330,394,326,284,10
669,0.48,0.78,0.39,-0.37,-3.48,-2.56,357,318,397,323,256,10
670,0.48,0.79,0.39,-1.04,-3.11,-3.3,361,319,393,325,254,10
671,0.48,0.79,0.4,-0.37,-2.62,-2.62,359,318,394,324,256,10
672,0.49,0.79,0.39,1.34,-3.48,-2.81,361,321,394,339,254,10
673,0.47,0.79,0.39,-1.28,-3.36,-2.26,359,314,397,321,258,10
674,0.47,0.79,0.39,-0.37,-2.93,-3.05,362,318,398,325,254,10
675,0.48,0.79,0.39,0.31,-2.14,-2.93,361,323,395,327,257,10
676,0.47,0.8,0.4,1.53,-2.14,-2.75,358,323,399,324,254,10
677,0.46,0.8,0.4,4.82,-2.75,-4.39,360,319,394,324,258,10
678,0.47,0.8,0.38,-0.43,-3.66,-2.69,361,323,396,325,254,10
679,0.47,0.81,0.38,0.18,-2.32,-3.05,359,317,395,324,257,10
680,0.47,0.8,0.39,-1.22,-2.56,-2.56,363,321,396,324,255,10
681,0.47,0.8,0.39,0.85,-2.69,-2.87,361,321,393,325,254,10
682,0.44,0.8,0.4,0.98,0.24,-2.69,360,321,398,324,257,10
683,0.48,0.83,0.36,-2.44,-6.53,-7.87,357,319,397,323,255,10
684,0.4,0.85,0.38,-1.59,10.13,-8.24,365,316,394,324,252,10
685,0.38,0.87,0.34,3.6,-7.57,-6.71,369,320,400,322,248,10
686,0.38,0.88,0.35,2.75,-3.54,-11.17,372,323,395,320,245,10
687,0.34,0.88,0.33,-0.12,-0.37,-4.27,367,320,399,326,248,10
688,0.32,0.88,0.36,-3.6,-2.32,-3.6,370,320,397,328,253,10
689,0.31,0.86,0.37,3.36,-4.94,-2.2,372,320,396,326,249,10
690,0.34,0.87,0.35,-0.31,-0.06,-2.87,370,324,399,333,241,10
691,0.33,0.89,0.37,-0.85,-5.31,-0.18,369,320,397,329,250,10
692,0.32,0.86,0.37,1.59,0.31,-4.39,366,324,399,327,251,10
693,0.31,0.88,0.36,3.23,-0.43,-1.22,364,323,398,327,255,10
694,0.32,0.87,0.38,4.33,-1.22,-1.53,369,323,394,326,254,10
695,0.33,0.87,0.36,1.53,-2.87,-4.15,362,323,398,326,258,10
696,0.33,0.88,0.37,-0.43,-3.72,-1.34,358,320,398,329,254,10
697,0.33,0.88,0.38,1.71,-4.46,-4.27,362,322,397,330,253,10
698,0.33,0.87,0.36,-0.85,-3.36,-0.98,358,321,395,328,252,10
699,0.33,0.87,0.37,1.04,-3.23,-3.85,360,327,395,326,252,10
700,0.33,0.87,0.36,-1.04,-2.62,-0.92,362,325,398,329,251,10
701,0.34,0.87,0.37,0.12,-2.32,-2.14,361,320,398,327,254,10
702,0.34,0.87,0.37,0.31,-2.99,-1.95,358,320,393,328,252,10
703,0.33,0.86,0.37,0.49,-3.85,-4.27,362,324,400,328,251,10
704,0.33,0.87,0.37,0.24,-1.83,-2.81,358,321,400,328,254,10
705,0.32,0.87,0.36,-0.37,-3.05,-2.87,358,315,398,327,253,10
706,0.33,0.87,0.37,-0.92,-2.2,-2.38,362,323,395,326,252,10
707,0.32,0.87,0.37,-0.55,-3.05,-2.62,361,322,396,326,274,10
708,0.32,0.87,0.38,-1.1,-2.44,-3.23,360,325,398,326,252,10
709,0.32,0.87,0.38,-0.43,-3.05,-1.53,360,322,398,326,253,10
710,0.33,0.87,0.38,-0.43,-3.11,-0.37,359,323,398,329,253,10
711,0.33,0.87,0.37,-0.18,-3.54,-3.42,360,324,396,326,256,10
712,0.32,0.86,0.37,0.61,-3.78,-2.87,356,321,403,328,253,10
713,0.32,0.87,0.38,0.73,-3.72,-1.28,363,316,399,327,258,10
714,0.33,0.87,0.37,1.46,-2.62,-2.56,360,324,397,329,249,10
715,0.33,0.87,0.37,0.67,-2.62,-2.75,361,327,394,324,253,10
716,0.33,0.87,0.37,0.85,-2.75,-2.62,361,325,397,328,254,10
717,0.31,0.88,0.39,-0.98,-3.23,-3.48,359,322,391,328,266,10
718,0.32,0.86,0.37,2.2,-3.6,-1.65,360,322,396,326,254,10
719,0.32,0.88,0.36,2.14,-1.83,-3.36,358,321,408,327,254,10
720,0.31,0.87,0.35,2.08,-2.5,-2.69,355,321,394,342,255,10
721,0.32,0.88,0.34,0.31,-5.68,-2.08,355,326,397,339,254,10
722,0.32,0.89,0.35,-1.22,-2.99,-1.28,360,320,398,328,258,10
723,0.32,0.88,0.35,0.73,-4.64,-1.77,355,325,398,330,254,10
724,0.33,0.86,0.34,0.85,-3.91,-2.56,356,319,405,328,258,10
725,0.32,0.9,0.32,4.15,-6.9,-2.08,350,324,396,337,263,10
726,0.35,0.89,0.3,5.49,-4.39,-0.55,352,323,397,331,261,10
727,0.35,0.89,0.27,0.0,-4.09,-2.62,351,322,401,332,261,10
728,0.35,0.89,0.28,-0.06,-2.87,-2.32,355,319,399,329,260,10
729,0.34,0.9,0.27,1.53,-3.91,-3.36,351,327,398,334,259,10
730,0.34,0.9,0.27,0.0,-4.58,-3.66,351,326,397,331,261,10
731,0.31,0.92,0.26,1.22,-4.76,-5.98,353,324,399,331,256,10
732,0.31,0.91,0.28,-0.49,-3.85,0.06,349,322,395,329,257,10
733,0.35,0.89,0.28,-0.92,-0.49,-1.77,347,328,404,327,256,10
734,0.32,0.91,0.29,4.21,-4.33,-4.58,349,328,395,329,258,10
735,0.29,0.92,0.27,-1.95,-1.1,-7.2,343,322,402,329,255,10
736,0.31,0.91,0.33,-0.73,-1.34,0.92,346,326,399,333,257,10
737,0.32,0.9,0.3,2.44,-3.54,-2.14,348,329,395,331,258,10
738,0.31,0.91,0.31,1.28,-6.41,-5.49,346,322,397,333,259,10
739,0.33,0.9,0.33,1.77,1.95,-0.67,347,324,400,346,257,10
740,0.27,0.9,0.29,2.56,-3.66,-0.31,347,328,398,328,266,10
741,0.32,0.86,0.29,-1.1,-4.94,-5.37,345,327,399,332,253,10
742,0.32,0.89,0.3,-0.24,0.0,-0.73,345,329,397,327,258,10
743,0.29,0.92,0.35,0.85,-7.75,-6.16,348,326,401,330,258,10
744,0.35,0.9,0.33,3.17,-0.43,-2.01,344,322,397,336,258,10
745,0.27,0.9,0.31,2.08,-5.8,1.04,342,328,396,333,260,10
746,0.33,0.88,0.29,-0.73,-6.41,-6.53,346,325,402,328,257,10
747,0.3,0.9,0.3,-0.73,0.73,2.93,345,323,400,338,259,10
748,0.34,0.9,0.35,2.44,-9.7,-5.0,346,327,396,330,258,10
749,0.34,0.89,0.31,0.79,-1.71,-3.11,347,320,395,330,259,10
750,0.31,0.89,0.32,0.24,-8.91,-3.42,347,325,398,330,259,10
751,0.34,0.89,0.32,-0.31,-5.19,2.2,348,324,394,333,259,10
752,0.32,0.89,0.31,0.0,-4.39,-2.62,347,325,399,332,259,10
753,0.34,0.89,0.31,1.89,-3.72,-3.48,346,324,398,333,259,10
754,0.33,0.89,0.3,0.55,-3.54,-2.62,347,327,396,331,261,10
755,0.33,0.89,0.31,1.16,-0.43,-3.78,345,324,394,333,259,10
756,0.32,0.9,0.31,-1.16,-1.65,-2.81,346,330,398,329,261,10
757,0.32,0.88,0.32,-0.18,-2.87,-2.5,348,328,406,332,262,10
758,0.33,0.9,0.32,0.0,-3.42,-2.99,347,326,399,332,262,10
759,0.32,0.89,0.32,-0.67,-3.48,-0.85,346,329,398,327,256,10
760,0.31,0.9,0.31,0.12,-2.62,-2.81,345,321,394,333,256,10
761,0.3,0.9,0.33,-0.67,-3.48,-5.8,353,322,401,332,258,10
762,0.31,0.89,0.35,-0.12,-2.32,-2.5,343,328,399,331,261,10
763,0.31,0.91,0.33,1.4,-3.78,-3.54,347,320,395,332,260,10
764,0.31,0.88,0.34,-1.65,1.22,-1.59,355,325,396,333,261,10
765,0.32,0.88,0.35,2.38,-5.37,-0.98,347,326,400,332,260,10
766,0.29,0.89,0.34,2.32,-2.08,-1.28,346,320,398,331,260,10
767,0.3,0.89,0.34,-0.79,-3.97,-3.72,349,326,401,330,261,10
768,0.31,0.89,0.33,1.04,-3.54,-0.12,346,320,400,333,260,10
769,0.33,0.89,0.33,1.04,-6.53,1.89,346,321,398,327,266,10
770,0.36,0.91,0.33,-1.59,5.31,-8.48,346,328,399,334,261,10
771,0.29,0.85,0.34,-2.69,-6.96,-9.03,348,324,399,330,261,10
772,0.31,0.88,0.31,0.43,-5.98,-5.25,344,329,398,332,259,10
773,0.32,0.9,0.31,-0.37,0.06,2.5,344,326,400,332,255,10
774,0.3,0.89,0.33,1.04,2.5,-0.24,347,327,402,329,259,10
775,0.31,0.93,0.36,-3.42,5.68,-1.46,345,325,395,327,259,10
776,0.3,0.87,0.38,-2.87,2.32,-0.49,342,325,400,330,260,10
777,0.33,0.88,0.4,3.23,0.61,-1.1,345,326,397,333,260,10
778,0.32,0.87,0.38,-2.56,-5.31,-2.81,345,330,398,327,260,10
779,0.3,0.87,0.41,-0.37,0.73,-2.99,346,329,402,332,260,10
780,0.3,0.87,0.42,-0.49,-2.32,-0.98,341,328,398,333,261,10
781,0.29,0.87,0.43,0.49,-2.62,-1.89,346,329,398,331,266,10
782,0.33,0.86,0.42,1.77,-4.64,-2.75,344,322,394,331,261,10
783,0.32,0.85,0.42,0.79,-3.42,-2.44,345,331,397,330,257,10
784,0.32,0.86,0.41,0.31,-2.5,-2.01,346,326,397,330,258,10
785,0.32,0.85,0.42,-0.61,-5.13,-2.75,347,330,396,331,259,10
786,0.33,0.86,0.41,1.1,-2.14,-2.93,347,325,406,334,260,10
787,0.32,0.86,0.42,-0.37,-3.3,-2.75,347,329,400,328,260,10
788,0.33,0.85,0.41,1.53,-3.36,-2.75,342,326,397,329,263,10
789,0.33,0.85,0.41,0.73,-4.21,-2.99,347,327,399,331,260,10
790,0.32,0.84,0.41,0.49,-3.36,-3.11,347,322,394,332,261,10
791,0.33,0.86,0.41,-0.61,-4.09,-2.32,349,326,397,331,258,10
792,0.34,0.85,0.41,2.69,-3.91,-1.83,348,322,398,329,261,10
793,0.33,0.86,0.41,-0.31,-2.32,-1.53,348,327,397,328,256,10
794,0.33,0.85,0.4,1.4,-2.38,-3.05,348,321,396,329,261,10
795,0.33,0.86,0.4,1.04,-2.62,-2.62,346,325,397,330,263,10
796,0.33,0.86,0.39,1.04,-2.38,-3.48,345,325,399,328,262,10
797,0.33,0.86,0.4,0.73,-3.36,-3.3,346,331,397,330,259,10
798,0.32,0.86,0.39,-0.24,-4.58,-2.87,345,326,395,332,261,10
799,0.34,0.87,0.4,2.14,-6.29,-3.6,346,330,397,328,262,10
800,0.35,0.87,0.38,0.0,-5.0,-2.56,349,326,399,332,263,10
801,0.35,0.88,0.37,1.04,-11.29,-2.32,346,334,400,335,260,10
802,0.36,0.89,0.37,1.28,-7.51,-4.7,347,326,397,333,260,10
803,0.34,0.89,0.33,0.37,-5.13,-4.33,346,321,393,327,262,10
804,0.35,0.87,0.34,-0.06,-2.38,-3.42,342,326,396,334,261,10
805,0.37,0.91,0.32,-0.49,-0.92,-4.03,347,323,394,331,262,10
806,0.36,0.9,0.32,0.12,-15.38,1.65,346,326,401,333,261,10
807,0.32,0.86,0.33,2.87,7.02,2.2,345,326,395,331,263,10
808,0.38,0.86,0.33,-6.23,-13.24,-4.58,346,326,406,332,273,10
809,0.34,0.87,0.28,-7.81,-13.0,-1.65,347,327,398,332,261,10
810,0.36,0.86,0.36,2.38,-0.67,5.19,347,329,399,331,274,10
811,0.37,0.88,0.36,1.59,-0.06,-1.04,347,329,398,339,260,10
812,0.37,0.87,0.33,5.8,-5.0,-2.2,347,332,397,334,289,10
813,0.37,0.86,0.34,0.61,-1.28,-0.79,346,328,396,332,264,10
814,0.38,0.89,0.33,0.0,-2.38,-0.24,343,328,397,331,264,10
815,0.39,0.87,0.31,1.04,-6.47,-3.05,348,332,394,333,260,10
816,0.38,0.88,0.32,1.22,-0.85,-2.44,345,331,398,330,262,10
817,0.38,0.86,0.32,-2.01,-4.76,-1.59,349,325,397,341,262,10
818,0.38,0.87,0.33,-0.55,-4.33,-3.3,344,328,397,330,271,10
819,0.38,0.87,0.32,1.71,-1.71,-2.5,348,326,402,331,261,10
820,0.37,0.87,0.33,-1.53,-4.03,-2.2,346,327,399,332,275,10
821,0.37,0.87,0.32,1.22,-4.21,-2.38,346,328,397,333,263,10
822,0.37,0.86,0.32,-0.49,-4.21,-2.81,349,332,396,332,258,10
823,0.36,0.9,0.32,0.12,-4.03,-3.6,349,329,395,330,278,10
824,0.37,0.87,0.32,0.24,-2.2,-2.32,348,328,398,328,264,10
825,0.36,0.87,0.33,0.43,-2.38,-1.77,349,333,394,332,265,10
826,0.38,0.87,0.33,-1.22,-2.81,-2.56,349,335,393,332,262,10
827,0.37,0.87,0.34,-0.37,-2.38,-2.38,349,326,396,333,262,10
828,0.37,0.87,0.34,-0.12,-3.36,-1.95,349,330,395,334,262,10
829,0.37,0.87,0.33,-0.37,-4.15,-1.83,352,334,391,333,262,10
830,0.37,0.86,0.34,-7.32,-4.33,0.61,351,324,395,331,262,10
831,0.38,0.86,0.35,0.55,-3.23,-2.56,349,332,395,331,264,10
832,0.38,0.87,0.34,1.59,-2.2,-4.03,352,328,396,333,264,10
833,0.36,0.87,0.33,1.95,-1.95,-1.71,350,332,395,334,263,10
834,0.36,0.87,0.33,2.5,2.44,-2.81,350,333,395,334,262,10
835,0.35,0.88,0.34,0.43,0.24,-2.93,344,330,393,330,262,10
836,0.37,0.87,0.34,2.01,-2.2,-2.56,349,329,397,331,295,10
837,0.36,0.87,0.33,0.12,-3.6,-2.69,348,332,391,331,263,10
838,0.37,0.87,0.32,0.43,-1.95,-3.3,349,329,394,333,262,10
839,0.36,0.88,0.32,0.61,-4.15,-2.32,347,330,395,331,263,10
840,0.37,0.87,0.33,-1.65,-5.31,-2.2,344,329,395,331,262,10
841,0.35,0.87,0.33,-0.37,-3.05,-1.95,351,329,394,335,264,10
842,0.36,0.87,0.34,-0.55,-2.69,-3.17,349,328,394,330,262,10
843,0.35,0.87,0.33,0.85,-2.93,-1.95,351,331,394,328,264,10
844,0.36,0.87,0.33,-0.24,-3.48,-2.26,350,327,392,334,262,10
845,0.36,0.88,0.34,0.12,-2.38,-2.01,348,329,393,332,263,10
846,0.37,0.87,0.33,-0.24,-3.36,-2.32,351,330,390,331,265,10
847,0.36,0.86,0.34,0.79,-3.48,-1.65,349,326,390,331,263,10
848,0.36,0.87,0.34,1.34,-3.05,-3.42,349,324,395,331,262,10
849,0.37,0.88,0.34,0.49,-1.95,-3.3,348,331,396,329,264,10
850,0.37,0.87,0.33,0.55,-2.5,-2.87,349,327,406,331,265,10
851,0.38,0.88,0.33,1.1,-2.62,-4.21,347,332,392,334,265,10
852,0.36,0.87,0.33,0.49,-2.38,-3.17,348,325,393,331,265,10
853,0.36,0.87,0.34,0.55,-3.05,-2.38,348,330,395,331,262,10
854,0.36,0.87,0.34,0.0,-3.11,-2.87,347,334,393,330,263,10
855,0.36,0.87,0.34,0.79,-3.36,-2.93,347,330,394,330,263,10
856,0.36,0.87,0.33,-0.18,-1.22,-3.85,349,334,406,330,267,10
857,0.37,0.87,0.33,1.34,-2.93,-2.5,349,326,392,339,265,10
858,0.36,0.87,0.33,0.49,-2.93,-2.69,346,329,395,331,265,10
859,0.35,0.87,0.34,0.92,-2.69,-2.2,349,331,391,330,262,10
860,0.36,0.87,0.34,0.43,-2.38,-2.08,349,333,396,331,265,10
861,0.35,0.87,0.34,1.1,-2.2,-2.56,349,335,393,333,265,10
862,0.36,0.87,0.34,-0.73,-4.21,-2.32,345,332,394,331,263,10
863,0.36,0.88,0.34,0.37,-3.97,-2.14,347,334,393,333,276,10
864,0.36,0.87,0.34,-0.49,-2.56,-2.08,350,329,393,332,261,10
865,0.36,0.86,0.34,0.98,-2.56,-2.69,345,335,394,332,259,10
866,0.37,0.87,0.35,-0.67,-3.97,-1.89,347,329,392,331,262,10
867,0.37,0.88,0.35,1.16,-1.83,-3.42,347,326,392,332,272,10
868,0.36,0.87,0.35,0.0,-2.93,-3.05,345,329,391,332,265,10
869,0.36,0.87,0.34,0.43,-2.75,-2.01,350,334,392,333,264,10
870,0.36,0.86,0.35,0.18,-2.32,-2.2,350,327,391,331,263,10
871,0.37,0.86,0.34,0.49,-2.99,-2.44,347,333,395,332,265,10
872,0.36,0.86,0.35,0.92,-1.59,-2.26,347,333,396,332,266,10
873,0.36,0.86,0.35,0.98,-3.85,-2.32,345,330,394,334,263,10
874,0.37,0.87,0.34,1.28,-2.93,-1.77,347,334,395,333,264,10
875,0.36,0.87,0.34,-0.06,-3.85,-2.32,345,330,393,335,263,10
876,0.36,0.87,0.36,-0.61,-2.81,-3.6,342,332,392,331,266,10
877,0.36,0.86,0.35,-0.24,-1.89,-2.32,343,327,394,333,266,10
878,0.35,0.85,0.35,0.85,-2.93,-1.46,347,330,391,335,262,10
879,0.37,0.87,0.35,0.31,-3.54,-1.71,349,329,394,331,263,10
880,0.36,0.86,0.34,-1.65,1.71,-1.1,344,336,394,334,265,10
881,0.39,0.82,0.35,3.23,2.93,5.68,348,326,394,332,263,10
882,0.37,0.87,0.39,6.47,7.51,3.05,350,331,393,332,262,10
883,0.34,0.81,0.4,-0.85,0.37,1.04,343,330,395,327,264,10
884,0.38,0.86,0.37,-2.56,-6.41,-8.24,349,332,393,332,264,10
885,0.38,0.84,0.39,-5.62,-7.69,-5.0,349,339,392,334,263,10
886,0.41,0.85,0.37,-2.81,-10.25,-2.32,344,334,393,332,266,10
887,0.37,0.88,0.36,4.09,-0.79,-1.16,346,328,390,337,261,10
888,0.4,0.86,0.35,1.22,-1.28,-2.93,348,329,393,332,259,10
889,0.37,0.86,0.37,0.67,-3.05,-2.93,344,329,395,332,265,10
890,0.39,0.86,0.36,-1.28,-5.13,-2.08,346,325,391,334,267,10
891,0.39,0.85,0.35,1.22,-1.71,-4.33,346,333,391,332,261,10
892,0.38,0.87,0.36,-0.79,-4.15,-2.87,347,331,394,340,262,10
893,0.39,0.84,0.35,1.28,-1.83,-3.91,348,330,389,335,263,10
894,0.39,0.86,0.36,-2.14,-5.13,-2.81,347,328,393,335,266,10
895,0.39,0.84,0.35,-0.18,-3.11,-1.77,347,331,393,334,261,10
896,0.39,0.86,0.36,0.43,-3.23,-3.42,349,331,397,333,265,10
897,0.38,0.85,0.35,2.01,-3.48,-2.56,346,333,398,333,264,10
898,0.38,0.86,0.35,1.04,-3.54,-3.54,347,334,391,333,266,10
899,0.38,0.85,0.35,-0.85,-3.23,-1.95,347,336,391,332,265,10
900,0.38,0.85,0.35,-0.67,-2.26,-3.05,348,334,393,331,263,10
901,0.38,0.86,0.36,0.79,-1.1,-3.11,345,332,394,341,263,10
902,0.37,0.86,0.36,-0.12,-3.97,-3.11,347,331,391,335,263,10
903,0.37,0.86,0.36,-0.18,-4.09,-2.62,352,333,394,328,266,10
904,0.37,0.85,0.35,0.37,-3.91,-2.5,347,332,392,329,264,10
905,0.38,0.86,0.35,0.67,-4.27,-2.69,348,334,392,331,263,10
906,0.37,0.86,0.35,1.04,-2.2,-2.56,344,336,394,334,265,10
907,0.38,0.86,0.35,0.37,-2.87,-2.93,347,328,392,332,263,10
908,0.38,0.85,0.35,-0.49,-3.48,-2.32,346,326,392,333,264,10
909,0.38,0.86,0.35,0.0,-3.36,-2.99,347,333,393,332,273,10
910,0.38,0.87,0.34,4.39,-3.48,-3.78,345,331,395,332,265,10
911,0.37,0.86,0.36,0.18,-2.75,-3.17,347,331,392,329,265,10
912,0.36,0.85,0.36,-1.34,-4.58,-1.95,347,330,390,332,265,10
913,0.37,0.86,0.36,-0.61,-3.48,-2.44,348,336,391,333,263,10
914,0.38,0.87,0.35,0.31,-3.97,-2.99,348,333,391,330,263,10
915,0.36,0.85,0.36,0.85,-3.6,-2.81,348,334,392,336,270,10
916,0.37,0.86,0.36,1.04,-2.5,-2.69,344,328,393,336,264,10
917,0.36,0.86,0.35,1.4,-1.89,-2.56,348,327,393,333,266,10
918,0.37,0.85,0.35,0.79,-2.75,-2.44,349,327,393,332,263,10
919,0.37,0.86,0.35,0.55,-3.54,-2.87,347,336,393,329,264,10
920,0.38,0.86,0.35,1.04,-3.11,-3.17,348,335,395,331,265,10
921,0.37,0.86,0.36,-0.49,-1.89,-2.69,346,338,392,334,262,10
922,0.36,0.86,0.36,0.37,-2.56,-2.87,347,334,392,334,266,10
923,0.37,0.86,0.36,-1.28,-4.21,-1.71,344,331,392,334,263,10
924,0.36,0.86,0.36,0.73,-2.5,-2.44,350,327,401,333,264,10
925,0.37,0.87,0.36,0.79,-3.3,-2.62,349,337,391,333,262,10
926,0.36,0.86,0.36,0.55,-3.05,-2.81,349,331,394,335,263,10
927,0.36,0.86,0.36,0.73,-2.93,-3.17,344,332,406,332,261,10
928,0.37,0.86,0.35,0.31,-2.08,-2.38,345,350,392,332,261,10
929,0.36,0.87,0.36,0.49,-2.26,-2.81,352,335,393,329,263,10
930,0.36,0.86,0.36,-0.43,-3.11,-2.87,345,336,396,332,263,10
931,0.36,0.85,0.36,0.12,-2.93,-2.2,348,333,392,331,267,10
932,0.36,0.86,0.36,0.73,-2.75,-2.75,350,336,391,333,265,10
933,0.37,0.87,0.37,-1.53,-5.74,-2.99,349,330,392,332,261,10
934,0.37,0.85,0.36,-2.2,-4.33,-1.22,349,332,396,332,264,10
935,0.35,0.85,0.37,-4.46,-1.53,-5.0,346,332,389,332,262,10
936,0.36,0.83,0.38,-0.31,-4.82,-1.1,348,328,395,332,266,10
937,0.36,0.85,0.38,4.76,12.27,5.25,350,329,388,332,265,10
938,0.36,0.87,0.39,4.64,9.34,1.89,348,332,398,333,265,10
939,0.42,0.86,0.46,6.59,11.41,0.73,348,332,393,332,263,10
940,0.39,0.84,0.43,4.7,-10.01,-1.46,350,330,390,332,264,10
941,0.41,0.85,0.4,0.92,-3.97,0.12,350,331,393,333,263,10
942,0.42,0.83,0.42,-0.61,1.22,0.37,349,336,393,332,264,10
943,0.46,0.82,0.39,-0.67,-3.48,3.3,346,329,393,332,266,10
944,0.48,0.85,0.45,4.27,0.31,-2.38,345,332,393,329,265,10
945,0.45,0.78,0.4,-4.21,-6.04,-4.94,348,330,393,334,266,10
946,0.48,0.79,0.43,2.44,-1.46,-2.99,345,332,393,329,261,10
947,0.45,0.79,0.45,2.32,-2.08,-1.71,353,336,395,334,265,10
948,0.48,0.78,0.42,2.87,-2.75,-2.44,347,337,398,331,263,10
949,0.45,0.77,0.43,0.98,-3.66,-4.03,348,328,395,332,262,10
950,0.44,0.79,0.42,-2.01,-8.42,-4.09,343,329,392,333,266,10
951,0.44,0.8,0.4,2.32,-2.81,-1.95,345,332,401,332,262,10
952,0.46,0.8,0.42,-7.08,-0.06,0.18,348,336,395,330,264,10
953,0.43,0.79,0.42,1.83,-1.65,-2.69,346,329,397,335,261,10
954,0.43,0.79,0.4,0.61,-4.64,-3.05,346,334,395,332,269,10
955,0.43,0.81,0.42,-1.4,-2.32,-1.95,349,337,393,332,264,10
956,0.45,0.8,0.41,2.81,-0.73,-2.26,344,333,395,336,264,10
957,0.43,0.8,0.43,-1.16,-2.87,-2.75,348,346,398,332,264,10
958,0.43,0.8,0.42,0.98,-2.99,-3.05,349,328,394,331,263,10
959,0.43,0.8,0.42,1.65,-2.08,-2.56,347,334,393,332,264,10
960,0.43,0.8,0.42,0.49,-3.17,-3.05,350,336,392,334,262,10
961,0.44,0.8,0.42,0.85,-2.87,-3.11,349,330,393,334,266,10
962,0.42,0.81,0.42,0.18,-2.5,-3.48,349,331,394,333,264,10
963,0.43,0.8,0.42,-0.98,-2.81,-1.71,348,334,394,336,263,10
964,0.43,0.81,0.42,0.85,-4.09,-3.78,348,334,394,333,263,10
965,0.43,0.8,0.41,0.43,-3.66,-2.38,350,333,393,333,290,10
966,0.43,0.81,0.43,1.65,-1.4,-2.38,346,337,394,332,267,10
967,0.42,0.81,0.41,0.73,-2.32,-2.56,348,339,394,332,267,10
968,0.43,0.8,0.42,2.14,-2.08,-3.17,346,338,393,330,267,10
969,0.42,0.82,0.41,-2.38,-2.44,-2.26,349,332,394,332,264,10
970,0.42,0.81,0.42,2.14,-2.08,-3.72,349,335,397,334,264,10
971,0.42,0.81,0.41,2.93,-4.94,-7.93,346,325,406,333,264,10
972,0.4,0.82,0.41,-1.16,-2.87,-3.11,351,329,396,336,263,10
973,0.41,0.82,0.41,-0.12,-3.42,-2.14,353,327,396,333,264,10
974,0.41,0.82,0.41,0.98,-1.71,-2.2,353,331,393,333,262,10
975,0.4,0.82,0.42,-1.16,-2.2,-1.89,351,330,395,334,270,10
976,0.4,0.82,0.42,-0.06,-1.16,-2.75,350,327,394,335,264,10
977,0.4,0.82,0.43,0.37,-2.99,-2.44,347,331,398,334,262,10
978,0.4,0.82,0.43,-0.37,-3.91,-2.69,353,328,398,333,270,10
979,0.39,0.83,0.42,1.53,-3.66,-2.26,352,327,396,334,268,10
980,0.4,0.82,0.41,0.92,-2.93,-2.81,348,332,395,334,266,10
981,0.39,0.83,0.42,0.61,-2.75,-1.95,347,329,397,335,264,10
982,0.4,0.82,0.42,0.0,-3.36,-2.81,350,332,398,334,266,10
983,0.4,0.82,0.43,0.85,-1.83,-2.32,351,331,397,337,263,10
984,0.4,0.82,0.42,0.61,-2.93,-3.17,351,330,392,336,263,10
985,0.4,0.82,0.43,0.79,-3.66,-1.77,352,328,397,338,266,10
986,0.41,0.82,0.42,0.61,-2.38,-3.42,353,329,397,335,265,10
987,0.39,0.82,0.42,-0.31,-2.87,-4.27,352,337,397,334,264,10
988,0.37,0.81,0.43,0.24,0.85,-2.5,350,333,394,341,305,10
989,0.42,0.83,0.43,0.43,-4.27,-3.11,353,332,393,334,266,10
990,0.4,0.81,0.44,-2.93,-4.94,-3.6,351,332,396,337,267,10
991,0.4,0.81,0.45,-1.28,-4.7,-0.43,353,330,394,333,266,10
992,0.43,0.79,0.45,-3.11,-1.59,0.49,348,337,393,335,264,10
993,0.45,0.8,0.45,-0.55,-6.47,-2.2,351,344,392,333,265,10
994,0.41,0.81,0.45,3.36,-1.46,-2.87,347,331,393,338,266,10
995,0.39,0.82,0.45,-1.1,-1.59,-2.75,349,345,395,334,267,10
996,0.4,0.8,0.44,-0.24,-4.09,-2.32,347,332,396,334,264,10
997,0.41,0.8,0.44,0.92,-4.82,-1.71,350,332,398,331,263,10
998,0.4,0.81,0.45,-0.43,-1.59,-3.91,349,328,396,352,264,10
999,0.42,0.8,0.48,3.66,-1.46,-4.33,344,331,398,335,265,10
1000,0.41,0.79,0.45,3.6,-2.08,-2.32,347,338,395,337,267,10
1001,0.41,0.8,0.44,0.79,-3.3,-2.14,349,332,409,336,267,10
1002,0.4,0.81,0.44,0.49,-1.34,-1.34,347,339,395,337,265,10
1003,0.41,0.81,0.46,-0.61,-4.94,-3.11,346,333,391,338,268,10
1004,0.4,0.81,0.45,-0.49,-3.72,-2.56,349,336,394,333,303,10
1005,0.4,0.8,0.45,0.37,-1.95,-2.99,349,333,396,333,267,10
1006,0.4,0.81,0.45,0.37,-3.05,-2.44,346,333,400,341,296,10
1007,0.4,0.81,0.45,-0.37,-3.11,-2.26,349,335,397,334,266,10
1008,0.39,0.81,0.45,-0.31,-3.05,-1.95,349,337,394,334,269,10
1009,0.4,0.81,0.46,-0.92,-1.46,-0.55,349,331,395,335,266,10
1010,0.42,0.81,0.46,1.28,-5.92,-1.16,349,333,397,339,266,10
1011,0.43,0.81,0.45,1.59,-4.94,-2.81,348,333,396,340,266,10
1012,0.43,0.8,0.44,-1.89,-4.76,-3.3,349,336,394,334,269,10
1013,0.43,0.79,0.47,-5.43,-1.04,-2.93,349,330,394,332,267,10
1014,0.43,0.79,0.47,3.48,2.56,-3.48,350,333,396,334,266,10
1015,0.39,0.84,0.5,7.63,0.37,-4.39,348,336,395,336,268,10
1016,0.37,0.78,0.42,-5.98,-4.46,-4.7,349,332,394,339,268,10
1017,0.43,0.79,0.44,-1.1,-2.81,-1.4,348,332,397,335,269,10
1018,0.42,0.79,0.47,1.53,-1.34,-1.53,349,337,395,336,270,10
1019,0.4,0.79,0.48,-2.87,-2.08,-0.37,346,333,391,333,266,10
1020,0.4,0.79,0.47,1.83,-1.65,-1.53,349,334,395,336,268,10
1021,0.41,0.79,0.47,-0.73,-3.54,-2.08,351,333,393,337,270,10
1022,0.44,0.8,0.48,-4.64,-4.76,1.83,348,332,400,338,269,10
1023,0.51,0.7,0.44,-0.31,-5.86,-8.79,351,332,395,336,277,10
1024,0.28,0.79,0.49,-19.84,-13.12,-2.2,348,334,390,338,268,10
1025,0.41,0.71,0.53,4.7,-12.33,-5.07,346,336,395,339,267,10
1026,0.47,0.77,0.49,14.95,1.95,-1.89,349,333,395,336,270,10
1027,0.36,0.8,0.46,2.26,7.87,3.42,346,334,395,338,268,10
1028,0.48,0.74,0.46,-2.14,-5.86,-2.5,347,332,397,338,267,10
1029,0.39,0.8,0.46,7.2,-0.24,4.7,350,337,394,336,299,10
1030,0.43,0.73,0.47,-6.59,-14.4,-6.47,348,329,398,332,266,10
1031,0.48,0.75,0.47,3.6,-1.89,-0.73,349,333,394,336,268,10
1032,0.5,0.75,0.47,-4.76,-3.36,-5.92,344,332,394,340,267,10
1033,0.46,0.74,0.46,1.46,-0.12,-1.04,344,336,394,335,268,10
1034,0.47,0.76,0.49,-0.37,-3.3,-3.78,347,337,394,336,268,10
1035,0.46,0.76,0.47,0.18,-3.6,-2.56,349,336,396,334,270,10
1036,0.46,0.76,0.47,2.75,-2.32,-3.72,346,335,394,338,266,10
1037,0.46,0.76,0.47,0.92,-4.46,-2.99,351,337,394,337,270,10
1038,0.46,0.76,0.46,-0.06,-3.78,-3.05,348,337,394,335,267,10
1039,0.46,0.77,0.46,3.11,-0.55,-3.54,348,332,397,339,267,10
1040,0.45,0.75,0.46,-0.49,-0.49,-4.27,348,335,399,336,270,10
1041,0.44,0.77,0.47,0.49,-1.71,-1.89,346,326,394,336,266,10
1042,0.45,0.78,0.47,0.18,-4.27,-2.81,348,327,396,333,268,10
1043,0.44,0.77,0.46,-1.65,-4.33,-3.11,348,327,393,342,270,10
1044,0.46,0.76,0.5,-3.11,-1.95,-0.12,351,333,397,337,270,10
1045,0.65,0.56,0.47,-12.39,-12.21,5.98,415,298,396,329,251,10
1046,0.54,0.64,0.59,6.65,-13.98,9.09,420,303,401,337,253,10
1047,0.55,0.6,0.55,-0.12,3.11,-0.92,418,303,401,339,253,10
1048,0.54,0.65,0.52,19.04,7.87,-12.76,414,307,402,334,250,10
1049,0.59,0.67,0.52,8.0,-11.66,-1.53,415,309,407,324,249,10
1050,0.56,0.75,0.49,24.54,-8.91,5.86,414,307,402,320,247,10
1051,0.43,0.76,0.41,1.46,-12.02,5.19,417,313,405,321,249,10
1052,0.53,0.7,0.47,-12.94,-6.84,1.04,417,315,402,323,249,10
1053,0.5,0.7,0.49,-1.71,-6.47,-3.3,413,313,403,324,250,10
1054,0.54,0.67,0.47,-6.41,-1.95,2.62,418,316,405,327,248,10
1055,0.61,0.68,0.44,5.43,4.88,-3.48,413,312,402,326,248,10
1056,0.62,0.68,0.46,3.17,-1.77,-3.85,415,313,401,323,248,10
1057,0.56,0.67,0.49,-2.56,-0.98,-0.12,411,317,408,329,250,10
1058,0.56,0.65,0.47,-3.17,-0.79,-1.04,416,321,401,330,247,10
1059,0.6,0.65,0.51,-3.05,-4.64,-0.49,413,314,402,329,247,10
1060,0.57,0.65,0.52,-2.56,-5.0,2.14,416,321,406,331,251,10
1061,0.57,0.63,0.49,-0.37,-2.62,-3.17,415,320,403,328,249,10
1062,0.6,0.66,0.5,1.16,-3.42,-3.97,418,323,401,328,252,10
1063,0.58,0.65,0.5,2.2,-2.81,-6.23,417,329,403,330,251,10
1064,0.55,0.68,0.51,1.1,-1.28,-4.09,415,317,403,328,246,10
1065,0.55,0.67,0.51,2.56,-4.46,1.1,417,315,406,328,249,10
1066,0.56,0.65,0.51,-1.59,-4.15,-0.43,415,322,416,330,249,10
1067,0.57,0.66,0.52,0.55,-0.73,-0.98,416,321,405,338,239,10
1068,0.57,0.65,0.51,1.95,-4.03,-5.19,418,320,403,336,252,10
1069,0.58,0.64,0.5,4.33,-2.62,0.73,413,320,401,329,249,10
1070,0.57,0.65,0.51,-0.61,1.04,-1.53,417,324,404,336,251,10
1071,0.6,0.64,0.52,-1.34,-0.12,-3.78,418,315,404,329,248,10
1072,0.59,0.63,0.53,0.12,-3.54,1.59,420,321,403,329,248,10
1073,0.57,0.61,0.54,3.97,-3.97,-4.82,415,319,401,329,246,10
1074,0.56,0.64,0.54,-1.89,-2.08,-3.6,418,318,404,331,251,10
1075,0.56,0.62,0.54,-0.79,-4.52,-4.15,415,320,405,329,250,10
1076,0.58,0.62,0.54,-0.24,-5.31,0.06,415,323,405,330,250,10
1077,0.58,0.62,0.54,-0.67,-0.79,-0.43,417,316,403,340,252,10
1078,0.57,0.62,0.55,4.09,-2.26,-3.36,420,321,403,339,251,10
1079,0.6,0.63,0.54,-2.56,0.31,-0.85,418,315,406,333,251,10
1080,0.61,0.58,0.54,1.1,-9.52,0.0,418,316,402,328,250,10
1081,0.61,0.7,0.6,-5.13,17.64,-15.2,415,322,407,331,252,10
1082,0.64,0.61,0.57,-0.67,-5.49,-0.18,419,321,403,336,246,10
1083,0.6,0.58,0.58,2.62,-6.53,-4.52,419,327,407,336,249,10
1084,0.64,0.59,0.59,8.42,-0.06,-6.04,419,314,403,334,249,10
1085,0.59,0.62,0.51,1.89,-0.98,-5.19,421,321,402,336,247,10
1086,0.6,0.63,0.53,4.03,-0.43,-4.52,416,323,402,335,250,10
1087,0.59,0.65,0.55,0.43,-1.71,-0.43,421,323,400,333,278,10
1088,0.64,0.67,0.53,4.58,-3.3,-1.83,420,324,402,336,253,10
1089,0.55,0.62,0.52,18.8,-2.99,-18.86,417,321,402,332,253,10
1090,0.6,0.69,0.46,4.09,-6.23,-1.22,417,322,404,337,250,10
1091,0.54,0.65,0.45,11.47,-15.44,1.71,415,324,402,338,250,10
1092,0.58,0.75,0.42,-1.59,-7.75,-5.74,414,326,406,337,278,10
1093,0.59,0.74,0.4,5.62,0.06,-5.07,419,323,405,339,251,10
1094,0.62,0.71,0.36,6.23,-0.92,-1.22,421,321,406,336,250,10
1095,0.61,0.71,0.35,3.78,-1.77,-3.72,420,319,411,338,250,10
1096,0.62,0.71,0.35,-2.93,-1.83,-2.56,415,324,404,343,251,10
1097,0.62,0.71,0.38,1.46,-0.79,-3.78,420,328,406,342,251,10
1098,0.57,0.68,0.4,5.0,-2.81,2.75,426,320,403,337,251,10
1099,0.61,0.68,0.39,5.25,0.24,-5.13,421,327,403,337,250,10
1100,0.58,0.72,0.33,-6.53,-4.15,5.62,415,328,399,339,254,10
1101,0.6,0.7,0.36,3.17,-3.11,0.98,420,324,403,337,264,10
1102,0.59,0.71,0.36,1.53,-2.62,-0.24,420,331,400,340,254,10
1103,0.65,0.68,0.35,-0.98,-5.92,0.0,414,325,401,340,252,10
1104,0.63,0.7,0.36,3.85,-2.38,-2.32,420,327,407,337,252,10
1105,0.64,0.67,0.35,5.62,-5.19,-0.98,418,325,404,341,255,10
1106,0.6,0.69,0.32,17.7,-11.35,9.03,420,325,401,341,255,10
1107,0.65,0.69,0.31,3.85,-2.81,-9.34,417,324,402,342,251,10
1108,0.61,0.66,0.32,-4.76,-2.87,-2.01,419,334,403,339,253,10
1109,0.61,0.72,0.33,1.4,-2.5,-6.59,418,326,399,345,254,10
1110,0.61,0.73,0.31,-0.31,-0.79,-4.27,419,332,403,342,249,10
1111,0.6,0.82,0.39,-13.37,-1.71,-4.15,417,331,402,344,254,10
1112,0.59,0.78,0.37,2.69,-2.26,-6.77,416,329,406,345,252,10
1113,0.6,0.75,0.34,0.0,-4.52,-5.43,421,322,405,341,254,10
1114,0.57,0.73,0.34,-1.34,-4.33,-2.08,420,330,403,343,252,10
1115,0.58,0.73,0.33,1.53,-3.97,-0.98,418,330,403,340,255,10
1116,0.59,0.74,0.32,3.97,-4.64,-2.93,419,336,407,332,253,10
1117,0.59,0.75,0.31,1.34,-2.87,-2.01,419,328,400,334,251,10
1118,0.58,0.76,0.32,2.14,-1.95,-3.36,419,332,404,331,254,10
1119,0.58,0.73,0.3,-2.93,-5.0,0.18,421,329,402,338,252,10
1120,0.61,0.74,0.31,2.5,-1.77,0.49,418,329,404,333,252,10
1121,0.6,0.71,0.3,-1.04,-5.86,-0.37,420,327,402,338,255,10
1122,0.61,0.73,0.31,0.43,-2.93,-2.38,419,329,414,332,254,10
1123,0.61,0.73,0.32,-0.98,-3.78,-1.83,421,329,401,336,260,10
1124,0.63,0.73,0.3,1.22,-2.01,-1.83,415,336,399,339,252,10
1125,0.62,0.72,0.3,0.73,-4.15,-4.76,420,329,399,337,253,10
1126,0.62,0.75,0.28,0.37,-5.07,-4.76,419,332,400,339,256,10
1127,0.6,0.76,0.27,2.56,-2.44,-1.04,420,329,402,337,256,10
1128,0.62,0.74,0.25,-2.26,-4.09,-1.59,421,329,403,335,253,10
1129,0.61,0.75,0.26,2.87,-3.17,-5.74,416,330,403,338,257,10
1130,0.6,0.75,0.26,0.92,-3.66,-3.85,420,328,401,348,254,10
1131,0.62,0.75,0.27,2.14,-0.24,-1.95,416,333,402,339,253,10
1132,0.55,0.74,0.28,-9.28,-0.98,-0.85,420,329,403,340,254,10
1133,0.6,0.77,0.3,-0.37,-3.85,0.31,420,325,402,338,252,10
1134,0.6,0.76,0.25,4.58,-3.72,2.75,421,326,403,340,254,10
1135,0.57,0.77,0.32,0.55,-0.98,0.31,419,330,401,341,254,10
1136,0.61,0.77,0.31,6.29,3.91,-6.35,421,335,403,336,254,10
1137,0.59,0.73,0.31,-0.92,-2.2,-7.08,417,336,403,341,252,10
1138,0.54,0.73,0.33,-2.93,-7.75,0.0,416,332,404,342,256,10
1139,0.62,0.75,0.32,-2.44,-9.64,-1.1,415,332,406,344,256,10
1140,0.6,0.7,0.31,1.53,-4.94,-0.18,417,327,405,345,249,10
1141,0.61,0.71,0.29,-0.61,-4.7,-1.59,423,327,406,346,250,10
1142,0.63,0.69,0.3,-5.25,-4.58,-1.1,422,332,402,345,263,10
1143,0.62,0.7,0.34,-0.92,-3.05,-1.71,419,336,404,348,255,10
1144,0.66,0.75,0.34,3.6,3.6,-2.99,420,337,406,348,259,10
1145,0.57,0.75,0.31,4.21,-2.38,-10.62,422,337,404,353,256,10
1146,0.67,0.71,0.32,-1.59,6.35,-4.64,421,332,402,347,256,10
1147,0.62,0.71,0.27,-2.62,-1.83,-8.0,416,329,403,343,253,10
1148,0.6,0.76,0.32,-9.4,-9.58,1.59,415,337,406,345,255,10
1149,0.6,0.74,0.35,13.98,-2.14,-8.42,414,335,402,342,257,10
1150,0.58,0.73,0.3,-1.4,-2.26,-6.71,412,335,403,339,254,10
1151,0.61,0.77,0.28,16.05,-3.17,-0.06,414,339,402,343,255,10
1152,0.55,0.78,0.27,-0.43,-4.33,-7.75,415,335,401,340,254,10
1153,0.52,0.8,0.27,1.77,0.06,-5.98,420,331,405,340,256,10
1154,0.55,0.82,0.27,-5.55,-3.66,4.03,422,337,401,344,256,10
1155,0.56,0.79,0.28,-2.14,-5.49,1.65,421,337,406,344,256,10
1156,0.57,0.76,0.3,0.49,-4.03,0.0,422,334,406,339,256,10
1157,0.58,0.75,0.29,0.92,-1.95,-1.77,422,334,408,342,255,10
1158,0.58,0.76,0.32,1.22,-0.49,-4.64,423,339,405,344,256,10
1159,0.57,0.76,0.31,4.27,-6.59,0.85,420,345,405,345,257,10
1160,0.58,0.75,0.3,1.77,-2.93,-3.48,423,335,405,346,262,10
1161,0.58,0.77,0.31,1.04,-2.75,-0.73,420,336,404,346,255,10
1162,0.6,0.75,0.3,-3.97,-6.71,0.06,418,342,405,343,258,10
1163,0.59,0.76,0.29,2.75,-2.99,-2.01,419,343,408,345,257,10
1164,0.58,0.75,0.29,-1.71,-3.54,-3.42,419,339,403,346,257,10
1165,0.59,0.76,0.3,2.75,-1.77,-5.19,419,344,404,345,255,10
1166,0.59,0.75,0.3,-2.44,-2.56,-5.43,421,338,404,346,258,10
1167,0.58,0.76,0.32,2.44,-2.56,-3.72,420,340,408,347,258,10
1168,0.57,0.76,0.3,2.38,-4.21,-3.48,416,344,404,345,257,10
1169,0.58,0.77,0.31,-0.49,-3.6,-2.26,417,339,404,346,255,10
1170,0.57,0.76,0.31,-0.24,-2.69,-2.56,420,340,403,347,257,10
1171,0.57,0.78,0.31,0.85,-3.05,-3.42,416,336,402,349,259,10
1172,0.57,0.75,0.32,-0.73,-2.2,-1.4,418,335,402,346,257,10
1173,0.53,0.77,0.33,-1.65,-0.43,-5.0,423,333,404,343,254,10
1174,0.57,0.76,0.31,-0.67,-3.48,-2.01,421,339,407,351,256,10
1175,0.57,0.77,0.32,-1.65,-4.94,-4.27,420,340,405,346,255,10
1176,0.59,0.76,0.32,0.37,-3.72,-1.46,417,333,407,345,257,10
1177,0.56,0.77,0.33,-1.1,-2.56,2.32,420,338,407,339,257,10
1178,0.56,0.76,0.31,0.98,-3.54,-2.5,420,329,407,336,257,10
1179,0.57,0.76,0.31,-0.55,-1.4,-1.59,421,335,406,343,257,10
1180,0.59,0.74,0.31,-4.15,-2.69,4.88,420,336,407,345,256,10
1181,0.58,0.76,0.31,3.97,-6.65,5.92,421,343,404,342,258,10
1182,0.58,0.75,0.31,-3.05,-2.62,-4.09,421,341,404,350,256,10
1183,0.58,0.75,0.29,-3.05,-5.19,0.31,419,337,402,344,255,10
1184,0.55,0.75,0.32,3.54,-7.32,4.15,422,333,405,342,257,10
1185,0.6,0.74,0.26,0.61,-2.5,-4.33,420,338,405,344,256,10
1186,0.6,0.76,0.28,0.85,-1.71,-3.36,421,344,405,340,257,10
1187,0.59,0.75,0.29,-1.89,-3.17,-0.92,416,339,405,341,256,10
1188,0.6,0.75,0.3,0.18,-4.15,0.43,421,356,407,340,256,10
1189,0.59,0.76,0.29,4.46,0.06,-6.04,420,344,407,347,255,10
1190,0.6,0.75,0.26,1.77,-1.71,-5.98,421,341,406,343,273,10
1191,0.58,0.75,0.3,-0.92,-2.01,-5.37,418,337,408,344,255,10
1192,0.58,0.76,0.3,0.18,-2.01,-2.56,419,339,406,344,257,10
1193,0.58,0.77,0.3,-0.73,-2.75,-2.87,418,347,407,347,258,10
1194,0.57,0.78,0.3,2.62,-1.28,-2.32,422,330,407,346,258,10
1195,0.56,0.75,0.31,1.77,-4.76,-3.05,420,326,408,343,257,10
1196,0.59,0.77,0.31,3.48,-2.75,-1.53,420,322,404,342,257,10
1197,0.58,0.76,0.31,1.22,-3.17,-3.05,420,330,404,341,258,10
1198,0.58,0.76,0.31,0.79,-2.62,-2.44,419,325,413,343,257,10
1199,0.59,0.77,0.3,1.22,-3.17,-1.16,420,325,405,346,256,10
1200,0.59,0.75,0.3,0.73,-4.88,-2.62,417,330,404,344,254,10
1201,0.58,0.75,0.28,0.79,-3.11,-2.81,419,331,405,344,258,10
1202,0.6,0.76,0.3,2.62,-3.11,-1.28,421,332,409,346,255,10
1203,0.59,0.74,0.3,-0.31,-5.07,-0.55,422,332,407,346,254,10
1204,0.61,0.74,0.3,0.67,-1.16,-2.44,424,324,405,350,256,10
1205,0.61,0.72,0.31,-1.77,-3.48,0.67,420,327,407,345,255,10
1206,0.63,0.75,0.3,3.42,-2.2,-4.58,421,328,407,346,255,10
1207,0.63,0.75,0.3,3.36,0.18,-5.55,418,330,402,348,258,10
1208,0.62,0.74,0.33,1.53,-4.88,0.18,420,333,401,345,258,10
1209,0.62,0.75,0.3,1.77,-1.77,-3.66,416,334,405,346,259,10
1210,0.64,0.74,0.29,1.4,-2.56,-2.01,420,333,402,348,258,10
1211,0.61,0.74,0.31,-2.62,-2.2,-3.36,420,333,401,347,255,10
1212,0.62,0.74,0.31,0.55,-3.23,-3.48,416,328,404,347,256,10
1213,0.62,0.73,0.3,4.88,-4.21,-1.65,420,336,405,346,262,10
1214,0.63,0.71,0.31,-0.18,-1.95,-5.92,420,336,402,349,257,10
1215,0.58,0.76,0.31,6.35,-3.54,-9.95,419,337,404,346,255,10
1216,0.52,0.8,0.33,13.06,2.62,-19.71,419,328,406,349,261,10
1217,0.25,0.92,0.21,-18.01,10.93,-34.85,417,333,412,345,255,10
1218,0.35,0.91,0.39,8.42,-17.33,14.53,417,330,404,345,253,10
1219,0.51,0.76,0.26,-4.39,0.92,-6.77,418,325,403,343,256,10
1220,0.44,0.91,0.37,-4.46,-1.53,4.82,419,327,404,343,254,10
1221,0.42,0.75,0.34,-0.61,1.16,-1.83,415,332,403,346,258,10
1222,0.43,0.8,0.35,-4.58,0.79,-4.76,419,346,404,347,256,10
1223,0.39,0.85,0.39,2.38,-1.22,-4.21,416,333,405,346,268,10
1224,0.41,0.82,0.38,-1.59,-2.5,0.79,418,337,402,350,256,10
1225,0.36,0.78,0.34,-4.52,0.79,-2.38,421,329,401,346,255,10
1226,0.43,0.85,0.38,1.4,-4.46,-2.81,421,334,403,346,257,10
1227,0.4,0.83,0.38,-0.61,-3.66,-0.85,418,332,403,344,255,10
1228,0.38,0.8,0.38,-0.12,-2.75,-2.81,418,335,401,347,254,10
1229,0.38,0.82,0.37,11.05,-5.49,4.82,421,330,404,350,255,10
1230,0.39,0.83,0.37,0.24,-3.54,-2.38,418,336,403,349,259,10
1231,0.44,0.82,0.35,0.73,-2.99,-0.73,409,333,407,349,258,10
1232,0.45,0.83,0.35,-1.83,-4.33,-2.93,419,335,406,354,256,10
1233,0.44,0.83,0.36,1.22,-4.88,-4.21,416,341,400,351,256,10
1234,0.41,0.84,0.4,-0.67,-0.67,-5.13,416,333,403,349,259,10
1235,0.39,0.82,0.41,2.44,-6.1,1.28,418,343,404,343,258,10
1236,0.38,0.78,0.44,-6.59,-6.59,5.8,418,340,406,351,266,10
1237,0.4,0.84,0.41,-6.23,-6.77,2.01,414,338,404,348,256,10
1238,0.38,0.82,0.42,-3.72,-2.01,-0.37,417,336,406,344,254,10
1239,0.37,0.82,0.44,-1.65,-2.38,-5.49,419,337,407,350,256,10
1240,0.38,0.82,0.43,-2.75,-5.55,-0.92,413,336,403,349,259,10
1241,0.38,0.81,0.43,-1.16,-4.82,-1.1,417,340,400,352,267,10
1242,0.39,0.81,0.42,0.55,-3.48,-0.98,414,346,404,350,254,10
1243,0.38,0.82,0.42,-2.14,-3.23,-4.03,414,338,407,351,257,10
1244,0.39,0.83,0.44,3.05,-7.75,-2.26,420,346,402,349,249,10
1245,0.37,0.84,0.44,-1.65,-3.11,0.24,416,342,417,347,257,10
1246,0.41,0.81,0.41,1.04,-5.31,-3.6,418,338,403,349,255,10
1247,0.39,0.81,0.41,4.03,-0.06,-2.99,417,342,404,350,259,10
1248,0.37,0.82,0.4,0.18,-2.93,-1.34,413,344,401,349,253,10
1249,0.37,0.86,0.42,-6.9,6.04,-11.47,419,348,398,356,251,10
1250,0.37,0.82,0.4,-1.22,2.08,-4.94,412,350,401,352,256,10
1251,0.39,0.83,0.41,-0.67,-5.62,-2.26,415,350,400,350,255,10
1252,0.38,0.83,0.4,1.4,-2.26,-8.06,416,345,402,350,255,10
1253,0.38,0.81,0.4,0.79,-1.89,-5.55,413,352,399,349,258,10
1254,0.39,0.83,0.42,1.4,-3.91,-3.97,419,345,402,352,257,10
1255,0.5,0.85,0.53,-27.53,18.68,-5.68,418,341,398,353,258,10
1256,0.43,0.6,0.51,-2.26,0.31,-5.37,417,349,402,352,255,10
1257,0.45,0.69,0.52,13.06,-13.73,3.66,415,342,402,350,256,10
1258,0.55,0.82,0.49,7.32,-7.2,-0.61,417,336,400,349,258,10
1259,0.44,0.74,0.47,5.74,-1.89,-5.43,422,334,401,350,256,10
1260,0.44,0.78,0.45,0.92,-3.97,-1.71,416,341,400,353,258,10
1261,0.43,0.79,0.46,10.8,-1.71,1.95,415,343,405,348,254,10
1262,0.43,0.79,0.44,-0.18,0.12,-0.18,418,340,402,348,258,10
1263,0.45,0.78,0.45,-0.49,-3.54,-1.28,416,344,398,352,255,10
1264,0.43,0.76,0.47,1.95,-6.35,-4.33,415,345,401,349,260,10
1265,0.42,0.78,0.48,2.56,-3.3,-2.2,413,342,400,356,256,10
1266,0.46,0.79,0.47,0.18,-4.82,-0.98,414,348,402,351,256,10
1267,0.46,0.77,0.44,1.22,-3.42,-4.88,413,345,404,352,267,10
1268,0.45,0.78,0.44,0.73,-2.62,-3.11,418,345,404,350,271,10
1269,0.44,0.79,0.44,4.15,-1.95,-4.64,413,349,403,352,255,10
1270,0.43,0.78,0.44,-1.4,-2.56,-2.81,420,346,404,344,257,10
1271,0.41,0.77,0.46,-2.2,-2.32,-3.6,417,341,402,356,257,10
1272,0.43,0.81,0.45,-1.1,-2.75,-1.59,417,325,401,350,260,10
1273,0.43,0.8,0.46,3.54,-3.23,-5.0,416,321,397,350,257,10
1274,0.42,0.8,0.44,2.2,-1.89,-4.52,416,317,397,343,254,10
1275,0.41,0.79,0.44,4.39,-3.42,-4.64,419,317,395,346,255,10
1276,0.4,0.8,0.44,1.53,-2.62,-3.42,410,323,399,343,256,10
1277,0.4,0.81,0.46,0.49,-4.15,-2.75,411,326,398,350,257,10
1278,0.4,0.81,0.46,-0.37,-1.28,-4.15,409,329,398,347,253,10
1279,0.41,0.81,0.44,0.49,-1.65,-4.33,412,330,396,346,253,10
1280,0.39,0.81,0.45,-4.7,-0.49,-2.2,411,324,387,346,252,10
1281,0.4,0.8,0.46,2.2,-2.93,-2.93,409,317,389,342,252,10
1282,0.39,0.81,0.46,2.5,-2.14,-2.32,410,325,391,346,253,10
1283,0.4,0.82,0.45,1.04,-3.36,-2.75,410,322,391,349,263,10
1284,0.41,0.82,0.45,1.1,-2.69,-2.56,409,322,396,345,255,10
1285,0.4,0.82,0.45,1.53,-2.81,-3.6,408,324,398,347,261,10
1286,0.39,0.82,0.45,-4.15,-3.23,-2.44,407,324,394,349,253,10
1287,0.39,0.81,0.44,-0.18,-2.69,-2.26,406,331,397,350,254,10
1288,0.39,0.8,0.44,-0.43,-2.56,-1.89,406,333,395,347,254,10
1289,0.39,0.8,0.45,-1.28,-2.44,-2.26,406,329,396,350,255,10
1290,0.42,0.82,0.43,4.21,-1.04,-4.15,407,324,398,350,253,10
1291,0.41,0.82,0.45,0.31,-3.48,-2.32,404,331,396,349,253,10
1292,0.39,0.82,0.45,-0.43,-1.46,-4.7,409,324,398,349,257,10
1293,0.4,0.8,0.44,-1.83,-3.66,-0.73,408,333,394,350,254,10
1294,0.41,0.8,0.45,-0.24,-2.08,-1.22,406,324,399,348,254,10
1295,0.4,0.8,0.43,1.04,-1.22,-4.09,404,330,398,351,257,10
1296,0.41,0.82,0.45,-3.11,-3.3,-1.59,406,329,395,346,256,10
1297,0.41,0.81,0.44,-1.95,-3.11,-1.89,406,332,396,352,266,10
1298,0.41,0.82,0.44,0.12,-3.23,-3.11,408,333,396,345,255,10
1299,0.4,0.81,0.44,0.49,-2.62,-2.69,406,330,399,347,253,10
1300,0.4,0.81,0.44,0.24,-3.66,-3.3,406,326,399,349,254,10
1301,0.4,0.81,0.44,2.32,-3.23,-3.11,403,327,395,352,255,10
1302,0.4,0.81,0.44,-1.04,-3.11,-2.2,401,337,400,348,258,10
1303,0.41,0.81,0.44,0.85,-5.19,-2.01,405,334,401,360,252,10
1304,0.41,0.8,0.43,1.34,-2.08,-3.17,405,335,394,351,275,10
1305,0.39,0.8,0.44,-0.98,-3.36,-2.14,405,332,396,351,254,10
1306,0.39,0.8,0.44,0.49,-2.62,-2.75,405,337,401,349,256,10
1307,0.39,0.81,0.45,-0.43,-5.07,-1.46,404,335,398,351,256,10
1308,0.4,0.8,0.45,-1.65,-2.56,-2.14,405,335,399,350,254,10
1309,0.39,0.79,0.46,1.28,-2.62,-2.75,406,336,396,349,257,10
1310,0.4,0.81,0.45,-0.73,-2.93,-2.38,406,337,401,351,252,10
1311,0.39,0.8,0.46,-2.26,-2.99,-1.22,401,341,395,349,254,10
1312,0.41,0.81,0.45,0.98,-4.27,-2.26,404,340,397,352,256,10
1313,0.39,0.8,0.45,-2.32,-1.89,-1.4,402,338,401,350,255,10
1314,0.4,0.79,0.45,1.65,-3.85,-2.81,401,344,400,351,255,10
1315,0.41,0.8,0.45,3.42,-3.36,-3.42,403,343,398,353,254,10
1316,0.4,0.8,0.46,-0.61,-4.09,-1.95,406,341,399,346,252,10
1317,0.4,0.8,0.45,1.59,-3.42,-2.5,403,339,398,347,257,10
1318,0.39,0.81,0.43,-1.34,-2.87,-2.14,399,341,401,351,256,10
1319,0.45,0.82,0.42,8.54,-1.65,-8.48,393,340,396,356,255,10
1320,0.41,0.84,0.44,3.11,-2.75,-2.75,402,337,396,349,257,10
1321,0.41,0.82,0.43,2.44,-1.83,-3.05,401,338,395,350,257,10
1322,0.4,0.81,0.44,0.24,-3.42,-4.33,400,339,397,353,255,10
1323,0.4,0.79,0.43,-2.01,-3.54,-1.34,401,342,393,356,258,10
1324,0.41,0.81,0.44,-0.73,-3.23,-1.53,399,341,396,351,258,10
1325,0.41,0.8,0.43,-3.66,-2.56,-1.89,400,346,396,352,259,10
1326,0.4,0.81,0.43,-0.85,-1.53,-2.5,404,342,396,352,256,10
1327,0.41,0.81,0.44,-1.28,-2.2,-1.65,400,346,397,354,256,10
1328,0.41,0.81,0.44,0.61,-3.42,-2.44,399,342,399,351,256,10
1329,0.41,0.81,0.44,1.95,-3.66,-3.54,400,344,397,358,254,10
1330,0.4,0.8,0.44,-0.43,-3.6,-1.77,396,342,394,352,256,10
1331,0.4,0.81,0.44,1.46,-1.89,-4.33,396,341,396,352,260,10
1332,0.4,0.81,0.44,1.04,-2.99,-2.01,401,341,397,349,259,10
1333,0.4,0.8,0.44,-3.66,-2.87,-2.01,404,341,400,352,256,10
1334,0.4,0.81,0.43,4.33,-1.77,-5.43,401,338,398,353,260,10
1335,0.41,0.82,0.43,4.15,-0.98,-5.74,399,341,402,352,255,10
1336,0.41,0.82,0.45,-3.3,-2.38,-1.65,397,344,395,355,257,10
1337,0.4,0.82,0.44,-3.97,-3.78,-1.04,398,343,411,354,257,10
1338,0.42,0.81,0.46,-0.79,-2.99,-1.22,396,343,398,351,257,10
1339,0.4,0.81,0.45,-0.79,-3.85,-2.69,400,337,398,350,255,10
1340,0.41,0.81,0.45,2.87,-2.62,-1.46,399,342,395,352,256,10
1341,0.43,0.81,0.43,1.95,-2.75,-3.97,394,345,398,351,259,10
1342,0.43,0.79,0.44,3.97,-6.71,-2.81,399,343,403,352,288,10
1343,0.43,0.83,0.46,1.71,-1.83,-2.93,397,346,401,354,258,10
1344,0.43,0.82,0.43,3.72,-3.48,-2.56,395,341,397,352,257,10
1345,0.44,0.8,0.44,-1.59,-4.33,-2.14,396,344,399,356,258,10
1346,0.43,0.79,0.44,-1.22,-2.56,-3.23,397,344,398,356,260,10
1347,0.45,0.81,0.43,5.74,-2.44,-5.62,399,340,400,354,256,10
1348,0.43,0.8,0.42,2.62,-4.09,-4.09,399,341,397,357,259,10
1349,0.4,0.82,0.43,0.73,-2.62,-3.17,396,339,400,356,258,10
1350,0.42,0.82,0.42,0.55,-1.89,-3.17,392,340,402,353,259,10
1351,0.42,0.82,0.42,-0.18,-3.54,-2.69,394,345,399,355,258,10
1352,0.42,0.8,0.42,0.73,-3.85,-2.44,393,342,397,359,257,10
1353,0.4,0.82,0.42,0.18,-2.5,-3.6,396,344,400,355,256,10
1354,0.41,0.83,0.43,0.37,-1.89,-2.26,394,344,399,357,259,10
1355,0.39,0.82,0.44,-1.71,-3.36,0.12,398,342,399,355,257,10
1356,0.41,0.82,0.43,-0.92,-3.36,-1.53,393,346,396,356,260,10
1357,0.42,0.81,0.41,2.99,-3.36,-3.3,395,351,401,354,260,10
1358,0.42,0.81,0.41,0.43,-5.31,-2.01,395,354,406,357,257,10
1359,0.4,0.82,0.4,0.06,-3.17,-2.01,391,345,398,354,260,10
1360,0.4,0.83,0.41,3.11,-3.78,-3.54,386,343,399,355,259,10
1361,0.4,0.83,0.41,0.85,-1.4,-3.05,389,345,398,354,262,10
1362,0.38,0.84,0.41,-1.1,-2.87,-3.91,386,330,392,347,256,10
1363,0.39,0.84,0.4,1.28,-2.93,-2.44,384,335,394,350,261,10
1364,0.44,0.82,0.4,0.0,-3.91,-1.16,388,330,395,345,257,10
1365,0.37,0.84,0.42,-1.53,-2.26,-2.56,388,343,397,350,256,10
1366,0.38,0.86,0.42,1.4,-3.66,-3.72,382,337,395,350,257,10
1367,0.4,0.84,0.41,1.1,-3.3,-3.78,383,339,396,352,258,10
1368,0.39,0.83,0.42,-1.95,-2.2,-1.95,384,336,400,351,257,10
1369,0.38,0.83,0.41,-0.18,-1.59,-3.05,387,339,398,369,258,10
1370,0.37,0.84,0.42,3.48,-2.08,-5.0,385,336,396,352,258,10
1371,0.38,0.84,0.4,-1.77,-2.26,-0.67,387,341,398,356,256,10
1372,0.37,0.83,0.4,0.18,-4.21,-2.08,385,340,397,352,256,10
1373,0.39,0.85,0.41,-1.22,-2.93,-1.22,383,335,399,353,265,10
1374,0.41,0.85,0.42,-2.87,-3.05,1.83,390,339,397,355,259,10
1375,0.39,0.83,0.42,-1.34,-3.78,-2.62,389,342,395,352,258,10
1376,0.38,0.83,0.41,-0.06,-3.23,-4.88,389,337,398,355,253,10
1377,0.39,0.83,0.4,6.29,-1.65,-3.97,388,347,398,352,253,10
1378,0.39,0.83,0.4,-2.38,-4.7,-1.1,386,339,398,352,258,10
1379,0.39,0.82,0.41,0.49,-2.01,-1.71,391,346,399,351,260,10
1380,0.4,0.82,0.4,4.46,-3.23,-3.36,391,353,397,354,257,10
1381,0.39,0.85,0.41,-0.98,-3.48,-1.65,389,343,396,356,258,10
1382,0.39,0.83,0.41,0.98,-0.98,-2.69,390,343,399,354,258,10
1383,0.39,0.83,0.41,2.44,-1.28,-3.97,395,345,397,354,260,10
1384,0.4,0.83,0.41,0.37,-4.64,-2.99,395,343,408,351,260,10
1385,0.38,0.81,0.41,1.77,-3.05,-1.28,391,347,399,355,258,10
1386,0.39,0.84,0.41,1.59,-3.23,-4.03,395,342,397,355,258,10
1387,0.37,0.83,0.42,0.31,-4.46,-3.85,391,343,396,359,260,10
1388,0.39,0.84,0.41,-1.53,-3.05,-3.05,391,345,398,358,259,10
1389,0.39,0.83,0.42,-0.55,-3.78,-1.71,386,345,396,358,258,10
1390,0.39,0.83,0.41,-3.36,-4.15,-2.26,393,344,398,357,257,10
1391,0.37,0.83,0.41,0.12,-2.14,-2.08,387,347,399,357,261,10
1392,0.38,0.83,0.42,0.73,-3.6,-2.5,392,346,395,358,261,10
1393,0.42,0.84,0.39,10.44,-11.35,12.08,397,348,397,355,257,10
1394,0.44,0.82,0.4,-2.81,-4.88,-0.55,398,353,398,358,258,10
1395,0.41,0.8,0.4,-1.77,4.15,-4.7,404,354,397,357,251,10
1396,0.42,0.81,0.4,-3.97,-4.88,-3.6,402,353,400,360,253,10
1397,0.43,0.8,0.39,0.12,-4.33,-3.23,405,352,393,358,256,10
1398,0.43,0.8,0.39,-1.95,-2.56,-3.23,399,354,392,357,256,10
1399,0.43,0.81,0.4,0.79,-1.22,-3.11,405,356,393,358,259,10
1400,0.44,0.8,0.4,-1.34,-3.42,-1.65,405,358,394,354,260,10
1401,0.45,0.8,0.4,-0.18,-2.69,-2.2,403,351,394,358,256,10
1402,0.42,0.81,0.4,2.69,-2.99,-3.05,402,359,394,358,260,10
1403,0.44,0.8,0.41,3.6,-3.85,-1.65,405,356,393,359,272,10
1404,0.45,0.79,0.39,1.89,-2.69,-2.81,400,355,391,356,253,10
1405,0.43,0.8,0.4,1.28,-3.91,-3.11,402,360,394,358,279,10
1406,0.42,0.8,0.41,0.0,-2.08,-3.66,404,359,396,362,257,10
1407,0.41,0.82,0.4,4.03,-0.18,-6.29,403,327,398,358,261,10
1408,0.42,0.82,0.4,-1.71,-4.03,-2.32,405,329,396,356,259,10
1409,0.42,0.84,0.4,1.4,-3.54,-5.13,403,324,394,352,260,10
1410,0.42,0.83,0.42,2.38,-3.23,-3.6,399,325,404,353,254,10
1411,0.41,0.81,0.42,-0.79,-2.81,-2.14,400,332,398,347,254,10
1412,0.41,0.81,0.42,0.85,-2.38,-3.36,395,326,393,354,255,10
1413,0.41,0.81,0.44,0.31,-2.26,-3.54,397,323,397,356,255,10
1414,0.4,0.81,0.43,1.28,-2.14,-3.42,397,323,399,353,254,10
1415,0.41,0.82,0.42,0.67,-3.05,-2.26,399,327,397,351,272,10
1416,0.4,0.82,0.43,0.06,-3.48,-2.5,396,327,396,355,259,10
1417,0.39,0.82,0.42,-1.1,-2.81,-2.26,398,328,399,354,258,10
1418,0.38,0.81,0.42,-1.16,-2.99,-1.1,397,329,396,355,259,10
1419,0.4,0.81,0.42,-0.79,-2.81,-2.56,397,328,397,351,254,10
1420,0.39,0.83,0.43,-15.26,-2.99,-3.72,397,333,396,365,258,10
1421,0.34,0.8,0.46,5.37,-2.81,0.92,393,331,398,357,256,10
1422,0.35,0.81,0.41,5.25,-5.92,-1.4,394,331,398,355,258,10
1423,0.36,0.84,0.43,-2.38,-1.46,-1.77,396,347,395,355,258,10
1424,0.33,0.83,0.43,-0.31,-3.72,-1.1,399,333,398,355,269,10
1425,0.35,0.84,0.42,-1.16,-2.2,-1.89,395,336,399,357,258,10
1426,0.35,0.84,0.43,-0.79,-2.5,-1.71,400,333,398,353,255,10
1427,0.35,0.84,0.42,-0.43,-2.75,-1.71,399,334,401,357,259,10
1428,0.36,0.84,0.41,2.32,-2.56,-4.03,399,334,400,356,256,10
1429,0.35,0.83,0.4,2.01,-2.38,-3.72,394,334,402,354,256,10
1430,0.36,0.84,0.42,-0.55,-2.32,-2.87,397,334,400,355,254,10
1431,0.35,0.84,0.43,-0.37,-1.28,-3.05,399,334,400,356,258,10
1432,0.36,0.84,0.43,0.12,-2.93,-2.44,400,338,410,356,257,10
1433,0.36,0.85,0.44,-1.71,-5.8,-0.92,401,334,400,357,256,10
1434,0.37,0.84,0.43,0.18,-4.64,-1.34,396,338,396,356,260,10
1435,0.36,0.84,0.42,0.85,-4.15,-2.44,398,334,400,355,257,10
1436,0.36,0.83,0.42,-0.61,-3.97,-1.71,398,330,400,357,257,10
1437,0.35,0.83,0.43,-1.16,-3.48,-1.4,399,337,398,359,259,10
1438,0.37,0.83,0.42,3.23,-3.36,-0.92,398,331,405,356,256,10
1439,0.37,0.84,0.43,0.92,-3.23,-2.32,399,337,401,358,258,10
1440,0.37,0.84,0.43,1.95,-1.77,-4.21,399,328,399,358,254,10
1441,0.37,0.84,0.43,-0.31,-2.81,-2.26,399,332,400,358,256,10
1442,0.36,0.82,0.42,-0.18,-2.2,-2.08,398,332,399,357,257,10
1443,0.37,0.83,0.42,2.14,-3.11,-3.23,398,337,400,359,259,10
1444,0.36,0.83,0.43,-0.73,-4.33,-2.69,396,336,404,356,260,10
1445,0.36,0.84,0.42,-1.22,-3.6,-1.77,401,348,401,362,266,10
1446,0.36,0.82,0.41,1.04,-3.66,-1.77,399,333,400,357,284,10
1447,0.37,0.84,0.42,1.1,-3.97,-2.75,395,338,399,355,258,10
1448,0.36,0.84,0.43,-0.43,-3.3,-1.77,398,339,401,356,257,10
1449,0.36,0.83,0.42,-0.55,-3.6,-1.83,399,350,398,361,261,10
1450,0.37,0.83,0.42,1.34,-2.75,-2.99,395,341,403,356,260,10
1451,0.36,0.84,0.42,1.53,-2.99,-2.62,397,335,403,356,258,10
1452,0.35,0.83,0.42,0.24,-2.87,-2.44,395,341,397,356,260,10
1453,0.34,0.85,0.41,0.31,-2.5,-3.3,399,338,399,356,255,10
1454,0.36,0.85,0.42,0.0,-3.11,-2.44,399,340,396,356,260,10
1455,0.37,0.85,0.42,-0.67,-2.56,-1.95,399,342,401,355,259,10
1456,0.36,0.84,0.42,-0.24,-2.81,-2.44,398,337,398,359,260,10
1457,0.37,0.84,0.42,0.06,-4.09,-2.01,399,341,396,357,259,10
1458,0.36,0.84,0.41,2.26,-3.72,-2.87,398,340,395,354,260,10
1459,0.36,0.84,0.42,-0.06,-2.38,-2.32,394,343,401,353,259,10
1460,0.36,0.84,0.42,0.55,-2.32,-2.75,398,343,398,355,258,10
1461,0.35,0.83,0.41,2.32,-1.77,-4.03,398,338,403,356,259,10
1462,0.35,0.83,0.41,-1.22,-3.54,-2.26,399,338,401,357,260,10
1463,0.36,0.84,0.42,-0.06,-2.99,-1.77,400,335,400,358,257,10
1464,0.36,0.85,0.42,0.73,-1.77,-3.42,400,341,402,357,258,10
1465,0.36,0.84,0.41,1.53,-3.3,-2.99,396,334,400,359,257,10
1466,0.36,0.84,0.42,-0.85,-2.99,-1.83,397,342,398,357,260,10
1467,0.37,0.84,0.42,0.24,-4.64,-2.01,392,339,402,355,259,10
1468,0.36,0.84,0.42,-0.37,-2.14,-2.14,396,338,400,356,266,10
1469,0.35,0.84,0.42,-1.16,-3.48,-1.46,398,339,400,358,260,10
1470,0.35,0.84,0.41,0.12,-3.66,-2.38,395,343,399,359,260,10
1471,0.35,0.85,0.43,-0.85,-5.31,-0.12,393,336,401,359,258,10
1472,0.37,0.85,0.42,1.4,-2.44,-2.62,399,343,398,359,263,10
1473,0.37,0.84,0.41,-0.18,-4.27,-1.65,393,339,399,359,255,10
1474,0.36,0.84,0.39,4.7,-2.44,-3.3,400,342,402,356,259,10
1475,0.35,0.83,0.4,-0.12,-2.81,-3.78,400,346,401,353,260,10
1476,0.35,0.82,0.4,0.55,-2.62,-3.42,395,341,401,368,259,10
1477,0.34,0.84,0.41,-2.38,-1.53,-2.32,397,345,399,356,260,10
1478,0.34,0.85,0.42,0.43,-3.11,-1.83,399,346,402,357,257,10
1479,0.34,0.85,0.41,-1.46,-3.05,-1.71,399,341,401,361,253,10
1480,0.35,0.83,0.4,0.24,-2.26,-3.11,397,341,399,360,258,10
1481,0.35,0.85,0.42,-1.53,-2.62,-1.95,399,342,400,357,260,10
1482,0.34,0.85,0.42,-1.16,-2.62,-2.81,394,343,398,355,258,10
1483,0.36,0.85,0.42,0.43,-2.56,-0.67,395,344,417,357,256,10
1484,0.34,0.85,0.41,0.61,-2.99,-2.38,399,340,403,357,257,10
1485,0.34,0.84,0.41,0.79,-2.44,-2.5,393,347,400,355,260,10
1486,0.35,0.84,0.41,2.87,-3.42,-2.93,398,346,397,356,260,10
1487,0.34,0.84,0.41,-4.94,-4.33,-0.24,397,337,400,358,260,10
1488,0.34,0.84,0.42,-1.77,-3.66,-1.04,396,338,402,354,260,10
1489,0.36,0.85,0.41,2.5,-4.03,-3.11,398,341,402,361,258,10
1490,0.34,0.83,0.4,-0.37,-1.77,-3.23,393,345,401,357,257,10
1491,0.35,0.86,0.41,0.37,-3.3,-2.44,398,342,400,359,261,10
1492,0.34,0.84,0.4,-0.85,-3.17,-3.23,398,342,401,357,261,10
1493,0.35,0.85,0.4,-0.37,-3.42,-5.13,397,346,398,358,256,10
1494,0.35,0.85,0.41,1.34,-3.17,-2.38,396,348,399,361,255,10
1495,0.34,0.84,0.41,-0.43,-3.78,-0.98,398,342,413,358,261,10
1496,0.36,0.84,0.4,-0.43,-3.78,-0.98,398,339,398,356,257,10
1497,0.36,0.84,0.4,1.04,-4.27,-1.83,397,348,402,357,260,10
1498,0.36,0.84,0.4,4.76,-4.39,-3.36,398,343,398,356,299,10
1499,0.35,0.85,0.41,-0.49,-2.32,-2.99,397,345,395,356,256,10
1500,0.35,0.84,0.41,-1.1,-3.66,-2.2,396,345,399,357,259,10
1501,0.36,0.84,0.4,1.65,-2.01,-3.54,397,344,401,371,255,10
1502,0.36,0.84,0.4,1.53,-2.14,-3.05,399,346,402,357,261,10
1503,0.36,0.84,0.42,1.1,-2.5,-2.62,400,343,400,356,255,10
1504,0.37,0.84,0.41,1.34,-4.15,-2.32,395,347,399,357,258,10
1505,0.37,0.84,0.41,2.14,-3.42,-3.36,394,349,396,359,258,10
1506,0.35,0.84,0.44,-1.04,-3.48,-2.69,399,346,399,356,259,10
1507,0.36,0.83,0.41,-1.04,-2.69,-2.62,397,344,397,354,260,10
1508,0.36,0.83,0.41,2.62,-2.56,-4.09,397,340,399,360,261,10
1509,0.34,0.82,0.41,1.04,-1.65,-1.71,398,345,397,359,260,10
1510,0.36,0.83,0.43,-0.55,-0.49,-2.87,397,344,400,355,270,10
1511,0.35,0.83,0.43,-0.31,-1.46,-2.99,394,349,397,359,261,10
1512,0.37,0.83,0.43,1.65,-3.05,-2.62,398,356,394,356,256,10
1513,0.37,0.83,0.43,-0.98,-2.38,-2.14,392,345,398,357,262,10
1514,0.36,0.83,0.43,2.99,-1.95,-4.76,397,343,398,356,261,10
1515,0.36,0.84,0.43,-0.31,-2.26,-3.3,397,344,398,358,258,10
1516,0.36,0.84,0.44,-0.43,-1.77,-2.44,397,339,400,358,259,10
1517,0.36,0.83,0.43,1.16,-2.93,-2.75,396,346,398,361,258,10
1518,0.36,0.84,0.43,1.53,-2.81,-2.99,397,346,395,357,261,10
1519,0.36,0.83,0.43,0.31,-2.32,-2.38,397,340,399,354,259,10
1520,0.36,0.84,0.44,-0.85,-2.32,-2.14,398,348,399,359,258,10
1521,0.37,0.84,0.43,-0.79,-1.89,-2.5,393,345,394,359,259,10
1522,0.37,0.83,0.43,1.34,-3.23,-2.5,395,340,398,355,260,10
1523,0.38,0.83,0.42,0.31,-2.38,-2.87,399,342,402,359,259,10
1524,0.37,0.83,0.43,0.49,-2.99,-3.42,392,344,396,361,259,10
1525,0.36,0.83,0.42,0.37,-4.15,-1.16,397,342,399,357,259,10
1526,0.35,0.82,0.42,1.04,-3.42,-2.44,395,345,401,357,261,10
1527,0.36,0.84,0.42,0.92,-3.42,-2.14,398,340,398,359,262,10
1528,0.36,0.84,0.43,1.34,-3.17,-2.32,394,342,398,357,253,10
1529,0.37,0.86,0.43,-0.49,-4.27,-1.4,394,345,400,354,258,10
1530,0.37,0.86,0.48,-0.18,2.14,1.16,400,341,400,359,257,10
1531,0.43,0.81,0.49,-13.61,4.46,5.62,401,345,398,358,259,10
1532,0.37,0.71,0.59,-0.55,5.43,0.18,395,345,398,352,257,10
1533,0.54,0.62,0.57,-4.94,-12.08,3.85,401,343,401,352,256,10
1534,0.64,0.6,0.48,0.37,1.59,35.16,399,337,404,356,253,10
1535,0.52,0.56,0.54,7.45,-5.62,-7.93,397,342,399,357,269,10
1536,0.66,0.62,0.54,4.33,-7.39,7.93,396,339,399,357,259,10
1537,0.61,0.61,0.5,0.49,-5.55,-11.78,399,345,415,356,256,10
1538,0.66,0.64,0.51,1.04,-3.66,2.26,400,338,400,353,257,10
1539,0.63,0.54,0.48,4.39,-7.26,-3.54,400,342,400,352,257,10
1540,0.63,0.61,0.52,10.86,-1.46,-12.51,398,343,401,355,286,10
1541,0.66,0.61,0.46,-2.62,-3.17,3.05,397,343,401,355,258,10
1542,0.67,0.61,0.47,-3.91,-1.34,-4.58,400,344,401,360,255,10
1543,0.64,0.59,0.46,-0.61,-8.36,-3.97,397,347,400,361,260,10
1544,0.67,0.59,0.47,-1.71,-4.21,-0.67,398,347,399,357,260,10
1545,0.66,0.59,0.48,1.95,-3.05,-1.83,400,344,400,359,258,10
1546,0.66,0.59,0.49,0.73,-3.05,-2.44,399,339,399,358,260,10
1547,0.14,0.79,0.6,-30.03,0.67,-10.44,273,336,417,353,417,10
1548,0.18,0.62,0.69,-41.87,42.05,-35.4,260,324,418,336,423,10
1549,0.21,0.76,0.66,32.78,-15.63,1.16,261,328,420,342,424,10
1550,0.21,0.81,0.56,5.68,-0.79,1.04,261,331,420,347,425,10
1551,0.21,0.78,0.57,9.46,5.74,-1.46,266,332,420,351,426,10
1552,0.18,0.78,0.66,14.1,3.42,15.5,267,340,420,352,417,10
1553,0.28,0.79,0.53,13.73,-5.74,6.96,266,340,425,354,420,10
1554,0.17,0.79,0.52,-3.54,4.52,-4.76,267,343,423,353,426,10
1555,0.29,0.88,0.62,-19.04,-8.3,-8.24,266,341,422,351,424,10
1556,0.29,0.77,0.54,-7.14,-10.5,-1.4,266,342,429,354,419,10
1557,0.27,0.77,0.57,-3.85,-6.04,-5.43,265,341,422,350,427,10
1558,0.25,0.81,0.55,5.98,1.53,-4.58,262,341,422,353,425,10
1559,0.26,0.83,0.51,-2.81,-5.74,-1.71,267,344,422,355,421,10
1560,0.24,0.83,0.53,-1.53,-3.23,-4.64,268,341,420,357,421,10
1561,0.19,0.8,0.58,-1.1,1.04,-7.02,271,344,422,346,423,10
1562,0.2,0.75,0.62,-4.58,-1.46,-3.48,271,347,423,356,427,10
1563,0.19,0.83,0.57,9.77,-4.09,5.68,268,352,423,354,422,10
1564,0.26,0.67,0.52,0.85,-4.09,-5.07,271,355,435,354,426,10
1565,0.24,0.87,0.58,-3.66,-4.39,-0.12,309,350,433,358,424,10
1566,0.22,0.85,0.57,7.69,-1.95,-3.97,270,350,423,358,427,10
1567,0.21,0.77,0.52,-1.28,-9.83,-8.12,271,353,424,357,428,10
1568,0.23,0.81,0.51,-1.28,0.98,-4.58,273,351,422,351,420,10
1569,0.23,0.87,0.5,10.19,-2.75,1.22,270,343,423,349,425,10
1570,0.24,0.82,0.47,-6.29,-1.59,-2.62,269,343,423,344,427,10
1571,0.24,0.81,0.49,-4.94,-1.34,0.43,267,330,421,341,420,10
1572,0.25,0.84,0.54,13.31,-11.9,-0.73,262,327,418,332,419,10
1573,0.21,0.83,0.51,2.38,-1.22,-3.66,262,334,420,340,417,10
1574,0.24,0.84,0.53,0.24,-7.93,0.18,268,342,423,360,418,10
1575,0.21,0.83,0.53,3.91,1.22,-5.86,271,341,422,346,418,10
1576,0.23,0.83,0.52,-4.21,-3.54,-2.81,269,349,420,346,418,10
1577,0.22,0.84,0.51,4.52,-2.44,-3.42,268,341,423,348,419,10
1578,0.21,0.81,0.54,-0.73,-4.27,-1.1,268,342,421,349,418,10
1579,0.21,0.82,0.53,-4.94,-4.27,-4.33,270,342,423,350,428,10
1580,0.22,0.83,0.52,-2.38,-2.08,-3.05,266,341,425,346,418,10
1581,0.22,0.84,0.5,11.6,-2.62,-2.38,272,344,421,361,418,10
1582,0.22,0.84,0.52,-1.46,-6.1,-1.34,274,341,422,351,420,10
1583,0.22,0.84,0.52,-7.57,-6.77,-2.2,272,345,421,351,420,10
1584,0.21,0.79,0.55,-2.26,-2.99,-2.08,269,348,420,349,420,10
1585,0.14,0.77,0.57,-1.83,11.17,0.61,270,353,423,356,423,10
1586,0.29,0.83,0.53,14.59,-6.77,13.61,272,353,438,357,424,10
1587,0.3,0.74,0.41,1.53,-0.55,1.95,272,354,414,355,424,10
1588,0.44,0.83,0.43,-0.85,-29.11,-4.64,274,364,421,358,423,10
1589,0.4,0.75,0.44,17.21,-6.71,-5.49,275,364,410,360,424,10
1590,-0.02,0.81,0.85,-54.26,85.75,-34.06,280,376,327,363,421,10
1591,0.32,0.88,0.48,-12.33,-12.27,-13.85,278,365,378,344,418,10
1592,0.2,0.9,0.46,-21.67,-38.21,-6.16,281,362,414,352,418,10
1593,0.35,0.84,0.4,-7.57,21.36,-6.16,287,366,413,358,421,10
1594,0.23,0.87,0.49,8.3,-4.21,-7.45,284,364,411,349,418,10
1595,0.29,0.84,0.52,-0.92,-8.36,0.73,282,359,412,357,423,10
1596,0.31,0.8,0.46,17.27,-7.51,6.96,285,356,412,361,420,10
1597,0.28,0.82,0.4,-14.22,1.46,-25.76,284,363,414,357,421,10
1598,0.32,0.86,0.43,-10.13,-7.08,-17.15,285,355,418,362,423,10
1599,0.26,0.8,0.43,-6.16,-21.85,7.81,277,355,414,365,421,10
1600,0.27,0.85,0.52,-27.59,0.98,3.17,285,350,420,356,422,10
1601,0.27,0.78,0.43,-10.56,-8.0,-23.86,286,356,418,361,424,10
1602,0.28,0.87,0.49,-11.54,-12.33,6.84,284,356,419,365,423,10
1603,0.14,0.72,0.63,-2.69,7.32,-6.16,287,358,412,365,421,10
1604,0.33,0.87,0.43,45.29,7.45,43.21,284,362,414,367,423,10
1605,0.26,0.89,0.4,-36.74,-3.48,-24.23,286,365,416,366,425,10
1606,-0.19,0.61,0.8,-39.43,71.11,-39.67,287,363,415,369,424,10
1607,0.2,0.8,0.59,19.65,16.05,-10.62,284,369,416,369,423,10
1608,0.22,0.85,0.53,-9.77,0.24,2.32,289,369,417,369,426,10
1609,0.22,0.78,0.57,-1.89,-8.79,3.72,285,370,418,368,432,10
1610,0.2,0.78,0.55,13.61,-9.52,0.43,286,372,420,371,424,10
1611,0.21,0.86,0.54,6.9,-2.69,-1.04,282,365,422,368,424,10
1612,0.22,0.8,0.55,-1.46,-0.85,-3.54,287,369,417,367,421,10
1613,0.24,0.81,0.51,2.99,-2.32,-3.66,283,368,418,367,427,10
1614,0.23,0.82,0.55,9.95,-4.58,-2.26,285,372,416,373,427,10
1615,0.22,0.82,0.54,-7.45,-1.65,-3.6,290,373,417,378,426,10
1616,0.17,0.92,0.54,-12.33,-5.98,-11.66,286,369,419,367,423,10
1617,0.36,0.79,0.55,-2.81,-5.74,-3.17,288,371,415,372,424,10
1618,0.22,0.72,0.59,-7.2,-5.07,2.5,286,374,418,372,423,10
1619,0.3,0.85,0.45,13.18,1.71,-13.12,288,375,416,369,425,10
1620,0.24,0.81,0.47,0.55,-7.57,-0.92,285,382,417,373,426,10
1621,0.23,0.9,0.49,-14.47,-19.71,-5.62,285,371,408,367,422,10
1622,0.21,0.86,0.46,-9.83,-6.96,7.39,288,366,411,375,421,10
1623,0.13,0.85,0.59,14.22,9.22,0.31,285,351,417,361,424,10
1624,0.26,0.82,0.51,-3.6,-13.24,-11.72,285,352,420,359,423,10
1625,0.24,0.84,0.49,7.32,-6.16,-0.61,286,358,416,365,423,10
1626,0.23,0.83,0.49,1.95,-1.04,-4.27,284,359,411,364,422,10
1627,0.22,0.85,0.49,0.06,-2.38,-2.38,283,362,405,367,423,10
1628,0.24,0.86,0.46,8.61,2.56,-5.31,285,366,406,370,418,10
1629,0.22,0.84,0.48,-0.73,-2.01,-0.98,285,367,406,369,417,10
1630,0.24,0.86,0.47,6.96,1.28,-3.91,284,366,405,377,419,10
1631,0.21,0.86,0.46,-0.12,0.24,-3.05,285,365,406,365,422,10
1632,0.2,0.86,0.5,-5.74,3.85,0.37,286,365,411,372,422,10
1633,0.19,0.82,0.5,0.18,-2.87,-2.69,284,364,412,370,425,10
1634,0.22,0.84,0.47,0.73,-3.97,-2.5,285,369,406,375,423,10
1635,0.25,0.87,0.5,-8.0,-4.82,-3.97,284,369,409,376,422,10
1636,0.21,0.86,0.49,0.85,-1.59,-3.05,287,370,408,377,422,10
1637,0.19,0.86,0.46,0.92,-0.43,-3.48,284,367,410,370,422,10
1638,0.23,0.87,0.48,-7.75,-4.09,-2.62,285,371,409,368,418,10
1639,0.2,0.83,0.5,2.93,-2.14,-1.16,285,365,414,375,416,10
1640,0.23,0.82,0.52,-2.87,0.43,4.03,287,364,415,371,419,10
1641,0.23,0.86,0.48,9.83,-2.56,-0.92,289,367,416,376,424,10
1642,0.2,0.87,0.5,-1.46,-0.85,-4.94,289,366,421,374,420,10
1643,0.23,0.85,0.49,-4.7,-3.85,-2.32,285,363,423,373,421,10
1644,0.25,0.85,0.46,2.26,-1.34,-1.83,285,367,422,378,425,10
1645,0.24,0.85,0.48,3.3,-2.5,-2.38,283,367,415,374,424,10
1646,0.24,0.86,0.47,-0.79,-4.27,-0.79,287,366,413,377,423,10
1647,0.23,0.85,0.46,1.65,-3.36,-3.54,286,373,415,378,423,10
1648,0.26,0.87,0.46,-1.04,0.12,-4.09,287,365,412,375,421,10
1649,0.24,0.85,0.48,-6.84,-0.55,-2.32,289,368,409,374,429,10
1650,0.22,0.86,0.46,3.78,-5.92,6.47,285,374,415,381,425,10
1651,0.22,0.85,0.48,5.86,-1.28,-3.05,289,372,418,378,424,10
1652,0.24,0.84,0.49,3.36,-5.07,-2.69,284,374,421,380,426,10
1653,0.24,0.83,0.5,6.41,-8.61,-14.34,283,375,417,379,424,10
1654,0.2,0.8,0.59,1.65,-4.15,3.72,293,372,419,381,425,10
1655,0.23,0.77,0.61,-16.97,-3.23,-6.96,286,373,419,380,424,10
1656,0.2,0.76,0.57,10.93,-7.08,-6.84,287,374,419,382,425,10
1657,0.16,0.85,0.7,-9.4,-2.87,16.42,285,378,418,382,423,10
1658,0.27,0.8,0.53,3.48,-13.49,-9.22,287,375,418,376,422,10
1659,0.2,0.82,0.58,17.4,4.58,-10.56,282,375,417,381,424,10
1660,0.21,0.8,0.55,4.7,-5.13,-0.37,286,375,418,395,425,10
1661,0.23,0.81,0.56,-0.98,-7.39,1.4,280,377,417,377,423,10
1662,0.2,0.75,0.59,-4.33,-2.75,3.78,287,386,419,386,422,10
1663,0.22,0.8,0.58,2.5,-6.29,-0.79,286,381,415,386,420,10
1664,0.03,0.67,0.73,25.45,-32.35,13.49,289,380,417,383,422,10
1665,0.15,0.72,0.65,22.4,-6.35,0.61,288,375,426,380,422,10
1666,0.27,0.7,0.61,-8.42,-5.68,0.0,287,374,421,377,424,10
1667,0.27,0.68,0.58,5.8,0.73,-8.3,289,376,420,381,428,10
1668,0.26,0.73,0.63,15.01,1.4,-2.99,287,375,419,383,426,10
1669,0.34,0.78,0.54,-2.44,-6.04,5.19,287,375,414,381,420,10
1670,0.36,0.78,0.52,-0.24,-2.75,-5.07,287,375,415,380,424,10
1671,0.36,0.79,0.51,1.46,-1.1,0.73,286,376,416,381,425,10
1672,0.33,0.79,0.5,-8.48,1.71,-9.34,285,375,416,377,424,10
1673,0.31,0.81,0.56,-4.27,-0.79,-0.67,288,372,419,383,421,10
1674,0.3,0.82,0.57,-17.88,-8.06,-4.88,286,380,414,378,420,10
1675,0.28,0.77,0.57,-1.34,-7.93,6.35,286,379,417,378,420,10
1676,0.27,0.82,0.54,-4.27,0.92,-9.89,287,382,420,380,419,10
1677,0.23,0.68,0.63,9.28,11.72,-4.27,283,380,416,384,422,10
1678,0.19,0.83,0.56,6.65,-10.86,-1.16,289,382,421,386,419,10
1679,0.21,0.87,0.57,-3.23,-2.62,-3.11,290,383,421,386,419,10
1680,0.19,0.81,0.55,-5.31,1.34,-6.47,290,382,414,390,422,10
1681,0.2,0.82,0.55,-0.61,0.31,-3.78,290,386,413,387,422,10
1682,0.16,0.76,0.63,-32.9,-1.95,0.49,291,384,413,385,420,10
1683,0.17,0.76,0.63,6.1,-0.18,-1.04,288,382,413,383,418,10
1684,0.22,0.77,0.59,9.16,8.61,-3.72,288,383,425,385,418,10
1685,0.2,0.81,0.55,3.91,1.1,-2.32,289,382,416,385,418,10
1686,0.22,0.84,0.52,-7.02,-4.76,-1.83,291,389,420,399,419,10
1687,0.19,0.77,0.59,1.83,1.34,-1.22,290,382,421,390,421,10
1688,0.25,0.82,0.58,10.99,-11.6,-0.79,291,384,420,398,420,10
1689,0.27,0.81,0.54,6.53,0.67,-5.25,291,392,423,382,418,10
1690,0.25,0.84,0.55,-7.51,-1.4,-5.8,298,393,421,397,424,10
1691,0.23,0.8,0.55,2.62,0.49,-3.17,288,380,422,385,424,10
1692,0.25,0.78,0.55,-5.68,-6.84,1.65,287,379,420,385,421,10
1693,0.23,0.82,0.55,3.72,-7.32,-1.65,288,379,424,383,423,10
1694,0.22,0.8,0.51,-6.47,-2.69,-3.36,288,361,419,369,421,10
1695,0.23,0.82,0.53,-8.06,-3.05,-3.6,282,347,416,353,420,10
1696,0.23,0.78,0.57,-2.01,-2.5,-0.55,283,354,421,362,422,10
1697,0.25,0.79,0.59,11.23,8.73,-7.75,284,354,421,361,426,10
1698,0.21,0.8,0.58,5.74,-3.54,-2.32,288,358,417,367,422,10
1699,0.23,0.83,0.57,-8.61,-2.01,-5.25,285,355,419,368,425,10
1700,0.16,0.79,0.58,-1.95,6.1,-11.6,284,360,420,370,422,10
1701,0.19,0.79,0.55,11.6,-0.31,15.08,288,356,422,371,423,10
1702,0.24,0.83,0.51,11.17,6.1,-3.6,282,359,420,366,418,10
1703,0.2,0.84,0.52,-2.87,-4.64,-1.1,278,364,418,370,417,10
1704,0.22,0.84,0.49,-8.79,-7.81,-2.2,282,363,422,372,422,10
1705,0.22,0.83,0.5,0.67,-1.65,-5.0,283,366,421,373,422,10
1706,0.21,0.83,0.53,-2.81,-2.93,-2.32,282,366,419,373,418,10
1707,0.22,0.82,0.54,-10.07,-8.12,1.65,284,365,415,376,422,10
1708,0.22,0.83,0.54,-5.55,-5.19,-4.76,285,366,417,378,421,10
1709,0.22,0.8,0.52,6.29,-4.58,-1.16,285,374,417,378,418,10
1710,0.22,0.79,0.55,-1.83,-5.8,-7.32,287,367,419,380,424,10
1711,0.19,0.8,0.59,-11.6,-5.31,-13.61,284,363,418,378,424,10
1712,0.2,0.8,0.57,3.48,-2.01,-0.73,285,367,419,368,422,10
1713,0.21,0.78,0.58,-1.46,-6.47,-0.98,286,363,415,373,424,10
1714,0.19,0.78,0.61,-4.58,-3.05,-2.81,283,365,419,377,423,10
1715,0.2,0.83,0.63,-1.59,-0.31,-7.02,285,366,419,375,424,10
1716,0.22,0.79,0.56,5.92,-7.63,0.73,283,365,418,378,421,10
1717,0.22,0.79,0.56,7.81,-5.86,-1.1,296,370,417,375,420,10
1718,0.23,0.79,0.61,-6.47,-4.03,-2.87,286,370,423,376,420,10
1719,0.2,0.74,0.63,11.84,-1.4,-1.71,286,369,418,371,424,10
1720,0.24,0.76,0.62,-4.27,0.79,-4.7,289,369,417,375,418,10
1721,0.25,0.8,0.61,1.83,-3.11,-9.58,288,368,418,384,425,10
1722,0.21,0.76,0.6,-1.46,-0.98,-2.62,285,363,420,372,423,10
1723,0.24,0.81,0.57,10.8,-6.53,-2.93,286,357,416,372,424,10
1724,0.22,0.84,0.54,5.8,0.55,5.19,289,357,421,366,417,10
1725,0.17,0.77,0.6,1.04,-5.68,-8.54,288,358,420,368,419,10
1726,0.25,0.73,0.54,-19.78,-16.6,16.54,287,357,420,366,418,10
1727,0.3,0.61,0.47,6.23,13.06,4.03,285,358,418,371,417,10
1728,0.15,0.86,0.54,4.52,12.88,14.22,287,362,418,368,422,10
1729,0.18,0.71,0.55,-7.02,-10.99,-4.88,286,358,418,370,423,10
1730,0.23,0.87,0.53,6.84,3.66,1.59,292,363,419,369,417,10
1731,0.22,0.91,0.53,-2.62,-4.82,-9.09,285,360,420,369,420,10
1732,0.22,0.79,0.54,19.9,4.39,-7.87,286,360,414,363,422,10
1733,0.17,0.86,0.48,10.25,4.09,0.73,286,360,416,367,423,10
1734,0.16,0.84,0.53,-2.93,-4.52,-3.48,284,362,416,371,422,10
1735,0.25,0.73,0.55,4.03,-15.44,-5.49,288,357,417,372,419,10
1736,0.18,0.81,0.55,4.03,-5.25,-2.75,286,364,420,371,423,10
1737,0.2,0.83,0.56,-11.47,-4.39,-8.0,286,363,419,370,417,10
1738,0.17,0.8,0.59,3.48,-3.6,0.06,287,361,421,370,423,10
1739,0.22,0.86,0.54,8.61,-3.42,-3.11,289,361,423,377,422,10
1740,0.23,0.8,0.54,-4.94,-4.46,-2.99,321,365,420,372,423,10
1741,0.21,0.8,0.55,-4.33,-2.01,-0.92,287,366,418,371,424,10
1742,0.22,0.81,0.56,1.04,-4.27,-3.3,291,367,421,375,422,10
1743,0.23,0.81,0.54,-7.93,-4.33,-6.23,287,367,420,376,422,10
1744,0.2,0.82,0.54,0.06,-7.2,0.49,305,364,422,379,423,10
1745,0.2,0.82,0.5,17.27,4.58,-3.05,289,364,417,374,421,10
1746,0.19,0.86,0.48,16.85,2.69,-5.68,287,366,420,374,423,10
1747,0.18,0.84,0.5,-5.49,-3.78,-3.23,287,368,421,375,422,10
1748,0.15,0.84,0.53,3.91,-8.36,-5.98,287,364,420,378,420,10
1749,0.19,0.82,0.49,1.77,-4.09,-1.53,288,366,420,374,417,10
1750,0.21,0.82,0.54,-21.24,-7.75,14.4,288,364,422,375,419,10
1751,0.21,0.68,0.62,5.13,-28.32,12.15,287,362,421,372,422,10
1752,0.47,0.78,0.63,21.0,-11.11,-7.57,290,375,422,377,424,10
1753,0.31,0.29,0.97,74.04,-39.61,10.5,289,370,417,372,421,10
1754,0.26,0.37,0.48,-66.28,-68.79,1.65,288,371,418,377,418,10
1755,0.48,0.46,0.63,42.66,-11.72,26.86,288,374,420,379,418,10
1756,0.35,0.64,0.74,-22.83,16.6,-23.86,290,374,416,376,422,10
1757,0.35,0.58,0.68,6.71,1.65,-4.39,289,374,415,376,422,10
1758,0.31,0.61,0.68,7.32,-2.62,1.34,288,372,419,381,422,10
1759,0.36,0.77,0.63,9.58,1.16,-6.96,289,374,416,380,421,10
1760,0.3,0.74,0.61,6.04,0.85,-6.65,289,376,419,380,421,10
1761,0.34,0.68,0.57,5.49,-6.35,-1.04,290,377,417,385,415,10
1762,0.28,0.76,0.57,5.68,0.79,-1.53,291,375,418,383,416,10
1763,0.28,0.77,0.57,3.6,0.18,-2.38,288,376,416,382,418,10
1764,0.27,0.79,0.55,0.85,-1.4,-2.32,293,376,416,377,417,10
1765,0.27,0.8,0.56,5.13,-2.56,-0.98,292,380,420,382,417,10
1766,0.28,0.8,0.54,9.95,-8.3,0.73,289,381,416,382,419,10
1767,0.32,0.82,0.47,1.16,-2.56,-2.32,292,377,415,385,420,10
1768,0.24,0.85,0.53,-8.06,-0.92,0.85,292,377,417,386,422,10
1769,0.29,0.79,0.46,-4.82,13.67,-17.82,292,380,415,388,422,10
1770,0.3,0.85,0.46,1.04,-3.42,-5.8,290,381,415,387,423,10
1771,0.27,0.81,0.51,-16.24,1.22,-10.07,292,378,420,377,420,10
1772,0.23,0.82,0.53,-6.84,-4.94,-5.13,292,382,417,389,423,10
1773,0.25,0.81,0.54,-7.39,-0.67,-6.47,292,382,418,382,424,10
1774,0.27,0.79,0.54,-8.24,-0.73,-6.9,292,383,427,386,422,10
1775,0.19,0.81,0.61,-5.31,-1.16,-7.39,292,383,419,387,425,10
1776,0.42,0.78,0.49,23.38,-42.66,16.78,292,384,417,382,419,10
1777,0.26,0.77,0.55,-1.1,0.18,-5.25,293,383,422,390,420,10
1778,0.33,0.81,0.53,18.13,-27.34,15.26,293,383,423,389,423,10
1779,0.22,0.76,0.58,-4.94,8.67,-9.09,289,384,422,385,426,10
1780,0.22,0.81,0.6,-0.55,-2.38,-0.98,289,382,418,387,423,10
1781,0.19,0.75,0.63,-6.9,-4.21,-0.24,292,380,420,388,421,10
1782,0.22,0.76,0.64,-4.27,2.26,-6.04,292,384,419,392,421,10
1783,0.23,0.77,0.61,7.75,-3.6,-1.28,291,381,421,391,425,10
1784,0.23,0.78,0.61,3.48,-2.38,-1.71,294,384,423,391,424,10
1785,0.19,0.75,0.64,-5.25,3.91,-5.86,292,385,421,386,423,10
1786,0.19,0.77,0.64,4.09,-7.63,-2.99,291,385,421,389,426,10
1787,0.18,0.74,0.62,-2.01,0.18,-1.71,294,384,422,391,426,10
1788,0.21,0.77,0.61,9.64,0.67,-4.7,290,383,421,390,421,10
1789,0.19,0.78,0.59,2.75,-3.78,-1.28,291,369,420,376,424,10
1790,0.21,0.8,0.58,2.26,-5.8,-4.46,291,366,422,372,419,10
1791,0.2,0.78,0.59,-2.87,2.2,-5.92,292,361,419,372,426,10
1792,0.18,0.79,0.59,-3.05,-1.53,-1.83,288,369,424,373,419,10
1793,0.17,0.79,0.61,3.11,-7.2,-3.3,292,367,419,374,423,10
1794,0.17,0.77,0.61,-10.5,-1.77,-4.15,290,371,423,375,425,10
1795,0.2,0.78,0.63,2.56,-3.6,-4.33,291,370,422,380,424,10
1796,0.17,0.78,0.6,0.67,-2.69,-2.44,297,368,422,381,422,10
1797,0.19,0.77,0.57,29.24,4.82,-4.64,291,375,422,389,420,10
1798,0.18,0.8,0.59,0.12,-1.95,-2.99,293,372,419,374,423,10
1799,0.18,0.79,0.59,-1.95,-2.87,-2.99,290,374,423,382,421,10
1800,0.15,0.79,0.59,5.37,-1.77,-2.01,290,374,421,380,425,10
1801,0.16,0.81,0.58,3.78,-3.78,-1.16,290,377,421,383,423,10
1802,0.16,0.74,0.65,-5.92,-3.42,-1.59,293,376,419,379,419,10
1803,0.16,0.76,0.62,3.11,-4.52,-0.67,288,379,426,385,422,10
1804,0.19,0.77,0.64,-4.88,-3.72,-2.32,295,378,422,385,424,10
1805,0.17,0.76,0.64,-4.21,0.06,-3.97,296,377,422,384,420,10
1806,0.19,0.77,0.61,-0.37,-5.25,1.04,289,379,423,387,422,10
1807,0.2,0.79,0.62,-1.89,-0.49,-3.6,290,379,436,382,421,10
1808,0.22,0.77,0.6,-3.48,2.08,-5.19,293,381,423,382,424,10
1809,0.19,0.81,0.6,-1.65,-0.98,-5.37,300,379,433,379,423,10
1810,0.18,0.8,0.58,2.44,5.49,-4.52,290,374,421,381,420,10
1811,0.2,0.81,0.53,-1.77,-0.98,-4.21,290,371,421,380,422,10
1812,0.19,0.81,0.53,-2.01,-14.04,-1.89,287,361,421,370,420,10
1813,0.19,0.82,0.54,2.87,-0.98,-4.27,284,362,424,365,424,10
1814,0.18,0.84,0.53,-9.95,4.39,2.32,291,364,421,372,422,10
1815,0.18,0.81,0.55,-4.58,-7.93,-3.54,291,369,419,369,417,10
1816,0.16,0.81,0.54,0.61,-1.46,-1.22,290,367,414,380,423,10
1817,0.19,0.81,0.54,2.5,-4.7,-1.28,287,367,417,375,421,10
1818,0.17,0.81,0.53,-1.1,-2.38,-0.12,293,369,418,372,422,10
1819,0.21,0.8,0.52,5.98,-2.62,-3.66,291,371,421,379,422,10
1820,0.19,0.81,0.55,-20.14,-8.48,-4.15,297,373,420,382,420,10
1821,0.14,0.84,0.56,4.15,-1.16,-4.09,290,378,428,388,422,10
1822,0.18,0.78,0.55,0.98,-4.21,-1.71,290,379,426,389,416,10
1823,0.17,0.86,0.51,14.65,-6.23,5.25,293,377,430,385,419,10
1824,0.19,0.84,0.51,5.86,-9.4,-0.73,295,380,423,385,424,10
1825,0.2,0.83,0.54,-1.53,-5.86,-1.65,290,381,424,387,421,10
1826,0.21,0.84,0.54,4.39,-8.54,0.0,293,384,422,387,420,10
1827,0.15,0.84,0.5,26.31,-0.98,0.18,296,381,424,389,423,10
1828,0.17,0.85,0.51,-9.77,-5.98,-6.96,293,382,422,390,425,10
1829,0.18,0.83,0.52,1.59,-3.17,-2.26,292,381,420,390,423,10
1830,0.17,0.83,0.53,1.65,-4.03,-1.77,295,380,421,388,423,10
1831,0.18,0.85,0.52,-6.41,-5.55,-3.72,291,374,421,378,423,10
1832,0.15,0.84,0.52,4.39,-3.23,-2.2,293,371,422,379,427,10
1833,0.16,0.83,0.52,3.48,-2.26,-2.62,295,375,420,377,423,10
1834,0.19,0.86,0.51,-0.67,-2.5,-3.3,290,377,419,384,426,10
1835,0.16,0.85,0.52,1.4,-2.87,-3.17,303,373,423,384,426,10
1836,0.18,0.86,0.51,-0.55,-5.37,-1.04,292,372,422,374,421,10
1837,0.15,0.84,0.54,-2.75,-1.46,-3.48,291,371,422,381,419,10
1838,0.16,0.85,0.51,4.88,-2.87,-1.71,292,375,418,383,422,10
1839,0.16,0.84,0.51,0.85,-2.26,-1.95,293,373,420,384,423,10
1840,0.16,0.83,0.53,-2.01,-2.44,-2.99,295,376,419,383,422,10
1841,0.17,0.85,0.53,-2.32,-4.46,-3.11,294,377,418,387,421,10
1842,0.16,0.82,0.53,2.14,-1.83,-2.44,294,376,422,386,426,10
1843,0.2,0.85,0.51,2.69,-6.35,-3.97,292,374,422,383,423,10
1844,0.18,0.86,0.5,-3.54,-8.12,-1.46,294,380,421,387,423,10
1845,0.2,0.82,0.51,2.62,-6.23,2.01,291,380,417,387,422,10
1846,0.18,0.81,0.56,-1.04,-5.0,-1.53,292,381,417,387,422,10
1847,0.2,0.81,0.56,0.43,-2.87,-2.44,296,381,417,388,423,10
1848,0.18,0.82,0.56,-3.05,-2.99,-2.44,294,379,419,383,420,10
1849,0.17,0.81,0.55,0.0,-3.54,-2.32,294,383,420,385,420,10
1850,0.18,0.81,0.54,-0.24,-3.66,-3.11,294,386,416,391,424,10
1851,0.19,0.79,0.57,-4.64,-2.5,-5.49,295,385,418,388,424,10
1852,0.19,0.83,0.54,1.71,-6.04,-1.16,296,380,422,389,424,10
1853,0.18,0.83,0.52,8.36,-0.55,-3.17,293,385,421,390,423,10
1854,0.18,0.83,0.53,-8.48,-4.27,-1.59,290,386,417,388,417,10
1855,0.22,0.79,0.52,1.16,-0.67,-4.76,294,383,421,394,422,10
1856,0.15,0.79,0.58,1.89,1.16,-4.76,294,388,417,390,418,10
1857,0.2,0.83,0.53,1.04,-5.07,-4.09,293,385,423,386,424,10
1858,0.19,0.81,0.55,-4.82,-1.28,-3.6,302,386,424,395,418,10
1859,0.19,0.83,0.56,-1.4,-1.65,-2.81,294,387,420,395,422,10
1860,0.18,0.83,0.57,5.19,-2.44,-0.12,295,387,417,389,421,10
1861,0.2,0.81,0.55,1.28,-3.11,-3.72,296,389,415,390,422,10
1862,0.2,0.84,0.52,-10.38,-4.76,-5.19,293,386,418,391,425,10
1863,0.19,0.84,0.53,0.55,-2.2,-3.72,293,389,431,388,423,10
1864,0.19,0.82,0.55,1.59,-4.03,-0.67,295,387,422,396,422,10
1865,0.19,0.81,0.54,-5.31,-9.4,-1.83,294,385,420,393,422,10
1866,0.17,0.8,0.59,-1.89,-2.14,-3.54,294,387,422,391,423,10
1867,0.19,0.78,0.6,0.24,-1.71,-1.77,294,387,419,391,424,10
1868,0.18,0.78,0.6,-0.12,-1.28,-3.48,294,386,420,389,424,10
1869,0.18,0.79,0.57,5.0,-1.04,-4.03,296,389,420,389,420,10
1870,0.19,0.84,0.59,-8.3,-6.84,-0.98,293,386,419,391,424,10
1871,0.17,0.81,0.59,-0.18,-0.92,-2.87,298,390,420,391,423,10
1872,0.18,0.8,0.57,-1.22,-2.5,-2.38,297,389,421,396,425,10
1873,0.18,0.81,0.55,4.03,-4.46,-1.22,294,387,423,403,423,10
1874,0.17,0.8,0.57,7.08,-2.26,-2.5,298,390,418,391,424,10
1875,0.18,0.81,0.58,0.12,-4.15,-3.66,296,386,422,387,425,10
1876,0.17,0.8,0.58,0.37,-2.81,-3.6,297,387,419,395,422,10
1877,0.15,0.79,0.61,0.06,-1.34,-3.78,295,387,423,393,422,10
1878,0.18,0.81,0.58,2.69,-2.56,-2.69,295,386,428,388,423,10
1879,0.17,0.81,0.58,1.04,-2.44,-2.32,295,388,422,386,424,10
1880,0.18,0.79,0.58,-2.62,-2.5,-2.93,297,387,416,393,421,10
1881,0.18,0.8,0.57,8.06,-4.52,-1.22,297,389,418,392,423,10
1882,0.17,0.8,0.57,3.48,-5.13,-1.4,296,391,419,398,422,10
1883,0.2,0.82,0.56,-3.78,-2.26,-3.48,298,386,417,397,422,10
1884,0.18,0.79,0.59,6.16,-2.26,-2.93,296,387,420,394,419,10
1885,0.16,0.8,0.58,0.49,-4.21,-2.26,322,390,420,396,418,10
1886,0.17,0.81,0.6,-6.71,-3.54,-2.14,294,390,419,395,424,10
1887,0.17,0.82,0.57,6.35,-2.93,-2.44,321,389,423,392,424,10
1888,0.16,0.79,0.58,-5.98,-5.68,0.73,294,392,420,394,419,10
1889,0.19,0.8,0.55,0.79,-5.07,0.55,296,389,420,395,423,10
1890,0.19,0.8,0.57,-2.62,-2.01,-3.17,296,390,420,398,425,10
1891,0.19,0.84,0.64,-6.65,-5.74,-0.55,295,388,422,396,421,10
1892,0.2,0.8,0.56,4.82,-7.57,-0.43,295,389,430,398,423,10
1893,0.2,0.81,0.56,-0.06,-5.0,-1.95,297,394,422,393,420,10
1894,0.19,0.77,0.59,-0.73,-2.81,-3.05,298,392,421,397,421,10
1895,0.2,0.81,0.55,3.6,-2.5,-3.11,297,397,419,394,422,10
1896,0.23,0.8,0.56,2.81,-2.75,0.18,296,386,416,389,423,10
1897,0.23,0.8,0.53,-1.71,-8.3,-3.23,295,385,414,391,422,10
1898,0.21,0.82,0.55,-0.92,-1.71,-2.44,294,388,421,394,420,10
1899,0.19,0.83,0.55,1.89,-3.05,-2.38,294,387,419,393,424,10
1900,0.18,0.79,0.57,-3.6,-2.01,-5.8,297,383,419,394,421,10
1901,0.18,0.8,0.55,7.32,-4.64,-1.1,296,387,419,392,422,10
1902,0.16,0.82,0.56,-3.3,-2.2,-1.83,298,390,420,395,421,10
1903,0.18,0.79,0.55,2.5,-0.24,-1.53,295,390,421,394,416,10
1904,0.19,0.86,0.57,3.66,-5.43,-1.89,293,390,420,395,423,10
1905,0.2,0.82,0.59,-3.85,-3.91,1.22,294,387,423,395,422,10
1906,0.18,0.79,0.61,3.78,-2.5,-3.91,297,384,421,395,424,10
1907,0.17,0.78,0.57,-0.18,-6.47,-4.7,298,388,421,397,420,10
1908,0.19,0.77,0.61,-4.21,7.39,0.67,296,389,423,395,424,10
1909,0.21,0.79,0.57,1.77,-3.23,-6.23,295,386,423,394,424,10
1910,0.2,0.78,0.54,0.73,-8.79,1.59,305,389,421,395,422,10
1911,0.22,0.8,0.55,-0.12,-0.18,-2.87,295,387,424,399,424,10
1912,0.21,0.84,0.6,-5.86,-3.42,-6.35,297,389,427,391,421,10
1913,0.19,0.79,0.55,6.04,-5.98,0.85,295,388,426,398,425,10
1914,0.2,0.8,0.59,-1.22,-2.81,-2.99,296,390,422,390,422,10
1915,0.19,0.78,0.6,-2.01,-4.58,-3.3,298,391,419,390,421,10
1916,0.17,0.77,0.58,-2.87,-2.32,-1.1,300,385,421,400,420,10
1917,0.19,0.79,0.59,0.31,-1.34,-2.56,298,392,419,396,423,10
1918,0.17,0.78,0.6,-2.2,-1.22,-4.39,298,390,420,406,421,10
1919,0.2,0.8,0.55,7.2,-2.38,-3.11,293,385,418,401,421,10
1920,0.18,0.77,0.6,-2.75,0.98,-3.05,295,384,420,397,420,10
1921,0.18,0.82,0.58,-2.26,-6.65,-1.89,296,388,421,396,421,10
1922,0.21,0.8,0.59,1.1,-1.65,-3.54,296,389,420,392,421,10
1923,0.21,0.76,0.63,-20.39,-9.64,0.18,296,388,420,393,422,10
1924,0.26,0.84,0.57,17.15,-18.74,6.16,296,388,420,396,421,10
1925,0.24,0.76,0.58,13.06,-8.36,5.37,294,383,423,392,423,10
1926,0.25,0.76,0.6,-14.95,-12.94,0.0,293,360,421,368,423,10
1927,0.32,0.68,0.67,8.12,11.96,-5.07,287,351,420,359,419,10
1928,0.25,0.83,0.54,0.06,0.18,-7.14,291,357,423,363,420,10
1929,0.3,0.75,0.55,-8.12,-3.97,-6.29,291,358,420,368,420,10
1930,0.29,0.85,0.7,-1.04,-3.78,8.91,290,361,419,368,420,10
1931,0.29,0.81,0.5,6.9,2.26,-7.02,293,365,425,382,417,10
1932,0.39,0.93,0.76,-25.51,20.08,12.15,293,362,420,369,419,10
1933,0.45,0.58,0.73,11.47,-4.33,-24.96,294,365,417,369,420,10
1934,0.27,0.75,0.47,16.91,-2.44,-0.37,294,365,416,372,420,10
1935,0.19,0.85,0.73,-15.01,9.46,-13.55,294,365,420,372,419,10
1936,0.28,0.77,0.59,4.64,-6.29,-9.77,293,364,421,372,421,10
1937,0.28,0.81,0.58,1.83,-0.12,-3.66,294,364,419,372,416,10
1938,0.23,0.78,0.58,4.33,-4.03,-0.92,294,367,419,374,417,10
1939,0.28,0.8,0.56,0.73,-2.44,-1.95,295,372,433,377,419,10
1940,0.25,0.8,0.57,3.17,-2.14,-3.78,290,369,420,374,416,10
1941,0.26,0.78,0.57,0.92,-2.32,-1.95,293,370,420,376,419,10
1942,0.24,0.8,0.59,-7.81,-2.69,-4.7,292,370,419,381,414,10
1943,0.26,0.81,0.58,-4.33,-0.55,-10.01,290,371,418,374,419,10
1944,0.19,0.78,0.58,-4.88,-2.87,-6.9,294,370,419,378,417,10
1945,0.21,0.78,0.58,-2.01,-4.7,-1.4,293,372,423,376,418,10
1946,0.23,0.79,0.58,3.97,-1.28,-1.83,294,371,418,377,417,10
1947,0.24,0.79,0.56,5.07,-2.87,-4.21,296,374,418,378,417,10
1948,0.2,0.76,0.59,13.73,-1.1,-1.89,295,371,417,377,417,10
1949,0.24,0.79,0.6,2.93,-3.42,-4.03,294,374,419,379,414,10
1950,0.25,0.8,0.57,2.01,-2.08,-6.1,295,371,417,380,415,10
1951,0.22,0.8,0.58,2.69,-2.2,-3.54,296,375,422,379,418,10
1952,0.23,0.79,0.58,-2.87,-3.17,-3.85,294,373,419,383,413,10
1953,0.22,0.8,0.58,0.24,-3.05,-3.3,294,370,416,380,414,10
1954,0.16,0.81,0.67,-10.07,1.53,-2.44,294,374,417,380,420,10
1955,0.26,0.73,0.61,7.69,-9.34,2.14,303,375,420,376,416,10
1956,0.22,0.76,0.64,-0.67,-4.58,-0.55,294,373,419,381,417,10
1957,0.22,0.76,0.64,-1.59,-9.7,-12.76,295,373,416,374,420,10
1958,0.26,0.78,0.6,1.16,-4.52,-3.54,304,374,421,374,419,10
1959,0.25,0.74,0.62,0.92,-1.65,1.1,295,370,418,383,415,10
1960,0.2,0.75,0.62,4.82,-1.34,-0.98,297,370,418,380,416,10
1961,0.22,0.78,0.62,1.16,-4.09,-2.26,294,371,419,378,418,10
1962,0.24,0.77,0.6,-0.79,-4.21,-2.69,297,369,419,372,418,10
1963,0.22,0.75,0.62,-0.31,-2.93,-2.5,294,369,418,385,422,10
1964,0.22,0.77,0.6,1.34,-3.48,-3.54,294,376,419,375,416,10
1965,0.22,0.76,0.64,-0.31,-2.99,-2.38,297,372,420,382,418,10
1966,0.19,0.76,0.63,0.12,-1.22,-2.75,296,370,428,380,418,10
1967,0.2,0.76,0.61,3.11,-2.99,-2.75,296,373,418,383,419,10
1968,0.22,0.75,0.61,3.17,-3.48,-4.09,295,372,424,386,417,10
1969,0.23,0.76,0.63,-4.39,-4.46,-2.93,290,372,417,382,420,10
1970,0.21,0.76,0.62,0.43,-2.26,-3.6,296,374,415,378,420,10
1971,0.21,0.76,0.63,1.4,-2.69,-3.72,293,375,424,384,414,10
1972,0.21,0.76,0.59,7.14,1.65,-2.93,297,374,415,385,421,10
1973,0.21,0.77,0.61,-0.06,-6.35,-0.06,298,376,420,391,417,10
1974,0.2,0.76,0.61,1.1,-1.1,-4.52,298,377,421,380,414,10
1975,0.21,0.77,0.61,0.85,-1.77,-2.81,296,375,420,390,420,10
1976,0.2,0.78,0.62,2.01,-2.2,-3.05,297,376,416,385,421,10
1977,0.22,0.77,0.61,4.46,-2.99,-2.75,296,376,418,386,418,10
1978,0.21,0.77,0.59,3.54,-4.21,-2.14,296,377,420,381,420,10
1979,0.2,0.77,0.63,-2.26,-3.05,-3.36,303,379,420,386,416,10
1980,0.19,0.77,0.62,0.73,-1.22,-2.44,297,379,417,387,417,10
1981,0.2,0.77,0.62,-1.65,-2.14,-3.72,298,379,419,384,420,10
1982,0.19,0.79,0.6,4.7,1.89,-5.43,292,376,418,385,417,10
1983,0.17,0.8,0.61,-2.5,-3.11,-3.05,297,374,421,386,419,10
1984,0.2,0.79,0.6,-0.43,-3.78,-2.5,296,375,417,381,420,10
1985,0.18,0.76,0.64,-6.84,-1.83,-4.46,294,369,417,384,418,10
1986,0.17,0.77,0.62,3.72,-1.83,-3.6,294,371,418,384,418,10
1987,0.21,0.77,0.62,2.93,-7.93,-1.34,302,368,418,380,415,10
1988,0.15,0.75,0.62,7.02,-11.17,-0.31,296,372,420,383,415,10
1989,0.22,0.77,0.61,3.23,-1.16,-2.2,296,371,419,382,418,10
1990,0.2,0.78,0.62,-1.1,-5.98,-2.62,295,371,418,381,416,10
1991,0.26,0.8,0.56,1.65,0.98,-8.06,284,371,418,383,412,10
1992,0.17,0.78,0.6,3.05,-1.53,-2.14,295,373,420,382,416,10
1993,0.19,0.79,0.59,12.21,-2.93,-1.34,296,374,418,388,418,10
1994,0.22,0.8,0.62,-4.15,-2.99,-2.32,297,375,419,379,414,10
1995,0.15,0.76,0.62,-0.43,-2.32,-3.85,298,373,420,380,414,10
1996,0.13,0.81,0.57,28.2,-4.09,3.17,297,371,418,380,414,10
1997,0.19,0.82,0.57,-5.25,-6.41,-2.69,297,374,416,382,414,10
1998,0.17,0.8,0.59,-6.96,-4.09,-2.75,296,376,422,378,411,10
1999,0.17,0.79,0.56,5.19,-2.32,-2.26,299,375,419,382,416,10
2000,0.21,0.8,0.59,-9.34,-6.9,-3.42,296,378,422,380,413,10
2001,0.17,0.79,0.59,1.46,-0.24,-4.15,297,375,416,382,414,10
2002,0.17,0.79,0.61,-9.52,-6.77,-4.64,297,374,417,383,414,10
2003,0.18,0.83,0.57,6.41,-7.02,-1.53,297,375,416,386,416,10
2004,0.15,0.78,0.62,-8.85,2.62,-6.35,295,381,418,390,414,10
2005,0.16,0.8,0.56,12.15,-3.97,-4.09,300,378,416,384,413,10
2006,0.15,0.81,0.59,-4.03,-2.38,-2.32,293,364,417,366,413,10
2007,0.19,0.87,0.57,9.03,-2.44,-7.32,320,361,418,367,416,10
2008,0.18,0.8,0.58,-0.24,-4.64,-1.53,294,360,418,366,417,10
2009,0.15,0.81,0.6,-1.95,-4.94,-3.11,293,363,418,370,415,10
2010,0.15,0.78,0.61,-7.81,-2.62,-2.38,294,366,418,376,416,10
2011,0.16,0.81,0.57,2.69,-1.83,-4.58,293,378,421,379,414,10
2012,0.16,0.81,0.56,3.42,-4.03,-3.42,293,369,418,376,418,10
2013,0.16,0.81,0.57,-4.33,-1.77,-2.69,295,372,418,379,415,10
2014,0.15,0.8,0.58,2.44,-1.77,-2.2,298,366,419,377,416,10
2015,0.16,0.82,0.58,-4.88,-1.28,-4.52,295,369,421,381,416,10
2016,0.15,0.79,0.58,-0.55,0.18,-4.39,296,370,422,371,416,10
2017,0.16,0.79,0.59,1.28,-3.54,-2.2,293,371,417,377,416,10
2018,0.17,0.83,0.56,9.4,0.98,-2.99,298,369,422,374,415,10
2019,0.18,0.81,0.57,-0.79,-1.16,-2.62,296,371,420,375,413,10
2020,0.16,0.82,0.56,2.62,-4.52,-3.6,296,368,423,375,411,10
2021,0.16,0.83,0.56,-5.07,-2.56,-4.7,296,366,415,378,414,10
2022,0.15,0.8,0.58,0.37,-6.59,-0.79,293,371,418,372,415,10
2023,0.19,0.71,0.57,-10.74,-5.8,-3.42,298,368,420,379,417,10
