,aX,aY,aZ,gX,gY,gZ,little,ring,middle,index,thumb,number
0,0.97,-0.26,0.1,-0.37,-1.83,-0.85,209,478,404,483,284,11
1,0.95,-0.27,0.1,1.22,-4.39,-2.32,216,478,406,478,287,11
2,1.0,-0.26,0.08,-2.38,-5.74,-5.19,213,476,403,479,285,11
3,0.93,-0.23,0.11,-3.36,-4.88,-7.32,212,477,402,479,285,11
4,0.97,-0.25,0.08,-0.85,-3.85,-3.54,211,475,402,483,284,11
5,0.98,-0.24,0.09,-2.32,-3.11,-2.87,212,477,403,478,282,11
6,0.97,-0.24,0.09,-0.31,-2.38,-1.83,211,476,404,479,286,11
7,0.99,-0.23,0.1,-1.53,-3.97,0.12,217,477,406,481,283,11
8,0.97,-0.28,0.07,-3.11,-1.65,-2.5,214,474,408,483,284,11
9,0.89,-0.34,0.04,-2.01,0.43,-7.57,212,476,408,480,282,11
10,0.96,-0.3,0.12,-3.42,2.5,7.51,212,476,406,482,283,11
11,0.89,-0.34,0.15,6.41,-17.64,-3.42,212,486,406,488,281,11
12,0.88,-0.41,-0.0,-4.21,-3.78,3.05,213,473,406,475,282,11
13,0.94,-0.37,0.05,-0.55,14.28,-3.91,210,477,411,484,285,11
14,0.95,-0.35,0.06,-8.48,-2.69,-4.33,210,475,410,480,285,11
15,0.91,-0.38,0.04,-10.01,-8.0,-1.22,209,477,406,483,287,11
16,0.92,-0.4,0.03,0.79,-6.59,-2.69,208,476,406,483,282,11
17,0.95,-0.36,-0.07,-47.12,-19.23,-14.04,218,473,407,468,278,11
18,0.97,-0.34,-0.08,2.26,4.15,-1.22,243,268,363,465,344,11
19,0.82,-0.36,0.21,15.56,3.97,3.91,192,379,352,470,261,11
20,0.94,-0.3,0.05,-2.62,-6.65,-6.16,196,451,390,476,261,11
21,0.96,-0.31,0.04,1.83,-4.52,-1.46,197,457,398,477,266,11
22,0.96,-0.33,0.04,1.83,-2.08,-2.5,200,461,399,475,266,11
23,0.95,-0.33,0.06,1.59,-6.1,-0.24,198,465,397,477,272,11
24,0.94,-0.33,0.06,1.22,-2.5,-2.44,195,466,395,482,273,11
25,0.95,-0.33,0.05,1.77,-3.85,-3.54,197,464,394,478,277,11
26,0.95,-0.32,0.05,1.59,-3.85,-2.2,199,471,396,481,277,11
27,0.92,-0.33,0.08,4.21,-3.42,-1.77,196,469,395,479,281,11
28,0.95,-0.33,0.05,-1.16,0.06,-4.82,201,471,393,477,279,11
29,0.95,-0.32,0.05,-2.56,-5.49,-2.01,200,468,394,478,279,11
30,0.93,-0.33,0.04,3.85,-3.36,-1.04,205,468,390,477,279,11
31,0.94,-0.31,0.04,-1.34,-1.22,-3.23,195,474,392,476,279,11
32,0.95,-0.32,0.03,2.32,-2.69,-2.26,200,469,391,473,283,11
33,0.95,-0.32,0.03,0.98,-3.91,-3.3,202,474,391,479,285,11
34,0.96,-0.32,0.02,0.49,-3.54,-3.97,200,475,394,472,283,11
35,0.94,-0.31,0.03,-0.49,-2.44,-2.01,201,475,395,477,284,11
36,0.95,-0.32,0.03,0.06,-3.6,-1.22,202,473,391,475,284,11
37,0.94,-0.32,0.02,1.4,-2.56,-2.69,203,470,395,481,283,11
38,0.95,-0.33,0.03,1.28,-4.94,-2.81,204,472,392,478,283,11
39,0.94,-0.32,0.02,-0.12,-1.22,-3.36,202,472,395,477,282,11
40,0.95,-0.32,0.02,1.1,-2.38,-2.75,203,475,392,480,285,11
41,0.95,-0.33,0.02,-0.12,-2.2,-2.87,201,468,392,476,284,11
42,0.95,-0.32,0.03,0.55,-1.71,-4.82,202,469,394,472,281,11
43,0.96,-0.31,0.02,1.89,-4.64,-3.23,205,472,391,477,284,11
44,0.96,-0.3,0.01,-1.83,-3.42,-5.74,202,474,390,476,284,11
45,0.97,-0.31,0.01,1.04,-3.42,-4.15,206,473,392,480,287,11
46,0.96,-0.34,0.02,1.65,-3.11,-1.04,201,476,392,477,285,11
47,0.96,-0.32,0.01,-0.31,-3.72,-5.13,202,474,392,476,285,11
48,0.95,-0.33,0.01,0.67,-2.26,-4.94,201,472,394,474,283,11
49,0.95,-0.31,0.02,1.16,-2.93,-2.08,205,474,393,477,286,11
50,0.96,-0.34,0.02,0.06,-3.78,-3.66,204,476,390,477,289,11
51,0.95,-0.3,0.02,0.55,-3.3,-2.81,202,472,393,476,287,11
52,0.96,-0.3,0.02,0.31,-2.62,-3.23,204,477,386,477,289,11
53,0.94,-0.29,0.02,1.1,-4.82,-1.53,200,474,388,481,286,11
54,0.97,-0.29,0.0,-0.12,-3.42,-2.38,202,472,388,480,287,11
55,0.97,-0.29,0.0,-1.22,-3.91,-3.3,205,477,390,480,290,11
56,0.96,-0.29,0.03,1.34,-2.99,-3.11,205,476,390,477,287,11
57,0.96,-0.29,0.01,-1.71,-5.0,-3.66,203,477,389,472,285,11
58,0.96,-0.28,0.01,-0.06,-4.64,-1.89,206,475,391,477,287,11
59,0.96,-0.29,-0.0,0.12,-2.87,-5.13,206,474,392,479,287,11
60,0.96,-0.28,0.0,1.95,-3.48,-2.38,207,475,388,473,292,11
61,0.97,-0.28,-0.0,0.49,-2.93,-2.26,205,474,390,479,288,11
62,0.96,-0.28,-0.0,0.12,-2.69,-2.2,205,474,390,478,286,11
63,0.98,-0.27,-0.02,0.79,-3.6,-4.21,205,473,391,476,288,11
64,0.96,-0.25,-0.01,1.53,-3.23,-3.66,209,476,390,477,287,11
65,0.97,-0.25,-0.01,0.24,-2.93,-3.85,205,472,395,474,291,11
66,0.97,-0.25,-0.02,-0.98,-3.54,-1.89,203,477,394,471,291,11
67,0.97,-0.25,-0.01,0.49,-3.05,-3.23,206,474,393,474,290,11
68,0.96,-0.24,-0.01,1.53,-3.78,-3.42,246,473,387,476,289,11
69,0.97,-0.24,-0.01,0.73,-3.3,-2.38,206,471,389,481,289,11
70,0.97,-0.24,-0.01,-0.06,-2.87,-2.26,209,474,389,474,287,11
71,0.98,-0.23,-0.0,0.49,-3.17,-2.62,209,476,389,478,286,11
72,0.97,-0.23,-0.01,0.85,-3.17,-2.5,211,474,393,477,290,11
73,0.96,-0.23,-0.01,1.04,-2.99,-2.87,207,475,392,472,288,11
74,0.98,-0.23,-0.01,0.43,-2.5,-1.46,209,474,389,476,291,11
75,0.98,-0.23,0.0,1.04,-3.05,-3.05,204,474,390,478,286,11
76,0.98,-0.22,-0.01,1.71,-3.48,-2.26,208,480,392,476,288,11
77,0.98,-0.22,-0.01,-1.16,-2.62,-3.3,206,480,389,470,288,11
78,0.97,-0.22,-0.01,1.65,-2.56,-2.38,209,477,390,478,289,11
79,0.97,-0.22,0.0,-0.43,-2.75,-2.69,205,476,390,474,289,11
80,0.98,-0.21,0.01,1.4,-2.62,-2.99,206,474,390,479,288,11
81,0.97,-0.23,0.0,0.43,-2.26,-3.6,208,474,392,470,286,11
82,0.98,-0.22,-0.0,0.43,-3.91,-2.5,214,475,392,475,289,11
83,0.98,-0.21,0.0,0.67,-1.83,-4.09,206,480,389,479,285,11
84,0.97,-0.23,-0.01,0.18,-3.3,-3.3,209,477,392,470,287,11
85,0.98,-0.22,-0.01,0.67,-2.32,-0.73,226,474,386,477,286,11
86,0.97,-0.22,0.01,0.61,-2.08,0.85,206,473,391,475,288,11
87,0.97,-0.25,-0.02,-2.5,-3.97,-2.08,205,473,390,480,290,11
88,0.98,-0.23,0.02,-2.62,-2.93,-0.55,202,482,387,480,289,11
89,0.98,-0.24,0.0,0.37,-3.11,-3.36,205,475,390,480,287,11
90,0.96,-0.25,0.0,1.4,-3.42,-3.23,208,474,391,475,283,11
91,0.97,-0.25,-0.0,-1.22,-3.48,0.24,208,471,390,475,289,11
92,0.97,-0.25,-0.0,-0.55,-3.78,-1.34,206,474,390,478,291,11
93,0.97,-0.26,-0.01,0.61,-2.5,-2.38,208,476,392,475,293,11
94,0.97,-0.26,0.01,-1.71,-3.17,-2.08,207,476,389,479,289,11
95,0.98,-0.25,-0.0,-0.67,-3.23,-2.87,211,474,386,473,287,11
96,0.97,-0.28,-0.03,0.0,-2.56,-2.5,206,475,390,479,290,11
97,0.96,-0.28,-0.03,-2.99,-3.17,0.73,210,475,398,485,289,11
98,0.99,-0.25,0.0,-0.31,-4.15,-2.2,205,481,390,477,287,11
99,0.96,-0.29,-0.03,-1.46,-2.81,-6.29,197,477,390,478,289,11
100,0.97,-0.27,-0.03,1.22,-3.54,-0.43,207,476,388,477,288,11
101,0.96,-0.28,-0.01,0.31,-2.81,-1.95,206,474,386,477,287,11
102,0.96,-0.27,-0.01,0.55,-3.17,-2.32,209,477,393,481,287,11
103,0.95,-0.28,-0.01,-0.85,-1.89,-1.34,209,472,393,479,288,11
104,0.96,-0.29,-0.01,-1.4,-3.05,-0.67,213,477,392,476,290,11
105,0.95,-0.28,-0.0,0.55,-3.3,-4.03,224,473,391,480,285,11
106,0.94,-0.28,0.0,1.46,-1.89,-1.4,207,471,385,475,289,11
107,0.95,-0.29,-0.01,-0.85,-5.49,1.1,206,474,389,479,290,11
108,0.97,-0.24,0.01,0.85,-2.38,-1.89,216,475,394,471,291,11
109,0.99,-0.22,0.01,-1.4,-3.54,-10.19,204,475,388,479,292,11
110,0.95,-0.29,-0.04,-0.06,-1.1,-2.99,210,472,385,479,291,11
111,0.94,-0.29,-0.02,-2.81,-3.66,-0.06,207,472,389,479,290,11
112,0.95,-0.29,-0.02,0.85,-3.3,-2.69,211,474,386,475,290,11
113,0.97,-0.29,-0.03,0.18,-2.56,-4.82,209,479,387,476,293,11
114,0.96,-0.28,-0.03,0.61,-3.11,-2.38,208,474,388,473,290,11
115,0.96,-0.27,-0.02,0.06,-2.44,-1.4,208,475,392,475,292,11
116,0.96,-0.28,0.0,3.6,-2.38,-1.28,210,475,392,476,291,11
117,0.96,-0.29,-0.02,0.37,-2.14,-2.5,210,474,390,479,290,11
118,0.96,-0.29,0.0,-1.59,-2.81,-5.19,211,474,390,473,290,11
119,0.95,-0.28,-0.02,-0.61,-1.65,-2.75,209,472,391,471,291,11
120,0.95,-0.31,-0.01,-0.73,-2.56,-4.46,212,475,395,476,292,11
121,0.96,-0.29,-0.01,1.65,-3.97,-3.48,209,474,397,477,290,11
122,0.97,-0.28,-0.0,1.1,-1.95,-2.69,210,475,392,475,290,11
123,0.95,-0.29,0.0,0.31,-2.5,-3.66,208,477,395,474,279,11
124,0.95,-0.29,-0.01,0.61,-3.23,-3.6,209,474,392,474,290,11
125,0.96,-0.27,-0.0,0.06,-3.05,-2.38,217,475,394,476,292,11
126,0.96,-0.28,-0.0,1.34,-3.42,-2.14,206,475,392,474,292,11
127,0.96,-0.27,-0.0,0.18,-2.99,-3.6,210,473,392,479,292,11
128,0.96,-0.28,-0.01,1.95,-3.23,-3.17,212,480,392,475,291,11
129,0.96,-0.27,-0.01,-0.06,-2.93,-2.81,210,474,393,470,291,11
130,0.96,-0.28,-0.01,1.04,-2.75,-2.81,248,477,394,470,293,11
131,0.96,-0.27,0.0,1.04,-2.62,-2.2,209,464,394,478,291,11
132,0.98,-0.27,-0.01,0.43,-4.21,2.87,208,474,392,474,293,11
133,0.95,-0.31,-0.01,3.54,-3.36,-0.85,212,475,392,479,289,11
134,0.94,-0.32,-0.0,0.12,-2.44,-2.75,210,477,389,470,290,11
135,0.96,-0.32,-0.0,-1.53,-2.08,-4.94,209,475,395,473,291,11
136,0.95,-0.3,-0.0,0.85,-2.44,-2.62,207,474,394,479,291,11
137,0.95,-0.3,-0.01,-0.55,-2.87,-3.42,210,477,392,470,292,11
138,0.94,-0.29,-0.01,-0.31,-1.65,-2.99,212,474,394,470,290,11
139,0.96,-0.31,-0.0,-0.06,-2.99,-2.38,209,477,392,478,292,11
140,0.96,-0.32,-0.0,3.05,-4.64,0.24,210,472,394,478,291,11
141,0.94,-0.31,-0.02,-2.75,-1.53,-3.48,207,478,392,479,291,11
142,0.96,-0.29,0.01,-0.18,-0.12,-2.32,211,474,395,478,289,11
143,0.96,-0.3,0.0,0.0,-1.95,-4.03,212,473,391,475,291,11
144,0.96,-0.32,-0.02,2.01,-2.87,-4.15,212,474,392,479,297,11
145,0.94,-0.3,0.01,2.44,-3.42,-1.77,210,471,394,483,293,11
146,0.97,-0.28,0.02,-0.12,-4.09,-1.59,212,474,392,479,292,11
147,0.98,-0.3,-0.01,4.46,-3.54,-1.22,213,476,395,479,288,11
148,0.94,-0.32,0.01,0.18,-3.48,-2.56,224,476,393,475,290,11
149,0.96,-0.3,0.0,0.37,-1.77,-4.7,211,473,389,474,292,11
150,0.97,-0.28,0.01,0.31,-3.54,-1.77,211,474,393,475,293,11
151,0.95,-0.3,0.0,0.24,-2.99,-2.81,210,475,391,475,285,11
152,0.96,-0.29,0.03,0.79,-2.75,-3.42,210,476,395,469,292,11
153,0.94,-0.3,0.02,1.71,-2.38,-5.07,208,473,393,474,292,11
154,0.95,-0.29,0.01,-4.21,-1.95,-3.91,218,472,392,476,293,11
155,0.97,-0.28,-0.0,0.49,-2.5,-2.56,212,477,403,475,294,11
156,0.96,-0.28,0.02,0.67,-2.14,-2.32,211,476,395,475,290,11
157,0.96,-0.29,0.01,0.98,-4.21,-1.89,213,473,395,478,292,11
158,0.96,-0.29,0.01,-0.49,-3.97,-2.69,208,474,390,475,294,11
159,0.96,-0.28,0.0,0.37,-2.5,-1.77,213,478,392,478,293,11
160,0.96,-0.28,0.01,1.77,-3.23,-2.87,214,471,392,476,283,11
161,0.96,-0.28,0.01,0.98,-3.36,-3.85,209,474,393,477,293,11
162,0.98,-0.27,0.01,-1.34,-2.69,-3.72,214,477,397,473,292,11
163,0.96,-0.27,0.02,3.48,-4.33,-1.46,211,473,394,474,291,11
164,0.96,-0.27,0.01,0.37,-2.14,-2.93,212,474,390,478,292,11
165,0.96,-0.28,0.02,0.49,-2.5,-1.89,213,476,393,472,289,11
166,0.96,-0.27,0.02,1.1,-3.48,-2.38,208,477,387,471,291,11
167,0.96,-0.27,0.02,0.67,-3.05,-1.28,213,474,392,472,294,11
168,0.97,-0.28,0.03,1.71,-2.69,-0.61,211,474,389,469,292,11
169,0.93,-0.32,0.01,-4.15,-2.5,-2.93,214,475,392,473,292,11
170,0.97,-0.3,0.01,-1.53,-4.58,-9.46,212,477,393,475,294,11
171,0.96,-0.28,0.03,1.04,-2.56,-4.03,212,475,390,477,292,11
172,0.97,-0.25,0.05,0.61,-2.69,-2.99,211,471,395,470,290,11
173,0.96,-0.27,0.02,-0.98,-3.05,-4.33,214,474,390,475,291,11
174,0.98,-0.24,0.02,-0.73,-3.48,-4.03,218,474,392,477,289,11
175,0.98,-0.25,0.02,-0.18,-3.85,-1.53,249,472,393,471,295,11
176,0.97,-0.25,0.03,0.85,-2.44,-3.3,214,486,393,477,290,11
177,0.96,-0.26,0.03,-0.98,-1.83,-3.3,213,474,393,473,293,11
178,0.97,-0.26,0.03,1.28,-2.87,-2.99,211,478,392,472,296,11
179,0.97,-0.26,0.02,0.06,-3.78,-1.1,215,472,395,474,295,11
180,0.97,-0.26,0.02,0.61,-2.93,-1.46,212,473,394,469,291,11
181,0.98,-0.26,0.02,-0.31,-2.26,-0.37,212,471,395,476,294,11
182,0.96,-0.28,0.03,1.16,-3.36,-2.38,210,475,397,478,293,11
183,0.96,-0.27,0.03,0.18,-2.75,-5.13,218,474,392,477,293,11
184,0.96,-0.27,0.02,0.92,-3.3,-2.93,212,474,392,474,293,11
185,0.97,-0.27,0.03,-0.55,-3.05,-1.83,214,475,392,478,295,11
186,0.97,-0.27,0.03,0.55,-2.38,-2.69,212,475,391,477,292,11
187,0.96,-0.27,0.03,1.83,-2.75,-2.44,215,476,395,474,292,11
188,0.96,-0.28,0.03,3.23,-3.85,-1.95,212,477,392,476,294,11
189,0.95,-0.28,0.04,0.06,-2.26,-5.37,215,477,394,475,295,11
190,0.96,-0.27,0.04,0.37,-2.87,0.0,213,477,394,477,295,11
191,0.97,-0.27,0.05,1.34,-3.6,-3.6,215,475,394,470,292,11
192,0.97,-0.27,0.03,-1.34,-3.42,-1.28,212,473,392,475,296,11
193,0.98,-0.26,0.04,0.61,-1.89,-2.44,211,475,393,486,293,11
194,0.96,-0.27,0.04,0.12,-4.15,-5.55,212,473,392,477,295,11
195,0.98,-0.26,0.03,-0.31,-2.75,-3.97,213,473,388,480,295,11
196,0.96,-0.26,0.04,0.06,-2.56,-2.44,215,471,393,469,293,11
197,0.97,-0.26,0.04,-0.12,-1.89,-3.36,213,471,394,474,292,11
198,0.93,-0.29,0.05,-0.18,-5.0,-2.38,213,474,394,477,296,11
199,0.93,-0.34,0.02,2.26,-6.1,13.49,211,473,392,474,293,11
200,0.9,-0.38,0.06,1.71,3.23,11.17,215,477,390,474,291,11
201,0.93,-0.34,0.11,7.87,-2.87,-1.28,212,472,391,473,299,11
202,0.9,-0.41,0.04,-2.2,-2.93,-1.1,215,477,402,474,305,11
203,0.92,-0.39,0.06,0.98,-3.6,-3.91,216,476,395,483,293,11
204,0.92,-0.39,0.06,0.85,-2.75,-5.37,225,477,394,477,293,11
205,0.95,-0.31,0.11,5.07,-5.37,-5.49,218,481,391,474,295,11
206,0.97,-0.33,0.01,-4.58,-4.58,-13.49,213,471,392,475,294,11
207,1.0,-0.22,0.06,6.77,-3.42,-13.79,214,474,390,473,294,11
208,0.97,-0.23,0.02,-3.05,-9.52,-4.15,215,474,392,472,294,11
209,1.02,-0.17,0.01,4.33,-3.23,-5.31,212,474,389,476,296,11
210,1.0,-0.19,0.01,-6.96,-3.85,3.85,213,476,393,474,294,11
211,0.97,-0.24,0.01,2.5,-18.62,11.35,213,474,392,470,294,11
212,0.96,-0.27,-0.1,-3.72,-3.42,-6.84,213,475,390,474,296,11
213,0.96,-0.24,-0.02,-5.0,-3.3,2.56,215,476,393,474,294,11
214,0.94,-0.29,-0.04,-9.16,11.84,-8.06,220,476,393,474,293,11
215,0.94,-0.3,0.01,2.2,-2.26,-5.0,214,475,390,474,292,11
216,0.96,-0.28,-0.0,1.16,-2.32,-8.48,213,475,392,477,291,11
217,0.98,-0.27,-0.0,2.99,1.53,-4.76,213,473,396,479,293,11
218,0.96,-0.26,-0.0,0.61,-3.3,-2.87,215,474,397,478,294,11
219,0.97,-0.26,0.02,1.28,-2.69,-0.61,217,472,396,479,292,11
220,0.98,-0.25,0.01,3.11,-3.97,-3.23,215,475,400,475,293,11
221,0.96,-0.27,0.02,1.77,-2.62,0.24,212,473,399,475,294,11
222,0.96,-0.28,0.01,1.16,-2.26,-3.72,216,472,396,474,294,11
223,0.97,-0.28,0.0,0.43,-2.87,-3.42,216,480,406,477,296,11
224,0.96,-0.28,0.01,0.73,-2.69,-1.46,215,475,403,473,295,11
225,0.96,-0.33,-0.01,-5.19,-0.31,8.79,215,473,394,475,295,11
226,0.98,-0.3,0.0,-3.78,-5.07,1.65,214,476,398,475,287,11
227,0.95,-0.32,0.03,2.32,-3.11,-6.53,214,477,395,471,294,11
228,0.95,-0.32,0.01,0.98,-2.01,-4.21,215,475,397,475,295,11
229,0.94,-0.32,0.03,1.4,-2.81,-1.59,214,473,399,470,296,11
230,0.96,-0.31,0.02,0.85,-2.81,-5.0,214,476,396,475,294,11
231,0.94,-0.31,0.04,0.85,-2.87,-3.72,214,476,393,471,294,11
232,0.93,-0.31,0.02,-0.67,-3.42,-4.15,215,478,400,475,291,11
233,0.93,-0.32,0.01,2.44,-1.95,-7.63,216,473,393,470,293,11
234,0.96,-0.28,0.02,0.85,-2.69,-6.77,218,473,400,479,294,11
235,0.95,-0.29,0.0,0.0,-2.44,-2.2,217,474,395,475,292,11
236,0.96,-0.24,0.04,1.46,-6.53,1.83,237,476,395,471,292,11
237,0.99,-0.25,0.0,-0.73,-4.76,0.0,214,474,396,477,296,11
238,0.9,-0.37,-0.01,4.76,-13.06,16.91,214,475,393,478,294,11
239,0.92,-0.42,-0.11,6.29,5.86,-1.59,218,472,394,479,294,11
240,0.84,-0.44,0.02,-17.03,-6.9,-9.16,217,475,399,475,292,11
241,0.92,-0.37,-0.01,-2.44,-1.65,-2.5,215,475,397,475,293,11
242,0.94,-0.36,-0.03,1.65,-2.38,-4.52,216,475,398,475,297,11
243,0.92,-0.37,-0.03,-0.43,-2.62,-2.75,211,474,396,478,293,11
244,0.93,-0.36,-0.02,8.18,-8.18,3.66,217,475,397,477,295,11
245,0.91,-0.4,-0.02,10.56,-16.78,3.78,215,476,397,478,296,11
246,0.97,-0.4,-0.02,-9.4,10.99,-18.37,216,473,396,473,295,11
247,0.88,-0.36,-0.09,-6.84,0.79,-14.47,216,471,396,475,290,11
248,1.08,-0.22,-0.17,0.24,-1.16,-14.1,220,472,397,486,294,11
249,1.08,-0.11,-0.06,-5.98,1.89,-16.72,215,475,396,476,296,11
250,1.0,-0.22,-0.02,-1.1,0.31,-16.85,222,477,396,475,297,11
251,0.97,-0.18,-0.07,-11.84,-1.04,-5.92,215,473,397,473,297,11
252,1.33,-0.04,-0.16,-5.07,33.26,-38.88,219,471,396,472,294,11
253,0.86,-0.18,0.17,1.65,-38.39,32.84,218,474,397,477,293,11
254,0.93,-0.38,-0.28,-10.5,-28.44,21.91,205,476,398,471,294,11
255,1.06,-1.04,0.14,33.14,2.14,-32.65,215,475,394,476,293,11
256,0.86,-0.39,-0.25,-5.43,-16.54,9.34,217,472,393,478,295,11
257,0.9,-0.31,-0.12,-8.85,13.67,-1.83,213,476,396,475,295,11
258,0.89,-0.38,-0.3,-17.88,12.94,-20.57,212,474,401,472,295,11
259,0.93,-0.29,-0.13,30.58,-32.35,1.28,213,471,398,470,293,11
260,1.07,-0.23,-0.09,-33.33,19.17,-3.05,215,476,397,478,295,11
261,0.7,-0.27,0.35,-51.94,83.5,-35.1,219,477,395,475,295,11
262,0.7,-0.29,0.36,-46.26,112.0,-63.54,220,475,393,473,294,11
263,0.96,-0.28,0.18,2.99,-5.31,-1.46,219,481,391,477,295,11
264,0.97,-0.32,0.14,9.95,-22.16,9.22,218,475,397,476,293,11
265,0.79,-0.26,0.43,23.5,-14.83,15.81,208,477,396,478,294,11
266,0.99,-0.26,0.25,46.63,18.43,-6.59,220,476,397,478,295,11
267,0.94,-0.26,0.38,15.32,-15.63,18.62,212,474,396,478,295,11
268,0.89,-0.34,0.31,-2.26,-16.66,15.32,205,478,396,475,299,11
269,0.83,-0.51,0.13,-13.0,2.93,-12.08,214,478,396,474,300,11
270,0.88,-0.47,0.14,-9.03,10.13,-24.17,218,476,398,475,297,11
271,0.86,-0.48,0.15,3.3,-3.48,-1.71,220,471,393,477,296,11
272,0.88,-0.44,0.17,-1.1,0.43,-4.7,217,473,392,475,295,11
273,0.93,-0.43,0.14,5.68,7.75,-9.64,220,473,397,475,298,11
274,0.89,-0.47,0.17,12.08,-5.0,1.83,217,478,394,476,300,11
275,0.87,-0.34,0.37,13.92,17.21,6.9,217,473,396,475,297,11
276,0.84,-0.4,0.4,10.01,11.11,-3.6,216,473,395,471,299,11
277,0.77,-0.35,0.54,5.13,12.7,-3.42,216,475,392,473,298,11
278,0.77,-0.33,0.59,9.34,0.18,1.53,218,472,395,478,299,11
279,0.68,-0.3,0.68,5.68,1.04,-2.87,217,475,398,476,305,11
280,0.7,-0.32,0.66,0.49,-3.54,-1.77,218,477,398,480,299,11
281,0.7,-0.31,0.66,-1.04,-1.4,-3.54,217,476,395,474,298,11
282,0.69,-0.3,0.67,-2.62,-3.05,-2.69,218,477,397,475,299,11
283,0.68,-0.31,0.69,1.34,-1.4,-0.24,219,477,398,479,301,11
284,0.65,-0.33,0.69,6.53,-10.56,7.57,216,475,397,476,298,11
285,0.66,-0.34,0.67,-1.04,-2.56,-1.89,217,475,398,475,298,11
286,0.68,-0.34,0.67,1.89,-4.15,-1.83,219,474,398,475,298,11
287,0.68,-0.33,0.67,5.92,-5.19,-1.4,221,478,399,479,301,11
288,0.69,-0.33,0.67,0.73,-3.72,-2.81,217,477,397,478,300,11
289,0.67,-0.31,0.68,-2.26,-14.22,-2.75,219,473,398,480,301,11
290,0.73,-0.37,0.53,-33.33,-61.28,0.06,217,474,400,477,298,11
291,0.81,-0.4,0.36,-9.16,12.63,-19.29,215,469,398,472,296,11
292,0.92,-0.4,0.21,-7.14,-10.19,-3.48,216,474,395,481,296,11
293,0.91,-0.42,0.19,-4.33,-5.25,-4.03,217,474,393,476,294,11
294,0.89,-0.41,0.2,-0.67,-2.5,-2.56,216,475,395,470,292,11
295,0.9,-0.42,0.19,-0.37,-3.05,-2.44,217,474,391,475,300,11
296,0.89,-0.41,0.2,-2.99,-2.56,-3.48,219,474,395,475,297,11
297,0.88,-0.42,0.2,-2.08,-2.81,-2.38,220,475,395,479,296,11
298,0.87,-0.45,0.15,-10.68,-1.59,-0.73,217,476,394,474,298,11
299,0.89,-0.46,0.14,-0.24,-5.25,-0.55,218,476,394,476,296,11
300,0.89,-0.45,0.15,-3.17,-4.15,-2.32,216,477,393,475,299,11
301,0.88,-0.45,0.16,1.4,-3.48,-2.14,253,476,407,475,296,11
302,0.88,-0.46,0.16,2.75,-5.43,-2.26,222,475,391,474,299,11
303,0.89,-0.44,0.15,2.44,-4.58,-2.14,217,473,393,475,299,11
304,0.9,-0.45,0.16,-0.12,-2.44,-2.93,217,472,396,475,300,11
305,0.88,-0.45,0.16,3.48,-4.21,1.95,218,475,398,471,297,11
306,0.88,-0.47,0.16,-3.17,-0.43,-4.58,217,476,392,479,301,11
307,0.86,-0.47,0.16,1.22,-2.69,-1.16,220,475,397,483,299,11
308,0.88,-0.48,0.16,0.0,-3.66,-3.17,218,477,400,475,299,11
309,0.87,-0.47,0.16,-0.98,-2.32,-1.83,217,471,397,472,298,11
310,0.88,-0.47,0.16,-0.49,-1.59,-4.15,217,471,396,473,297,11
311,0.87,-0.47,0.17,0.31,-3.36,-2.5,219,474,399,471,300,11
312,0.87,-0.48,0.16,-0.18,-4.15,-3.05,216,471,398,476,299,11
313,0.87,-0.47,0.16,1.4,-3.48,-2.75,220,476,396,476,303,11
314,0.82,-0.47,0.18,0.37,-3.23,-3.42,218,474,399,474,300,11
315,0.87,-0.46,0.15,0.24,-2.2,-5.25,220,475,396,476,297,11
316,0.91,-0.4,0.17,0.0,2.32,-10.13,219,475,396,474,296,11
317,0.88,-0.42,0.18,-0.24,-19.65,2.26,217,475,397,478,298,11
318,0.89,-0.39,0.19,6.35,-2.99,-2.69,221,475,398,475,300,11
319,0.91,-0.33,0.17,7.26,-11.35,-0.37,217,474,398,475,299,11
320,0.91,-0.37,0.21,0.31,1.83,-4.88,219,472,397,472,302,11
321,0.92,-0.36,0.22,1.71,-2.2,-1.89,218,474,397,471,297,11
322,0.91,-0.37,0.21,-3.11,-5.19,-1.16,220,474,399,474,300,11
323,0.9,-0.39,0.19,-5.49,-8.54,-0.18,219,475,396,471,302,11
324,0.92,-0.35,0.2,1.59,-5.0,-4.33,218,471,395,475,299,11
325,0.93,-0.36,0.19,1.4,-1.53,0.67,220,475,393,480,297,11
326,0.91,-0.37,0.18,0.79,-2.01,-2.2,219,472,394,470,299,11
327,0.93,-0.36,0.19,2.01,-1.65,-1.95,217,473,397,476,299,11
328,0.91,-0.37,0.19,1.16,-1.22,-3.11,220,476,397,476,289,11
329,0.92,-0.34,0.21,-3.36,-7.2,-2.26,220,474,395,475,304,11
330,0.94,-0.35,0.19,1.28,-3.6,-4.64,219,470,392,475,297,11
331,0.92,-0.37,0.17,1.16,-3.17,-3.78,221,474,396,480,299,11
332,0.92,-0.35,0.19,0.85,-2.08,-2.87,216,475,396,478,296,11
333,0.92,-0.36,0.18,-0.31,-2.32,-3.17,219,477,395,476,301,11
334,0.91,-0.36,0.18,-0.12,-3.66,-2.5,218,477,400,476,301,11
335,0.91,-0.37,0.18,-1.22,-3.3,-2.75,217,475,396,479,302,11
336,0.92,-0.37,0.19,3.05,-2.56,-4.03,231,471,392,476,302,11
337,0.9,-0.37,0.18,0.43,-0.55,-3.66,219,475,393,479,301,11
338,0.91,-0.36,0.2,-0.67,-2.2,-2.08,219,474,408,475,299,11
339,0.91,-0.36,0.2,0.18,-2.2,-2.38,218,473,395,478,300,11
340,0.92,-0.36,0.18,1.83,-2.93,-2.75,222,472,395,479,300,11
341,0.92,-0.36,0.2,1.77,-3.48,-4.21,220,478,398,473,299,11
342,0.92,-0.37,0.18,1.4,-3.48,-2.81,216,474,393,472,301,11
343,0.92,-0.36,0.19,1.4,-3.17,-2.62,219,474,397,477,301,11
344,0.91,-0.36,0.2,0.06,-3.97,-2.14,220,474,394,475,302,11
345,0.92,-0.35,0.22,3.42,-4.46,-3.3,218,475,395,476,297,11
346,0.88,-0.32,0.24,-0.61,-6.35,-5.13,213,475,395,471,300,11
347,0.92,-0.36,0.18,3.48,-2.75,-4.7,220,473,393,480,297,11
348,0.94,-0.34,0.19,-0.49,0.06,-5.68,217,478,394,479,301,11
349,0.92,-0.36,0.18,0.49,-2.26,-3.3,222,472,392,479,304,11
350,0.92,-0.35,0.19,0.43,-3.48,-2.81,221,473,397,474,300,11
351,0.93,-0.33,0.21,2.75,-4.27,-1.65,220,475,396,476,300,11
352,0.91,-0.36,0.19,-0.12,-4.64,-1.4,219,475,398,478,299,11
353,0.94,-0.36,0.19,1.71,-2.38,-2.08,219,475,407,472,301,11
354,0.92,-0.33,0.2,1.04,-2.2,-2.75,216,474,397,479,301,11
355,0.93,-0.33,0.2,-0.24,-3.23,-1.77,221,473,395,475,299,11
356,0.92,-0.35,0.19,-0.73,-1.95,-2.62,219,473,398,478,300,11
357,0.91,-0.38,0.17,3.3,-2.26,-3.48,218,471,397,475,300,11
358,0.89,-0.34,0.22,0.12,5.31,-5.74,219,478,396,475,305,11
359,0.89,-0.35,0.21,-6.04,-2.5,-0.67,218,476,399,470,298,11
360,0.92,-0.34,0.21,-0.43,-6.65,-5.62,221,475,397,476,301,11
361,0.94,-0.34,0.18,0.49,-2.5,-4.15,220,476,396,473,300,11
362,0.93,-0.35,0.18,0.98,-1.65,-5.49,220,475,395,475,300,11
363,0.92,-0.35,0.2,2.01,-5.19,-1.46,219,477,395,474,300,11
364,0.91,-0.34,0.18,-0.98,-4.88,-2.01,219,472,392,476,302,11
365,0.92,-0.34,0.18,-1.46,-2.99,-1.65,216,479,394,474,300,11
366,0.92,-0.35,0.17,-0.31,-2.26,-3.11,213,476,395,476,300,11
367,0.92,-0.35,0.18,1.28,-2.99,-2.5,220,482,398,476,302,11
368,0.92,-0.35,0.17,0.12,-3.36,-2.93,219,475,396,471,302,11
369,0.93,-0.34,0.19,-0.98,-3.23,1.83,220,475,394,469,300,11
370,0.91,-0.35,0.19,4.15,-2.62,-0.79,221,472,395,478,301,11
371,0.91,-0.34,0.2,0.79,-0.18,-2.14,220,476,394,472,300,11
372,0.92,-0.36,0.21,4.15,8.42,-0.43,220,474,395,479,301,11
373,0.92,-0.37,0.23,3.6,-3.97,-1.89,220,471,395,474,303,11
374,0.9,-0.34,0.28,2.62,-5.13,-6.23,218,474,397,477,301,11
375,0.92,-0.32,0.24,-2.32,-23.74,7.45,218,477,395,471,300,11
376,0.92,-0.33,0.22,4.03,2.14,-9.83,218,475,393,469,301,11
377,0.92,-0.34,0.21,1.28,-2.56,-5.92,219,475,398,475,302,11
378,0.9,-0.38,0.18,0.67,-0.18,3.17,220,472,391,474,302,11
379,0.92,-0.37,0.18,0.92,-0.73,-2.81,222,482,396,471,302,11
380,0.91,-0.37,0.2,1.83,4.33,-7.32,221,474,395,478,297,11
381,0.91,-0.37,0.2,-1.34,-4.27,-1.77,222,476,394,474,301,11
382,0.91,-0.36,0.19,-0.92,-3.48,-2.01,221,474,392,474,302,11
383,0.9,-0.38,0.18,3.85,-0.98,-5.92,219,477,392,468,301,11
384,0.89,-0.33,0.23,3.23,0.79,-4.52,220,477,398,478,301,11
385,0.91,-0.33,0.19,-1.1,-1.04,-1.71,217,474,396,473,300,11
386,0.92,-0.33,0.2,-1.16,2.01,-5.49,222,474,395,477,303,11
387,0.9,-0.34,0.23,-2.38,16.66,-13.79,219,474,396,478,302,11
388,1.0,-0.25,0.18,35.71,-7.39,-9.52,222,474,403,469,300,11
389,0.97,-0.09,0.39,11.29,-4.46,-3.3,222,475,393,474,300,11
390,0.96,-0.15,0.3,-0.12,1.59,-6.84,221,474,395,475,303,11
391,0.93,-0.17,0.29,-3.85,-2.81,-2.44,235,472,392,473,302,11
392,0.95,-0.16,0.29,-3.17,-5.68,1.59,220,474,395,473,309,11
393,0.93,-0.21,0.28,-9.52,-4.15,1.28,227,475,397,470,300,11
394,0.95,-0.23,0.24,-8.0,-4.94,-0.55,220,476,395,476,302,11
395,0.92,-0.23,0.27,3.05,-1.16,-0.73,219,475,392,471,302,11
396,0.93,-0.31,0.25,3.17,-3.11,-1.77,220,476,398,474,299,11
397,0.88,-0.25,0.32,-3.72,-18.62,21.61,222,472,395,469,299,11
398,0.95,-0.38,0.14,-9.7,8.67,-17.4,220,476,394,473,304,11
399,0.87,-0.26,0.33,4.39,-7.08,3.97,220,475,395,472,304,11
400,0.85,-0.32,0.32,14.89,0.0,-5.62,223,475,392,473,299,11
401,0.93,-0.28,0.31,-1.04,-8.42,1.59,220,476,395,473,300,11
402,0.9,-0.31,0.29,0.92,-3.72,-2.38,220,477,393,474,300,11
403,0.9,-0.31,0.3,-3.36,-1.4,-6.41,223,477,392,470,304,11
404,0.96,-0.34,0.18,-13.73,-25.09,4.27,220,474,397,470,304,11
405,0.88,-0.4,0.11,0.67,4.58,-6.29,223,472,401,473,298,11
406,0.95,-0.34,0.11,5.86,-6.9,-4.27,222,476,396,475,304,11
407,0.93,-0.33,0.07,7.57,-29.11,-3.54,222,474,397,474,302,11
408,0.89,-0.37,0.1,7.75,5.19,-1.04,221,473,393,475,299,11
409,0.93,-0.32,0.12,1.28,-12.7,12.51,221,472,394,474,302,11
410,0.95,-0.34,0.13,3.48,1.59,-8.06,221,475,393,475,301,11
411,0.9,-0.35,0.15,0.73,-5.25,-2.56,224,475,395,473,301,11
412,0.97,-0.31,0.05,-2.14,-0.31,-3.85,225,474,397,470,303,11
413,0.93,-0.29,0.09,2.69,0.18,-5.25,232,474,397,474,305,11
414,0.93,-0.25,0.11,1.28,-7.51,-5.74,224,475,396,472,300,11
415,0.96,-0.24,0.11,-0.73,-0.98,-0.43,224,477,396,473,302,11
416,1.0,-0.22,0.1,3.11,-6.65,-1.22,224,477,393,476,305,11
417,0.97,-0.23,0.12,-0.24,-1.16,-3.78,221,474,393,473,305,11
418,0.97,-0.23,0.12,-3.42,3.3,-5.25,220,470,393,469,301,11
419,0.96,-0.24,0.13,0.0,-2.44,-2.62,221,473,395,478,305,11
420,0.97,-0.24,0.15,-6.65,-2.14,-2.99,210,471,396,469,303,11
421,1.0,-0.3,0.07,8.54,-10.74,10.25,214,470,398,477,304,11
422,0.93,-0.33,0.13,6.1,1.04,6.23,218,470,398,471,299,11
423,0.92,-0.36,0.12,1.83,-3.36,1.28,220,475,398,473,296,11
424,0.91,-0.37,0.13,0.73,-3.66,0.06,217,474,397,475,298,11
425,0.92,-0.36,0.12,-0.37,-2.44,-4.7,220,477,393,472,301,11
426,0.93,-0.35,0.12,-0.92,-4.33,-4.7,218,477,397,467,299,11
427,0.95,-0.36,0.09,0.31,-3.85,-3.6,218,479,395,471,300,11
428,0.93,-0.35,0.1,1.65,-0.85,-4.21,216,473,396,472,298,11
429,0.93,-0.35,0.1,0.06,-3.17,-3.85,215,471,396,473,302,11
430,0.94,-0.37,0.07,10.01,-5.92,5.07,217,470,396,473,300,11
431,0.92,-0.37,0.1,4.15,-1.53,-1.4,217,470,394,470,299,11
432,0.94,-0.37,0.09,-0.31,-1.04,-2.32,220,469,392,473,300,11
433,0.93,-0.37,0.11,2.14,-1.65,-2.93,220,475,393,477,301,11
434,0.92,-0.36,0.12,-0.79,-0.98,-4.58,220,472,397,468,300,11
435,0.93,-0.36,0.11,1.59,-2.14,-3.66,223,473,395,473,299,11
436,0.93,-0.35,0.11,-2.14,-2.93,-4.27,215,471,392,474,300,11
437,0.93,-0.35,0.1,-1.22,-2.81,-2.38,210,469,395,474,300,11
438,0.94,-0.36,0.09,-0.92,-3.72,-2.38,221,471,393,479,298,11
439,0.93,-0.36,0.1,1.28,-4.76,-1.34,221,473,398,477,300,11
440,0.93,-0.36,0.1,0.31,-2.87,-3.05,224,473,396,470,301,11
441,0.93,-0.36,0.11,0.73,-3.66,-2.44,223,473,392,473,303,11
442,0.94,-0.35,0.09,2.62,-4.09,-1.65,222,472,396,474,298,11
443,0.94,-0.36,0.1,0.06,-3.11,-2.5,257,473,392,476,302,11
444,0.93,-0.36,0.1,0.06,-2.75,-2.93,223,474,396,469,301,11
445,0.91,-0.36,0.1,1.46,-3.36,-1.71,221,472,397,469,303,11
446,0.93,-0.36,0.11,0.61,-2.99,-2.38,220,474,394,477,300,11
447,0.92,-0.36,0.1,0.98,-1.89,-2.99,218,473,394,477,304,11
448,0.93,-0.36,0.09,-0.55,-2.93,-3.36,221,472,393,476,302,11
449,0.95,-0.35,0.09,-1.46,-2.62,-2.87,221,471,393,469,300,11
450,0.94,-0.36,0.1,1.77,-3.54,-1.34,229,472,395,474,302,11
451,0.93,-0.35,0.1,1.1,-4.03,-2.26,221,471,395,475,303,11
452,0.94,-0.36,0.1,-0.79,-2.69,-4.39,221,473,396,472,304,11
453,0.94,-0.35,0.1,2.93,-2.32,-6.96,221,470,395,473,302,11
454,0.97,-0.32,0.08,-3.42,1.04,-10.99,222,471,398,480,303,11
455,1.0,-0.27,0.11,0.12,-1.65,1.16,221,475,395,473,303,11
456,0.92,-0.38,0.08,-5.98,-1.1,8.3,221,473,398,473,300,11
457,0.95,-0.32,0.11,-0.67,-5.43,-2.75,223,475,394,472,303,11
458,0.91,-0.34,0.09,2.01,-2.26,-3.54,222,473,397,473,303,11
459,0.95,-0.33,0.08,0.73,-2.5,-2.08,224,474,398,477,305,11
460,0.94,-0.35,0.08,2.08,-4.33,0.24,222,473,395,472,301,11
461,0.94,-0.34,0.08,-0.18,-3.48,-2.08,223,480,397,472,302,11
462,0.94,-0.33,0.09,-0.18,-2.62,-3.42,221,476,394,476,306,11
463,0.95,-0.34,0.08,0.67,-3.36,-1.46,221,472,399,473,304,11
464,0.94,-0.34,0.09,-0.24,-3.23,-3.05,224,474,396,473,301,11
465,0.95,-0.34,0.08,1.77,-2.75,-2.56,223,473,398,473,303,11
466,0.93,-0.34,0.09,0.37,-3.3,-2.69,224,472,396,473,303,11
467,0.93,-0.33,0.09,0.61,-3.11,-2.81,221,472,397,478,305,11
468,0.95,-0.34,0.09,1.4,-2.93,-2.93,224,473,398,475,304,11
469,0.96,-0.35,0.09,1.59,-3.05,-4.09,221,474,397,478,304,11
470,0.94,-0.33,0.08,-0.55,-2.81,-4.03,229,475,396,473,299,11
471,0.94,-0.33,0.09,1.77,-3.91,-2.08,223,473,399,476,305,11
472,0.93,-0.33,0.09,-0.31,-4.64,-1.59,224,471,397,478,301,11
473,0.95,-0.34,0.06,0.12,-4.82,-2.08,220,469,397,484,304,11
474,0.94,-0.34,0.06,2.08,-3.97,-1.77,222,473,396,473,304,11
475,0.94,-0.34,0.07,0.98,-1.65,-2.5,223,470,396,477,309,11
476,0.98,-0.32,0.07,3.3,-4.15,-3.91,221,473,396,470,299,11
477,0.95,-0.31,0.08,1.28,-2.69,-3.78,225,475,394,473,306,11
478,0.94,-0.33,0.08,-1.59,-1.34,-3.3,224,470,398,475,303,11
479,0.94,-0.33,0.07,-1.65,-3.85,1.04,224,472,398,473,298,11
480,0.95,-0.32,0.08,-0.12,-1.95,-3.36,222,470,396,475,303,11
481,0.94,-0.34,0.08,2.26,-3.91,-1.77,222,473,397,473,304,11
482,0.94,-0.34,0.07,-1.16,-2.32,-2.44,220,469,398,468,303,11
483,0.94,-0.34,0.09,-1.04,-2.93,-2.26,224,489,397,473,301,11
484,0.93,-0.35,0.08,-0.24,-2.44,-1.83,224,474,394,472,303,11
485,0.93,-0.35,0.08,0.37,-3.23,-1.16,221,469,398,479,305,11
486,0.93,-0.36,0.07,0.18,-2.93,-2.81,223,475,394,476,304,11
487,0.94,-0.35,0.06,-0.24,-2.5,-3.17,225,473,395,482,304,11
488,0.93,-0.36,0.07,1.04,-4.76,-1.65,222,471,396,468,306,11
489,0.93,-0.35,0.07,0.49,-2.93,-2.08,226,470,394,473,302,11
490,0.94,-0.36,0.07,-0.79,-2.5,-3.11,223,474,396,473,304,11
491,0.93,-0.36,0.07,-0.61,-3.17,-3.05,225,473,396,476,304,11
492,0.94,-0.36,0.07,1.28,-2.93,-2.87,220,476,396,473,302,11
493,0.93,-0.36,0.08,0.73,-3.66,-2.38,222,472,396,472,303,11
494,0.93,-0.36,0.07,0.18,-3.3,-2.44,221,472,397,476,308,11
495,0.93,-0.35,0.08,0.61,-2.26,-2.87,223,474,397,473,305,11
496,0.94,-0.36,0.07,1.89,-3.78,-2.62,222,473,398,470,305,11
497,0.93,-0.35,0.07,-0.67,-2.81,-2.87,224,472,395,468,305,11
498,0.94,-0.35,0.08,0.31,-2.87,-2.75,222,469,396,479,306,11
499,0.94,-0.35,0.07,-0.73,-2.26,-3.66,219,470,398,476,302,11
500,0.88,-0.38,0.34,3.11,-1.34,-3.78,321,461,409,480,215,11
501,0.86,-0.4,0.33,-1.46,-1.04,-0.06,322,462,409,479,213,11
502,0.84,-0.41,0.35,0.43,-2.75,-1.16,321,466,410,475,213,11
503,0.86,-0.4,0.35,0.55,-2.75,-1.4,322,463,410,482,212,11
504,0.85,-0.42,0.35,0.67,-2.81,-0.61,322,465,409,482,215,11
505,0.84,-0.42,0.36,-0.31,-2.2,-1.1,317,463,416,475,215,11
506,0.83,-0.44,0.35,-2.5,-2.5,-3.23,324,464,417,476,217,11
507,0.83,-0.43,0.36,-1.95,-1.95,-3.72,317,464,409,479,217,11
508,0.85,-0.4,0.38,3.42,-1.16,-3.42,322,464,409,481,251,11
509,0.83,-0.42,0.36,1.83,-2.56,-2.38,322,464,412,481,214,11
510,0.85,-0.4,0.37,0.0,-2.93,-3.97,323,463,416,479,219,11
511,0.85,-0.42,0.35,2.2,-5.0,-2.08,324,460,416,479,217,11
512,0.83,-0.4,0.38,6.35,1.34,-2.75,321,462,412,481,217,11
513,0.86,-0.39,0.38,-3.54,-1.34,-3.23,323,468,412,478,219,11
514,0.84,-0.41,0.38,3.54,0.49,-4.21,321,462,413,479,221,11
515,0.83,-0.34,0.48,11.66,14.04,-6.9,323,464,407,477,218,11
516,0.83,-0.4,0.47,-2.08,-2.56,-1.77,323,467,408,481,219,11
517,0.84,-0.44,0.44,-13.67,-2.93,-3.6,322,464,412,492,221,11
518,0.82,-0.44,0.42,-8.73,-2.2,-4.64,323,466,410,481,219,11
519,0.8,-0.43,0.47,-3.11,-3.23,-2.93,319,467,414,480,219,11
520,0.72,-0.52,0.42,-5.19,-1.95,0.06,321,463,410,479,222,11
521,0.8,-0.45,0.44,5.49,-5.19,-5.55,322,467,409,476,222,11
522,0.83,-0.42,0.43,-2.32,0.18,-7.45,320,458,412,479,228,11
523,0.81,-0.41,0.44,2.69,-1.1,-1.22,320,462,414,480,223,11
524,0.8,-0.42,0.45,-0.24,-3.11,-1.89,320,462,413,479,221,11
525,0.81,-0.42,0.44,-1.53,-2.75,-2.14,325,468,413,481,219,11
526,0.81,-0.43,0.44,0.43,-1.53,-1.34,325,458,414,478,223,11
527,0.8,-0.46,0.42,3.66,-3.11,-2.08,326,464,412,480,223,11
528,0.79,-0.44,0.44,-3.17,-3.11,-2.44,323,472,411,479,222,11
529,0.8,-0.43,0.41,-0.06,-3.48,-7.87,323,462,409,480,226,11
530,0.8,-0.44,0.38,7.51,-11.66,-2.32,323,458,415,482,224,11
531,0.86,-0.4,0.37,4.7,-6.84,-3.66,321,463,414,483,221,11
532,0.84,-0.38,0.38,-0.43,1.16,-3.54,321,461,415,478,219,11
533,0.85,-0.37,0.39,2.62,0.49,-2.38,321,462,417,482,221,11
534,0.85,-0.39,0.38,0.37,-2.69,-1.71,323,462,417,480,224,11
535,0.83,-0.4,0.39,1.1,-2.69,-2.14,321,457,420,484,221,11
536,0.83,-0.4,0.39,0.55,-2.62,-2.2,325,465,417,484,225,11
537,0.83,-0.4,0.4,0.37,-2.81,-1.71,324,462,418,484,225,11
538,0.84,-0.4,0.4,0.79,-2.5,-2.2,322,459,419,482,221,11
539,0.83,-0.4,0.39,0.98,-2.69,-2.01,321,466,417,482,224,11
540,0.82,-0.41,0.4,0.24,-2.56,-1.65,320,457,419,481,227,11
541,0.83,-0.41,0.4,0.24,-2.87,-1.71,323,465,415,482,227,11
542,0.83,-0.41,0.4,-0.12,-3.3,-2.44,333,462,418,477,225,11
543,0.83,-0.41,0.4,-1.16,-2.93,-2.2,331,462,414,481,226,11
544,0.83,-0.42,0.4,0.73,-2.01,-2.32,324,462,417,483,227,11
545,0.83,-0.42,0.4,0.37,-3.05,-1.16,325,464,415,478,225,11
546,0.82,-0.43,0.39,0.24,-2.5,-2.62,326,459,416,478,227,11
547,0.82,-0.42,0.39,-0.92,-2.87,-1.71,328,464,422,476,225,11
548,0.82,-0.43,0.39,0.18,-3.23,-2.26,322,462,415,479,223,11
549,0.82,-0.42,0.4,2.14,-2.44,-2.56,324,479,415,480,223,11
550,0.83,-0.42,0.4,-0.43,-3.85,-1.95,326,465,417,482,225,11
551,0.83,-0.42,0.4,1.34,-3.78,-3.11,323,465,418,481,224,11
552,0.86,-0.43,0.37,-2.14,-4.52,-4.46,323,462,418,483,224,11
553,0.84,-0.42,0.37,3.91,-2.62,-1.71,324,462,420,481,228,11
554,0.82,-0.42,0.39,0.98,-2.69,-2.14,323,466,420,483,225,11
555,0.82,-0.42,0.4,-0.06,-3.72,-2.44,323,462,419,481,227,11
556,0.82,-0.42,0.4,1.16,-2.5,-0.98,326,466,426,480,227,11
557,0.82,-0.43,0.4,-0.06,-2.99,-2.87,324,465,421,481,231,11
558,0.82,-0.42,0.4,0.43,-2.69,-2.5,323,463,422,481,230,11
559,0.82,-0.42,0.41,0.98,-2.87,-1.53,323,465,417,481,229,11
560,0.82,-0.42,0.4,-0.31,-2.93,-2.81,323,463,421,481,225,11
561,0.82,-0.42,0.41,-0.37,-2.81,-1.65,322,465,418,482,228,11
562,0.82,-0.42,0.41,0.79,-2.99,-2.14,322,464,418,481,237,11
563,0.82,-0.42,0.41,-1.71,-3.36,-2.5,324,459,420,479,230,11
564,0.82,-0.43,0.41,-1.4,-2.87,-2.2,323,466,420,482,230,11
565,0.82,-0.43,0.4,1.16,-2.56,-2.38,324,463,416,480,227,11
566,0.82,-0.43,0.4,0.43,-2.5,-1.89,325,462,417,479,228,11
567,0.81,-0.43,0.4,-0.49,-3.11,-3.23,320,463,418,481,227,11
568,0.82,-0.43,0.41,0.67,-3.3,-1.83,322,461,418,483,236,11
569,0.81,-0.43,0.42,0.92,-2.26,-2.08,324,461,421,480,229,11
570,0.81,-0.43,0.41,0.43,-2.99,-3.36,325,466,419,483,227,11
571,0.81,-0.43,0.41,0.37,-3.72,-2.69,326,463,417,480,228,11
572,0.81,-0.43,0.41,-0.37,-0.79,-2.32,326,465,414,482,231,11
573,0.82,-0.42,0.42,2.93,-2.62,-2.87,324,465,416,480,228,11
574,0.82,-0.43,0.41,0.61,-2.99,-3.78,321,467,425,480,228,11
575,0.81,-0.42,0.42,0.0,-3.17,-2.75,326,462,418,480,228,11
576,0.82,-0.43,0.42,0.49,-3.66,-2.26,324,467,418,479,230,11
577,0.81,-0.43,0.42,-0.12,-2.69,-2.99,323,463,414,483,224,11
578,0.8,-0.43,0.41,-1.1,-3.97,-1.89,322,464,418,482,227,11
579,0.81,-0.43,0.41,-1.04,-2.99,-5.13,325,462,418,479,229,11
580,0.82,-0.42,0.4,0.31,-5.43,-2.99,324,458,422,481,230,11
581,0.84,-0.42,0.4,-0.37,-2.44,-2.5,324,461,421,482,229,11
582,0.82,-0.42,0.41,1.22,-1.34,-2.08,325,462,422,481,259,11
583,0.83,-0.41,0.41,0.61,-2.93,-2.99,324,467,422,482,232,11
584,0.83,-0.42,0.4,0.37,-2.5,-2.44,325,459,424,483,232,11
585,0.82,-0.42,0.4,0.79,-3.05,-1.89,325,466,425,480,230,11
586,0.83,-0.42,0.41,0.06,-3.3,-2.87,323,458,420,483,227,11
587,0.82,-0.42,0.41,-0.18,-3.05,-2.26,326,463,421,481,242,11
588,0.81,-0.42,0.41,0.85,-3.42,-2.81,325,466,426,480,228,11
589,0.82,-0.42,0.41,-0.31,-2.93,-3.17,322,464,417,479,228,11
590,0.81,-0.42,0.41,0.06,-2.93,-1.89,324,470,422,481,231,11
591,0.82,-0.42,0.41,0.12,-3.23,-2.5,322,462,420,481,229,11
592,0.82,-0.43,0.41,1.1,-3.05,-1.71,327,463,427,481,230,11
593,0.82,-0.42,0.41,0.0,-3.48,-4.21,325,460,423,478,232,11
594,0.82,-0.42,0.41,-0.79,-2.5,-4.15,322,460,419,481,232,11
595,0.82,-0.41,0.42,0.92,-2.99,-1.83,324,465,422,479,228,11
596,0.82,-0.42,0.42,0.37,-2.75,-2.44,321,462,420,480,229,11
597,0.82,-0.43,0.4,0.18,-2.56,-2.62,328,462,423,483,232,11
598,0.81,-0.43,0.41,-1.83,-3.23,-1.4,325,462,420,481,231,11
599,0.81,-0.45,0.4,-2.75,-3.54,-1.34,320,465,425,478,227,11
600,0.81,-0.44,0.41,0.06,-2.69,-2.32,322,463,418,481,229,11
601,0.82,-0.43,0.41,0.98,-2.81,-3.78,326,465,423,479,229,11
602,0.82,-0.44,0.41,-0.49,-2.2,-2.62,325,463,425,481,229,11
603,0.81,-0.44,0.4,-0.24,-2.69,-2.2,326,462,418,481,232,11
604,0.82,-0.44,0.41,1.4,-2.5,-2.81,326,466,427,483,229,11
605,0.81,-0.44,0.41,0.49,-2.44,-4.76,324,463,422,486,229,11
606,0.8,-0.43,0.42,1.53,-3.3,-1.4,325,460,422,481,227,11
607,0.81,-0.44,0.41,-1.22,-2.38,-2.14,325,461,424,492,231,11
608,0.81,-0.44,0.41,-0.24,-3.42,-1.4,324,462,424,481,230,11
609,0.81,-0.44,0.41,-0.18,-2.69,-3.05,326,462,425,486,232,11
610,0.81,-0.44,0.41,-0.92,-2.87,-1.95,329,462,422,481,233,11
611,0.8,-0.44,0.42,0.73,-2.93,-2.26,327,463,422,481,233,11
612,0.81,-0.44,0.41,-0.24,-3.17,-2.87,325,464,423,484,230,11
613,0.8,-0.45,0.41,0.18,-2.44,-2.75,328,462,430,483,228,11
614,0.79,-0.46,0.41,1.53,-3.36,-2.93,325,461,419,484,229,11
615,0.81,-0.45,0.41,-1.53,-3.23,-1.77,323,469,422,482,232,11
616,0.77,-0.5,0.39,-4.7,-1.28,0.79,323,456,421,483,232,11
617,0.78,-0.48,0.4,-1.04,-3.36,-1.83,327,461,423,484,232,11
618,0.8,-0.46,0.4,0.24,-3.17,-3.97,326,462,422,480,231,11
619,0.8,-0.46,0.4,5.68,-1.4,-5.55,325,461,422,481,229,11
620,0.86,-0.43,0.42,-3.17,-0.92,-12.7,324,458,425,478,231,11
621,0.83,-0.42,0.39,2.32,-2.26,-11.72,325,457,425,483,230,11
622,0.84,-0.39,0.39,-0.85,-0.49,-4.82,327,462,421,482,232,11
623,0.86,-0.38,0.41,1.89,-5.25,-6.16,325,462,418,481,234,11
624,0.86,-0.39,0.4,1.16,-4.76,-0.67,325,461,424,483,232,11
625,0.8,-0.44,0.4,-2.44,-2.87,-2.01,324,462,424,480,229,11
626,0.79,-0.47,0.39,0.49,-3.05,0.12,325,459,419,482,231,11
627,0.78,-0.48,0.36,-2.62,-4.39,-3.78,326,458,423,477,228,11
628,0.8,-0.46,0.39,1.89,-4.15,-3.54,325,466,423,484,232,11
629,0.81,-0.42,0.42,-1.28,-2.87,-3.48,326,466,424,483,227,11
630,0.84,-0.39,0.43,1.16,-3.11,-3.3,324,462,422,479,231,11
631,0.83,-0.41,0.41,-0.98,-3.48,-1.65,324,460,418,482,231,11
632,0.81,-0.44,0.4,1.59,-4.94,-3.3,325,460,422,481,270,11
633,0.81,-0.44,0.4,2.93,-5.07,1.16,328,456,424,480,232,11
634,0.82,-0.44,0.41,-0.18,-2.01,-2.38,325,466,422,478,231,11
635,0.81,-0.45,0.4,-2.81,-3.05,-0.43,327,462,419,484,232,11
636,0.82,-0.44,0.39,0.43,-2.26,-8.06,326,465,423,483,230,11
637,0.85,-0.39,0.41,2.26,-0.73,-9.52,323,461,422,480,231,11
638,0.87,-0.35,0.42,0.49,-0.79,-7.26,322,463,419,477,230,11
639,0.82,-0.36,0.46,0.18,-2.99,-0.06,324,461,417,478,227,11
640,0.82,-0.38,0.45,1.1,-3.05,0.24,326,462,419,479,228,11
641,0.81,-0.39,0.45,2.69,-4.33,-2.08,328,465,420,481,228,11
642,0.81,-0.4,0.43,3.36,-2.26,-2.99,326,462,420,479,229,11
643,0.83,-0.41,0.43,0.24,-3.48,-2.32,326,461,420,475,228,11
644,0.8,-0.41,0.44,3.11,-2.93,-2.2,326,462,420,477,227,11
645,0.82,-0.41,0.43,-0.43,-2.99,-3.3,328,462,419,486,227,11
646,0.81,-0.4,0.45,0.24,-2.5,-3.05,326,457,423,482,225,11
647,0.81,-0.4,0.45,2.38,-3.17,-4.15,328,465,420,479,226,11
648,0.82,-0.4,0.44,0.85,-3.97,-2.93,326,461,420,483,228,11
649,0.81,-0.39,0.45,-2.2,-1.46,-4.7,325,465,422,480,235,11
650,0.83,-0.39,0.43,14.65,-3.97,-4.39,324,465,423,478,228,11
651,0.81,-0.38,0.45,-0.24,0.06,-3.48,326,461,421,475,228,11
652,0.81,-0.37,0.45,0.12,-2.32,-2.5,327,467,421,476,225,11
653,0.83,-0.38,0.44,0.98,-2.75,-2.44,324,463,424,478,226,11
654,0.82,-0.38,0.44,0.49,-3.3,-1.77,325,463,423,480,225,11
655,0.81,-0.38,0.45,0.31,-2.56,-2.14,325,463,423,477,227,11
656,0.81,-0.39,0.45,0.49,-3.3,-1.34,323,462,425,479,226,11
657,0.81,-0.39,0.45,0.79,-3.54,-2.01,324,463,418,483,225,11
658,0.82,-0.39,0.46,0.61,-2.44,-1.83,325,461,422,478,227,11
659,0.82,-0.39,0.45,-0.55,-2.56,-2.14,329,461,421,478,225,11
660,0.81,-0.39,0.45,-0.43,-2.5,-2.32,322,470,423,483,228,11
661,0.82,-0.39,0.45,1.77,-2.26,-3.3,328,466,421,478,228,11
662,0.82,-0.41,0.44,-4.03,-3.05,0.92,326,457,421,482,234,11
663,0.79,-0.43,0.45,-3.42,-3.97,2.08,326,458,419,477,225,11
664,0.79,-0.44,0.44,0.61,-2.69,-3.36,328,462,421,479,229,11
665,0.82,-0.41,0.46,2.44,-3.23,-2.14,326,464,422,480,222,11
666,0.79,-0.42,0.47,0.67,-4.03,-1.28,326,462,421,492,224,11
667,0.79,-0.43,0.45,1.16,-2.26,-2.38,325,464,421,480,251,11
668,0.8,-0.42,0.45,-0.55,-3.05,-2.87,322,460,418,482,228,11
669,0.79,-0.42,0.46,1.1,-3.91,-2.14,328,459,420,479,225,11
670,0.8,-0.42,0.46,-0.61,-2.93,-4.33,327,464,421,477,229,11
671,0.82,-0.38,0.48,-0.06,-2.93,-4.33,329,463,420,483,227,11
672,0.78,-0.42,0.47,0.31,-0.55,-3.05,327,460,419,479,225,11
673,0.8,-0.43,0.45,1.53,-1.16,-6.71,327,458,421,481,225,11
674,0.79,-0.41,0.47,0.55,-1.4,-4.09,323,462,422,474,225,11
675,0.77,-0.46,0.47,-3.05,-2.75,0.18,330,463,422,480,227,11
676,0.79,-0.41,0.48,1.95,-3.23,-3.11,326,464,422,481,226,11
677,0.79,-0.4,0.49,-0.06,-2.93,-2.44,327,462,420,477,237,11
678,0.78,-0.41,0.48,0.12,-1.89,-3.05,325,460,417,476,229,11
679,0.78,-0.41,0.49,1.22,-2.62,-2.32,327,456,418,477,226,11
680,0.79,-0.41,0.49,1.1,-3.36,-2.75,328,462,419,475,227,11
681,0.78,-0.4,0.49,-1.04,-3.36,-2.93,328,457,419,478,225,11
682,0.76,-0.42,0.48,4.21,-3.66,0.0,329,464,421,481,225,11
683,0.78,-0.42,0.48,1.1,-2.69,-2.38,328,459,418,478,229,11
684,0.79,-0.41,0.49,0.49,-2.75,-3.66,327,460,415,478,227,11
685,0.78,-0.41,0.49,2.2,-3.23,-1.4,329,463,419,478,227,11
686,0.78,-0.42,0.49,0.67,-3.05,-2.5,329,464,419,477,226,11
687,0.78,-0.41,0.49,0.12,-2.08,-2.75,329,462,426,479,225,11
688,0.77,-0.42,0.49,-0.92,-3.36,-2.44,328,459,419,478,225,11
689,0.79,-0.41,0.49,-0.18,-3.05,-2.87,327,456,418,477,229,11
690,0.78,-0.41,0.49,1.04,-2.62,-2.32,328,456,422,476,234,11
691,0.8,-0.41,0.48,0.0,-2.26,-2.62,327,460,419,480,226,11
692,0.79,-0.4,0.49,2.32,-2.56,-3.66,329,460,421,477,230,11
693,0.79,-0.4,0.49,1.53,-3.17,-3.6,326,459,420,478,231,11
694,0.8,-0.39,0.49,1.16,-2.81,-2.87,330,456,422,481,229,11
695,0.79,-0.38,0.5,2.08,-3.42,-2.08,325,454,422,479,228,11
696,0.79,-0.39,0.5,1.4,-3.72,-2.2,328,464,426,477,230,11
697,0.78,-0.39,0.5,0.92,-3.42,-0.67,327,458,420,479,229,11
698,0.79,-0.39,0.5,0.55,-2.93,-1.89,328,455,419,481,227,11
699,0.78,-0.4,0.5,1.59,-2.87,-1.46,327,455,422,482,232,11
700,0.78,-0.4,0.5,0.37,-2.99,-2.01,328,459,421,475,229,11
701,0.78,-0.4,0.5,0.0,-2.93,-2.75,331,462,419,480,261,11
702,0.78,-0.39,0.51,0.67,-2.99,-2.32,326,461,422,477,231,11
703,0.79,-0.39,0.5,1.95,-2.81,-1.89,328,460,424,480,230,11
704,0.78,-0.4,0.51,0.37,-2.2,-2.69,330,461,421,478,233,11
705,0.78,-0.4,0.5,1.22,-3.42,-1.53,328,455,422,473,229,11
706,0.78,-0.4,0.5,0.67,-3.42,-3.17,328,464,419,479,232,11
707,0.78,-0.4,0.5,-1.59,-2.56,-2.5,328,459,420,479,230,11
708,0.77,-0.4,0.5,0.37,-2.38,-2.26,329,460,422,483,233,11
709,0.78,-0.4,0.51,0.73,-1.77,-2.62,325,460,421,490,233,11
710,0.78,-0.4,0.5,0.67,-3.05,-2.2,330,464,421,480,230,11
711,0.78,-0.39,0.51,1.28,-3.17,-2.14,328,456,421,480,239,11
712,0.79,-0.39,0.5,-0.18,-3.23,-2.93,328,465,424,477,230,11
713,0.78,-0.4,0.5,-1.16,-2.62,-2.69,328,461,420,480,232,11
714,0.75,-0.41,0.5,0.61,-5.68,-2.32,329,461,422,476,232,11
715,0.79,-0.41,0.48,0.06,-2.44,-2.5,328,461,422,479,232,11
716,0.77,-0.41,0.5,3.48,-2.62,-1.89,326,456,417,477,232,11
717,0.77,-0.4,0.51,1.04,-3.05,-2.81,328,459,422,479,230,11
718,0.78,-0.4,0.51,1.22,-3.17,-2.2,329,460,420,480,232,11
719,0.78,-0.4,0.5,0.24,-2.62,-2.44,331,461,435,475,228,11
720,0.77,-0.39,0.51,-0.55,-2.62,-2.14,328,462,422,477,230,11
721,0.78,-0.4,0.5,0.49,-2.62,-2.69,331,462,420,477,230,11
722,0.78,-0.4,0.5,-0.61,-2.38,-2.93,327,461,419,476,230,11
723,0.78,-0.4,0.51,-0.49,-2.75,-2.2,329,459,419,479,233,11
724,0.78,-0.4,0.51,0.06,-3.11,-2.32,329,464,421,479,231,11
725,0.77,-0.4,0.51,-0.31,-2.69,-2.2,329,457,421,477,231,11
726,0.78,-0.4,0.5,0.98,-2.99,-2.69,326,461,416,477,233,11
727,0.78,-0.4,0.51,0.43,-2.75,-3.23,328,456,418,475,232,11
728,0.78,-0.4,0.51,-0.06,-3.3,-2.14,328,457,419,476,230,11
729,0.78,-0.4,0.48,2.75,-3.85,-11.9,325,464,421,478,227,11
730,0.82,-0.35,0.5,-1.65,-1.53,-5.0,329,461,420,476,231,11
731,0.77,-0.37,0.51,0.73,-2.56,-4.03,330,462,418,477,230,11
732,0.78,-0.38,0.51,-1.28,-3.72,-2.38,336,464,417,477,232,11
733,0.78,-0.39,0.51,0.37,-2.75,-2.14,330,465,423,478,231,11
734,0.8,-0.38,0.51,0.18,-2.81,-2.99,327,458,418,476,232,11
735,0.79,-0.39,0.51,0.43,-4.27,1.16,328,459,422,478,233,11
736,0.78,-0.39,0.51,0.49,-2.62,-1.53,330,454,420,474,233,11
737,0.78,-0.4,0.5,0.61,-2.32,-2.32,329,458,419,487,232,11
738,0.78,-0.39,0.51,-0.24,-2.81,-2.01,329,456,424,479,234,11
739,0.78,-0.39,0.5,0.92,-3.17,-1.77,330,460,422,476,243,11
740,0.77,-0.4,0.51,0.24,-2.69,-2.38,329,453,422,480,235,11
741,0.78,-0.4,0.5,1.59,-3.36,-2.99,331,460,422,477,233,11
742,0.79,-0.4,0.5,0.24,-3.05,-2.81,330,458,420,478,236,11
743,0.78,-0.4,0.5,0.67,-2.38,-2.62,327,459,422,478,251,11
744,0.79,-0.4,0.5,0.06,-2.38,-2.99,330,458,421,479,231,11
745,0.78,-0.4,0.51,0.43,-2.75,-2.75,330,460,423,474,233,11
746,0.77,-0.4,0.51,0.12,-2.62,-2.01,331,464,422,472,235,11
747,0.79,-0.4,0.5,-0.43,-3.23,-2.87,329,458,423,479,233,11
748,0.78,-0.4,0.51,0.43,-2.32,-2.56,330,458,428,478,233,11
749,0.78,-0.39,0.51,0.79,-3.11,-1.83,325,460,423,477,236,11
750,0.76,-0.4,0.52,-0.06,-2.01,-2.32,330,460,423,475,234,11
751,0.78,-0.39,0.51,1.28,-2.69,-2.5,328,464,422,476,232,11
752,0.77,-0.39,0.51,0.92,-2.38,-3.36,329,457,420,476,237,11
753,0.77,-0.4,0.51,-0.12,-2.5,-2.44,332,462,423,476,224,11
754,0.78,-0.39,0.5,-2.5,-3.11,-5.55,331,461,426,473,228,11
755,0.78,-0.39,0.5,0.0,-3.11,-2.62,330,460,423,475,228,11
756,0.78,-0.4,0.51,2.14,-2.75,-2.62,332,459,424,474,230,11
757,0.78,-0.39,0.51,0.85,-2.75,-3.17,331,460,424,476,228,11
758,0.78,-0.39,0.51,0.31,-3.3,-2.81,327,460,423,477,229,11
759,0.79,-0.38,0.51,1.77,-2.26,-3.3,331,461,423,471,229,11
760,0.79,-0.38,0.52,-0.79,-2.32,-2.32,326,457,423,477,238,11
761,0.78,-0.39,0.52,1.34,-2.87,-2.01,332,461,423,473,229,11
762,0.78,-0.39,0.51,1.34,-3.11,-1.46,328,462,420,474,230,11
763,0.78,-0.38,0.51,0.37,-3.11,-2.62,330,465,425,478,227,11
764,0.78,-0.39,0.51,0.12,-2.75,-2.56,326,460,423,479,232,11
765,0.77,-0.39,0.51,0.24,-2.87,-2.08,331,457,428,474,231,11
766,0.77,-0.39,0.51,1.16,-1.83,-2.75,326,460,422,478,229,11
767,0.78,-0.39,0.52,0.0,-2.81,-2.62,334,464,421,475,229,11
768,0.78,-0.39,0.52,0.12,-2.56,-2.44,331,460,419,475,231,11
769,0.78,-0.39,0.52,0.43,-2.38,-2.01,331,458,421,475,230,11
770,0.77,-0.4,0.52,-0.12,-2.75,-2.93,332,465,421,482,230,11
771,0.77,-0.39,0.51,0.67,-2.81,-2.01,331,463,425,476,224,11
772,0.76,-0.39,0.52,-0.61,-2.56,-2.5,330,459,419,472,229,11
773,0.77,-0.39,0.53,0.73,-2.87,-2.32,333,463,424,477,232,11
774,0.77,-0.4,0.52,0.31,-3.72,-1.89,331,461,422,475,250,11
775,0.77,-0.39,0.52,0.12,-3.17,-2.32,332,460,422,472,231,11
776,0.77,-0.39,0.52,-0.67,-2.87,-3.3,332,460,425,475,233,11
777,0.78,-0.39,0.52,0.55,-2.75,-2.2,331,465,424,477,230,11
778,0.77,-0.4,0.52,0.18,-2.81,-2.5,331,461,420,476,232,11
779,0.77,-0.4,0.52,-0.06,-2.87,-2.32,330,464,418,480,226,11
780,0.77,-0.39,0.53,-0.49,-2.62,-2.56,332,460,420,475,228,11
781,0.77,-0.39,0.53,0.49,-3.11,-2.32,331,463,422,474,225,11
782,0.78,-0.38,0.52,0.0,-2.99,-3.6,330,457,424,476,234,11
783,0.77,-0.38,0.53,0.12,-2.99,-2.08,332,461,423,473,233,11
784,0.77,-0.39,0.53,0.61,-1.59,-2.87,333,465,424,474,230,11
785,0.77,-0.39,0.52,0.61,-2.81,-2.99,333,464,422,474,231,11
786,0.77,-0.39,0.53,1.16,-3.11,-2.44,331,457,419,478,231,11
787,0.77,-0.39,0.53,1.22,-3.11,-1.83,329,464,420,474,231,11
788,0.77,-0.39,0.53,1.22,-2.26,-2.32,330,462,421,476,229,11
789,0.77,-0.39,0.53,0.24,-2.69,-3.23,332,461,419,477,236,11
790,0.76,-0.39,0.53,0.79,-2.62,-1.89,332,462,422,472,229,11
791,0.76,-0.39,0.53,-0.18,-2.38,-3.23,334,461,423,475,234,11
792,0.77,-0.39,0.53,-0.67,-3.11,-3.91,331,455,422,471,230,11
793,0.77,-0.39,0.53,0.49,-3.6,-3.6,331,465,423,474,230,11
794,0.76,-0.39,0.51,-3.36,-2.56,-5.98,330,460,419,475,227,11
795,0.79,-0.38,0.51,0.37,-2.14,-3.85,326,462,419,475,234,11
796,0.79,-0.39,0.5,0.61,-3.54,-1.1,327,457,422,472,231,11
797,0.78,-0.39,0.51,0.61,-3.91,-2.01,330,458,418,479,232,11
798,0.78,-0.39,0.51,1.4,-3.85,-1.34,331,460,423,477,234,11
799,0.79,-0.38,0.52,1.22,-3.23,-2.01,331,457,424,473,232,11
800,0.78,-0.38,0.52,1.59,-2.87,-1.83,330,458,425,478,233,11
801,0.78,-0.38,0.52,0.49,-3.6,-2.01,333,460,422,476,233,11
802,0.78,-0.38,0.52,1.77,-2.5,-2.5,330,461,425,473,233,11
803,0.78,-0.38,0.52,0.18,-2.87,-3.05,331,453,425,479,233,11
804,0.78,-0.38,0.52,1.1,-2.93,-2.14,332,463,422,477,256,11
805,0.78,-0.38,0.51,1.71,-3.23,-2.01,333,458,426,473,233,11
806,0.78,-0.38,0.52,0.79,-3.05,-2.69,332,459,423,479,236,11
807,0.78,-0.38,0.53,0.98,-3.11,-2.75,333,456,424,482,234,11
808,0.78,-0.38,0.52,-0.49,-2.69,-3.23,333,458,422,478,230,11
809,0.78,-0.38,0.52,0.12,-2.69,-2.69,333,463,422,478,234,11
810,0.78,-0.37,0.53,1.1,-4.64,-0.92,331,463,422,476,257,11
811,0.78,-0.38,0.52,0.24,-3.05,-2.14,331,455,422,476,236,11
812,0.78,-0.38,0.53,0.18,-2.87,-2.38,330,461,424,478,234,11
813,0.77,-0.38,0.53,0.73,-2.87,-1.22,336,454,423,480,236,11
814,0.77,-0.38,0.53,1.16,-2.44,-2.14,328,466,419,479,237,11
815,0.77,-0.38,0.53,1.28,-2.44,-2.81,334,457,423,478,236,11
816,0.77,-0.38,0.53,-0.37,-2.62,-2.75,332,460,423,476,235,11
817,0.77,-0.38,0.53,1.59,-2.99,-2.5,331,454,419,478,234,11
818,0.77,-0.37,0.54,1.89,-2.32,-2.75,333,455,419,477,234,11
819,0.77,-0.37,0.54,1.1,-3.48,-2.81,330,458,421,475,235,11
820,0.78,-0.38,0.53,1.1,-2.99,-2.08,329,457,425,479,233,11
821,0.77,-0.37,0.54,0.31,-2.69,-2.56,334,460,419,478,237,11
822,0.77,-0.36,0.55,-0.43,-2.56,-2.2,333,459,423,478,235,11
823,0.75,-0.39,0.52,-0.73,-3.54,-1.65,333,455,422,472,236,11
824,0.77,-0.39,0.52,1.1,-2.5,-2.44,335,454,421,472,230,11
825,0.77,-0.38,0.54,0.06,-2.87,-2.56,332,463,421,474,234,11
826,0.77,-0.37,0.54,0.98,-3.54,-1.22,331,462,419,475,234,11
827,0.77,-0.37,0.54,2.87,-3.42,-1.89,332,446,422,476,233,11
828,0.75,-0.4,0.52,0.49,-4.58,-3.42,331,457,422,472,233,11
829,0.78,-0.39,0.52,-1.4,-2.69,-1.83,332,463,420,475,234,11
830,0.76,-0.39,0.53,-0.18,-1.59,-5.92,334,460,417,474,230,11
831,0.78,-0.37,0.54,-0.85,-2.32,-3.05,333,464,418,475,233,11
832,0.77,-0.38,0.54,-0.85,-2.93,-1.4,334,459,421,478,236,11
833,0.77,-0.38,0.54,-1.77,-1.71,-1.89,332,463,419,474,233,11
834,0.77,-0.39,0.53,3.11,-3.48,-3.91,331,472,421,475,230,11
835,0.77,-0.38,0.53,1.65,-3.54,-2.69,334,460,415,472,235,11
836,0.76,-0.38,0.54,1.1,-3.3,-2.69,332,456,423,474,232,11
837,0.77,-0.38,0.54,-0.06,-4.52,-2.2,333,464,419,474,235,11
838,0.77,-0.38,0.54,0.18,-2.08,-1.4,332,460,424,475,233,11
839,0.76,-0.39,0.54,-0.18,-2.01,-2.32,333,461,418,474,239,11
840,0.76,-0.39,0.54,1.77,-2.69,-2.08,332,465,421,473,233,11
841,0.76,-0.39,0.54,0.43,-2.32,-3.3,332,465,417,471,233,11
842,0.76,-0.39,0.54,0.0,-2.62,-2.99,331,472,422,474,235,11
843,0.77,-0.39,0.54,0.49,-2.75,-2.2,331,459,420,473,233,11
844,0.78,-0.39,0.53,0.49,-2.93,-2.69,334,460,417,475,236,11
845,0.76,-0.39,0.54,0.0,-2.69,-2.08,331,458,420,478,236,11
846,0.76,-0.38,0.54,0.49,-3.42,-2.62,331,460,419,474,235,11
847,0.77,-0.38,0.54,-0.61,-3.17,-3.23,333,460,420,476,237,11
848,0.76,-0.39,0.54,0.0,-3.05,-2.26,333,461,419,476,233,11
849,0.77,-0.39,0.54,0.0,-2.93,-2.26,333,461,418,474,236,11
850,0.75,-0.39,0.54,-0.24,-3.78,-1.83,329,464,418,475,236,11
851,0.76,-0.39,0.54,0.98,-2.87,-2.26,332,460,414,473,235,11
852,0.75,-0.38,0.55,0.37,-2.08,-3.3,333,465,418,475,236,11
853,0.76,-0.38,0.54,-0.61,-2.75,-2.81,331,464,418,469,235,11
854,0.76,-0.39,0.54,0.43,-3.11,-2.56,334,456,419,475,235,11
855,0.77,-0.38,0.55,-2.14,-4.09,-2.62,333,459,417,477,238,11
856,0.77,-0.38,0.53,-4.76,-3.91,-4.76,332,461,421,474,243,11
857,0.77,-0.4,0.51,-7.45,-3.17,-4.7,334,459,422,476,234,11
858,0.77,-0.4,0.52,-0.55,-4.33,-1.22,333,464,422,478,233,11
859,0.77,-0.41,0.51,3.72,-3.05,-3.54,332,459,425,476,233,11
860,0.78,-0.39,0.52,0.0,-3.97,-3.11,336,460,421,477,237,11
861,0.78,-0.36,0.54,1.83,-2.26,-1.16,334,461,422,475,235,11
862,0.78,-0.36,0.54,0.18,-1.46,-2.56,335,461,424,474,231,11
863,0.77,-0.37,0.54,0.73,-3.3,-2.26,333,460,423,474,234,11
864,0.77,-0.37,0.54,1.28,-2.5,-3.72,344,459,421,474,233,11
865,0.75,-0.37,0.55,3.78,-2.87,-2.69,333,470,418,469,235,11
866,0.76,-0.39,0.53,-0.37,-3.36,-2.08,332,462,422,473,238,11
867,0.74,-0.39,0.55,3.05,-4.39,-0.06,334,461,421,477,236,11
868,0.78,-0.36,0.55,0.43,-3.11,-6.04,340,457,422,475,235,11
869,0.79,-0.36,0.55,1.71,-2.2,-2.44,333,455,422,473,235,11
870,0.77,-0.35,0.54,-2.62,-1.77,-5.86,332,464,421,473,238,11
871,0.75,-0.35,0.58,6.71,-5.43,-2.08,336,460,424,473,240,11
872,0.78,-0.34,0.57,1.65,-3.05,-2.26,332,461,418,474,235,11
873,0.76,-0.35,0.57,3.97,-4.09,-0.85,333,461,422,474,237,11
874,0.75,-0.35,0.57,2.01,-2.75,-1.28,332,460,419,474,237,11
875,0.7,-0.39,0.57,0.55,-4.15,-1.77,334,464,419,472,238,11
876,0.73,-0.39,0.57,-3.36,-3.3,-4.27,329,460,423,472,238,11
877,0.74,-0.36,0.58,1.1,-2.81,-2.75,333,460,419,476,236,11
878,0.74,-0.38,0.56,-1.22,-2.56,-3.17,330,460,420,473,238,11
879,0.75,-0.37,0.56,0.12,-2.87,-2.75,336,462,420,475,234,11
880,0.77,-0.34,0.56,2.26,-3.05,-7.57,332,460,422,473,237,11
881,0.77,-0.34,0.57,2.62,-2.87,-0.98,332,470,419,474,236,11
882,0.75,-0.36,0.57,-2.81,-3.17,-2.2,333,463,417,477,237,11
883,0.76,-0.35,0.56,1.53,-3.17,-2.87,333,459,419,473,246,11
884,0.76,-0.34,0.58,1.89,-1.77,-0.98,330,455,423,471,236,11
885,0.77,-0.35,0.57,-0.61,-3.11,-4.03,336,461,418,473,237,11
886,0.79,-0.34,0.56,6.41,-3.36,-2.99,335,461,420,473,237,11
887,0.78,-0.33,0.57,2.14,-2.93,-1.46,331,460,420,476,240,11
888,0.76,-0.35,0.56,-4.03,-5.62,2.26,335,460,416,473,237,11
889,0.78,-0.36,0.53,-7.08,-4.03,-7.08,332,457,420,472,236,11
890,0.81,-0.44,0.44,-3.72,-16.3,7.93,336,459,421,472,235,11
891,0.77,-0.35,0.53,16.3,1.16,-10.31,334,461,422,468,239,11
892,0.79,-0.43,0.45,1.89,-2.62,7.32,331,464,418,471,236,11
893,0.76,-0.41,0.5,2.62,-2.26,-4.58,332,460,422,471,258,11
894,0.78,-0.4,0.51,2.14,-3.11,-0.98,333,461,420,470,233,11
895,0.79,-0.39,0.52,2.81,-2.56,-1.1,329,457,421,472,237,11
896,0.76,-0.41,0.52,-1.1,-2.44,-3.48,333,456,420,467,238,11
897,0.76,-0.4,0.52,1.46,-3.54,-1.4,333,460,417,472,239,11
898,0.76,-0.4,0.52,2.75,-2.81,-2.87,337,459,419,471,236,11
899,0.77,-0.4,0.53,1.16,-3.42,-2.44,333,460,420,471,238,11
900,0.76,-0.4,0.52,1.4,-3.36,-1.77,334,460,420,469,239,11
901,0.77,-0.4,0.52,0.31,-3.23,-2.2,333,459,420,471,245,11
902,0.77,-0.4,0.52,-0.49,-3.05,-3.42,335,465,417,469,241,11
903,0.76,-0.41,0.52,0.49,-2.93,-3.17,333,460,414,468,239,11
904,0.76,-0.4,0.53,0.24,-2.87,-2.87,333,464,419,467,242,11
905,0.77,-0.4,0.53,0.79,-2.26,-2.81,333,460,416,467,242,11
906,0.76,-0.4,0.52,0.49,-2.81,-2.2,332,460,417,472,239,11
907,0.77,-0.4,0.52,2.01,-3.23,-1.77,324,463,419,473,239,11
908,0.77,-0.4,0.52,0.06,-2.99,-3.23,337,463,419,471,238,11
909,0.76,-0.4,0.52,0.55,-3.3,-2.75,335,459,417,466,237,11
910,0.77,-0.39,0.53,0.37,-3.3,-1.59,334,455,421,466,240,11
911,0.77,-0.4,0.52,-0.79,-2.87,-3.3,336,456,416,468,239,11
912,0.77,-0.39,0.52,1.71,-2.5,-3.48,334,460,420,470,238,11
913,0.77,-0.4,0.52,1.34,-2.87,-2.62,335,460,413,469,238,11
914,0.77,-0.4,0.52,0.43,-3.6,-2.93,334,462,419,467,238,11
915,0.77,-0.39,0.52,0.85,-2.5,-2.32,329,455,420,469,240,11
916,0.76,-0.4,0.53,0.79,-3.36,-2.38,332,462,417,468,239,11
917,0.76,-0.39,0.53,0.85,-3.72,-1.89,334,460,413,470,239,11
918,0.77,-0.39,0.53,-15.56,-2.32,-4.03,334,460,419,471,242,11
919,0.77,-0.38,0.54,1.77,-1.77,-3.66,334,460,418,471,239,11
920,0.77,-0.39,0.54,1.46,-2.93,-1.95,333,465,417,472,242,11
921,0.76,-0.39,0.54,-0.43,-1.95,-2.44,334,462,417,469,242,11
922,0.77,-0.39,0.54,0.06,-2.93,-1.83,336,462,413,469,243,11
923,0.77,-0.39,0.53,0.61,-2.2,-3.42,334,460,419,470,240,11
924,0.76,-0.39,0.53,-0.55,-3.05,-3.85,334,462,418,468,239,11
925,0.77,-0.38,0.54,0.43,-3.66,-1.83,341,458,413,471,242,11
926,0.76,-0.38,0.54,-0.18,-3.48,-1.53,333,456,413,469,242,11
927,0.77,-0.38,0.53,0.31,-3.23,-2.62,333,458,419,470,242,11
928,0.77,-0.38,0.54,0.49,-2.93,-2.44,334,459,418,469,241,11
929,0.78,-0.39,0.52,1.22,-3.05,-1.77,333,470,419,469,239,11
930,0.77,-0.39,0.53,0.49,-3.23,-2.93,331,462,413,469,241,11
931,0.76,-0.39,0.53,0.37,-3.05,-2.32,335,459,416,473,237,11
932,0.76,-0.39,0.54,0.67,-3.23,-2.75,334,460,419,470,238,11
933,0.77,-0.38,0.54,-0.43,-2.87,-3.36,334,458,418,471,242,11
934,0.77,-0.39,0.53,-0.61,-2.81,-2.87,334,456,417,476,240,11
935,0.77,-0.38,0.53,0.37,-3.3,-2.38,333,460,414,470,237,11
936,0.77,-0.38,0.53,-3.85,-4.52,-5.31,334,457,417,469,240,11
937,0.78,-0.39,0.51,-3.66,-4.21,-6.04,334,456,419,471,238,11
938,0.79,-0.39,0.5,-1.65,-4.15,-3.17,332,457,424,474,241,11
939,0.78,-0.38,0.5,1.71,-3.05,-1.95,327,464,420,478,242,11
940,0.78,-0.38,0.51,0.67,-3.3,-1.71,334,466,423,472,239,11
941,0.78,-0.38,0.51,0.43,-2.32,-1.83,336,461,420,471,246,11
942,0.79,-0.39,0.5,-0.43,-3.42,-2.2,334,461,421,471,243,11
943,0.78,-0.39,0.5,0.06,-3.11,-1.89,334,462,420,485,243,11
944,0.78,-0.38,0.51,0.92,-2.2,-2.56,336,462,421,471,238,11
945,0.78,-0.39,0.51,0.98,-2.32,-1.89,330,458,423,473,243,11
946,0.78,-0.39,0.51,0.37,-2.5,-2.69,329,465,420,474,240,11
947,0.78,-0.39,0.51,0.79,-2.81,-1.77,334,469,420,480,236,11
948,0.78,-0.39,0.51,0.12,-2.62,-2.75,333,459,422,475,243,11
949,0.77,-0.4,0.51,0.98,-3.17,-3.17,331,460,422,467,241,11
950,0.78,-0.39,0.51,-0.12,-3.48,-2.08,335,458,420,468,245,11
951,0.79,-0.39,0.51,0.73,-2.38,-3.11,331,461,420,471,242,11
952,0.78,-0.39,0.51,0.98,-2.62,-1.89,336,462,421,472,237,11
953,0.78,-0.39,0.51,0.67,-3.11,-2.32,334,461,423,475,242,11
954,0.79,-0.39,0.51,1.1,-2.5,-2.62,338,460,421,474,241,11
955,0.78,-0.39,0.51,0.55,-2.87,-2.44,334,464,420,474,239,11
956,0.78,-0.39,0.51,1.1,-2.81,-2.56,334,460,417,467,243,11
957,0.78,-0.39,0.51,-0.43,-2.5,-1.89,334,454,423,470,243,11
958,0.76,-0.41,0.51,5.98,-7.87,-1.4,337,461,418,473,243,11
959,0.79,-0.36,0.52,-2.44,-0.92,-2.62,334,459,420,472,242,11
960,0.76,-0.42,0.51,-5.37,-2.99,0.12,333,477,422,467,261,11
961,0.77,-0.41,0.48,10.07,-15.14,-0.37,337,456,422,473,243,11
962,0.79,-0.38,0.5,-4.03,-2.38,-4.82,333,459,422,474,244,11
963,0.75,-0.4,0.52,-11.78,4.94,-3.78,334,460,418,467,240,11
964,0.78,-0.41,0.51,-1.22,-2.99,-5.13,334,459,420,471,241,11
965,0.78,-0.39,0.51,0.37,-3.85,-2.38,331,464,416,471,239,11
966,0.78,-0.39,0.51,0.0,-2.56,-1.53,334,459,419,467,240,11
967,0.78,-0.39,0.51,0.79,-2.32,-4.27,336,456,417,474,241,11
968,0.78,-0.39,0.52,1.22,-2.26,-2.62,334,462,422,469,241,11
969,0.78,-0.4,0.51,0.0,-2.44,-3.11,334,459,419,467,240,11
970,0.78,-0.39,0.52,0.67,-2.44,-2.56,335,455,420,469,241,11
971,0.78,-0.37,0.53,2.14,-3.42,0.12,338,459,421,472,275,11
972,0.77,-0.39,0.52,-2.44,-2.99,-0.92,338,463,417,466,241,11
973,0.78,-0.39,0.51,-0.31,-3.42,-2.32,335,459,431,468,252,11
974,0.78,-0.39,0.52,1.71,-3.6,-1.22,336,463,430,469,253,11
975,0.77,-0.39,0.52,0.67,-3.17,-2.75,332,459,421,472,243,11
976,0.78,-0.39,0.51,0.43,-2.26,-4.03,334,460,422,469,239,11
977,0.78,-0.39,0.51,0.18,-3.3,-3.05,335,460,421,470,243,11
978,0.78,-0.39,0.51,0.06,-3.36,-3.78,329,457,419,473,240,11
979,0.78,-0.39,0.51,0.55,-3.42,-2.14,335,457,419,467,241,11
980,0.78,-0.39,0.51,-0.24,-2.93,-2.99,337,455,420,473,241,11
981,0.78,-0.38,0.52,1.53,-3.17,-0.67,335,464,422,468,245,11
982,0.78,-0.39,0.51,0.92,-3.36,-1.4,342,464,418,472,241,11
983,0.78,-0.39,0.51,-1.34,-2.93,-4.58,337,462,419,472,244,11
984,0.78,-0.39,0.52,0.31,-3.23,-1.34,335,464,417,471,241,11
985,0.78,-0.39,0.51,-0.37,-2.69,-3.05,331,456,418,471,243,11
986,0.78,-0.38,0.52,2.14,-3.78,-1.46,333,459,419,471,243,11
987,0.78,-0.38,0.51,-3.05,-1.89,-2.75,335,460,417,470,240,11
988,0.77,-0.39,0.52,-1.83,-3.3,-1.46,336,459,423,470,240,11
989,0.78,-0.38,0.52,-1.1,-3.05,-1.53,335,467,415,467,240,11
990,0.78,-0.38,0.52,-0.12,-3.05,-2.44,336,454,422,470,243,11
991,0.78,-0.38,0.52,0.98,-3.05,-1.71,338,462,421,469,243,11
992,0.78,-0.38,0.51,0.79,-3.48,-2.38,332,465,420,473,240,11
993,0.78,-0.39,0.51,-0.92,-3.48,-3.6,336,465,418,466,241,11
994,0.78,-0.39,0.51,0.0,-3.17,-2.38,337,461,418,471,241,11
995,0.77,-0.38,0.52,-0.79,-2.62,-3.11,337,460,416,487,239,11
996,0.78,-0.38,0.52,-0.37,-2.32,-2.81,336,462,420,471,242,11
997,0.78,-0.39,0.51,-0.12,-2.69,-2.69,333,455,421,473,244,11
998,0.79,-0.39,0.51,0.06,-3.3,-1.89,334,463,419,471,242,11
999,0.8,-0.39,0.49,0.55,-3.48,-2.2,335,456,422,473,242,11
1000,0.8,-0.39,0.5,-0.06,-2.87,-3.36,336,456,420,466,239,11
1001,0.92,-0.31,0.24,1.34,-2.5,-2.69,322,464,416,479,229,11
1002,0.92,-0.3,0.24,2.14,-3.36,-1.46,320,463,417,478,233,11
1003,0.9,-0.34,0.22,-0.55,-1.77,1.59,323,467,419,483,233,11
1004,0.95,-0.35,0.22,-2.69,-2.81,-6.71,326,462,416,481,234,11
1005,0.92,-0.35,0.21,-0.37,-6.41,1.71,320,472,417,481,231,11
1006,0.93,-0.33,0.23,-5.49,-3.66,3.72,321,456,416,482,234,11
1007,0.91,-0.36,0.2,3.85,-3.6,-5.0,325,460,413,482,232,11
1008,0.93,-0.35,0.2,-0.24,2.75,-3.3,321,455,414,481,235,11
1009,0.93,-0.35,0.21,2.2,-3.3,-7.75,325,455,414,477,235,11
1010,0.96,-0.44,0.2,23.44,-1.04,-9.83,325,454,414,475,233,11
1011,0.66,-0.54,0.35,11.84,-2.32,11.41,324,465,413,481,268,11
1012,0.93,-0.31,0.25,2.14,-4.39,10.99,327,459,416,477,236,11
1013,0.92,-0.35,0.27,-0.92,-0.49,-3.42,330,458,414,476,243,11
1014,0.91,-0.34,0.27,0.06,-0.67,-6.53,327,464,414,478,244,11
1015,0.92,-0.31,0.29,-9.58,4.03,2.69,330,459,415,478,240,11
1016,0.89,-0.35,0.29,1.1,-3.11,-3.23,329,459,431,476,240,11
1017,0.91,-0.37,0.28,-7.57,1.83,1.53,328,458,419,476,243,11
1018,0.88,-0.35,0.33,-1.16,0.55,-3.6,331,459,416,480,240,11
1019,0.87,-0.4,0.28,-2.01,-0.73,0.18,331,456,415,479,243,11
1020,0.89,-0.39,0.3,1.28,2.5,-1.28,330,464,412,480,245,11
1021,0.9,-0.41,0.29,8.73,-5.8,10.74,330,458,413,482,245,11
1022,0.89,-0.43,0.29,6.23,-3.66,2.81,329,460,412,481,246,11
1023,0.85,-0.44,0.3,0.92,-0.92,-6.23,331,452,414,480,242,11
1024,0.83,-0.38,0.37,4.03,4.94,-8.24,334,456,415,480,242,11
1025,0.87,-0.32,0.44,1.95,-3.66,-0.85,331,454,414,480,241,11
1026,0.87,-0.35,0.41,3.23,-2.87,-0.85,331,460,418,477,241,11
1027,0.84,-0.36,0.4,3.72,-4.09,-1.28,331,459,414,478,244,11
1028,0.85,-0.38,0.4,-4.09,2.32,-8.73,331,455,418,479,242,11
1029,0.85,-0.35,0.39,0.55,-3.17,-2.14,332,456,416,480,246,11
1030,0.87,-0.34,0.4,0.49,-1.1,-3.05,332,459,418,481,246,11
1031,0.86,-0.35,0.41,5.25,-2.14,-6.23,329,457,416,479,245,11
1032,0.85,-0.34,0.41,2.69,-2.32,-2.69,330,452,416,478,241,11
1033,0.85,-0.34,0.4,-0.85,-2.5,-3.72,330,461,418,478,241,11
1034,0.86,-0.34,0.4,0.55,-3.17,-2.14,331,458,422,480,242,11
1035,0.87,-0.33,0.41,0.61,-2.56,-2.2,332,452,417,481,245,11
1036,0.86,-0.34,0.41,-0.18,-2.5,-2.38,333,462,421,475,242,11
1037,0.85,-0.33,0.41,1.46,-2.69,-2.14,330,460,417,477,245,11
1038,0.87,-0.33,0.41,-0.37,-3.05,-2.32,332,451,418,482,243,11
1039,0.87,-0.32,0.42,-7.57,-3.36,-2.93,327,460,420,480,243,11
1040,0.86,-0.39,0.38,5.8,4.7,-1.53,333,461,417,480,245,11
1041,0.88,-0.36,0.4,6.41,-3.11,-2.08,330,458,415,480,242,11
1042,0.85,-0.36,0.39,4.7,-7.57,-4.7,329,457,419,488,241,11
1043,0.86,-0.33,0.39,0.06,-1.71,-4.88,331,460,419,475,243,11
1044,0.87,-0.33,0.4,-0.61,-2.14,-1.1,331,462,419,479,245,11
1045,0.86,-0.33,0.41,-0.06,-2.26,-2.62,331,462,418,475,247,11
1046,0.85,-0.33,0.4,0.31,-3.85,-1.89,332,458,419,478,245,11
1047,0.87,-0.32,0.41,-1.65,-3.23,-0.06,333,461,417,480,245,11
1048,0.86,-0.33,0.41,2.81,-0.98,-1.59,332,457,415,477,246,11
1049,0.87,-0.34,0.39,-0.31,-4.58,-4.7,334,460,419,484,253,11
1050,0.88,-0.34,0.4,0.0,-3.6,-0.55,329,461,416,480,247,11
1051,0.85,-0.34,0.4,-4.88,-2.01,-6.16,330,451,418,477,245,11
1052,0.86,-0.34,0.41,2.26,-3.48,-2.32,335,455,416,478,248,11
1053,0.85,-0.35,0.39,-0.85,-2.56,-2.01,335,453,417,480,254,11
1054,0.86,-0.36,0.38,1.71,-2.62,-2.08,331,455,416,478,243,11
1055,0.8,-0.37,0.41,-0.49,-1.65,-1.16,332,454,418,479,247,11
1056,0.95,-0.3,0.38,2.99,0.55,-3.97,334,459,421,476,249,11
1057,0.9,-0.31,0.39,0.12,-1.59,-15.99,338,463,424,477,255,11
1058,0.89,-0.29,0.38,6.41,-14.04,3.91,334,463,416,470,240,11
1059,0.84,-0.31,0.4,2.08,8.79,-6.23,335,461,418,476,247,11
1060,0.88,-0.31,0.41,-4.27,-2.62,-1.22,334,458,420,473,246,11
1061,0.88,-0.32,0.4,0.55,-7.14,-1.83,338,455,418,475,252,11
1062,0.86,-0.33,0.41,-2.99,-2.81,0.37,338,457,421,476,250,11
1063,0.85,-0.33,0.42,-2.08,2.5,-4.33,338,454,416,477,247,11
1064,0.85,-0.32,0.43,-1.16,-3.85,-3.05,342,455,419,474,250,11
1065,0.86,-0.32,0.42,1.22,-4.64,-2.32,335,458,422,477,250,11
1066,0.85,-0.32,0.43,0.61,-3.91,-2.38,338,450,420,477,254,11
1067,0.87,-0.32,0.43,-0.18,-4.64,-2.2,337,459,422,479,251,11
1068,0.87,-0.32,0.42,2.26,-2.56,-2.32,338,462,419,477,247,11
1069,0.87,-0.32,0.42,0.55,-2.44,-2.87,338,460,420,480,249,11
1070,0.86,-0.32,0.43,-1.4,-3.05,-1.83,339,457,418,478,249,11
1071,0.84,-0.33,0.42,-0.73,-2.32,-1.16,336,458,420,479,249,11
1072,0.85,-0.33,0.43,0.92,-3.05,-1.89,336,458,419,479,248,11
1073,0.84,-0.33,0.43,0.06,-3.36,-3.36,339,457,421,474,251,11
1074,0.86,-0.35,0.41,2.81,-2.26,-4.82,338,457,422,477,250,11
1075,0.85,-0.33,0.42,0.92,-2.93,-2.44,339,457,419,479,246,11
1076,0.86,-0.33,0.43,1.22,-2.5,-2.5,341,458,420,474,251,11
1077,0.87,-0.32,0.42,0.43,-4.03,-2.69,340,458,420,478,250,11
1078,0.86,-0.33,0.43,1.83,-3.11,-2.56,339,460,416,480,251,11
1079,0.87,-0.33,0.42,3.05,-3.17,-2.38,339,460,422,477,259,11
1080,0.85,-0.32,0.43,0.31,-3.05,-3.17,340,451,420,478,250,11
1081,0.85,-0.33,0.42,1.53,-2.93,-3.23,339,458,417,475,250,11
1082,0.85,-0.34,0.42,-0.12,-3.17,-1.46,339,456,422,479,250,11
1083,0.87,-0.32,0.42,0.24,-3.6,-2.99,337,452,418,476,251,11
1084,0.86,-0.31,0.42,3.3,-3.17,-4.09,339,455,422,478,252,11
1085,0.85,-0.32,0.44,1.04,-2.44,-2.26,337,459,421,477,251,11
1086,0.85,-0.32,0.43,-0.43,-3.23,-2.5,335,460,419,479,249,11
1087,0.85,-0.32,0.43,0.61,-2.56,-1.77,340,457,421,488,250,11
1088,0.86,-0.32,0.43,1.1,-2.75,-2.08,335,452,419,478,249,11
1089,0.86,-0.32,0.43,4.46,-2.87,-2.62,341,455,422,478,250,11
1090,0.85,-0.32,0.42,-0.49,-4.33,-2.62,338,458,420,476,248,11
1091,0.87,-0.3,0.43,1.89,-3.23,-2.81,337,454,422,477,249,11
1092,0.87,-0.31,0.43,-0.49,-3.72,-3.42,338,459,422,473,250,11
1093,0.87,-0.29,0.44,1.04,-2.62,0.12,340,458,428,479,252,11
1094,0.87,-0.3,0.44,-0.31,-3.54,-2.14,338,454,420,476,253,11
1095,0.86,-0.32,0.43,2.38,-2.26,-2.62,338,455,422,478,250,11
1096,0.86,-0.32,0.44,-1.65,-3.78,-2.32,339,468,418,479,251,11
1097,0.86,-0.32,0.43,1.22,-2.62,-2.62,340,449,419,479,251,11
1098,0.85,-0.32,0.44,2.01,-2.2,-2.69,340,455,418,474,252,11
1099,0.86,-0.31,0.44,1.53,-3.17,-2.56,340,455,419,475,251,11
1100,0.85,-0.31,0.44,-0.18,-0.55,-4.58,338,452,420,479,253,11
1101,0.84,-0.31,0.44,0.18,-2.69,-2.44,336,455,419,473,254,11
1102,0.84,-0.32,0.44,0.06,-3.05,-2.14,342,454,417,478,268,11
1103,0.85,-0.31,0.45,-0.49,-1.71,-2.01,338,459,419,479,252,11
1104,0.84,-0.32,0.45,-2.2,-2.2,-3.11,336,452,415,477,249,11
1105,0.86,-0.31,0.45,2.38,-3.42,-2.56,338,449,422,476,251,11
1106,0.85,-0.33,0.44,0.06,-3.3,-3.36,338,452,420,480,255,11
1107,0.86,-0.31,0.45,-1.16,-2.56,-5.68,337,453,421,476,251,11
1108,0.86,-0.31,0.46,1.04,-3.48,-2.5,339,452,422,479,252,11
1109,0.85,-0.31,0.45,0.12,-3.91,-1.89,336,454,422,484,254,11
1110,0.85,-0.31,0.45,1.16,-2.81,-3.17,339,454,419,475,252,11
1111,0.85,-0.31,0.45,-0.12,-3.23,-3.23,335,453,421,476,250,11
1112,0.84,-0.32,0.46,-0.85,-3.54,-2.44,335,454,427,473,252,11
1113,0.85,-0.3,0.48,-1.59,-3.6,-0.92,343,454,423,472,254,11
1114,0.83,-0.3,0.48,1.04,-2.38,-0.67,338,453,419,476,255,11
1115,0.87,-0.31,0.45,-2.32,-4.94,-0.98,339,449,422,475,255,11
1116,0.81,-0.35,0.48,2.81,-0.18,1.22,336,454,418,474,247,11
1117,0.84,-0.35,0.46,2.99,-3.66,-4.27,336,454,422,479,250,11
1118,0.84,-0.34,0.46,0.0,-3.17,-2.2,340,454,419,478,253,11
1119,0.82,-0.35,0.46,0.79,-3.05,-2.99,339,456,420,474,252,11
1120,0.83,-0.34,0.47,1.28,-3.6,-3.17,339,455,419,477,252,11
1121,0.83,-0.34,0.47,1.4,-3.3,-2.93,339,452,423,476,259,11
1122,0.83,-0.34,0.46,0.43,-2.56,-3.54,347,455,419,474,250,11
1123,0.84,-0.33,0.47,-0.55,-2.56,-2.01,338,452,420,477,253,11
1124,0.83,-0.34,0.46,0.98,-3.3,-2.62,340,454,416,476,255,11
1125,0.84,-0.33,0.46,0.73,-3.42,-2.5,339,454,420,473,251,11
1126,0.83,-0.34,0.45,-1.22,-2.69,-2.32,340,456,423,475,254,11
1127,0.84,-0.35,0.45,1.34,-2.69,-1.83,337,454,421,475,249,11
1128,0.83,-0.33,0.47,0.79,-2.87,-2.93,337,452,420,475,255,11
1129,0.84,-0.34,0.46,1.34,-3.6,-3.6,335,453,422,474,252,11
1130,0.85,-0.33,0.45,0.18,-2.81,-3.05,339,457,422,476,250,11
1131,0.83,-0.32,0.47,-0.31,-2.81,-2.93,335,452,420,479,251,11
1132,0.84,-0.32,0.46,1.28,-2.99,-2.56,341,471,421,475,252,11
1133,0.84,-0.33,0.45,0.0,-3.05,-2.81,342,454,421,477,251,11
1134,0.84,-0.34,0.44,0.55,-2.56,-2.44,341,450,423,473,251,11
1135,0.83,-0.34,0.45,2.81,-12.82,4.39,342,456,422,477,251,11
1136,0.84,-0.31,0.46,0.98,-3.91,-3.23,340,450,421,479,251,11
1137,0.83,-0.35,0.43,-1.16,-3.11,-0.85,339,453,420,477,255,11
1138,0.84,-0.33,0.46,0.12,-2.93,-2.38,340,456,417,472,255,11
1139,0.84,-0.32,0.46,0.85,-3.23,-3.17,351,454,420,476,254,11
1140,0.84,-0.33,0.45,-1.16,-2.87,-3.42,341,455,423,478,253,11
1141,0.83,-0.32,0.46,0.37,-3.23,-2.08,338,456,431,476,250,11
1142,0.84,-0.33,0.46,0.79,-2.62,-2.32,342,455,421,474,255,11
1143,0.84,-0.33,0.45,-1.71,-3.78,-3.11,340,455,417,479,250,11
1144,0.84,-0.33,0.45,-1.22,-3.17,-2.87,339,454,420,479,254,11
1145,0.84,-0.33,0.46,1.22,-2.93,-3.3,336,454,420,477,253,11
1146,0.87,-0.32,0.45,0.67,-3.05,-2.69,338,456,421,481,252,11
1147,0.85,-0.32,0.45,0.61,-2.38,-2.08,338,449,421,473,251,11
1148,0.84,-0.32,0.46,-0.31,-3.11,-2.14,345,456,420,475,254,11
1149,0.86,-0.32,0.44,-0.37,-1.95,-1.83,338,452,420,472,252,11
1150,0.84,-0.32,0.45,-0.31,-2.93,-1.95,336,457,421,473,252,11
1151,0.84,-0.33,0.44,-1.1,-4.03,-2.38,337,455,417,476,253,11
1152,0.85,-0.32,0.44,1.22,-1.95,-2.01,339,458,418,476,251,11
1153,0.86,-0.32,0.44,-0.92,-2.56,-2.26,338,457,421,472,255,11
1154,0.83,-0.33,0.45,1.1,-2.62,-3.66,336,453,419,475,255,11
1155,0.84,-0.32,0.46,0.31,-3.54,-3.05,340,457,420,476,257,11
1156,0.85,-0.33,0.43,-1.34,-4.09,-1.95,340,465,417,477,250,11
1157,0.84,-0.34,0.44,-0.43,-2.26,-3.05,337,456,419,480,252,11
1158,0.84,-0.34,0.44,2.2,-4.7,-3.36,340,457,420,475,255,11
1159,0.84,-0.32,0.45,1.28,-2.2,-2.99,340,454,419,478,253,11
1160,0.84,-0.33,0.44,0.12,-3.54,-1.77,338,448,420,475,252,11
1161,0.86,-0.32,0.44,-0.55,-2.69,-2.32,340,452,421,478,256,11
1162,0.84,-0.33,0.44,-0.12,-3.36,-1.89,338,449,420,479,250,11
1163,0.85,-0.33,0.44,1.77,-2.75,-2.62,345,451,420,473,253,11
1164,0.85,-0.32,0.44,1.16,-2.69,-2.75,340,453,422,477,256,11
1165,0.84,-0.32,0.45,1.28,-2.38,-3.05,341,453,420,475,253,11
1166,0.84,-0.33,0.44,-0.49,-2.5,-2.75,338,453,422,475,254,11
1167,0.87,-0.32,0.41,-1.65,-2.08,-2.93,338,454,422,493,254,11
1168,0.85,-0.32,0.44,0.61,-3.3,-1.53,342,450,423,475,254,11
1169,0.8,-0.32,0.46,-2.26,-16.66,-1.46,339,457,424,473,251,11
1170,0.87,-0.32,0.4,-1.4,-1.95,-3.48,338,469,422,471,251,11
1171,0.88,-0.32,0.39,-0.37,-3.91,-2.26,339,454,419,475,255,11
1172,0.88,-0.31,0.39,0.18,-3.3,-1.28,339,463,418,476,254,11
1173,0.89,-0.3,0.4,-0.37,-2.38,-2.01,341,456,421,474,257,11
1174,0.86,-0.32,0.4,0.79,-2.56,-2.5,342,453,424,478,254,11
1175,0.86,-0.32,0.39,0.79,-2.99,-1.83,339,453,422,471,254,11
1176,0.88,-0.32,0.39,-1.22,-2.32,-2.99,340,451,424,475,257,11
1177,0.87,-0.31,0.4,1.28,-2.87,-2.26,340,457,421,475,256,11
1178,0.87,-0.31,0.4,3.23,-3.36,-2.99,338,451,419,475,252,11
1179,0.86,-0.32,0.4,-0.43,-3.05,-2.75,340,453,429,473,253,11
1180,0.87,-0.31,0.4,0.85,-2.62,-2.81,340,452,417,479,250,11
1181,0.89,-0.3,0.4,2.26,-4.09,-1.4,341,452,420,472,255,11
1182,0.86,-0.3,0.41,0.92,-3.11,-3.05,339,449,420,478,256,11
1183,0.87,-0.3,0.42,0.92,-2.62,-2.69,337,456,432,473,255,11
1184,0.87,-0.31,0.4,0.61,-3.05,-2.62,338,451,423,476,267,11
1185,0.87,-0.31,0.41,1.53,-2.81,-3.54,338,451,421,471,254,11
1186,0.87,-0.3,0.41,0.31,-2.87,-1.95,340,453,422,474,257,11
1187,0.86,-0.31,0.41,2.32,-3.11,-2.2,341,454,423,474,257,11
1188,0.88,-0.3,0.41,1.4,-2.5,-2.26,340,453,422,472,257,11
1189,0.87,-0.3,0.41,-0.61,-2.56,-2.01,339,457,416,475,255,11
1190,0.84,-0.31,0.43,3.23,-1.83,-2.26,343,449,421,474,257,11
1191,0.85,-0.3,0.42,1.65,-3.85,-4.03,339,454,422,477,254,11
1192,0.88,-0.28,0.42,0.0,-3.17,-2.69,339,448,423,474,255,11
1193,0.86,-0.29,0.42,-0.49,-3.36,-1.22,338,446,421,476,255,11
1194,0.89,-0.29,0.41,0.24,-2.87,-2.69,340,452,418,475,255,11
1195,0.87,-0.31,0.4,-0.06,-3.42,-1.77,336,456,418,474,255,11
1196,0.87,-0.29,0.42,0.73,-2.87,-2.99,337,452,419,472,258,11
1197,0.88,-0.29,0.42,-0.06,-2.2,-3.91,340,452,419,473,255,11
1198,0.86,-0.28,0.44,0.49,-2.62,-2.2,340,448,417,473,255,11
1199,0.87,-0.3,0.42,-1.71,-4.21,-4.03,338,452,420,474,258,11
1200,0.87,-0.3,0.41,1.04,-2.69,-3.48,339,446,417,476,258,11
1201,0.86,-0.3,0.42,1.4,-3.3,-3.11,336,451,422,477,256,11
1202,0.87,-0.3,0.41,2.5,-1.77,-2.01,341,452,422,471,260,11
1203,0.88,-0.29,0.42,-0.55,-3.6,-2.38,339,446,419,472,257,11
1204,0.88,-0.29,0.42,1.28,-3.72,-3.66,339,451,421,476,252,11
1205,0.87,-0.3,0.42,0.61,-3.05,-3.3,339,449,420,477,257,11
1206,0.87,-0.3,0.42,0.67,-3.42,-3.23,335,455,420,473,260,11
1207,0.87,-0.3,0.41,0.73,-2.69,-3.05,340,446,423,474,259,11
1208,0.87,-0.29,0.42,1.1,-3.48,-2.75,340,447,420,472,255,11
1209,0.88,-0.29,0.43,4.21,-2.81,-2.56,340,455,419,473,258,11
1210,0.86,-0.29,0.44,0.12,-3.3,-2.44,341,452,422,473,260,11
1211,0.86,-0.29,0.44,1.83,-3.42,-2.38,341,455,421,471,261,11
1212,0.87,-0.28,0.43,1.59,-3.42,-3.23,343,456,420,474,266,11
1213,0.87,-0.28,0.43,1.1,-2.2,-2.5,338,462,421,475,259,11
1214,0.87,-0.28,0.43,-0.73,-3.85,-2.75,337,461,414,473,254,11
1215,0.88,-0.28,0.43,1.46,-3.66,-1.95,340,456,425,474,262,11
1216,0.87,-0.29,0.42,1.1,-3.36,-3.23,337,458,424,477,258,11
1217,0.86,-0.29,0.43,2.2,-2.99,-2.62,339,453,420,475,260,11
1218,0.87,-0.29,0.42,2.69,-3.42,-2.38,344,452,423,473,258,11
1219,0.87,-0.29,0.42,2.93,-4.64,0.18,336,456,433,476,262,11
1220,0.87,-0.29,0.42,-2.08,-3.17,-2.81,340,467,419,475,259,11
1221,0.86,-0.29,0.42,2.08,-2.56,-2.5,341,457,419,474,264,11
1222,0.87,-0.28,0.43,2.69,-3.48,-2.32,342,455,420,473,262,11
1223,0.87,-0.28,0.42,0.37,-3.6,-3.36,343,455,416,477,261,11
1224,0.87,-0.26,0.43,1.4,-3.17,-3.11,345,460,421,479,261,11
1225,0.88,-0.26,0.43,2.01,-4.33,-3.6,342,459,420,474,252,11
1226,0.89,-0.25,0.44,-1.04,-6.04,-4.33,341,455,417,476,262,11
1227,0.88,-0.26,0.43,3.72,-1.77,-2.5,343,456,423,474,264,11
1228,0.88,-0.27,0.43,0.31,-3.17,-2.81,343,454,430,473,264,11
1229,0.89,-0.24,0.44,2.08,-2.93,-2.01,342,455,420,475,262,11
1230,0.9,-0.26,0.42,-1.28,-2.99,-2.62,341,456,420,474,263,11
1231,0.89,-0.26,0.43,1.83,-3.72,-3.97,342,456,420,470,263,11
1232,0.89,-0.25,0.43,1.89,-4.33,-2.75,342,455,420,476,264,11
1233,0.87,-0.26,0.43,-0.18,-3.05,-2.56,341,456,421,474,264,11
1234,0.89,-0.26,0.42,2.14,-2.69,-3.3,342,456,423,474,263,11
1235,0.89,-0.26,0.43,-0.12,-3.17,-2.62,341,459,418,475,263,11
1236,0.87,-0.26,0.43,-0.43,-2.56,-1.95,340,455,437,476,262,11
1237,0.88,-0.27,0.42,0.67,-2.81,-3.42,342,458,419,475,263,11
1238,0.87,-0.26,0.43,0.79,-2.87,-2.87,342,453,421,472,264,11
1239,0.88,-0.26,0.43,0.79,-3.05,-1.71,341,459,416,471,265,11
1240,0.88,-0.26,0.43,-0.49,-2.26,-2.5,341,452,422,475,263,11
1241,0.91,-0.23,0.46,-11.41,-2.38,2.81,349,455,417,471,263,11
1242,0.89,-0.27,0.44,1.34,-2.75,-2.87,342,450,418,477,264,11
1243,0.86,-0.31,0.43,-12.94,2.81,4.82,340,455,420,475,265,11
1244,0.82,-0.38,0.43,-2.81,-0.43,0.0,344,452,420,473,261,11
1245,0.84,-0.37,0.43,-0.92,-3.91,-2.26,341,469,420,477,265,11
1246,0.83,-0.37,0.44,0.85,-2.93,-3.6,342,460,420,474,261,11
1247,0.84,-0.36,0.44,1.53,-3.91,-2.99,341,459,420,470,263,11
1248,0.83,-0.36,0.43,1.53,-2.87,-3.54,341,454,417,474,264,11
1249,0.83,-0.37,0.43,1.89,-2.99,-2.99,339,459,423,470,264,11
1250,0.86,-0.32,0.46,2.87,-3.48,-4.09,342,451,423,476,266,11
1251,0.85,-0.34,0.44,1.77,-3.11,-2.81,342,460,423,473,265,11
1252,0.84,-0.34,0.44,-0.49,-2.69,-2.44,341,458,421,474,261,11
1253,0.84,-0.35,0.44,0.67,-4.03,-2.62,342,453,420,476,265,11
1254,0.85,-0.34,0.44,-0.92,-4.03,-1.65,341,465,418,476,266,11
1255,0.84,-0.34,0.44,1.53,-2.75,-2.32,340,461,421,474,263,11
1256,0.84,-0.35,0.43,1.22,-3.23,-2.26,343,457,421,471,263,11
1257,0.84,-0.35,0.43,-2.56,-1.22,-2.01,343,455,422,476,265,11
1258,0.85,-0.33,0.45,0.31,-2.5,-2.62,345,456,416,476,266,11
1259,0.85,-0.34,0.44,-2.14,-1.4,-0.49,345,457,425,475,264,11
1260,0.84,-0.35,0.44,0.49,-3.42,-0.49,338,459,418,476,267,11
1261,0.84,-0.35,0.43,2.2,-3.3,-1.4,342,454,421,479,290,11
1262,0.84,-0.36,0.43,0.0,-3.66,-2.87,346,455,417,475,264,11
1263,0.84,-0.36,0.43,0.92,-3.54,-2.01,340,455,421,469,300,11
1264,0.85,-0.35,0.44,-0.43,-4.39,-2.75,345,459,420,475,262,11
1265,0.85,-0.34,0.44,-0.12,-2.75,-2.5,344,450,417,474,260,11
1266,0.83,-0.35,0.45,1.95,-2.62,-2.14,344,452,418,478,265,11
1267,0.84,-0.35,0.44,1.34,-2.62,-2.81,339,459,421,471,266,11
1268,0.84,-0.34,0.45,1.16,-3.48,-2.81,341,459,420,470,269,11
1269,0.84,-0.33,0.45,0.06,-3.23,-1.77,339,455,420,470,265,11
1270,0.87,-0.32,0.45,0.0,-3.05,-2.38,343,458,422,473,268,11
1271,0.85,-0.33,0.45,0.85,-3.72,-1.83,344,458,424,479,268,11
1272,0.85,-0.34,0.44,0.73,-2.62,-1.83,339,458,421,470,266,11
1273,0.84,-0.34,0.44,0.06,-3.36,-2.62,344,457,423,473,262,11
1274,0.84,-0.33,0.45,2.32,-3.11,-1.77,341,463,420,476,262,11
1275,0.85,-0.32,0.45,-1.59,-2.38,-3.17,345,455,420,476,264,11
1276,0.84,-0.33,0.44,1.1,-3.17,-1.77,341,459,423,473,261,11
1277,0.83,-0.34,0.44,0.61,-2.14,-2.38,343,454,419,471,265,11
1278,0.84,-0.33,0.45,1.04,-1.89,-2.2,339,456,421,473,266,11
1279,0.83,-0.34,0.45,-0.61,-3.3,-1.1,345,455,433,473,264,11
1280,0.84,-0.34,0.45,0.24,-3.54,-2.87,345,454,423,477,267,11
1281,0.84,-0.34,0.44,-0.18,-2.93,-3.36,347,456,420,472,268,11
1282,0.84,-0.34,0.45,1.22,-2.87,-2.75,343,457,420,476,265,11
1283,0.85,-0.33,0.45,-2.56,-3.11,-3.11,343,458,424,472,269,11
1284,0.84,-0.34,0.44,1.34,-2.81,-2.26,342,452,420,469,266,11
1285,0.84,-0.34,0.44,0.85,-3.85,-2.56,342,451,422,476,280,11
1286,0.83,-0.33,0.45,-0.12,-1.95,-2.01,341,458,422,477,268,11
1287,0.84,-0.33,0.45,-0.12,-1.83,0.31,343,453,420,473,265,11
1288,0.86,-0.31,0.45,1.77,-3.23,-2.69,338,458,420,474,266,11
1289,0.87,-0.33,0.42,-1.16,-2.32,-3.23,340,449,422,470,266,11
1290,0.87,-0.32,0.43,1.1,-3.3,-4.76,346,453,417,471,268,11
1291,0.85,-0.31,0.44,2.75,-1.53,-2.26,342,452,420,476,269,11
1292,0.85,-0.33,0.43,0.43,-2.2,-2.26,345,452,422,473,269,11
1293,0.86,-0.32,0.43,2.44,-2.81,-2.44,343,455,420,472,265,11
1294,0.85,-0.33,0.42,6.1,-0.98,-2.56,343,454,422,475,266,11
1295,0.84,-0.32,0.45,-0.06,-3.85,-3.11,343,453,421,469,268,11
1296,0.85,-0.32,0.44,1.95,-2.81,-2.01,344,455,422,472,266,11
1297,0.86,-0.32,0.44,-0.12,-2.99,-2.87,342,457,420,472,280,11
1298,0.85,-0.31,0.45,2.69,-4.46,-6.16,345,451,420,473,266,11
1299,0.85,-0.31,0.44,1.71,-3.48,-2.69,344,452,419,476,266,11
1300,0.85,-0.31,0.44,1.83,-1.89,-2.01,342,458,416,475,268,11
1301,0.86,-0.3,0.44,-0.24,-2.93,-2.56,342,454,421,473,265,11
1302,0.86,-0.31,0.44,-0.31,-2.38,-2.2,341,454,422,473,266,11
1303,0.84,-0.31,0.45,0.06,-2.01,-3.05,341,458,421,471,268,11
1304,0.87,-0.3,0.44,1.1,-4.15,-3.42,343,455,425,473,264,11
1305,0.85,-0.31,0.44,-2.38,-3.3,-3.17,343,452,417,474,267,11
1306,0.85,-0.31,0.44,0.12,-3.11,-2.56,339,453,421,472,269,11
1307,0.85,-0.3,0.45,1.46,-3.42,-2.32,344,449,420,473,270,11
1308,0.86,-0.3,0.44,1.1,-4.15,-2.32,345,452,419,473,267,11
1309,0.86,-0.31,0.43,-0.12,-2.26,-1.34,342,457,420,472,267,11
1310,0.85,-0.32,0.44,0.0,-2.44,-1.22,344,454,423,467,269,11
1311,0.85,-0.32,0.44,-0.43,-2.93,-3.42,343,457,421,473,268,11
1312,0.85,-0.32,0.44,-0.18,-2.62,-1.53,342,456,420,472,269,11
1313,0.84,-0.33,0.44,2.93,-2.2,-1.59,341,454,418,471,272,11
1314,0.85,-0.34,0.44,2.38,-2.99,-1.83,343,453,422,473,271,11
1315,0.85,-0.31,0.47,-6.47,-4.27,-4.03,345,455,418,475,267,11
1316,0.84,-0.33,0.45,-0.67,-3.42,-1.95,343,453,414,470,270,11
1317,0.84,-0.32,0.45,1.1,-2.99,-3.54,344,457,415,488,277,11
1318,0.85,-0.32,0.45,-0.06,-3.54,-2.32,339,453,421,473,270,11
1319,0.85,-0.31,0.46,0.85,-2.81,-2.75,343,458,421,472,272,11
1320,0.85,-0.31,0.46,-0.85,-3.3,-1.71,343,452,420,475,270,11
1321,0.84,-0.32,0.45,1.22,-2.81,-1.71,342,458,419,476,272,11
1322,0.85,-0.31,0.45,1.04,-3.42,-1.34,341,455,419,470,270,11
1323,0.83,-0.33,0.45,-0.37,-3.42,-2.14,342,456,417,470,272,11
1324,0.83,-0.33,0.45,-0.06,-2.01,-2.99,344,459,431,469,271,11
1325,0.84,-0.32,0.45,-0.06,-2.99,-3.42,338,453,419,474,272,11
1326,0.84,-0.32,0.45,-0.79,-2.62,-2.2,343,459,420,471,270,11
1327,0.85,-0.32,0.45,-0.31,-2.69,-2.44,339,457,418,470,271,11
1328,0.87,-0.28,0.47,1.59,-3.17,-4.82,343,451,419,473,271,11
1329,0.85,-0.3,0.46,0.92,-3.36,-3.05,343,459,417,469,270,11
1330,0.85,-0.31,0.46,-0.18,-3.97,-1.46,344,450,418,473,273,11
1331,0.85,-0.32,0.45,1.28,-3.05,-2.01,342,456,418,483,267,11
1332,0.84,-0.33,0.45,-1.1,-1.83,-3.72,342,450,420,474,274,11
1333,0.84,-0.32,0.45,0.98,-2.69,-2.75,343,458,419,473,270,11
1334,0.85,-0.32,0.45,-0.18,-2.99,-2.93,337,451,419,473,266,11
1335,0.86,-0.31,0.44,0.79,-2.38,-2.69,343,452,420,471,271,11
1336,0.86,-0.31,0.45,-1.71,-2.75,-2.32,343,461,419,477,273,11
1337,0.86,-0.3,0.45,0.67,-3.6,-3.3,342,460,417,469,274,11
1338,0.86,-0.31,0.45,-0.18,-4.15,-2.38,342,453,418,476,272,11
1339,0.86,-0.31,0.44,-1.77,-2.69,-2.75,343,456,422,475,273,11
1340,0.86,-0.31,0.44,0.61,-1.77,-2.93,354,451,419,469,275,11
1341,0.85,-0.31,0.43,2.26,-2.26,-2.69,344,457,422,471,273,11
1342,0.86,-0.3,0.45,0.67,-2.38,-2.5,344,456,414,471,274,11
1343,0.86,-0.3,0.45,-0.18,-3.6,-2.93,341,455,418,469,274,11
1344,0.86,-0.29,0.45,0.55,-3.6,-2.81,340,461,419,468,272,11
1345,0.86,-0.29,0.44,0.37,-3.42,-2.69,343,452,419,472,277,11
1346,0.86,-0.3,0.44,0.12,-2.93,-2.5,343,455,416,475,274,11
1347,0.87,-0.3,0.44,0.61,-3.66,-1.89,355,460,419,473,274,11
1348,0.86,-0.29,0.44,0.31,-2.5,-3.11,340,459,422,472,274,11
1349,0.86,-0.3,0.45,0.06,-3.17,-2.38,344,447,418,473,276,11
1350,0.87,-0.29,0.45,-0.37,-3.23,-1.65,342,459,416,469,274,11
1351,0.86,-0.29,0.45,5.13,-0.85,-3.05,343,451,419,475,276,11
1352,0.85,-0.29,0.45,1.1,-3.54,-3.72,344,460,420,472,287,11
1353,0.87,-0.28,0.46,-1.04,-3.36,-3.54,342,460,419,471,274,11
1354,0.86,-0.29,0.45,1.65,-13.06,3.36,344,462,420,472,273,11
1355,0.86,-0.29,0.45,0.06,-2.14,-2.62,345,457,421,468,282,11
1356,0.83,-0.32,0.43,-4.15,-3.97,-6.04,345,459,422,472,276,11
1357,0.89,-0.3,0.42,-9.52,-2.93,0.12,345,458,421,470,276,11
1358,0.92,-0.26,0.41,-0.85,-10.07,-10.01,346,454,422,469,276,11
1359,0.89,-0.26,0.41,3.42,0.06,-1.1,344,458,423,473,277,11
1360,0.81,-0.34,0.43,-8.36,1.4,3.66,342,458,420,471,282,11
1361,0.84,-0.33,0.44,0.24,-2.01,-1.46,343,460,419,470,296,11
1362,0.83,-0.35,0.43,1.53,-5.31,-2.87,345,452,417,481,304,11
1363,0.86,-0.37,0.39,-2.56,-5.92,-1.77,345,458,423,486,278,11
1364,0.86,-0.36,0.39,0.92,-5.0,-0.31,344,456,422,471,275,11
1365,0.85,-0.36,0.4,1.95,-2.69,-4.39,343,453,422,474,277,11
1366,0.85,-0.36,0.41,1.04,-2.75,-1.65,341,457,419,468,280,11
1367,0.86,-0.35,0.42,2.62,-3.42,-3.3,345,458,423,472,280,11
1368,0.86,-0.36,0.39,0.31,-2.5,-2.93,338,461,422,472,280,11
1369,0.84,-0.35,0.41,2.99,-2.56,-2.56,345,452,421,471,277,11
1370,0.86,-0.34,0.41,1.59,-3.3,-3.54,351,459,421,472,278,11
1371,0.81,-0.35,0.41,-0.12,-0.73,-4.94,343,457,424,471,276,11
1372,0.85,-0.34,0.41,0.55,-4.09,-3.11,346,458,421,475,279,11
1373,0.87,-0.33,0.41,0.18,-4.33,-1.83,345,458,422,475,278,11
1374,0.86,-0.34,0.4,0.55,-3.42,-2.56,345,462,422,475,275,11
1375,0.85,-0.33,0.41,1.53,-4.33,-1.59,347,458,426,470,279,11
1376,0.84,-0.32,0.41,3.48,-0.73,-14.16,347,456,422,474,279,11
1377,0.87,-0.32,0.41,0.85,-2.62,-2.69,345,452,422,473,278,11
1378,0.87,-0.31,0.4,0.24,-2.69,-2.75,343,460,420,470,279,11
1379,0.87,-0.3,0.42,0.12,-2.5,-2.81,345,460,422,470,283,11
1380,0.86,-0.32,0.39,-3.36,-1.83,-1.34,347,458,420,470,278,11
1381,0.87,-0.3,0.42,-0.06,-2.56,-1.4,344,457,423,474,275,11
1382,0.87,-0.3,0.42,1.59,-3.78,-1.46,345,457,421,469,280,11
1383,0.86,-0.31,0.42,1.53,-3.11,-2.44,345,457,423,471,277,11
1384,0.88,-0.31,0.41,0.79,-2.99,-1.77,346,458,422,472,277,11
1385,0.86,-0.29,0.39,8.24,-6.47,-8.48,346,452,422,475,277,11
1386,0.88,-0.29,0.41,-1.04,-4.21,-1.71,342,455,423,471,278,11
1387,0.88,-0.3,0.42,-9.4,1.4,0.55,345,457,418,475,277,11
1388,0.88,-0.37,0.41,-20.51,11.66,-1.04,345,456,421,475,278,11
1389,0.83,-0.44,0.35,-29.48,-10.56,-3.3,343,460,426,470,276,11
1390,0.82,-0.52,0.25,13.73,-9.58,11.47,341,457,419,472,270,11
1391,0.78,-0.52,0.31,-7.32,4.64,-1.71,340,460,424,479,269,11
1392,0.85,-0.5,0.29,9.28,-4.15,-1.65,342,457,421,477,268,11
1393,0.83,-0.5,0.31,-6.71,10.74,-6.23,342,460,421,469,271,11
1394,0.78,-0.5,0.36,-0.31,-4.15,-0.98,333,453,421,464,271,11
1395,0.8,-0.5,0.35,0.92,-3.78,-3.97,345,453,424,469,271,11
1396,0.79,-0.5,0.36,1.89,-3.97,-2.62,342,454,417,472,274,11
1397,0.7,-0.59,0.33,-9.4,22.03,-27.16,343,461,421,465,273,11
1398,0.98,-0.26,0.34,11.84,-18.31,-6.35,343,453,421,467,275,11
1399,0.9,-0.3,0.37,4.58,-8.3,0.18,342,460,421,465,271,11
1400,0.86,-0.32,0.37,2.81,-6.59,0.61,341,455,424,472,271,11
1401,0.87,-0.32,0.37,1.22,-2.87,-2.44,344,454,423,469,272,11
1402,0.88,-0.32,0.38,3.72,-4.52,0.61,341,456,420,469,272,11
1403,0.88,-0.32,0.36,4.15,-1.89,-1.89,341,460,421,469,281,11
1404,0.88,-0.32,0.36,1.59,-3.6,-2.69,343,456,421,468,273,11
1405,0.89,-0.31,0.36,1.83,-3.17,-2.56,341,455,423,472,276,11
1406,0.88,-0.31,0.36,3.54,-1.53,-2.32,340,460,421,468,273,11
1407,0.9,-0.32,0.34,-2.01,-4.7,0.18,338,459,427,468,273,11
1408,0.89,-0.32,0.36,2.26,-3.17,-2.87,340,460,423,472,276,11
1409,0.88,-0.31,0.37,2.38,-2.14,-2.26,343,454,422,470,276,11
1410,0.88,-0.32,0.37,-0.55,-1.53,-3.17,340,456,421,469,279,11
1411,0.89,-0.31,0.37,-1.16,-2.32,-1.71,341,455,424,467,274,11
1412,0.87,-0.33,0.37,0.85,-2.87,-3.85,342,454,414,462,271,11
1413,0.86,-0.32,0.33,-1.71,-11.35,-5.43,342,452,406,438,242,11
1414,0.87,-0.3,0.38,12.08,-3.17,-0.43,340,455,406,453,229,11
1415,0.88,-0.31,0.39,-1.16,-1.83,-2.93,334,449,419,465,239,11
1416,0.88,-0.3,0.4,-1.1,-3.05,-2.69,337,450,413,465,243,11
1417,0.88,-0.31,0.38,1.04,-5.07,-1.95,337,455,417,466,241,11
1418,0.87,-0.3,0.41,0.79,-2.56,-2.93,338,450,418,468,253,11
1419,0.89,-0.3,0.39,-0.31,-5.07,-2.38,338,455,417,469,244,11
1420,0.88,-0.31,0.39,-0.18,-3.54,-3.91,341,449,416,470,246,11
1421,0.89,-0.31,0.37,-0.12,-4.09,-3.91,336,456,419,473,243,11
1422,0.88,-0.29,0.39,-3.17,-2.62,-0.98,339,448,419,465,241,11
1423,0.88,-0.3,0.38,2.99,-3.36,-2.56,341,448,419,468,240,11
1424,0.89,-0.29,0.38,5.86,-1.4,-0.43,340,449,416,478,247,11
1425,0.88,-0.32,0.38,0.37,-2.08,-0.85,340,444,414,477,247,11
1426,0.88,-0.31,0.38,3.05,-2.93,-0.37,344,448,421,468,247,11
1427,0.88,-0.3,0.4,-0.98,-1.83,-1.83,339,444,419,467,248,11
1428,0.88,-0.31,0.39,1.4,-2.69,-2.26,341,439,421,468,246,11
1429,0.88,-0.31,0.39,-1.4,-3.66,-2.08,338,444,417,469,249,11
1430,0.88,-0.3,0.4,-0.55,-2.5,-2.01,339,447,418,475,246,11
1431,0.87,-0.31,0.4,1.4,-2.99,-2.69,340,446,418,468,245,11
1432,0.89,-0.3,0.4,1.22,-2.69,-2.32,341,447,418,468,249,11
1433,0.88,-0.31,0.4,0.92,-2.01,-1.83,341,448,417,466,248,11
1434,0.87,-0.37,0.36,-0.79,-3.17,-1.89,340,439,418,471,248,11
1435,0.88,-0.34,0.37,-1.1,6.53,-3.72,341,443,418,470,251,11
1436,0.89,-0.33,0.37,-2.08,-3.54,-4.88,343,439,421,470,248,11
1437,0.9,-0.33,0.37,-5.0,-2.14,-4.76,342,443,419,466,250,11
1438,0.9,-0.31,0.37,-0.37,-3.66,-3.6,339,446,421,469,250,11
1439,0.88,-0.31,0.39,0.31,-3.91,-2.2,340,443,420,471,251,11
1440,0.87,-0.32,0.39,0.98,-2.14,-2.87,339,444,419,468,251,11
1441,0.87,-0.32,0.39,0.73,-1.4,-3.97,340,446,417,470,252,11
1442,0.87,-0.31,0.39,0.12,-0.18,-1.1,339,449,421,468,251,11
1443,0.89,-0.3,0.4,0.73,-4.58,-2.26,341,443,419,466,252,11
1444,0.86,-0.32,0.41,5.74,-3.72,-1.77,341,439,418,467,250,11
1445,0.87,-0.33,0.39,1.04,-1.65,-3.3,340,448,422,467,255,11
1446,0.87,-0.32,0.4,-0.49,-3.78,-4.21,342,443,418,471,259,11
1447,0.88,-0.31,0.39,0.85,-3.54,-3.78,342,445,419,467,256,11
1448,0.88,-0.31,0.4,-0.18,-3.36,-2.62,341,441,420,464,255,11
1449,0.88,-0.32,0.4,0.85,-3.05,-2.01,338,448,418,468,262,11
1450,0.86,-0.3,0.41,-1.1,-3.36,-1.1,341,444,423,463,254,11
1451,0.87,-0.31,0.4,-1.95,-3.42,-2.62,340,442,418,468,256,11
1452,0.87,-0.31,0.4,2.26,-3.78,-2.5,341,442,422,467,258,11
1453,0.87,-0.31,0.39,2.14,-4.64,-2.44,339,447,418,471,253,11
1454,0.87,-0.31,0.4,0.18,-2.62,-3.11,344,446,417,465,259,11
1455,0.89,-0.31,0.4,-1.04,-3.78,-3.05,343,442,419,466,258,11
1456,0.87,-0.3,0.39,1.46,-3.91,-2.08,340,446,420,469,258,11
1457,0.88,-0.3,0.4,-0.12,-3.05,-2.69,341,442,420,467,257,11
1458,0.88,-0.3,0.4,1.4,-2.32,-2.14,341,443,423,464,258,11
1459,0.9,-0.29,0.39,-2.99,-1.22,-0.79,342,443,419,464,254,11
1460,0.88,-0.3,0.4,-0.79,-3.3,-1.22,344,449,420,475,287,11
1461,0.89,-0.3,0.39,0.12,-2.2,-3.17,344,445,418,468,258,11
1462,0.88,-0.29,0.4,0.06,-2.38,-3.78,343,446,417,468,268,11
1463,0.88,-0.3,0.4,-0.55,-2.38,-1.46,342,443,416,468,257,11
1464,0.88,-0.3,0.4,0.0,-2.01,-2.44,341,447,418,476,261,11
1465,0.87,-0.3,0.41,-0.18,-3.72,-2.2,343,450,418,463,260,11
1466,0.88,-0.3,0.4,-0.31,-1.95,-1.95,341,447,419,463,257,11
1467,0.87,-0.31,0.4,-0.24,-2.75,-2.14,339,447,421,467,258,11
1468,0.87,-0.32,0.39,2.2,-3.72,-2.93,342,443,422,466,253,11
1469,0.9,-0.29,0.4,1.95,-0.92,-2.2,341,445,421,468,258,11
1470,0.84,-0.34,0.41,2.32,-0.98,1.89,341,450,418,467,259,11
1471,0.86,-0.32,0.42,0.98,-1.46,-1.65,341,451,420,469,261,11
1472,0.88,-0.31,0.41,-2.87,-4.33,-4.64,340,446,421,470,261,11
1473,0.86,-0.32,0.42,-2.26,-1.16,-0.43,340,446,421,468,256,11
1474,0.85,-0.33,0.43,0.61,-3.36,-1.65,339,452,421,466,258,11
1475,0.87,-0.33,0.41,4.58,0.37,-1.34,341,442,422,467,261,11
1476,0.83,-0.34,0.44,3.6,-2.93,-2.14,343,452,419,477,261,11
1477,0.84,-0.34,0.47,3.23,-2.01,-2.38,342,447,423,468,259,11
1478,0.82,-0.36,0.43,-1.04,-1.46,-1.95,349,446,420,467,261,11
1479,0.83,-0.34,0.45,1.59,-0.24,0.67,341,444,422,469,259,11
1480,0.83,-0.35,0.44,1.95,-2.56,-2.44,342,448,420,467,290,11
1481,0.84,-0.34,0.45,1.71,-3.23,-0.98,337,449,421,470,262,11
1482,0.85,-0.33,0.46,-1.53,-3.48,-2.38,342,446,420,467,262,11
1483,0.84,-0.35,0.44,-2.32,-2.08,-2.08,339,451,420,464,259,11
1484,0.84,-0.36,0.43,0.43,-3.66,-2.5,338,451,421,463,259,11
1485,0.84,-0.33,0.45,2.62,-2.75,-2.56,341,444,423,468,263,11
1486,0.84,-0.35,0.43,-1.71,-2.93,-5.19,342,450,416,464,259,11
1487,0.86,-0.33,0.44,-0.43,-2.38,-2.26,342,450,421,469,261,11
1488,0.86,-0.34,0.45,0.61,-1.89,-0.18,340,454,417,467,262,11
1489,0.85,-0.35,0.43,0.0,-1.46,-1.22,344,450,421,467,261,11
1490,0.84,-0.35,0.43,-0.06,-3.23,-2.5,341,451,420,465,264,11
1491,0.83,-0.37,0.43,-1.4,-2.75,-1.83,344,450,419,465,265,11
1492,0.84,-0.35,0.44,0.98,-2.44,-3.11,341,450,422,482,262,11
1493,0.86,-0.32,0.45,2.75,-4.52,-3.97,342,449,422,468,265,11
1494,0.86,-0.33,0.44,3.97,-6.23,-4.94,345,449,417,466,263,11
1495,0.85,-0.32,0.44,6.84,-4.03,-5.19,342,449,418,467,263,11
1496,0.86,-0.33,0.42,-2.5,-6.16,-3.23,340,450,424,467,262,11
1497,0.86,-0.33,0.42,2.5,-3.36,-1.83,345,450,417,467,262,11
1498,0.86,-0.34,0.42,3.3,-2.99,-1.71,339,443,420,470,265,11
1499,0.86,-0.34,0.42,5.37,-12.88,1.65,343,450,424,466,264,11
1500,0.85,-0.34,0.42,0.12,-2.62,-3.11,342,452,421,467,261,11
1501,0.85,-0.33,0.43,-0.18,-3.72,-2.93,345,452,421,470,255,11
1502,0.84,-0.47,0.3,5.49,-7.02,-3.05,278,461,422,463,311,11
1503,0.83,-0.48,0.3,1.1,-3.23,-4.15,276,464,424,469,310,11
1504,0.8,-0.48,0.32,3.91,-5.68,-1.4,278,459,425,468,314,11
1505,0.85,-0.45,0.3,-14.22,3.23,-2.44,270,463,428,466,316,11
1506,0.86,-0.48,0.25,16.54,-10.68,5.8,277,460,423,466,320,11
1507,0.8,-0.46,0.4,16.48,-14.77,7.45,272,463,420,471,309,11
1508,0.85,-0.38,0.36,8.42,-8.73,3.48,272,463,423,473,301,11
1509,0.84,-0.45,0.32,4.46,-0.92,0.98,272,462,424,473,299,11
1510,0.84,-0.45,0.33,-5.37,4.21,-3.6,271,474,425,470,304,11
1511,0.84,-0.46,0.36,6.16,-5.86,-0.67,275,461,426,467,303,11
1512,0.84,-0.44,0.37,-4.76,-3.11,-4.15,275,461,422,469,307,11
1513,0.85,-0.42,0.35,-5.07,4.82,-4.76,286,464,428,469,305,11
1514,0.84,-0.42,0.44,8.3,22.34,5.43,276,462,436,469,305,11
1515,0.73,-0.45,0.54,-1.89,5.68,4.64,277,460,422,469,309,11
1516,0.79,-0.42,0.54,-3.78,1.59,-0.61,273,465,424,472,306,11
1517,0.68,-0.55,0.44,-4.46,1.89,-2.44,281,462,432,476,306,11
1518,0.77,-0.51,0.39,-8.12,0.31,-2.62,286,462,424,471,309,11
1519,0.81,-0.46,0.41,-12.02,-3.17,9.22,268,461,427,472,310,11
1520,0.72,-0.56,0.47,-4.09,-0.79,5.55,270,459,426,471,305,11
1521,0.68,-0.6,0.4,1.04,1.77,-3.78,274,456,427,478,309,11
1522,0.8,-0.53,0.35,-1.53,-7.87,0.73,270,458,425,472,313,11
1523,0.7,-0.61,0.38,0.43,-2.81,4.39,274,460,427,473,312,11
1524,0.71,-0.6,0.44,-2.26,5.19,-1.59,272,459,426,467,309,11
1525,0.71,-0.6,0.38,10.74,-7.02,-0.37,280,458,429,473,312,11
1526,0.66,-0.63,0.42,-4.46,-2.08,-0.18,273,462,427,475,309,11
1527,0.68,-0.63,0.37,-8.0,0.55,-4.58,276,457,428,470,308,11
1528,0.7,-0.62,0.37,2.62,-3.36,-1.89,275,457,425,469,309,11
1529,0.68,-0.64,0.4,4.94,-7.14,-1.34,275,460,430,472,321,11
1530,0.69,-0.62,0.39,-4.09,-2.38,-4.33,274,463,429,468,313,11
1531,0.68,-0.63,0.39,-1.89,0.18,-2.14,275,460,425,460,315,11
1532,0.67,-0.64,0.39,-1.04,-3.97,-2.87,275,460,425,464,314,11
1533,0.64,-0.64,0.44,4.88,-6.04,-2.32,281,459,427,469,315,11
1534,0.73,-0.56,0.34,-2.2,-20.51,-29.48,274,461,430,466,316,11
1535,0.76,-0.4,0.35,21.18,6.1,7.51,270,461,427,460,311,11
1536,0.77,-0.5,0.33,-3.48,-0.98,8.42,280,471,430,469,315,11
1537,0.86,-0.53,0.31,3.42,-8.06,-4.03,275,461,426,469,315,11
1538,0.79,-0.53,0.33,4.58,12.21,-14.22,275,464,424,473,320,11
1539,0.77,-0.51,0.43,-2.44,3.42,-1.83,297,463,428,465,318,11
1540,0.8,-0.52,0.35,1.71,-6.84,-2.56,277,467,430,465,318,11
1541,0.77,-0.51,0.4,2.99,-4.46,-0.12,281,467,424,470,318,11
1542,0.78,-0.51,0.39,4.76,-5.0,-1.65,279,460,430,472,321,11
1543,0.79,-0.51,0.41,-5.19,-3.78,-3.11,279,463,429,469,315,11
1544,0.78,-0.51,0.42,-2.69,-2.56,-1.77,281,466,428,470,318,11
1545,0.77,-0.5,0.41,0.06,-3.48,-2.38,278,462,432,467,319,11
1546,0.76,-0.51,0.42,-1.95,-0.24,-2.81,280,463,430,469,321,11
1547,0.79,-0.51,0.38,1.16,-4.15,-3.54,277,463,430,468,319,11
1548,0.76,-0.5,0.4,-0.73,-3.91,-2.56,278,463,432,467,324,11
1549,0.77,-0.5,0.4,0.49,-3.48,-2.38,283,464,444,471,321,11
1550,0.75,-0.51,0.4,3.97,-5.43,-2.38,301,462,429,475,321,11
1551,0.86,-0.5,0.29,12.45,-18.43,-29.24,280,467,428,475,320,11
1552,0.81,-0.39,0.38,7.57,-6.35,-3.11,282,460,427,470,322,11
1553,0.79,-0.44,0.38,-4.94,-0.12,-3.05,283,466,429,475,323,11
1554,0.85,-0.41,0.35,4.03,-3.05,0.61,284,466,425,475,323,11
1555,0.84,-0.43,0.36,-2.69,-3.48,-2.08,282,469,427,470,323,11
1556,0.84,-0.42,0.37,5.13,-3.72,-1.16,282,463,429,472,321,11
1557,0.82,-0.45,0.39,-1.95,-1.83,-3.23,284,466,430,471,323,11
1558,0.81,-0.43,0.39,-4.46,-3.42,-3.66,281,464,430,475,321,11
1559,0.81,-0.46,0.38,3.78,-2.93,-2.99,281,464,428,476,323,11
1560,0.81,-0.46,0.41,-5.92,-4.03,-3.23,281,460,427,471,325,11
1561,0.76,-0.51,0.32,0.37,-3.42,3.91,285,465,431,470,325,11
1562,0.79,-0.47,0.41,-7.93,1.83,-1.71,285,467,432,474,326,11
1563,0.82,-0.47,0.35,-0.31,-4.27,-4.46,296,462,431,463,326,11
1564,0.81,-0.54,0.31,-9.7,5.43,-5.68,287,464,425,473,326,11
1565,0.79,-0.56,0.35,-2.81,-10.93,3.72,286,464,433,472,326,11
1566,0.79,-0.55,0.3,10.5,-8.73,0.12,285,465,426,465,325,11
1567,0.77,-0.48,0.37,1.71,-0.24,-8.42,284,466,429,471,329,11
1568,0.87,-0.5,0.31,8.61,-13.06,2.5,286,467,431,469,328,11
1569,0.83,-0.47,0.34,0.12,-5.19,-1.83,286,465,431,472,330,11
1570,0.91,-0.49,0.19,0.24,-18.62,-7.2,282,466,430,469,328,11
1571,0.82,-0.43,0.33,1.22,-4.76,-3.72,288,468,431,471,327,11
1572,0.78,-0.45,0.37,-6.29,9.46,-7.57,285,467,431,470,330,11
1573,0.91,-0.42,0.34,8.12,-17.15,-10.8,282,467,431,484,331,11
1574,0.87,-0.41,0.34,0.37,-2.93,-4.7,288,465,427,467,332,11
1575,0.87,-0.44,0.31,4.27,-1.28,0.24,293,464,429,470,332,11
1576,0.84,-0.42,0.35,-1.71,-2.99,-1.59,286,462,428,468,334,11
1577,0.83,-0.44,0.33,-0.92,-1.71,-0.92,286,463,431,469,332,11
1578,0.83,-0.46,0.34,0.31,-3.17,-2.99,287,466,427,470,333,11
1579,0.84,-0.45,0.33,0.67,-1.59,-1.89,277,471,425,472,330,11
1580,0.81,-0.47,0.33,-3.42,-2.32,-3.66,286,467,426,471,330,11
1581,0.85,-0.46,0.33,-2.14,-4.21,-5.55,287,467,428,473,331,11
1582,0.82,-0.45,0.36,2.14,-1.28,-0.31,285,468,426,475,331,11
1583,0.82,-0.47,0.34,-0.06,-2.08,-3.6,288,465,428,470,328,11
1584,0.81,-0.49,0.34,0.37,-5.86,0.49,292,468,425,475,332,11
1585,0.82,-0.46,0.36,2.32,-1.04,-2.44,294,469,423,471,329,11
1586,0.83,-0.44,0.34,2.81,-3.72,-3.42,291,469,423,473,328,11
1587,0.82,-0.45,0.34,-2.14,-2.5,-2.5,293,469,427,472,329,11
1588,0.81,-0.44,0.39,-3.11,-0.61,-1.34,292,465,426,471,332,11
1589,0.83,-0.47,0.34,-0.73,-4.39,-2.69,294,466,422,468,332,11
1590,0.81,-0.47,0.36,-0.92,-2.62,-2.81,292,466,426,471,331,11
1591,0.83,-0.46,0.35,0.61,-0.73,-2.01,290,466,423,471,331,11
1592,0.83,-0.44,0.37,0.49,-1.04,0.98,294,465,421,467,331,11
1593,0.8,-0.48,0.36,-0.92,0.37,-0.55,304,465,424,472,331,11
1594,0.81,-0.48,0.35,0.61,-2.62,-2.5,293,471,424,475,331,11
1595,0.79,-0.48,0.36,3.78,-5.68,-2.87,306,468,427,474,331,11
1596,0.81,-0.47,0.35,4.09,-3.91,-2.32,295,463,427,474,333,11
1597,0.8,-0.47,0.39,1.53,-2.26,-2.81,293,462,426,466,335,11
1598,0.8,-0.46,0.36,-2.62,-3.42,-3.23,294,469,426,473,331,11
1599,0.82,-0.49,0.35,-3.3,-3.11,-3.91,294,464,425,473,333,11
1600,0.82,-0.45,0.38,2.99,-2.93,-2.99,297,462,427,471,332,11
1601,0.81,-0.51,0.33,-1.59,-3.72,-2.87,294,468,422,475,333,11
1602,0.79,-0.48,0.35,5.37,-3.48,-3.23,292,466,422,472,330,11
1603,0.87,-0.37,0.4,2.44,-4.21,-0.67,295,466,426,476,329,11
1604,0.85,-0.4,0.38,1.89,-3.97,-0.98,296,463,424,477,332,11
1605,0.85,-0.39,0.37,1.59,-2.62,-2.69,295,464,425,472,334,11
1606,0.86,-0.41,0.37,1.71,-3.6,-3.42,299,464,424,473,329,11
1607,0.85,-0.38,0.37,2.75,-3.91,-2.26,295,467,423,468,332,11
1608,0.84,-0.38,0.39,-1.59,-2.2,-3.42,297,463,422,476,332,11
1609,0.86,-0.39,0.36,4.15,-4.76,-1.4,297,465,424,477,335,11
1610,0.84,-0.39,0.37,1.34,-2.2,-1.95,296,469,423,471,333,11
1611,0.85,-0.4,0.37,0.73,-3.66,-4.52,297,469,425,477,328,11
1612,0.87,-0.38,0.36,-1.22,-3.66,-2.62,296,466,422,477,334,11
1613,0.86,-0.4,0.37,2.14,-3.85,-1.22,295,466,419,472,331,11
1614,0.83,-0.4,0.36,-2.08,-1.22,-4.52,299,466,421,473,329,11
1615,0.85,-0.38,0.38,2.99,-2.08,-2.44,301,466,423,474,334,11
1616,0.84,-0.39,0.37,1.65,-3.05,-3.11,295,462,421,477,333,11
1617,0.85,-0.39,0.36,-1.04,-3.54,-2.75,297,465,422,477,334,11
1618,0.85,-0.4,0.37,-1.28,-3.91,-1.59,299,466,422,474,333,11
1619,0.85,-0.39,0.38,1.59,-3.11,-1.22,299,462,425,474,332,11
1620,0.85,-0.41,0.39,-0.61,-0.79,-6.9,294,465,426,473,333,11
1621,0.86,-0.35,0.37,4.33,2.56,4.46,299,466,422,475,334,11
1622,0.8,-0.42,0.41,-0.24,-3.66,-1.65,296,463,425,475,333,11
1623,0.9,-0.38,0.36,-6.47,3.48,-3.72,294,460,426,473,335,11
1624,0.83,-0.43,0.36,-6.1,-0.43,-0.55,298,464,426,472,334,11
1625,0.82,-0.44,0.35,1.28,0.06,-0.06,297,466,425,476,337,11
1626,0.84,-0.44,0.36,-2.99,-1.4,-3.48,305,465,427,474,334,11
1627,0.81,-0.45,0.37,4.58,-3.3,-0.31,302,465,429,477,340,11
1628,0.81,-0.46,0.38,1.71,-2.75,-1.65,300,468,426,472,335,11
1629,0.84,-0.41,0.37,-3.91,-9.22,-16.05,297,462,427,471,339,11
1630,0.79,-0.5,0.34,1.16,-4.88,3.6,298,464,426,472,337,11
1631,0.73,-0.5,0.45,16.54,-14.34,4.64,298,468,427,473,337,11
1632,0.77,-0.43,0.41,2.01,-2.93,-4.58,295,467,426,473,325,11
1633,0.87,-0.48,0.28,3.97,-11.78,-1.53,301,467,426,477,311,11
1634,0.86,-0.46,0.29,-13.61,1.77,-11.17,298,466,425,475,262,11
1635,0.84,-0.51,0.25,-20.94,9.83,-6.04,298,465,425,471,297,11
1636,0.81,-0.46,0.3,7.45,-2.93,-0.61,298,477,430,472,296,11
1637,0.91,-0.39,0.29,1.89,14.89,1.1,301,467,427,473,306,11
1638,0.7,-0.49,0.52,-31.92,-16.11,-37.66,301,469,431,470,301,11
1639,0.9,-0.36,0.27,3.11,-6.65,1.46,299,467,428,477,301,11
1640,0.9,-0.41,0.21,18.55,13.43,2.38,301,463,428,471,301,11
1641,0.84,-0.44,0.4,14.83,12.63,7.26,297,464,429,472,305,11
1642,0.86,-0.39,0.52,-16.24,0.24,-0.37,301,465,430,462,309,11
1643,0.69,-0.55,0.32,21.79,7.75,-6.29,311,464,427,462,310,11
1644,0.79,-0.44,0.44,-15.75,-1.46,-11.96,300,465,425,460,309,11
1645,0.87,-0.43,0.36,0.49,-11.23,-2.69,300,462,424,465,309,11
1646,0.83,-0.42,0.38,7.14,-8.97,0.73,298,460,428,464,313,11
1647,0.83,-0.4,0.43,-29.66,-1.4,-23.01,300,464,428,466,311,11
1648,0.75,-0.56,0.29,-15.5,0.73,-15.69,300,466,426,469,311,11
1649,0.89,-0.45,0.33,5.68,0.0,6.35,300,465,428,468,313,11
1650,0.79,-0.45,0.35,4.46,-0.18,0.43,295,471,432,467,315,11
1651,0.84,-0.44,0.31,2.99,-4.52,-1.22,299,465,431,468,314,11
1652,0.8,-0.47,0.36,-0.55,-2.01,-2.87,295,467,430,471,312,11
1653,0.82,-0.47,0.33,0.49,-1.71,-2.5,296,467,429,467,312,11
1654,0.82,-0.47,0.33,1.59,-3.3,-2.69,298,465,428,463,313,11
1655,0.82,-0.48,0.33,1.34,-2.99,-2.01,301,465,431,467,315,11
1656,0.83,-0.44,0.33,-0.49,-0.12,-1.1,300,465,430,467,314,11
1657,0.85,-0.54,0.27,13.49,-22.28,5.62,303,467,430,467,309,11
1658,0.83,-0.46,0.27,10.19,-6.59,1.34,300,466,433,466,310,11
1659,0.8,-0.45,0.46,15.93,2.32,9.03,319,464,429,462,310,11
1660,0.87,-0.46,0.32,3.78,-6.53,-0.85,303,466,430,470,314,11
1661,0.82,-0.44,0.37,5.55,-3.48,-0.18,299,483,430,470,313,11
1662,0.83,-0.47,0.39,4.09,11.23,1.1,301,466,430,469,316,11
1663,0.84,-0.44,0.37,1.34,-5.62,-1.71,301,470,427,469,314,11
1664,0.77,-0.54,0.38,-17.58,-2.75,6.47,303,468,427,469,316,11
1665,0.81,-0.43,0.36,18.49,-14.34,-17.7,300,462,428,472,311,11
1666,0.8,-0.38,0.38,13.79,-1.71,-15.93,300,467,426,469,314,11
1667,0.85,-0.21,0.42,-2.26,1.1,-0.12,302,463,433,466,316,11
1668,0.86,-0.27,0.4,-5.37,-6.77,3.11,302,467,430,471,313,11
1669,0.94,-0.2,0.38,-1.46,-6.29,-6.1,338,469,430,467,316,11
1670,0.97,-0.12,0.39,11.96,3.42,-20.32,299,468,428,469,317,11
1671,0.89,-0.21,0.42,-3.78,-6.35,13.43,302,465,433,467,315,11
1672,0.9,-0.18,0.4,-6.41,-8.48,6.29,297,467,430,470,315,11
1673,0.95,-0.26,0.37,8.0,0.73,-8.79,301,467,430,467,316,11
1674,0.88,-0.31,0.39,3.72,-1.95,-5.43,299,465,432,469,316,11
1675,0.9,-0.26,0.34,-4.64,-9.52,9.09,304,468,430,470,315,11
1676,0.89,-0.29,0.39,-0.73,-2.08,-2.81,300,467,430,467,315,11
1677,0.91,-0.3,0.33,-7.08,-5.31,6.41,303,468,430,467,313,11
1678,0.86,-0.31,0.38,7.08,-5.0,0.18,299,468,427,468,315,11
1679,0.96,-0.25,0.37,-1.22,-0.18,-7.87,302,469,429,469,313,11
1680,0.87,-0.29,0.39,4.88,-4.03,-2.56,301,469,431,468,317,11
1681,0.91,-0.28,0.35,-8.24,-5.25,4.21,319,470,437,473,314,11
1682,0.89,-0.32,0.31,6.16,-7.57,0.24,301,468,432,469,318,11
1683,0.9,-0.32,0.38,2.44,-3.6,-4.64,300,470,432,472,315,11
1684,0.92,-0.33,0.3,0.12,-2.87,-3.85,302,467,430,472,317,11
1685,0.87,-0.35,0.36,-1.1,-1.71,-3.42,299,469,431,467,320,11
1686,0.94,-0.31,0.28,4.09,-3.97,-2.69,314,467,428,469,313,11
1687,0.9,-0.33,0.32,-1.53,-1.22,-4.39,304,470,432,473,317,11
1688,0.9,-0.32,0.31,4.58,-2.99,-4.27,301,470,432,476,319,11
1689,0.93,-0.3,0.31,1.28,-3.91,-2.93,303,467,431,469,317,11
1690,0.91,-0.3,0.34,-0.79,-0.55,-4.21,303,464,429,467,317,11
1691,0.87,-0.31,0.36,-1.77,-0.85,-4.88,298,469,429,470,318,11
1692,0.93,-0.3,0.31,2.01,-4.88,-1.04,303,468,433,470,319,11
1693,0.93,-0.3,0.32,-0.85,-1.1,-3.6,300,468,433,472,317,11
1694,0.87,-0.31,0.34,5.37,-2.14,-1.04,301,469,430,469,317,11
1695,0.9,-0.29,0.33,-1.83,-3.11,0.18,303,468,432,469,318,11
1696,0.91,-0.25,0.32,4.64,-2.5,0.12,300,463,430,466,319,11
1697,0.92,-0.27,0.34,-2.87,-2.69,-5.0,301,464,428,470,316,11
1698,0.92,-0.26,0.32,5.13,-3.66,0.12,305,467,431,465,322,11
1699,0.9,-0.27,0.34,-2.87,-2.38,-6.53,300,469,430,470,324,11
1700,0.91,-0.25,0.36,-2.99,0.0,-2.44,308,469,428,471,321,11
1701,0.92,-0.25,0.33,1.77,-4.76,-2.62,300,469,430,468,321,11
1702,0.91,-0.25,0.33,1.4,-1.59,-1.1,303,468,428,467,318,11
1703,0.88,-0.26,0.36,0.31,-1.71,-3.17,303,470,432,473,319,11
1704,0.95,-0.25,0.28,0.12,-2.01,-2.01,302,465,430,472,320,11
1705,0.88,-0.28,0.37,-2.01,-3.66,-4.39,306,469,431,466,319,11
1706,0.92,-0.25,0.32,-1.22,-1.4,-3.72,304,474,432,466,319,11
1707,0.89,-0.25,0.36,2.93,-5.74,-2.44,306,470,429,470,320,11
1708,0.94,-0.25,0.32,-0.79,-1.65,-3.36,303,463,429,467,324,11
1709,0.91,-0.25,0.34,2.87,-5.13,-3.23,315,464,427,473,318,11
1710,0.93,-0.24,0.32,1.4,-1.22,-2.14,301,467,430,470,320,11
1711,0.9,-0.24,0.38,-2.93,-2.56,-3.11,333,476,432,466,320,11
1712,0.92,-0.24,0.33,2.14,0.31,-1.04,306,469,431,473,321,11
1713,0.91,-0.24,0.35,1.28,-5.68,-3.6,309,468,433,473,319,11
1714,0.94,-0.23,0.31,0.92,-2.26,-2.14,306,466,428,473,322,11
1715,0.89,-0.25,0.37,-5.07,0.37,-6.1,305,467,426,471,326,11
1716,0.93,-0.24,0.35,-0.98,-2.62,-2.44,304,467,433,474,324,11
1717,0.9,-0.25,0.37,1.16,-2.87,-2.75,303,466,433,481,323,11
1718,0.93,-0.22,0.32,3.97,-1.83,-2.44,305,467,432,475,325,11
1719,0.92,-0.23,0.36,4.21,-3.85,-1.59,302,464,429,471,326,11
1720,0.91,-0.24,0.37,-0.85,-0.24,-2.08,304,470,428,470,326,11
1721,0.9,-0.23,0.36,4.33,-2.38,-0.85,306,468,428,475,324,11
1722,0.9,-0.23,0.36,-3.72,1.28,-4.15,306,467,433,472,325,11
1723,0.89,-0.24,0.36,4.7,-6.23,1.1,331,471,432,471,327,11
1724,0.93,-0.24,0.33,0.06,-3.17,-2.26,305,468,430,472,326,11
1725,0.9,-0.24,0.37,-2.5,-1.46,-3.6,307,466,427,472,327,11
1726,0.94,-0.23,0.32,-0.61,-5.07,0.61,304,467,431,471,323,11
1727,0.9,-0.27,0.37,-1.1,-0.12,-2.38,304,470,430,466,324,11
1728,0.93,-0.25,0.34,5.0,-6.47,3.97,302,467,429,481,325,11
1729,0.92,-0.29,0.32,-2.62,-1.1,-2.93,309,468,433,471,330,11
1730,0.92,-0.29,0.32,-1.04,-2.93,-3.78,306,471,430,469,329,11
1731,0.9,-0.3,0.31,0.73,-6.23,0.92,306,470,431,472,327,11
1732,0.9,-0.32,0.31,-1.65,-0.73,-3.97,304,468,432,477,327,11
1733,0.91,-0.3,0.32,-0.31,-1.53,-3.6,301,467,425,473,329,11
1734,0.9,-0.3,0.34,1.89,-2.14,-3.05,299,467,430,475,330,11
1735,0.97,-0.27,0.29,-0.73,-5.25,-2.93,298,464,428,468,331,11
1736,0.91,-0.28,0.33,4.46,-4.03,-0.79,299,467,431,472,331,11
1737,0.91,-0.28,0.34,-3.72,-1.65,-3.23,304,472,430,475,330,11
1738,0.89,-0.29,0.32,2.81,-5.13,-0.79,294,467,426,472,329,11
1739,0.92,-0.3,0.32,-4.39,-15.08,-6.53,294,469,433,474,329,11
1740,0.89,-0.29,0.3,0.55,-8.85,-1.65,298,467,429,468,327,11
1741,0.97,-0.31,0.27,4.39,-8.3,4.33,299,471,429,472,331,11
1742,0.9,-0.32,0.3,-9.52,-5.37,-2.38,299,467,431,469,331,11
1743,0.92,-0.28,0.29,3.97,-4.7,-7.81,291,468,433,473,330,11
1744,0.95,-0.22,0.27,1.53,-1.46,5.74,299,467,431,469,332,11
1745,0.92,-0.3,0.34,-9.83,-1.1,2.32,297,466,427,473,329,11
1746,0.93,-0.39,0.27,6.59,-6.16,-2.81,299,468,431,477,331,11
1747,0.9,-0.3,0.32,2.32,-5.31,1.34,298,467,430,477,331,11
1748,0.87,-0.34,0.32,4.09,2.56,-1.95,298,469,430,473,331,11
1749,0.88,-0.31,0.31,1.22,-6.23,-0.24,301,466,432,475,333,11
1750,0.91,-0.33,0.26,1.04,0.98,1.1,312,470,431,475,334,11
1751,0.89,-0.36,0.31,-2.99,-3.42,-4.09,301,465,433,468,335,11
1752,0.9,-0.36,0.34,-6.59,8.12,-4.21,303,465,430,471,333,11
1753,0.9,-0.35,0.35,-0.67,-3.72,-3.54,298,468,428,471,335,11
1754,0.83,-0.34,0.34,-6.47,-5.25,-7.69,301,462,430,479,332,11
1755,0.91,-0.31,0.24,1.53,-6.77,1.04,300,466,428,482,336,11
1756,0.89,-0.34,0.28,-0.37,2.2,0.24,301,468,432,476,334,11
1757,0.9,-0.36,0.28,0.06,-0.67,-0.12,302,468,433,474,334,11
1758,0.91,-0.36,0.27,0.73,-2.75,-1.89,302,463,430,478,330,11
1759,0.88,-0.37,0.3,-2.32,-2.14,-2.01,302,467,429,475,334,11
1760,0.88,-0.37,0.3,0.61,-2.93,-1.4,300,468,430,474,334,11
1761,0.89,-0.38,0.27,-0.18,-1.95,-2.14,302,466,433,477,334,11
1762,0.89,-0.36,0.31,-1.28,-2.26,-3.42,304,466,428,479,336,11
1763,0.9,-0.37,0.29,3.3,-4.52,-1.83,303,467,433,484,335,11
1764,0.87,-0.37,0.33,-1.04,-0.85,-3.36,303,469,429,477,332,11
1765,0.9,-0.37,0.3,-0.73,-2.93,-3.23,309,470,430,474,336,11
1766,0.92,-0.36,0.28,-1.83,-2.32,-4.21,304,468,428,476,335,11
1767,0.9,-0.36,0.29,0.67,-2.5,-2.69,306,465,429,469,334,11
1768,0.88,-0.37,0.3,-0.18,-3.11,-3.3,302,469,433,475,338,11
1769,0.87,-0.37,0.34,-1.59,-1.4,-5.92,303,470,430,475,336,11
1770,0.91,-0.35,0.28,0.24,-3.85,-1.77,302,470,429,475,334,11
1771,0.94,-0.36,0.28,1.34,-10.99,1.77,302,468,430,478,334,11
1772,0.9,-0.37,0.28,-1.28,-2.5,-2.62,306,464,428,471,339,11
1773,0.87,-0.37,0.32,-6.84,-0.49,-5.43,302,467,427,468,338,11
1774,0.9,-0.37,0.28,0.31,-4.15,-2.01,305,467,429,468,340,11
1775,0.87,-0.39,0.32,1.95,-2.56,-1.71,304,469,429,466,340,11
1776,0.88,-0.39,0.33,-9.58,-5.55,-6.41,305,468,429,468,340,11
1777,0.88,-0.37,0.32,3.72,-1.4,-2.01,302,466,428,470,342,11
1778,0.9,-0.36,0.27,-0.55,-1.95,-4.7,304,466,428,478,341,11
1779,0.89,-0.36,0.29,1.71,-3.11,-1.71,304,468,425,473,340,11
1780,0.86,-0.38,0.33,0.61,-2.5,-1.34,307,467,428,471,340,11
1781,0.89,-0.38,0.29,0.85,-2.56,-2.93,312,465,430,477,342,11
1782,0.85,-0.38,0.32,-1.89,-0.37,-3.17,303,469,430,471,342,11
1783,0.9,-0.37,0.28,1.59,-2.5,-2.93,307,469,430,472,340,11
1784,0.89,-0.38,0.3,-5.37,-2.87,-5.37,307,466,431,473,344,11
1785,0.88,-0.38,0.3,0.67,-3.97,-2.81,305,469,430,472,341,11
1786,0.9,-0.37,0.28,-2.08,-2.5,-3.3,308,469,429,474,343,11
1787,0.89,-0.38,0.29,-0.73,-3.23,-2.44,306,468,430,474,342,11
1788,0.88,-0.39,0.27,2.56,-4.15,0.18,307,467,433,470,343,11
1789,0.86,-0.38,0.32,1.83,-1.77,-0.85,308,470,428,477,340,11
1790,0.89,-0.39,0.29,-2.01,-4.94,-2.44,308,465,432,472,342,11
1791,0.85,-0.39,0.33,9.4,-7.51,-1.16,308,465,429,473,343,11
1792,0.9,-0.4,0.28,-1.59,-2.81,1.16,307,468,432,474,343,11
1793,0.89,-0.39,0.31,-4.39,-1.77,-3.91,308,470,429,477,345,11
1794,0.91,-0.39,0.25,0.79,-6.41,-0.55,305,471,430,476,341,11
1795,0.88,-0.42,0.3,-1.4,-3.23,-1.4,305,468,430,474,336,11
1796,0.9,-0.4,0.25,3.36,-4.7,-0.98,304,468,435,469,324,11
1797,0.85,-0.41,0.3,-0.79,-2.38,-2.81,304,473,427,474,319,11
1798,0.92,-0.4,0.22,2.56,-5.98,-1.04,305,469,430,476,317,11
1799,0.87,-0.42,0.32,-5.74,-2.5,-5.13,306,469,434,478,320,11
1800,0.9,-0.4,0.25,0.24,-4.03,-2.44,303,468,433,472,323,11
1801,0.86,-0.42,0.3,0.49,-2.5,-2.87,307,471,431,475,323,11
1802,0.9,-0.39,0.24,-0.98,-2.2,-3.78,306,467,429,475,323,11
1803,0.86,-0.4,0.29,3.48,-2.56,-1.53,307,468,428,475,322,11
1804,0.9,-0.4,0.24,2.75,-2.32,-2.26,308,468,427,476,319,11
1805,0.88,-0.41,0.29,2.14,-4.94,-0.43,307,467,432,479,323,11
1806,0.92,-0.38,0.21,4.46,-4.27,-2.38,307,469,430,476,324,11
1807,0.87,-0.41,0.3,-2.14,-2.14,-2.62,306,469,432,477,324,11
1808,0.9,-0.41,0.24,4.09,-2.08,-0.61,310,472,430,476,325,11
1809,0.85,-0.42,0.3,-1.89,-2.01,-3.3,309,466,433,471,324,11
1810,0.86,-0.42,0.27,4.27,-3.66,0.43,309,466,427,472,323,11
1811,0.86,-0.42,0.29,-5.74,-1.83,-4.76,309,468,431,479,319,11
1812,0.87,-0.41,0.27,1.53,-4.58,-1.71,311,468,430,476,314,11
1813,0.87,-0.42,0.28,-2.99,-0.18,-4.03,301,467,427,470,314,11
1814,0.89,-0.41,0.25,3.85,-4.15,-1.59,307,467,434,471,313,11
1815,0.88,-0.41,0.29,-8.79,3.23,-4.88,298,467,430,490,315,11
1816,0.89,-0.41,0.27,2.56,-4.39,-1.04,300,466,430,477,315,11
1817,0.87,-0.42,0.29,0.92,-1.53,-1.89,298,466,430,475,319,11
1818,0.92,-0.4,0.2,0.49,-5.68,-3.23,306,467,441,475,319,11
1819,0.89,-0.42,0.27,-3.6,-1.04,-5.25,300,463,430,479,322,11
1820,0.91,-0.4,0.21,7.57,-2.2,0.12,305,469,428,470,324,11
1821,0.83,-0.41,0.33,-3.3,-2.14,-3.48,308,468,429,476,326,11
1822,0.88,-0.41,0.26,0.67,-3.85,-1.4,308,469,429,473,324,11
1823,0.88,-0.42,0.25,-4.94,-3.36,-3.78,305,467,429,475,324,11
1824,0.88,-0.42,0.27,3.42,-3.17,-0.98,307,472,432,476,325,11
1825,0.9,-0.42,0.24,5.62,-4.39,-1.59,307,469,429,473,326,11
1826,0.86,-0.43,0.27,5.68,-3.78,-1.89,309,470,429,473,323,11
1827,0.89,-0.38,0.26,10.31,-5.19,-1.59,303,468,431,474,327,11
1828,0.84,-0.4,0.33,-0.92,-0.92,-2.81,307,469,429,472,324,11
1829,0.88,-0.43,0.3,1.1,-3.85,-2.38,307,466,432,477,325,11
1830,0.84,-0.42,0.33,1.77,-3.36,-1.53,304,465,428,472,327,11
1831,0.87,-0.4,0.28,-1.83,-3.6,-3.6,306,469,431,471,327,11
1832,0.85,-0.43,0.32,-0.79,-0.67,-2.26,310,469,432,474,326,11
1833,0.9,-0.41,0.25,-1.4,-4.27,-2.62,310,468,426,472,330,11
1834,0.86,-0.44,0.3,0.67,-3.85,-2.38,307,470,430,471,327,11
1835,0.87,-0.42,0.27,0.06,-2.75,-3.23,308,470,429,474,331,11
1836,0.84,-0.43,0.33,-1.46,-3.48,-2.2,310,471,427,466,331,11
1837,0.87,-0.43,0.26,2.75,-4.46,-1.71,307,478,429,476,330,11
1838,0.86,-0.42,0.3,1.1,-2.01,-3.36,320,471,430,474,331,11
1839,0.9,-0.41,0.28,-6.35,-3.78,-6.65,307,469,429,470,329,11
1840,0.88,-0.42,0.29,-2.38,-2.32,-3.23,309,472,431,472,331,11
1841,0.84,-0.43,0.31,-7.02,-5.49,-5.0,308,467,430,472,331,11
1842,0.95,-0.44,0.23,8.97,-1.65,8.24,310,472,428,473,333,11
1843,0.81,-0.46,0.33,3.6,-6.84,-4.03,308,469,429,473,333,11
1844,0.87,-0.44,0.31,-5.19,-1.1,-5.37,308,466,424,472,334,11
1845,0.92,-0.44,0.25,1.89,-6.47,-4.82,308,469,433,472,334,11
1846,0.85,-0.43,0.31,0.67,-4.64,-1.1,309,472,433,476,337,11
1847,0.87,-0.43,0.29,1.53,-2.75,-1.04,309,470,430,475,333,11
1848,0.86,-0.45,0.31,-7.32,0.79,-6.47,308,470,431,474,337,11
1849,0.87,-0.43,0.27,4.52,-3.66,-0.49,308,469,430,474,332,11
1850,0.87,-0.43,0.28,0.12,-3.17,-2.32,307,470,431,472,337,11
1851,0.84,-0.44,0.32,-4.27,-3.48,-2.75,311,473,433,473,333,11
1852,0.85,-0.44,0.3,-0.06,-3.48,-2.14,309,468,430,473,335,11
1853,0.86,-0.44,0.28,5.37,-4.52,-0.18,312,470,433,477,334,11
1854,0.85,-0.44,0.3,-2.32,-0.37,-3.36,310,469,427,473,337,11
1855,0.86,-0.45,0.28,-1.1,-4.39,-2.2,310,472,429,477,334,11
1856,0.84,-0.45,0.3,-4.33,0.31,-5.31,310,473,429,477,332,11
1857,0.86,-0.45,0.3,-2.38,-2.32,-3.54,311,470,428,477,334,11
1858,0.84,-0.45,0.29,-1.53,-3.23,-3.91,308,471,429,472,332,11
1859,0.87,-0.44,0.28,3.17,-3.48,-2.62,309,472,433,470,335,11
1860,0.85,-0.44,0.3,-1.46,-1.83,-4.21,310,468,434,474,336,11
1861,0.85,-0.43,0.31,1.65,-3.54,-2.2,306,470,432,474,331,11
1862,0.86,-0.43,0.28,0.79,-2.75,-1.77,312,469,427,473,333,11
1863,0.89,-0.43,0.25,3.36,-4.64,-1.71,312,466,429,473,332,11
1864,0.84,-0.44,0.33,14.22,-4.21,-1.16,311,471,431,473,335,11
1865,0.87,-0.46,0.27,14.22,5.37,2.75,312,469,428,472,336,11
1866,0.86,-0.45,0.3,-0.55,-4.76,-2.69,310,472,430,475,336,11
1867,0.85,-0.44,0.31,0.43,-3.54,-2.2,309,471,428,473,336,11
1868,0.83,-0.44,0.33,1.04,-3.11,-2.14,313,471,430,472,337,11
1869,0.87,-0.43,0.28,3.54,-3.97,-2.2,313,471,429,474,335,11
1870,0.83,-0.43,0.35,-5.92,-1.71,-5.13,311,471,430,468,324,11
1871,0.86,-0.42,0.29,3.54,-5.13,-1.28,311,474,430,474,319,11
1872,0.87,-0.43,0.28,-4.09,-1.16,-4.82,311,466,433,473,314,11
1873,0.85,-0.44,0.3,3.66,-4.21,-0.85,312,473,434,473,314,11
1874,0.87,-0.42,0.26,-0.18,-5.0,-4.94,312,474,434,475,309,11
1875,0.82,-0.45,0.29,-7.32,-4.52,-6.9,313,471,431,476,313,11
1876,0.98,-0.32,0.13,-13.43,-6.96,-9.28,312,470,428,473,315,11
1877,0.81,-0.64,0.25,0.37,10.74,4.09,312,473,429,474,315,11
1878,0.92,-0.44,0.18,8.18,-9.95,0.61,311,473,432,482,313,11
1879,0.93,-0.38,0.19,1.22,-6.59,-7.2,313,472,433,480,317,11
1880,0.92,-0.38,0.14,0.06,-6.53,-7.08,329,472,428,475,314,11
1881,0.89,-0.4,0.17,1.04,-0.61,-2.69,316,472,429,478,318,11
1882,0.93,-0.4,0.13,4.58,-4.39,-0.24,314,469,430,472,315,11
1883,0.89,-0.41,0.18,0.0,0.98,-3.54,322,471,430,479,314,11
1884,0.91,-0.4,0.17,-2.32,-2.56,-3.54,313,468,431,474,317,11
1885,0.9,-0.4,0.17,-2.38,2.56,-5.0,315,470,429,472,314,11
1886,0.91,-0.39,0.17,9.28,-9.58,-0.73,306,466,432,477,317,11
1887,0.92,-0.39,0.16,-3.11,-2.26,-2.99,306,469,429,476,314,11
1888,0.89,-0.41,0.19,-2.26,-0.98,-3.11,311,468,432,476,318,11
1889,0.9,-0.4,0.19,-0.98,0.92,-2.62,309,469,430,478,318,11
1890,0.88,-0.4,0.2,-2.56,-0.18,-2.87,309,470,432,476,316,11
1891,0.92,-0.39,0.16,2.38,-3.48,-1.59,313,468,433,475,312,11
1892,0.92,-0.4,0.16,1.71,-3.05,-0.61,314,467,429,477,315,11
1893,0.93,-0.4,0.16,4.03,-4.03,-3.54,311,472,431,479,317,11
1894,0.91,-0.41,0.18,-0.85,-2.14,-3.72,313,469,430,479,318,11
1895,0.91,-0.39,0.16,0.61,-2.44,-4.33,311,472,433,480,319,11
1896,0.89,-0.4,0.21,-2.44,-1.53,-3.36,311,469,428,481,320,11
1897,0.92,-0.39,0.16,2.56,-4.76,-1.53,310,469,429,476,318,11
1898,0.95,-0.38,0.14,-4.46,-0.92,-4.94,309,473,429,472,325,11
1899,0.92,-0.38,0.18,0.06,-2.87,-3.54,312,469,430,474,325,11
1900,0.91,-0.38,0.19,-1.46,-0.37,-2.75,310,473,434,473,324,11
1901,0.92,-0.38,0.19,1.16,-3.97,-2.38,312,472,432,477,320,11
1902,0.9,-0.39,0.17,0.55,-1.77,-2.56,309,471,427,475,321,11
1903,0.94,-0.38,0.13,1.16,-5.31,-3.17,311,469,432,470,321,11
1904,0.87,-0.35,0.21,3.3,-1.95,-0.55,312,471,431,481,321,11
1905,0.9,-0.43,0.18,-6.23,-2.38,-3.85,313,472,432,481,322,11
1906,0.9,-0.39,0.18,2.01,-2.01,-2.5,312,469,432,472,320,11
1907,0.91,-0.39,0.18,3.54,-2.56,-1.34,311,468,443,473,323,11
1908,0.85,-0.4,0.21,-3.11,-5.25,-4.46,311,473,433,476,323,11
1909,0.9,-0.39,0.15,-5.62,-6.96,-5.13,311,468,433,473,324,11
1910,0.93,-0.38,0.1,-0.92,-5.0,-3.97,315,469,433,475,324,11
1911,0.94,-0.36,0.1,-0.24,-3.6,-0.92,307,470,431,479,318,11
1912,0.95,-0.37,0.08,3.91,-4.21,-0.92,312,469,432,478,318,11
1913,0.9,-0.4,0.17,-1.34,-2.87,-2.93,309,469,431,477,311,11
1914,0.94,-0.37,0.1,3.48,-5.62,-1.53,312,469,435,474,304,11
1915,0.89,-0.41,0.18,-2.5,0.24,-3.17,313,470,434,476,319,11
1916,0.92,-0.39,0.11,3.11,-3.72,-1.22,318,467,432,473,313,11
1917,0.88,-0.4,0.18,-1.28,3.05,-2.99,311,470,437,477,313,11
1918,0.93,-0.39,0.14,17.09,-8.3,6.77,313,469,435,480,318,11
1919,0.85,-0.43,0.24,4.7,-6.65,0.98,313,473,432,476,319,11
1920,0.9,-0.42,0.21,3.78,-2.14,-2.01,314,469,429,477,321,11
1921,0.91,-0.4,0.18,-5.19,-8.91,-9.16,313,473,433,478,315,11
1922,0.86,-0.41,0.23,-0.67,-3.78,-2.26,315,472,431,479,314,11
1923,0.9,-0.4,0.17,15.81,-1.1,1.89,314,471,432,477,317,11
1924,0.87,-0.4,0.25,-0.67,-1.59,-2.93,316,473,433,477,320,11
1925,0.89,-0.4,0.22,-2.01,-1.71,-2.44,312,472,432,478,322,11
1926,0.86,-0.4,0.25,-2.26,-1.28,-5.19,314,470,432,470,323,11
1927,0.86,-0.41,0.26,-1.34,-3.91,-1.53,315,468,431,472,323,11
1928,0.9,-0.41,0.2,1.1,-1.4,-0.79,316,487,432,475,323,11
1929,0.88,-0.43,0.24,-2.75,-4.33,-1.22,313,470,430,485,322,11
1930,0.87,-0.42,0.25,-2.87,-1.95,-3.23,317,471,433,476,321,11
1931,0.9,-0.41,0.22,0.61,-2.62,-3.17,318,473,432,475,321,11
1932,0.87,-0.43,0.26,-9.16,-4.52,-9.09,318,471,434,480,323,11
1933,0.89,-0.41,0.21,4.88,-3.11,-0.55,317,471,430,481,326,11
1934,0.88,-0.42,0.25,-4.88,1.28,-3.85,318,474,432,480,327,11
1935,0.87,-0.42,0.26,-4.21,-0.24,-4.15,317,471,433,477,324,11
1936,0.88,-0.43,0.23,-2.2,-4.39,-3.97,307,471,436,482,326,11
1937,0.88,-0.42,0.24,0.31,-0.92,-2.81,316,471,435,476,325,11
1938,0.87,-0.41,0.27,-3.91,-1.22,-4.09,313,468,439,477,322,11
1939,0.88,-0.41,0.25,1.65,-1.71,-1.59,316,474,432,476,321,11
1940,0.92,-0.39,0.18,9.34,-5.55,2.32,315,471,433,476,318,11
1941,0.89,-0.42,0.25,0.31,-3.17,-2.01,316,472,435,479,321,11
1942,0.86,-0.43,0.28,-3.6,-1.95,-4.58,316,472,431,482,322,11
1943,0.89,-0.42,0.22,6.16,-4.82,0.06,320,470,433,480,322,11
1944,0.89,-0.43,0.23,-2.2,-5.8,-3.48,316,473,431,477,322,11
1945,0.88,-0.42,0.25,-2.2,-1.89,-3.66,318,472,433,476,324,11
1946,0.85,-0.44,0.26,2.44,-3.66,-0.55,318,471,432,476,323,11
1947,0.85,-0.44,0.29,-5.49,-0.06,-6.23,315,475,433,475,325,11
1948,0.87,-0.42,0.25,3.6,-2.01,-1.46,318,472,435,479,324,11
1949,0.89,-0.41,0.27,-10.19,2.69,-5.31,317,470,431,478,324,11
1950,0.82,-0.45,0.35,18.8,1.95,17.09,317,471,429,474,324,11
1951,0.74,-0.52,0.43,6.04,-27.71,-8.54,316,470,435,475,325,11
1952,0.8,-0.53,0.3,-10.01,0.0,-8.61,317,467,433,479,328,11
1953,0.87,-0.44,0.28,5.31,-9.77,-0.24,317,472,431,475,327,11
1954,0.82,-0.47,0.32,2.5,-1.71,-1.83,317,472,432,479,327,11
1955,0.86,-0.47,0.28,1.4,-5.86,-2.5,314,470,432,478,326,11
1956,0.82,-0.46,0.35,-3.11,-0.18,-3.66,312,471,431,473,327,11
1957,0.82,-0.46,0.35,-6.23,0.92,-5.43,318,469,429,475,328,11
1958,0.85,-0.45,0.33,-0.24,-2.62,-5.13,314,470,426,479,328,11
1959,0.82,-0.46,0.36,-0.67,-0.67,-6.35,315,470,430,477,332,11
1960,0.84,-0.41,0.34,3.97,-3.97,-2.99,317,475,432,475,332,11
1961,0.83,-0.42,0.35,0.85,-4.76,-2.99,318,472,432,477,329,11
1962,0.87,-0.42,0.32,2.99,-4.15,-2.08,316,470,433,480,331,11
1963,0.84,-0.42,0.35,2.62,-3.48,-0.92,340,473,430,478,321,11
1964,0.84,-0.43,0.36,-1.46,-2.14,-2.69,316,469,432,473,330,11
1965,0.84,-0.42,0.35,2.26,-3.36,-2.08,318,487,434,472,329,11
1966,0.84,-0.43,0.36,-0.92,-1.59,-5.55,318,470,428,472,334,11
1967,0.87,-0.4,0.32,11.84,-8.97,2.5,312,472,426,473,329,11
1968,0.81,-0.43,0.4,-6.41,-1.34,-4.94,314,469,432,474,328,11
1969,0.81,-0.44,0.36,8.18,-1.53,0.67,311,471,431,480,326,11
1970,0.82,-0.42,0.36,5.55,-2.08,-1.83,315,473,431,476,321,11
1971,0.87,-0.42,0.38,-2.93,-0.67,-4.46,316,471,431,481,323,11
1972,0.83,-0.42,0.37,2.56,-2.56,-2.62,314,471,429,475,318,11
1973,0.85,-0.42,0.36,2.5,-2.81,-0.55,314,469,426,478,323,11
1974,0.86,-0.41,0.34,-0.49,-5.25,-3.48,315,470,433,480,321,11
1975,0.82,-0.42,0.39,0.79,-3.78,-2.26,317,470,428,481,321,11
1976,0.84,-0.41,0.34,0.0,-2.32,-4.88,313,471,430,476,323,11
1977,0.84,-0.42,0.37,2.32,-2.93,-1.04,318,471,434,476,322,11
1978,0.89,-0.4,0.31,4.21,-5.49,-1.65,314,469,433,475,321,11
1979,0.83,-0.43,0.39,-3.48,-1.16,-4.82,315,471,433,476,322,11
1980,0.84,-0.41,0.38,4.52,-3.11,0.0,316,472,434,480,323,11
1981,0.84,-0.41,0.36,2.44,-1.34,-4.03,315,471,432,477,318,11
1982,0.82,-0.41,0.38,1.28,-5.0,-1.77,312,469,433,477,321,11
1983,0.83,-0.41,0.36,1.28,-0.73,-4.52,307,468,432,476,324,11
1984,0.85,-0.41,0.35,1.71,-1.34,-0.37,316,473,432,476,324,11
1985,0.85,-0.4,0.35,4.94,-4.52,-0.85,309,465,435,481,322,11
1986,0.86,-0.41,0.35,1.46,-3.91,-3.36,310,472,431,476,324,11
1987,0.85,-0.41,0.39,1.59,-2.93,-1.95,312,469,432,472,323,11
1988,0.83,-0.4,0.38,-1.89,-2.69,-4.09,307,470,433,477,324,11
1989,0.84,-0.41,0.38,7.75,-1.1,4.76,312,470,436,477,326,11
1990,0.84,-0.42,0.41,1.34,-2.69,-2.32,314,469,432,477,324,11
1991,0.85,-0.4,0.39,-2.38,-2.2,-4.39,310,472,432,479,324,11
