,aX,aY,aZ,gX,gY,gZ,little,ring,middle,index,thumb,number
0,-0.01,-1.0,0.0,-4.88,0.06,-0.12,241,215,167,226,252,12
1,0.05,-1.0,-0.13,-9.4,-16.66,-1.34,242,216,170,221,249,12
2,0.03,-0.99,-0.06,7.39,-2.08,-6.41,246,218,169,228,252,12
3,-0.02,-0.99,-0.05,-1.83,-4.33,-3.42,242,217,171,226,252,12
4,0.03,-1.0,-0.05,-3.54,-3.54,4.88,243,218,168,227,257,12
5,0.0,-0.99,-0.02,-1.34,-2.56,-1.28,239,216,169,224,258,12
6,0.01,-1.0,-0.02,5.49,-6.23,1.34,240,218,172,227,254,12
7,-0.03,-0.99,0.01,13.98,-14.04,12.88,241,222,184,226,258,12
8,-0.11,-0.99,0.11,21.12,-24.05,7.39,242,219,172,229,259,12
9,-0.07,-0.99,0.08,-1.95,-5.8,-2.01,243,219,165,224,253,12
10,-0.11,-0.97,0.21,7.63,9.03,-4.88,243,223,173,228,254,12
11,-0.09,-0.98,0.2,1.71,-3.6,-5.43,247,223,170,225,256,12
12,0.02,-0.96,0.14,-36.25,-46.33,-8.18,241,225,169,232,257,12
13,-0.24,-1.01,0.04,-0.31,-184.02,23.5,235,221,170,227,251,12
14,-0.14,-0.99,0.01,8.18,55.6,-22.34,222,220,171,230,255,12
15,-0.06,-0.96,0.16,4.58,7.26,-6.41,217,221,174,231,257,12
16,-0.14,-0.99,0.1,-1.71,-2.62,-2.87,226,216,171,223,254,12
17,-0.3,-0.98,0.24,0.18,-98.57,8.36,215,216,174,227,253,12
18,-0.13,-0.99,0.09,-12.7,-4.46,-5.37,219,215,171,230,258,12
19,-0.21,-0.98,0.08,-4.88,-1.46,1.04,215,220,169,225,256,12
20,-0.15,-0.97,0.09,2.14,-1.95,-4.82,219,217,172,225,256,12
21,-0.14,-0.98,0.1,5.62,0.12,-2.93,218,220,164,228,254,12
22,-0.11,-0.99,0.11,4.27,1.71,-7.75,221,220,176,228,255,12
23,-0.03,-1.0,0.03,2.38,43.52,-10.31,221,219,174,230,256,12
24,-0.1,-0.98,0.21,31.01,70.31,-3.78,218,217,171,228,255,12
25,-0.11,-0.86,0.46,10.25,54.14,-56.46,214,221,176,230,257,12
26,0.47,-0.91,0.27,-37.35,19.29,-51.64,220,219,177,233,270,12
27,0.25,-0.95,0.27,9.77,0.12,3.42,219,218,173,226,259,12
28,0.25,-0.96,0.28,-1.83,-2.14,1.28,222,218,175,229,257,12
29,0.33,-0.96,0.19,1.95,-8.42,1.34,221,220,173,232,261,12
30,-0.45,-0.93,0.13,27.53,4.46,10.68,219,218,174,233,262,12
31,-0.06,-0.96,0.22,-0.61,-6.04,-7.45,221,217,174,232,257,12
32,-0.12,-0.96,0.27,0.92,-1.22,-3.17,220,222,175,229,265,12
33,-0.05,-0.97,0.24,3.66,-3.05,-10.19,220,223,174,242,264,12
34,-0.15,-0.99,0.31,-18.62,-114.14,-17.46,218,219,177,230,259,12
35,0.11,-0.99,0.06,-16.36,-135.5,-11.66,215,220,176,229,264,12
36,0.2,-0.98,-0.14,2.87,6.84,-6.65,220,232,179,231,264,12
37,0.22,-0.97,-0.09,0.06,0.18,-1.71,218,226,181,226,263,12
38,0.18,-0.98,-0.09,5.49,21.36,0.43,220,220,178,231,271,12
39,0.04,-1.0,0.12,22.22,86.61,22.09,244,220,177,225,270,12
40,-0.13,-1.0,0.2,9.09,-11.84,-15.2,225,221,185,230,265,12
41,0.31,-0.99,-0.14,-2.75,-358.64,-0.24,219,222,174,232,263,12
42,0.14,-0.98,0.0,-2.14,4.52,-3.3,220,219,173,229,263,12
43,0.17,-0.98,0.03,2.2,3.36,-5.25,220,220,178,234,262,12
44,0.15,-1.0,0.02,0.55,-1.83,-3.11,218,223,174,235,265,12
45,0.11,-0.99,0.06,3.85,15.14,-2.87,218,221,176,231,266,12
46,0.18,-0.99,0.06,1.16,3.6,-3.97,218,224,180,235,265,12
47,0.15,-0.98,0.1,8.0,60.91,-2.14,222,222,179,231,266,12
48,0.15,-0.96,0.01,21.61,213.32,-3.85,221,224,180,230,265,12
49,-0.0,-0.95,0.28,72.81,97.84,-78.43,221,224,178,234,262,12
50,0.11,-0.92,0.33,-36.99,24.9,-54.99,221,227,178,228,257,12
51,0.15,-0.88,0.46,-12.02,-5.19,16.78,262,229,177,235,259,12
52,0.16,-0.9,0.39,7.75,-6.29,-5.19,225,226,179,233,260,12
53,0.15,-0.91,0.38,6.96,-20.57,-7.08,224,227,177,233,262,12
54,0.18,-0.9,0.43,-1.95,-22.22,-6.29,231,226,180,227,261,12
55,0.47,-0.97,0.31,-3.17,-19.41,15.69,230,231,178,234,257,12
56,-0.12,-0.86,0.55,0.73,-15.32,7.02,225,226,180,232,261,12
57,-0.02,-0.82,0.47,4.39,29.42,1.16,222,227,183,229,267,12
58,-0.18,-0.85,0.55,-1.4,33.81,-19.41,226,227,182,235,266,12
59,0.13,-0.92,0.35,-8.3,11.9,-7.08,226,226,178,233,268,12
60,0.02,-0.97,0.23,-0.18,-23.74,-4.27,224,228,176,244,267,12
61,-0.08,-0.95,0.37,10.68,-37.29,20.2,223,230,178,235,266,12
62,-0.14,-0.87,0.5,10.86,-22.09,5.74,227,229,179,232,269,12
63,-0.13,-0.83,0.56,9.09,-9.95,-8.85,226,231,180,228,263,12
64,-0.08,-0.84,0.57,-13.61,8.42,-16.17,221,228,178,233,266,12
65,-0.0,-0.9,0.51,-0.98,4.33,-11.9,225,230,179,229,266,12
66,0.03,-0.89,0.47,-2.26,4.52,-8.85,221,230,180,229,269,12
67,0.09,-0.9,0.41,0.49,-5.37,5.98,226,230,177,236,267,12
68,0.05,-0.88,0.59,-0.92,-32.23,-12.27,225,228,178,233,268,12
69,-0.0,-0.91,0.33,8.36,-2.62,-24.78,223,230,181,235,265,12
70,0.09,-0.83,0.58,6.29,5.62,-8.54,227,230,180,230,266,12
71,0.14,-0.89,0.49,-15.01,12.27,-14.59,224,228,179,231,265,12
72,0.16,-0.89,0.43,-7.81,-12.82,4.76,224,229,180,236,266,12
73,0.17,-0.89,0.5,1.59,-4.15,-3.91,225,228,179,238,265,12
74,0.3,-0.87,0.39,-4.33,-0.67,-7.39,224,230,178,239,270,12
75,0.19,-0.92,0.52,5.62,1.34,-7.81,225,230,180,237,268,12
76,0.17,-0.91,0.31,1.28,-3.36,-4.82,225,229,183,234,266,12
77,0.18,-0.89,0.58,3.42,-1.89,-4.52,224,229,192,237,269,12
78,0.18,-0.9,0.32,-0.73,-6.23,-4.09,224,228,180,231,273,12
79,0.29,-0.87,0.48,-0.18,7.69,-3.85,226,230,178,243,269,12
80,0.1,-0.9,0.43,-10.86,8.79,-3.91,225,227,179,235,266,12
81,0.15,-0.86,0.23,-43.4,-38.39,-3.85,219,229,178,232,263,12
82,0.22,-0.96,0.08,-18.55,2.87,13.18,218,232,176,231,248,12
83,0.18,-0.97,0.13,-3.23,-5.62,13.49,220,229,180,231,240,12
84,0.15,-1.0,0.33,28.32,12.51,-18.86,225,229,179,235,245,12
85,0.01,-0.96,0.28,10.19,0.0,-2.99,223,229,184,233,250,12
86,0.04,-0.98,0.31,0.92,-8.97,-0.73,224,230,180,235,247,12
87,0.06,-0.96,0.21,-2.08,-1.1,-0.43,224,232,182,238,254,12
88,0.04,-0.97,0.26,-2.99,-4.39,-1.04,222,230,183,236,253,12
89,0.0,-0.99,0.22,-3.23,-11.78,-6.04,219,228,187,229,254,12
90,0.06,-0.99,0.35,-12.94,-11.29,7.75,229,228,179,235,254,12
91,0.07,-0.97,0.27,7.57,1.89,2.32,220,229,183,232,258,12
92,0.05,-0.97,0.23,5.31,-4.27,-2.62,220,227,184,237,258,12
93,0.07,-0.98,0.25,2.38,-2.38,-3.11,220,229,181,235,263,12
94,0.05,-0.96,0.22,1.04,-1.04,-0.92,223,229,183,234,254,12
95,0.06,-0.97,0.21,7.32,-3.91,-6.04,224,232,183,239,260,12
96,0.06,-0.96,0.31,-3.05,1.46,0.06,224,230,180,237,258,12
97,-0.04,-0.99,0.19,-2.87,0.98,-1.95,223,230,181,236,256,12
98,-0.08,-0.99,0.17,-4.7,-4.88,2.32,222,230,177,233,255,12
99,0.02,-0.97,0.15,-2.87,-7.81,-1.71,222,229,182,236,258,12
100,-0.03,-0.98,0.16,-2.08,-17.21,6.84,222,229,194,238,255,12
101,-0.08,-0.98,0.2,-0.18,-8.91,3.85,222,233,182,240,254,12
102,-0.03,-0.98,0.23,2.01,-1.46,0.06,225,229,184,240,253,12
103,-0.03,-0.98,0.2,-0.67,-1.77,-0.31,227,230,184,238,251,12
104,-0.06,-0.98,0.18,3.85,-1.4,-7.08,224,230,180,240,252,12
105,-0.03,-0.98,0.2,-1.89,-4.03,-6.35,223,232,184,236,254,12
106,0.01,-0.99,0.19,-9.46,-16.05,-14.47,219,229,181,240,255,12
107,-0.01,-0.99,0.13,6.1,2.69,3.3,222,231,181,234,258,12
108,0.05,-0.97,0.13,5.98,9.03,-4.27,220,230,179,235,257,12
109,-0.01,-0.99,0.14,1.95,-6.84,-3.54,263,230,182,231,256,12
110,-0.01,-0.99,0.13,-2.75,2.08,-4.46,221,228,181,242,257,12
111,0.01,-0.99,0.17,0.61,-1.34,-3.72,225,228,180,235,257,12
112,-0.04,-0.98,0.18,1.22,-14.71,-8.06,225,231,181,237,257,12
113,-0.0,-0.98,0.16,-0.49,1.34,-7.02,225,231,184,242,256,12
114,0.04,-0.97,0.16,6.29,-4.52,-6.77,227,231,183,240,255,12
115,0.04,-0.99,0.18,-0.73,-4.64,-5.07,227,232,183,239,257,12
116,0.05,-0.98,0.2,-0.31,-2.5,-1.95,225,232,182,238,258,12
117,0.03,-0.98,0.19,-4.33,-3.11,-1.71,228,234,185,238,260,12
118,0.04,-0.98,0.19,-0.98,-4.03,-2.44,229,233,185,237,260,12
119,0.01,-0.99,0.19,1.46,0.24,-2.14,223,233,187,242,258,12
120,-0.01,-0.98,0.2,2.2,-2.99,-0.37,228,234,183,237,266,12
121,-0.04,-0.99,0.18,-0.92,1.53,-3.05,228,232,183,236,259,12
122,-0.01,-0.98,0.17,1.46,-9.28,-4.88,226,236,183,240,259,12
123,-0.06,-0.98,0.2,0.49,-3.6,0.12,225,231,182,234,260,12
124,-0.04,-0.97,0.18,3.91,-3.17,0.0,233,234,182,235,257,12
125,-0.08,-0.99,0.22,1.16,-3.36,-1.65,226,234,183,242,258,12
126,-0.03,-0.97,0.24,-0.73,5.0,-2.93,226,233,183,241,261,12
127,-0.08,-0.98,0.13,-7.57,-6.29,0.67,226,235,185,241,262,12
128,-0.01,-0.98,0.23,-8.61,-4.15,-6.1,221,234,194,239,256,12
129,-0.01,-1.0,0.19,-2.75,-3.6,-3.42,224,232,186,235,263,12
130,-0.03,-0.98,0.17,1.28,-3.97,-5.07,225,233,184,238,262,12
131,-0.05,-0.99,0.16,0.85,4.27,-1.89,227,235,184,238,259,12
132,-0.03,-0.99,0.15,-1.77,-2.08,-0.79,228,231,186,238,260,12
133,-0.06,-0.97,0.14,1.46,1.16,-0.12,225,236,183,237,262,12
134,-0.09,-0.99,0.16,-0.12,-2.81,-5.13,226,237,186,241,263,12
135,-0.06,-0.99,0.17,0.73,-5.25,-4.76,228,233,185,240,262,12
136,0.0,-0.97,0.14,-5.19,-11.66,-5.0,226,233,183,238,260,12
137,0.01,-1.0,0.17,-1.65,-5.13,-3.42,223,236,186,238,264,12
138,0.03,-0.97,0.19,-2.38,-1.4,-2.14,226,235,182,239,261,12
139,0.03,-0.98,0.16,8.18,0.0,-7.08,228,231,184,238,258,12
140,-0.05,-0.97,0.06,3.17,-5.19,-13.55,224,234,185,243,258,12
141,-0.1,-0.99,0.07,-9.16,-10.19,-7.81,227,248,187,238,261,12
142,-0.06,-1.0,0.2,-18.68,-31.86,-14.89,226,233,183,241,263,12
143,-0.02,-0.98,0.07,-20.02,-2.14,-18.55,230,234,187,245,262,12
144,0.26,-0.94,-0.28,7.45,-0.18,-8.36,227,233,185,238,264,12
145,0.05,-0.99,-0.06,5.98,-1.83,0.73,226,238,183,245,263,12
146,0.09,-0.98,-0.12,11.47,-7.69,-1.4,229,237,184,242,263,12
147,0.18,-0.96,0.05,-17.33,-6.84,-4.33,227,233,186,242,262,12
148,0.16,-0.99,-0.01,16.3,-8.3,6.23,227,235,186,241,263,12
149,0.03,-1.01,0.05,-1.46,5.37,-2.38,227,236,186,242,265,12
150,0.16,-0.99,0.02,-3.42,14.4,-3.97,230,237,185,245,264,12
151,0.11,-1.0,0.07,17.27,-7.57,12.76,228,234,185,241,266,12
152,0.09,-0.83,-0.04,-18.31,-39.79,-10.5,227,234,184,241,261,12
153,0.02,-0.94,0.13,-4.94,14.71,14.71,230,234,188,245,260,12
154,-0.02,-0.99,0.06,-0.61,-4.33,-7.81,229,234,189,241,262,12
155,-0.04,-1.0,0.06,-5.0,-9.83,-10.07,228,235,188,238,263,12
156,0.1,-1.04,-0.0,-0.92,-1.1,5.43,231,231,186,244,263,12
157,-0.08,-0.99,0.02,3.36,3.91,9.64,230,237,186,239,264,12
158,-0.12,-1.03,-0.04,-9.4,-5.86,-17.64,227,237,185,239,261,12
159,-0.13,-0.98,-0.05,7.08,-5.49,-4.09,227,237,188,244,260,12
160,-0.08,-1.02,0.05,0.49,-0.98,-12.51,230,235,184,246,265,12
161,-0.1,-1.01,0.12,9.46,12.45,0.18,228,234,192,243,263,12
162,-0.13,-0.95,-0.06,0.49,9.28,-4.46,229,236,187,247,265,12
163,-0.08,-0.98,0.01,9.4,-3.05,1.04,227,233,187,244,262,12
164,-0.11,-0.96,0.03,-1.22,-16.05,2.32,229,237,184,247,258,12
165,-0.09,-1.01,0.19,24.23,3.23,-11.23,227,238,187,246,259,12
166,-0.12,-0.91,0.02,-11.47,-10.07,-5.37,229,238,189,242,256,12
167,-0.06,-0.97,0.02,-1.34,-1.04,-2.56,229,236,188,242,246,12
168,-0.08,-0.99,0.18,27.53,5.31,3.11,234,235,184,244,247,12
169,-0.06,-1.01,0.05,6.84,-4.88,-6.96,241,237,187,239,248,12
170,-0.07,-0.99,0.19,2.44,-2.44,9.83,229,239,186,244,252,12
171,-0.21,-0.93,0.44,9.4,0.24,2.69,232,236,191,248,251,12
172,-0.19,-0.92,0.33,-1.28,2.99,9.46,231,237,187,246,254,12
173,-0.19,-0.92,0.37,8.24,-7.14,-1.95,231,239,190,244,252,12
174,-0.21,-0.93,0.33,6.41,-6.53,-7.08,231,235,187,252,254,12
175,-0.18,-0.92,0.3,1.4,0.0,-8.97,233,237,184,248,254,12
176,-0.21,-0.93,0.34,-2.56,-2.14,-4.76,232,240,190,245,255,12
177,-0.15,-0.93,0.33,-3.05,-1.04,-2.56,235,237,190,244,256,12
178,-0.15,-0.93,0.36,0.85,-5.13,1.95,234,240,188,249,258,12
179,-0.16,-0.94,0.33,-0.31,-21.3,-7.87,230,239,187,246,259,12
180,-0.13,-0.92,0.37,0.24,-5.19,1.46,231,237,187,242,255,12
181,-0.11,-0.93,0.37,0.98,0.31,-5.31,231,240,189,249,260,12
182,-0.12,-0.93,0.37,5.8,-7.57,3.85,230,238,188,240,257,12
183,-0.11,-0.92,0.39,-0.55,-3.48,-7.75,244,238,189,249,261,12
184,-0.14,-0.88,0.37,3.78,-4.76,-1.16,230,241,188,249,259,12
185,-0.12,-0.93,0.38,0.92,-4.39,-2.56,230,240,188,249,259,12
186,-0.11,-0.92,0.38,0.24,-3.3,-2.32,232,242,190,240,258,12
187,-0.11,-0.95,0.42,-7.63,3.54,-5.62,231,239,190,245,259,12
188,-0.05,-0.94,0.37,-1.65,0.37,-11.23,231,240,187,249,266,12
189,-0.02,-1.11,0.25,5.68,-2.26,-4.7,230,241,188,248,267,12
190,-0.02,-0.95,0.32,-1.22,-2.32,-5.25,228,241,185,257,260,12
191,-0.03,-0.96,0.32,0.18,-3.11,-2.32,231,238,186,245,259,12
192,-0.02,-0.95,0.31,0.06,-4.15,-2.81,232,238,187,248,259,12
193,-0.03,-0.95,0.34,0.98,-3.23,-2.38,233,240,188,244,261,12
194,-0.02,-0.94,0.33,4.09,-2.32,-3.17,230,237,186,249,260,12
195,-0.02,-0.94,0.34,1.16,-2.5,-2.81,233,238,192,243,260,12
196,-0.01,-0.94,0.33,3.23,-4.33,-3.11,233,239,188,244,262,12
197,-0.02,-0.94,0.34,0.92,-4.94,-3.6,231,240,188,254,261,12
198,-0.02,-0.96,0.33,-2.75,-1.53,-2.56,231,240,191,249,258,12
199,-0.01,-0.94,0.32,0.85,-1.83,-2.26,232,240,190,247,258,12
200,-0.01,-0.94,0.32,0.61,-4.7,-3.78,228,238,189,248,262,12
201,-0.01,-0.95,0.34,-0.55,-7.39,-3.36,233,239,191,249,263,12
202,-0.01,-0.94,0.33,-0.18,-1.59,-2.81,257,239,191,242,259,12
203,-0.0,-0.95,0.32,0.24,-3.11,-3.17,234,241,191,247,260,12
204,0.0,-0.94,0.32,0.0,-3.85,-3.97,232,239,187,250,258,12
205,0.0,-0.95,0.34,1.28,-2.56,-2.5,235,241,190,242,261,12
206,-0.0,-0.94,0.32,0.31,-3.54,-2.69,233,238,188,241,263,12
207,0.0,-0.94,0.32,0.43,-4.03,-2.87,234,241,192,247,260,12
208,0.01,-0.94,0.33,-0.67,-1.28,-3.42,229,240,192,250,262,12
209,0.01,-0.95,0.34,0.92,-1.95,-2.75,230,239,189,247,262,12
210,0.01,-0.95,0.34,0.55,-2.14,-2.62,232,239,187,248,262,12
211,0.0,-0.94,0.34,0.06,-3.6,-2.38,232,240,191,247,262,12
212,-0.0,-0.94,0.32,0.49,-2.62,-2.5,231,241,189,246,264,12
213,0.0,-0.94,0.33,2.26,-5.74,-2.2,230,240,192,243,260,12
214,0.01,-0.94,0.34,0.98,-4.82,-3.3,227,239,188,246,261,12
215,-0.0,-0.94,0.34,1.04,-2.5,-2.75,229,240,189,243,260,12
216,0.01,-0.95,0.34,0.67,-2.5,-3.11,232,241,189,246,262,12
217,0.01,-0.94,0.32,1.4,-3.11,-2.93,230,243,190,243,264,12
218,-0.03,-0.95,0.33,1.65,3.48,-2.99,232,238,189,248,263,12
219,-0.07,-0.97,0.36,4.52,3.6,0.24,230,241,189,245,262,12
220,-0.13,-0.94,0.29,-26.18,4.94,27.95,230,242,192,248,255,12
221,-0.2,-0.95,0.31,12.21,-7.75,-1.16,232,242,190,247,257,12
222,-0.26,-0.94,0.31,1.83,-7.87,-1.53,233,240,187,251,253,12
223,-0.2,-0.92,0.3,1.53,-10.74,-5.55,231,240,187,249,257,12
224,-0.13,-0.95,0.31,-7.93,1.95,-22.46,235,239,190,248,261,12
225,-0.03,-0.98,0.24,-16.24,-21.3,0.06,232,240,191,251,257,12
226,-0.03,-1.0,0.11,1.4,-16.66,-6.71,225,238,192,248,254,12
227,0.0,-0.98,0.17,-3.48,66.71,18.86,234,251,191,249,258,12
228,-0.06,-0.99,0.07,1.46,-1.4,-5.31,231,244,190,249,261,12
229,-0.07,-0.98,0.04,0.98,7.26,-3.78,233,242,206,249,260,12
230,-0.1,-1.0,0.13,2.87,-4.46,-0.98,236,246,193,250,260,12
231,-0.08,-0.99,0.09,0.43,-2.32,-2.87,235,240,187,252,259,12
232,-0.08,-0.99,0.1,0.85,-2.08,-3.54,234,241,195,250,260,12
233,-0.07,-0.99,0.1,1.28,-4.58,-3.36,232,241,197,249,260,12
234,-0.06,-0.99,0.11,1.28,-3.05,-2.75,244,238,193,250,258,12
235,-0.07,-0.98,0.08,3.78,-1.95,-4.33,232,245,193,249,260,12
236,-0.05,-0.99,0.12,0.18,-4.64,-2.81,236,242,192,245,261,12
237,-0.06,-0.99,0.13,0.85,-3.78,-2.69,231,241,190,243,262,12
238,-0.05,-0.99,0.13,0.73,-2.93,-3.17,241,243,191,250,261,12
239,-0.05,-0.99,0.13,0.31,-3.23,-2.75,234,243,192,247,260,12
240,-0.04,-0.99,0.12,0.31,-2.99,-2.99,235,243,193,247,261,12
241,-0.04,-0.99,0.15,2.93,-3.48,-3.85,232,244,191,245,261,12
242,-0.0,-0.99,0.1,-5.55,-3.17,-8.61,230,243,190,247,261,12
243,-0.02,-0.98,0.1,3.78,-5.43,-2.01,236,242,190,248,261,12
244,-0.01,-0.99,0.13,4.15,-2.62,-2.32,236,244,196,242,262,12
245,-0.0,-0.98,0.13,0.73,-0.49,-5.31,236,241,194,244,264,12
246,-0.03,-0.99,0.14,1.4,0.06,-1.4,232,242,192,247,260,12
247,-0.02,-1.01,0.15,-10.74,-4.15,0.55,231,244,191,244,262,12
248,-0.03,-0.98,0.1,-1.4,-3.54,-3.66,233,243,194,250,263,12
249,-0.01,-0.99,0.12,0.55,-1.1,-4.09,223,240,193,243,265,12
250,-0.0,-0.99,0.12,-0.55,-3.6,-4.39,234,241,196,248,260,12
251,-0.0,-0.99,0.13,0.92,-0.98,-1.83,230,241,189,248,264,12
252,-0.01,-1.0,0.11,0.43,-5.37,-3.85,232,243,194,247,263,12
253,0.01,-0.99,0.11,1.16,-2.08,-2.93,232,244,192,248,264,12
254,0.01,-0.99,0.12,-0.43,-4.46,-2.99,235,244,191,249,265,12
255,0.01,-0.99,0.11,1.1,-4.39,-2.81,235,243,191,248,265,12
256,0.0,-0.99,0.11,-0.18,-3.11,-2.69,233,242,192,247,263,12
257,0.01,-0.99,0.13,-0.43,-1.89,-3.3,236,244,192,250,266,12
258,0.01,-0.99,0.12,-0.31,-2.75,-2.32,240,240,194,253,263,12
259,0.01,-0.99,0.11,0.06,-3.11,-3.05,232,241,190,248,263,12
260,0.01,-0.99,0.1,0.92,-2.32,-2.62,233,243,195,252,262,12
261,0.01,-0.99,0.12,0.98,-2.69,-2.75,234,242,189,250,263,12
262,0.02,-0.99,0.12,0.85,-3.66,-3.72,233,245,190,244,261,12
263,0.02,-0.99,0.12,0.73,-2.44,-2.01,234,241,189,251,262,12
264,0.03,-0.99,0.12,-0.18,-3.48,-3.97,232,241,191,248,266,12
265,0.03,-0.99,0.12,-0.79,-2.69,-2.5,231,244,192,249,263,12
266,0.03,-0.99,0.1,0.98,-1.53,-1.89,248,244,193,250,265,12
267,0.02,-0.99,0.11,1.28,-2.81,-2.87,235,243,188,250,263,12
268,0.03,-0.99,0.12,0.0,-4.21,-2.99,236,241,190,247,264,12
269,0.01,-0.99,0.1,-1.53,-5.07,-6.35,234,239,194,250,263,12
270,0.02,-0.98,0.1,-0.61,-3.6,-2.26,233,244,192,249,263,12
271,0.04,-0.99,0.11,-0.18,-2.26,-3.11,234,244,192,248,261,12
272,0.04,-0.99,0.11,0.55,-2.81,-2.81,236,241,194,244,266,12
273,0.01,-1.0,0.16,3.78,-7.87,5.86,236,241,206,248,266,12
274,0.0,-1.0,0.24,11.72,-4.39,17.03,234,241,190,249,264,12
275,-0.05,-0.97,0.2,-4.39,6.96,1.46,237,243,194,245,262,12
276,-0.03,-0.99,-0.01,-9.46,-0.49,-15.56,231,244,193,250,263,12
277,-0.0,-1.03,0.07,-2.56,-3.42,-10.62,237,244,198,251,267,12
278,-0.02,-1.01,0.08,1.65,-0.61,-2.87,236,243,191,250,265,12
279,0.05,-0.98,0.02,-3.42,-2.87,-7.81,234,242,191,248,261,12
280,0.1,-0.99,0.03,2.62,1.28,-4.82,236,244,189,250,264,12
281,0.06,-0.99,0.02,2.62,-3.36,-1.71,234,243,194,249,259,12
282,0.1,-1.0,0.02,-4.7,-2.26,-8.73,233,241,191,249,262,12
283,0.09,-0.99,0.02,-0.37,0.49,-5.8,239,242,190,248,265,12
284,0.15,-1.0,0.01,3.42,-4.15,-3.05,234,243,195,249,264,12
285,0.11,-0.99,0.02,0.79,-4.27,-2.62,230,245,194,252,266,12
286,0.1,-0.99,0.02,1.46,-2.87,-2.93,235,242,195,251,263,12
287,0.1,-0.99,0.02,-0.18,-3.36,-3.11,230,245,191,253,261,12
288,0.1,-1.0,0.01,-0.06,-1.95,-2.87,237,240,192,251,264,12
289,0.1,-0.99,0.01,0.18,-5.37,-2.26,235,243,194,247,261,12
290,0.08,-1.0,0.05,0.06,-4.64,-0.12,237,242,188,253,261,12
291,0.09,-0.99,-0.0,-0.06,-3.6,-4.03,233,242,188,249,257,12
292,0.11,-1.0,0.03,3.85,-2.56,-0.67,233,245,191,251,264,12
293,0.08,-1.0,0.05,3.42,-4.39,-1.77,235,241,192,248,265,12
294,0.08,-1.01,-0.01,0.73,-5.31,-10.68,233,243,195,253,264,12
295,0.01,-0.99,0.01,6.41,1.89,10.8,261,245,194,244,263,12
296,0.16,-1.0,0.09,2.81,-6.96,3.36,236,254,195,248,265,12
297,-0.07,-0.95,-0.08,11.47,4.21,-8.18,236,245,193,246,261,12
298,-0.05,-0.99,0.0,0.98,-5.0,-5.37,233,243,196,246,266,12
299,0.06,-0.98,0.04,4.46,-0.61,-5.31,234,247,192,249,264,12
300,0.11,-0.99,0.07,0.12,6.23,-2.56,233,240,194,246,263,12
301,0.11,-0.99,0.06,0.43,-0.12,-0.92,231,244,193,251,264,12
302,0.12,-0.99,0.07,0.73,5.0,-2.75,235,245,192,250,265,12
303,0.05,-1.0,0.1,6.59,15.63,4.7,235,251,194,250,265,12
304,-0.08,-0.99,0.19,19.1,6.29,4.88,236,259,192,246,264,12
305,0.02,-0.98,0.19,-0.98,0.0,-5.92,233,245,192,250,261,12
306,0.03,-0.98,0.19,4.94,-3.66,-3.36,234,244,194,250,262,12
307,0.03,-0.98,0.2,-2.87,-5.25,-7.93,235,246,192,248,262,12
308,0.05,-0.99,0.2,0.79,-3.72,-5.86,236,245,195,250,269,12
309,0.06,-0.98,0.2,-0.67,-3.91,-3.11,231,242,193,250,261,12
310,0.05,-0.98,0.18,0.24,-3.17,-3.42,235,244,195,250,265,12
311,0.06,-0.98,0.24,4.7,-0.73,2.69,233,243,196,255,264,12
312,0.04,-0.98,0.24,1.28,-0.18,-6.71,232,244,190,250,262,12
313,0.09,-0.96,0.16,-1.95,-6.84,-6.65,236,246,190,254,265,12
314,0.11,-0.97,0.21,2.2,-4.7,-0.24,232,243,193,254,267,12
315,0.1,-0.97,0.18,-2.44,-0.49,-6.35,230,242,192,250,266,12
316,0.11,-0.97,0.18,3.66,-2.75,-2.81,237,245,192,253,268,12
317,0.2,-0.98,0.26,-1.83,11.84,-20.45,231,246,191,255,261,12
318,0.18,-0.96,0.23,0.67,-2.93,1.28,234,243,195,251,267,12
319,0.15,-0.96,0.25,-2.62,-2.87,-2.2,230,245,191,253,266,12
320,0.14,-0.97,0.25,-3.6,-4.88,-0.67,236,244,190,259,266,12
321,0.15,-0.98,0.22,4.03,-5.74,3.42,237,243,188,249,264,12
322,0.16,-0.98,0.24,-9.83,-7.14,-8.06,237,246,192,247,269,12
323,0.15,-0.97,0.19,3.72,0.12,3.17,238,246,194,264,268,12
324,0.2,-0.97,0.17,0.0,-3.17,-2.99,238,246,194,252,265,12
325,0.17,-0.97,0.18,0.12,-0.67,-1.71,236,244,191,252,265,12
326,0.16,-0.98,0.17,2.01,-1.04,-2.38,237,243,193,251,257,12
327,0.22,-0.99,0.13,1.4,-18.37,-8.54,237,245,195,255,253,12
328,0.14,-0.96,0.17,3.91,20.39,-13.79,238,247,192,247,254,12
329,0.17,-0.96,0.16,-0.37,-5.43,-3.11,237,250,193,256,253,12
330,0.22,-0.94,0.17,11.78,-2.75,-6.65,243,244,194,248,257,12
331,0.23,-0.96,0.23,-1.53,-3.91,-4.15,235,247,191,253,257,12
332,0.26,-0.94,0.23,4.52,-0.61,-3.42,238,247,195,254,259,12
333,0.24,-0.94,0.24,0.67,0.61,-1.77,239,245,192,253,251,12
334,0.25,-0.94,0.25,2.38,-2.14,-2.93,237,245,192,252,262,12
335,0.28,-0.93,0.23,-1.77,-2.56,-1.16,244,244,194,251,264,12
336,0.23,-0.94,0.22,2.81,-3.17,-1.83,238,256,187,256,264,12
337,0.24,-0.94,0.23,3.3,-0.67,-4.46,237,243,190,257,267,12
338,0.25,-0.94,0.25,0.85,2.01,-0.18,238,244,192,250,267,12
339,0.22,-0.95,0.26,1.59,-2.93,-1.1,234,244,193,258,268,12
340,0.21,-0.95,0.24,1.46,-5.0,0.24,245,241,191,260,266,12
341,0.22,-0.94,0.25,1.4,-5.31,-4.33,232,244,193,262,271,12
342,0.21,-0.96,0.26,0.12,-1.1,-4.09,235,246,191,265,270,12
343,0.22,-0.94,0.26,2.2,-4.76,-2.44,234,246,188,267,269,12
344,0.22,-0.94,0.26,-0.31,-1.04,-3.36,237,246,193,263,266,12
345,0.23,-0.94,0.27,0.49,-4.58,-2.81,234,246,193,264,268,12
346,0.2,-0.95,0.26,1.89,-4.21,-0.98,233,244,191,268,266,12
347,0.21,-0.97,0.28,1.1,-3.72,-2.44,235,248,196,264,265,12
348,0.2,-0.91,0.31,2.01,-1.71,-0.31,236,248,189,261,270,12
349,0.21,-0.95,0.29,1.4,-3.05,-2.93,237,246,193,268,268,12
350,0.19,-0.93,0.27,-0.18,-2.14,-3.54,235,244,194,268,267,12
351,0.19,-0.95,0.3,-2.5,-3.97,-2.14,236,245,193,267,275,12
352,0.19,-0.94,0.28,2.56,-1.46,-0.92,234,246,191,264,269,12
353,0.18,-0.94,0.31,2.2,-2.44,-1.53,231,245,194,265,268,12
354,0.19,-0.93,0.3,-0.37,-2.87,-3.23,237,246,193,271,272,12
355,0.18,-0.93,0.3,0.55,-2.38,-3.05,233,249,193,265,268,12
356,0.17,-0.94,0.31,1.59,-2.26,-1.95,236,244,196,267,269,12
357,0.19,-0.93,0.32,4.03,-2.14,-0.67,231,246,194,264,267,12
358,0.18,-0.93,0.32,0.06,-2.38,-2.2,235,244,189,269,274,12
359,0.18,-0.93,0.31,-0.92,-2.62,-3.3,235,244,197,263,271,12
360,0.17,-0.93,0.32,-0.18,-2.56,-2.87,235,247,193,265,271,12
361,0.18,-0.93,0.33,2.56,-1.71,-2.62,237,246,194,265,271,12
362,0.13,-0.94,0.29,-5.07,1.22,24.66,237,242,192,268,268,12
363,0.01,-0.9,0.34,17.82,-3.78,13.61,237,247,191,259,275,12
364,-0.04,-0.99,0.24,2.99,32.35,22.34,235,248,192,266,271,12
365,-0.11,-0.91,0.37,0.79,-11.72,-11.29,239,244,194,270,272,12
366,-0.17,-0.94,0.46,6.9,-3.72,-6.9,238,248,192,269,269,12
367,-0.03,-0.89,0.45,3.72,-2.2,-3.91,235,244,194,265,273,12
368,-0.07,-0.85,0.45,3.85,1.53,-3.6,237,244,193,265,273,12
369,-0.03,-0.9,0.52,10.93,-0.18,-6.1,238,246,194,269,275,12
370,-0.04,-0.86,0.49,1.53,0.37,-6.47,235,247,194,268,271,12
371,-0.06,-0.85,0.5,-0.24,-2.93,-0.98,237,244,190,263,274,12
372,-0.06,-0.86,0.5,-0.43,-2.38,-5.49,234,248,192,261,271,12
373,-0.05,-0.85,0.52,4.64,-3.05,-4.33,237,245,192,267,275,12
374,-0.05,-0.85,0.51,0.79,-5.13,-2.2,237,248,194,266,272,12
375,-0.06,-0.86,0.53,-0.06,-3.42,-3.97,237,245,191,266,276,12
376,-0.06,-0.85,0.53,0.98,-4.39,-1.28,237,244,194,267,274,12
377,-0.03,-0.84,0.53,-2.01,-2.32,-0.92,235,247,192,266,275,12
378,-0.05,-0.86,0.5,-8.3,-3.17,-1.28,229,243,190,262,274,12
379,-0.09,-0.87,0.48,0.0,-3.72,-0.49,238,246,191,274,272,12
380,-0.07,-0.86,0.51,4.52,-3.23,1.53,237,245,205,268,277,12
381,-0.1,-0.84,0.51,0.67,-5.13,3.23,235,243,196,266,276,12
382,-0.16,-0.82,0.57,-0.31,-1.77,2.26,233,245,194,266,275,12
383,-0.12,-0.86,0.49,5.74,-2.87,3.11,236,249,192,276,275,12
384,-0.12,-0.86,0.47,-4.64,-6.9,-2.93,235,243,191,267,277,12
385,-0.15,-0.87,0.49,4.27,-1.95,-0.06,230,248,193,261,276,12
386,-0.23,-0.83,0.47,-1.34,-8.85,7.32,235,245,193,266,278,12
387,-0.22,-0.85,0.5,-1.65,-1.59,0.18,234,249,194,265,277,12
388,-0.2,-0.84,0.54,1.46,-2.93,0.73,237,246,194,267,273,12
389,-0.22,-0.83,0.53,4.82,-0.18,-0.73,235,247,194,268,277,12
390,-0.18,-0.85,0.5,-10.62,-6.9,-12.57,236,249,188,264,274,12
391,-0.11,-0.89,0.48,-3.91,-8.79,-18.92,237,246,197,267,279,12
392,-0.02,-0.89,0.41,-16.05,-21.48,-12.94,234,248,188,270,277,12
393,0.02,-0.9,0.44,-21.61,-7.14,-8.12,235,245,193,266,277,12
394,0.02,-0.87,0.36,2.62,6.77,33.51,236,247,190,267,274,12
395,0.03,-0.94,0.44,-25.51,2.32,-26.98,236,247,193,265,277,12
396,0.07,-0.93,0.06,-27.04,-15.69,3.11,234,246,196,269,277,12
397,0.1,-0.98,0.05,0.61,2.08,-5.49,232,245,197,268,276,12
398,0.23,-1.03,0.07,-15.14,-25.09,0.67,235,247,206,268,266,12
399,0.15,-1.01,0.01,14.1,-5.92,3.05,233,248,200,268,266,12
400,0.06,-0.99,0.11,0.49,-3.6,2.44,234,243,192,261,267,12
401,0.11,-1.0,0.06,2.26,-2.38,-3.05,231,245,195,267,264,12
402,0.08,-1.0,0.09,2.08,-8.18,-3.11,234,245,194,262,268,12
403,0.15,-0.95,0.11,-0.37,10.25,1.34,239,244,193,260,268,12
404,-0.01,-0.98,0.13,-11.84,8.79,-11.47,237,245,192,263,271,12
405,0.02,-0.99,0.1,-2.56,8.12,0.67,270,257,189,259,266,12
406,0.08,-0.99,0.13,4.03,-5.19,-0.18,237,246,192,263,269,12
407,0.07,-0.98,0.15,5.62,-5.25,-0.43,234,246,193,264,270,12
408,0.03,-0.99,0.18,-2.81,-0.85,-0.12,236,247,194,266,270,12
409,0.07,-0.96,0.17,-2.2,-5.98,-7.57,232,246,195,263,271,12
410,0.13,-1.01,0.18,1.28,-0.31,-6.53,237,245,192,266,273,12
411,0.09,-0.99,0.18,-0.92,-8.18,1.28,236,247,193,273,271,12
412,0.13,-0.99,0.13,4.46,-0.43,-4.76,232,248,193,267,271,12
413,0.1,-0.98,0.19,2.08,-3.3,-0.73,233,244,196,266,275,12
414,0.09,-0.99,0.21,1.65,-8.79,-0.92,247,248,192,267,270,12
415,0.07,-0.98,0.21,-1.59,-2.01,0.49,232,245,193,261,270,12
416,0.07,-0.98,0.17,-0.85,-2.56,-2.62,236,262,194,259,272,12
417,0.07,-0.99,0.16,1.04,-0.92,-3.05,232,248,196,267,274,12
418,-0.0,-0.98,0.16,-0.55,-7.2,1.28,232,248,198,267,269,12
419,0.06,-0.99,0.15,-3.85,-6.23,-1.34,235,245,190,267,275,12
420,0.04,-0.99,0.14,0.55,-2.2,-2.81,226,248,193,268,274,12
421,0.03,-1.01,0.17,-1.53,3.97,-13.31,239,248,198,266,270,12
422,0.14,-0.98,0.08,-5.43,-0.85,-4.03,223,245,193,267,272,12
423,0.13,-0.99,0.09,1.77,-4.03,2.93,236,245,191,267,273,12
424,0.07,-0.98,0.05,-0.61,-4.39,-3.3,232,248,193,268,272,12
425,0.04,-0.98,0.11,0.85,-3.6,4.58,234,246,193,266,256,12
426,0.02,-1.06,0.07,-13.31,-17.21,17.09,227,243,190,265,250,12
427,-0.01,-1.01,0.05,1.22,-8.3,-1.59,231,246,193,263,257,12
428,-0.03,-0.97,0.04,2.62,-4.88,-2.56,233,245,193,265,260,12
429,-0.07,-0.98,0.08,4.15,-1.77,-3.78,232,243,195,263,256,12
430,-0.01,-1.0,0.05,1.1,-0.98,-3.91,234,246,192,260,259,12
431,-0.04,-0.97,0.06,-5.13,-11.66,2.08,234,246,193,260,257,12
432,-0.04,-1.0,0.06,7.08,4.33,-9.64,230,245,193,265,260,12
433,-0.01,-1.0,0.03,-3.85,-1.04,-6.1,233,248,196,264,263,12
434,-0.01,-0.99,0.03,-1.16,-2.44,0.06,231,246,193,261,262,12
435,-0.02,-0.99,-0.03,2.81,-0.73,-1.95,236,244,194,266,263,12
436,-0.06,-1.03,0.05,-5.0,1.04,-0.73,232,246,193,261,260,12
437,0.03,-1.0,-0.01,-4.46,-2.69,-5.43,236,244,196,266,262,12
438,-0.01,-0.99,-0.01,0.06,-5.19,-2.2,235,246,196,265,263,12
439,0.0,-0.99,-0.01,-0.31,-2.87,-2.01,236,246,194,263,262,12
440,0.0,-1.01,0.01,1.83,-2.14,-0.92,264,243,194,270,265,12
441,0.0,-0.99,-0.0,-0.24,-3.05,-4.15,237,247,194,266,263,12
442,-0.02,-0.99,0.01,1.4,-2.99,-2.93,235,248,195,265,264,12
443,0.0,-1.01,0.02,0.79,-2.56,-2.2,234,248,193,266,261,12
444,-0.01,-0.99,0.01,0.61,-2.69,-2.44,236,246,191,268,263,12
445,-0.0,-0.99,0.01,0.43,-2.08,-2.93,236,246,193,261,266,12
446,0.0,-1.0,0.01,-1.59,-3.17,-1.71,236,246,194,267,267,12
447,-0.01,-0.99,0.0,2.56,-3.66,-1.46,236,245,195,265,262,12
448,-0.02,-0.99,0.0,0.0,-1.65,-1.34,235,245,196,269,264,12
449,-0.06,-1.0,0.05,3.23,8.91,-1.22,231,246,192,269,264,12
450,-0.08,-0.98,0.03,1.22,-1.83,-2.44,235,244,194,263,266,12
451,-0.05,-1.0,0.02,3.66,-2.44,-2.14,232,245,196,264,260,12
452,-0.07,-0.99,0.08,2.69,-9.95,-3.11,236,245,194,268,265,12
453,-0.05,-0.99,0.03,1.28,-2.56,-2.08,237,246,194,270,263,12
454,-0.07,-0.99,0.05,0.67,-2.87,-1.71,235,246,194,266,266,12
455,-0.07,-1.0,0.05,0.73,-1.65,-2.56,233,247,194,264,266,12
456,-0.05,-0.98,0.06,4.76,0.12,-2.26,235,243,192,265,265,12
457,-0.06,-1.0,0.08,-0.61,-1.83,-2.26,235,244,192,264,261,12
458,-0.06,-0.99,0.08,0.06,-3.72,-3.36,239,248,197,266,264,12
459,-0.06,-0.99,0.07,0.55,-2.99,-3.11,235,246,195,270,264,12
460,-0.08,-0.99,0.07,3.3,-0.31,-3.42,237,246,192,265,267,12
461,-0.07,-1.0,0.12,-0.43,0.85,-1.28,238,245,196,268,268,12
462,-0.03,-1.0,0.08,1.83,-3.54,-2.99,234,246,193,270,266,12
463,-0.03,-1.0,0.1,-0.06,-2.87,-4.82,238,249,196,267,265,12
464,-0.11,-0.98,0.08,-1.46,-8.91,2.5,239,246,196,265,265,12
465,-0.06,-1.0,0.05,3.42,-16.42,5.19,235,249,193,266,265,12
466,0.03,-1.0,0.03,2.5,26.92,2.62,236,251,193,263,270,12
467,-0.13,-0.99,0.1,1.22,-1.83,-2.81,232,248,196,261,268,12
468,-0.08,-0.99,0.07,1.59,-6.71,-3.72,238,245,197,268,269,12
469,-0.05,-0.99,0.06,-7.14,-4.64,-3.48,234,246,199,265,268,12
470,-0.07,-0.99,0.13,6.71,-1.16,-3.42,239,249,199,261,270,12
471,-0.09,-0.99,0.12,1.04,-2.56,-2.93,234,248,193,263,265,12
472,-0.03,-0.99,0.09,-7.2,-0.92,-7.63,236,245,192,265,265,12
473,-0.07,-1.01,0.21,0.12,9.34,-4.46,237,245,194,267,269,12
474,-0.02,-1.0,0.08,4.82,-2.93,-1.04,238,244,195,267,269,12
475,-0.04,-1.0,0.08,-0.73,-2.81,-2.69,237,246,196,263,267,12
476,-0.21,-0.96,0.18,7.2,-11.35,4.39,237,245,192,270,266,12
477,-0.08,-0.98,0.09,-7.26,-4.58,-3.72,235,247,192,270,266,12
478,-0.11,-0.99,0.11,0.67,5.92,-6.47,237,246,194,270,267,12
479,-0.11,-0.98,0.08,0.92,-7.57,-2.2,236,247,191,269,267,12
480,-0.1,-0.99,0.12,-0.85,-3.78,-3.72,272,254,194,265,266,12
481,-0.11,-0.99,0.12,-3.42,-3.05,-5.31,236,248,191,268,269,12
482,-0.08,-0.97,0.09,1.89,-4.76,-0.24,235,247,194,266,267,12
483,-0.09,-0.99,0.09,-1.46,-3.05,-2.81,237,242,196,266,269,12
484,-0.08,-0.99,0.1,1.04,-3.72,-0.92,235,245,193,268,269,12
485,-0.09,-0.98,0.11,1.65,-2.99,-1.89,239,245,195,270,266,12
486,-0.08,-1.0,0.1,-0.24,-3.17,-3.11,237,246,194,266,270,12
487,-0.09,-0.98,0.11,-0.12,-0.61,-3.48,238,246,197,269,268,12
488,-0.08,-0.99,0.09,-4.76,-1.95,-4.58,236,246,199,267,269,12
489,-0.09,-0.99,0.1,0.73,-1.77,-2.01,238,246,196,267,269,12
490,-0.06,-1.0,0.07,-0.06,-1.16,-4.58,236,247,194,266,270,12
491,-0.09,-0.99,0.1,2.99,-3.78,-5.31,236,244,196,262,268,12
492,-0.07,-1.0,0.1,-0.18,-1.71,-1.04,234,247,197,266,270,12
493,-0.06,-0.98,0.1,1.89,-3.72,-3.85,237,246,197,261,268,12
494,-0.1,-0.98,0.1,0.12,-2.62,-0.98,235,246,193,266,269,12
495,-0.08,-0.99,0.1,2.93,-5.19,-2.56,236,251,194,262,268,12
496,-0.09,-0.98,0.12,3.23,1.16,-1.89,236,248,195,268,269,12
497,-0.09,-0.99,0.13,-0.49,-3.72,-2.69,238,247,196,270,271,12
498,-0.07,-0.99,0.12,4.58,-2.38,-1.22,236,247,202,270,268,12
499,-0.1,-0.99,0.14,0.67,-3.91,-1.89,238,249,197,267,269,12
500,-0.05,-0.99,0.21,8.61,7.39,2.01,238,249,193,271,270,12
501,-0.1,-0.97,0.19,0.43,1.95,-2.93,244,246,195,271,269,12
502,-0.09,-0.99,0.14,-4.09,-4.52,-4.21,236,247,197,277,272,12
503,-0.09,-0.99,0.16,0.67,-4.46,-1.59,239,247,195,266,269,12
504,-0.08,-0.98,0.14,1.71,-1.4,-5.31,233,248,198,271,278,12
505,-0.05,-0.98,0.14,2.56,-0.06,-2.2,237,254,198,278,281,12
506,-0.02,-0.97,0.21,17.4,-4.52,-16.05,251,267,222,315,293,12
507,0.08,-0.94,0.3,-6.65,-38.57,-2.69,305,329,272,366,328,12
508,0.09,-0.98,0.26,-7.57,-6.41,-1.53,334,364,302,390,350,12
509,-0.28,-0.91,0.28,0.31,-3.42,-1.71,258,265,196,239,252,12
510,-0.29,-0.92,0.28,-0.55,-4.21,-2.62,264,265,192,240,264,12
511,-0.28,-0.91,0.28,0.73,-3.97,-2.2,258,262,194,238,262,12
512,-0.28,-0.92,0.3,-1.04,-2.44,-2.26,262,266,195,242,264,12
513,-0.28,-0.92,0.29,-1.16,-3.97,-1.53,260,269,194,237,262,12
514,-0.27,-0.92,0.29,0.06,-3.48,-1.1,264,268,197,239,262,12
515,-0.28,-0.91,0.31,-3.17,-5.92,1.53,264,267,191,240,262,12
516,-0.28,-0.91,0.3,1.04,-3.72,-2.87,267,272,197,240,263,12
517,-0.27,-0.92,0.29,1.4,-2.99,-3.11,263,267,197,231,265,12
518,-0.27,-0.91,0.27,2.44,-3.91,-2.62,265,269,195,240,265,12
519,-0.29,-0.91,0.28,0.18,-3.23,-1.89,261,265,193,240,262,12
520,-0.29,-0.91,0.29,0.0,-3.48,-2.2,268,270,195,239,261,12
521,-0.29,-0.92,0.29,0.18,-2.44,-2.81,259,272,200,241,266,12
522,-0.28,-0.92,0.29,0.55,-2.01,-2.87,265,265,199,243,265,12
523,-0.27,-0.92,0.29,0.49,-2.14,-2.99,266,269,196,239,263,12
524,-0.28,-0.92,0.29,1.1,-4.21,-0.98,262,264,197,241,263,12
525,-0.29,-0.91,0.3,1.77,-3.6,-2.44,265,271,198,239,262,12
526,-0.28,-0.9,0.28,1.22,-2.44,-3.23,263,266,197,241,263,12
527,-0.27,-0.91,0.29,0.49,-3.11,-2.26,264,269,195,242,264,12
528,-0.27,-0.91,0.29,-1.22,-2.75,-2.01,264,273,197,242,265,12
529,-0.29,-0.89,0.28,1.83,-3.11,-1.77,267,270,201,241,264,12
530,-0.29,-0.91,0.28,0.43,-3.3,-2.69,265,270,196,240,262,12
531,-0.28,-0.91,0.28,-0.37,-2.5,-3.48,261,269,197,244,265,12
532,-0.26,-0.92,0.29,0.73,-1.77,-2.44,268,270,197,244,263,12
533,-0.28,-0.91,0.29,0.18,-3.3,-1.53,265,273,197,240,264,12
534,-0.28,-0.91,0.29,0.18,-3.23,-2.75,266,275,198,242,263,12
535,-0.27,-0.91,0.28,0.67,-3.54,-3.11,266,275,199,242,263,12
536,-0.25,-0.92,0.28,0.06,-2.81,-1.71,268,275,199,243,262,12
537,-0.28,-0.93,0.29,-1.34,-2.62,-2.08,264,275,196,242,266,12
538,-0.28,-0.91,0.28,1.1,-3.48,-2.5,266,274,200,243,260,12
539,-0.27,-0.92,0.29,-0.61,-1.89,-1.95,273,275,197,244,274,12
540,-0.27,-0.92,0.28,0.18,-3.48,-2.26,269,271,200,242,260,12
541,-0.28,-0.91,0.28,0.79,-2.32,-2.44,270,272,196,239,262,12
542,-0.27,-0.92,0.28,-1.28,-3.6,-2.26,267,274,196,239,266,12
543,-0.27,-0.92,0.29,0.12,-2.62,-2.75,268,277,201,245,263,12
544,-0.27,-0.92,0.28,0.0,-2.14,-2.87,264,269,199,241,266,12
545,-0.27,-0.92,0.28,1.53,-3.91,-2.44,268,271,196,242,259,12
546,-0.27,-0.92,0.29,1.22,-2.44,-2.38,265,273,196,246,262,12
547,-0.26,-0.92,0.28,1.46,-3.3,-1.89,264,272,200,244,266,12
548,-0.27,-0.92,0.28,0.37,-3.17,-1.16,264,275,197,243,264,12
549,-0.28,-0.92,0.29,-0.43,-4.7,-0.49,268,276,198,244,260,12
550,-0.28,-0.92,0.3,0.18,-4.09,-1.71,270,269,200,245,264,12
551,-0.27,-0.91,0.3,0.37,-2.87,-2.5,270,268,197,246,259,12
552,-0.27,-0.93,0.29,-0.18,-3.6,-2.56,270,274,197,247,262,12
553,-0.28,-0.91,0.29,0.06,-3.11,-2.2,272,269,200,248,264,12
554,-0.28,-0.92,0.28,0.43,-3.11,-2.81,270,272,200,244,267,12
555,-0.27,-0.92,0.28,1.22,-2.5,-3.17,270,277,198,243,262,12
556,-0.27,-0.92,0.29,0.92,-2.5,-2.01,266,271,196,250,264,12
557,-0.27,-0.92,0.29,-0.12,-2.69,-1.65,268,273,200,244,266,12
558,-0.28,-0.92,0.29,-1.28,-2.99,-1.77,269,279,196,247,275,12
559,-0.27,-0.91,0.28,0.24,-2.5,-2.62,271,274,202,244,267,12
560,-0.27,-0.92,0.28,1.1,-2.93,-2.44,268,275,202,246,265,12
561,-0.29,-0.91,0.28,-1.1,-3.11,-2.62,273,274,198,244,266,12
562,-0.27,-0.92,0.29,-0.31,-2.08,-3.91,266,275,199,254,273,12
563,-0.27,-0.92,0.3,0.43,-5.31,0.55,272,277,199,246,262,12
564,-0.28,-0.91,0.27,-0.37,-3.6,-3.17,272,270,197,249,265,12
565,-0.28,-0.92,0.26,1.46,-7.02,-3.17,270,272,198,246,265,12
566,-0.27,-0.93,0.25,-1.04,-2.62,1.04,270,275,198,247,266,12
567,-0.25,-0.91,0.3,1.89,-3.85,-4.58,269,274,198,246,265,12
568,-0.25,-0.92,0.3,-2.32,-1.46,-1.83,272,275,199,243,265,12
569,-0.27,-0.91,0.29,1.46,-2.2,-4.27,270,274,199,247,263,12
570,-0.25,-0.91,0.32,-1.1,-1.59,-2.44,272,278,201,243,267,12
571,-0.29,-0.92,0.27,0.61,-1.22,-4.52,274,277,203,249,263,12
572,-0.25,-0.91,0.3,4.94,-3.23,-5.43,268,275,201,247,264,12
573,-0.28,-0.92,0.28,1.1,-2.38,-3.66,271,279,204,246,267,12
574,-0.28,-0.91,0.28,-1.95,-2.38,-2.62,272,277,203,250,265,12
575,-0.28,-0.92,0.28,-0.12,-2.87,-1.53,272,282,201,247,264,12
576,-0.28,-0.92,0.28,-0.67,-3.05,-2.5,272,274,204,244,267,12
577,-0.28,-0.91,0.28,0.55,-1.89,-2.99,274,275,203,247,267,12
578,-0.29,-0.92,0.27,0.55,-2.56,-3.11,272,281,199,247,266,12
579,-0.27,-0.9,0.29,0.18,-2.44,-2.87,273,282,200,244,266,12
580,-0.28,-0.92,0.29,0.98,-3.85,-2.32,273,277,205,248,264,12
581,-0.28,-0.91,0.29,-0.31,-2.69,-2.75,273,276,201,247,266,12
582,-0.27,-0.91,0.29,1.95,-2.99,-3.48,269,277,200,248,265,12
583,-0.28,-0.91,0.29,0.79,-3.72,-2.14,273,278,215,249,264,12
584,-0.27,-0.91,0.29,-0.24,-3.17,-2.69,273,291,204,249,267,12
585,-0.27,-0.91,0.3,0.73,-3.42,-2.14,273,278,204,255,266,12
586,-0.28,-0.91,0.28,1.16,-2.69,-2.69,270,282,202,248,266,12
587,-0.27,-0.91,0.29,-0.73,-2.44,-2.44,271,278,204,250,263,12
588,-0.27,-0.91,0.29,-0.85,-2.99,-2.08,275,277,203,251,265,12
589,-0.28,-0.92,0.29,-0.98,-2.93,-1.95,276,280,204,246,265,12
590,-0.28,-0.92,0.29,-0.79,-2.44,-2.5,275,276,202,248,268,12
591,-0.27,-0.92,0.29,-0.31,-2.69,-2.56,277,279,203,247,263,12
592,-0.28,-0.91,0.28,0.67,-3.05,-2.01,274,281,202,248,265,12
593,-0.28,-0.91,0.29,0.98,-2.99,-2.62,275,280,205,245,265,12
594,-0.26,-0.91,0.3,1.89,-2.87,-2.5,274,275,201,246,268,12
595,-0.27,-0.91,0.29,2.32,-3.11,-2.81,276,282,201,248,266,12
596,-0.27,-0.91,0.31,0.24,-3.05,-2.44,273,280,205,248,268,12
597,-0.26,-0.91,0.3,-0.31,-2.44,-2.01,277,279,204,247,264,12
598,-0.29,-0.91,0.3,0.31,-2.38,-2.01,276,281,199,250,283,12
599,-0.28,-0.91,0.31,1.28,-2.44,-2.99,273,279,201,261,268,12
600,-0.28,-0.91,0.3,0.85,-2.14,-3.42,277,280,202,246,266,12
601,-0.28,-0.9,0.3,1.89,-3.23,-2.69,275,279,204,247,266,12
602,-0.27,-0.91,0.31,1.65,-3.91,-2.69,275,282,204,251,266,12
603,-0.26,-0.91,0.32,1.4,-3.3,-2.81,278,276,204,256,261,12
604,-0.27,-0.91,0.3,1.34,-3.97,-2.32,272,281,201,247,266,12
605,-0.27,-0.91,0.3,-1.46,-3.3,-1.1,277,278,201,252,267,12
606,-0.3,-0.92,0.29,1.95,-2.75,-2.93,278,281,201,248,262,12
607,-0.3,-0.91,0.3,1.4,-5.31,-2.56,273,279,203,244,264,12
608,-0.26,-0.92,0.27,5.19,-12.33,-4.52,275,280,202,251,264,12
609,-0.25,-0.91,0.3,-3.66,1.1,-3.85,275,277,203,248,265,12
610,-0.28,-0.9,0.32,-3.23,-2.32,0.06,272,281,203,252,266,12
611,-0.28,-0.91,0.3,-3.6,-2.5,-1.16,277,283,199,250,262,12
612,-0.29,-0.91,0.3,0.12,-3.23,-0.61,275,274,203,248,266,12
613,-0.28,-0.92,0.28,-4.09,-0.49,-2.26,277,279,200,248,268,12
614,-0.27,-0.93,0.28,-0.61,-3.97,-2.87,277,283,204,246,266,12
615,-0.27,-0.92,0.28,0.79,-3.91,-2.2,276,278,201,250,267,12
616,-0.27,-0.92,0.28,0.67,-3.72,-2.87,274,279,200,250,270,12
617,-0.26,-0.92,0.28,0.49,-2.81,-2.69,277,284,199,252,269,12
618,-0.26,-0.92,0.29,-0.61,-2.26,-3.23,275,283,202,249,269,12
619,-0.24,-0.92,0.29,0.61,-2.32,-3.97,279,281,201,252,267,12
620,-0.25,-0.93,0.29,0.43,-2.26,-2.99,281,283,203,252,269,12
621,-0.25,-0.92,0.29,1.77,-2.69,-3.3,280,276,202,253,267,12
622,-0.25,-0.92,0.29,1.71,-3.36,-3.3,280,283,203,252,268,12
623,-0.25,-0.93,0.29,1.16,-3.3,-2.2,281,284,202,250,268,12
624,-0.21,-0.92,0.32,8.12,-6.16,-4.64,280,283,203,253,268,12
625,-0.22,-0.9,0.32,-3.6,1.28,-4.82,283,275,202,250,271,12
626,-0.26,-0.92,0.28,1.77,-4.03,-1.16,282,279,200,251,271,12
627,-0.25,-0.93,0.27,0.49,-3.11,-1.71,281,277,205,252,267,12
628,-0.24,-0.93,0.28,1.71,-1.71,-3.85,285,284,205,255,271,12
629,-0.22,-0.93,0.29,1.46,-2.75,-5.25,282,279,204,248,272,12
630,-0.22,-0.92,0.28,3.42,-3.72,-2.14,282,282,216,251,272,12
631,-0.23,-0.92,0.3,-0.24,-2.87,-2.14,286,283,205,253,272,12
632,-0.22,-0.92,0.31,0.61,-3.23,-3.48,279,291,203,251,271,12
633,-0.24,-0.92,0.32,0.73,-3.54,-1.89,283,280,203,253,269,12
634,-0.23,-0.92,0.31,0.85,-3.78,-2.99,284,284,203,247,268,12
635,-0.23,-0.92,0.32,-0.12,-4.15,-1.89,282,279,205,251,268,12
636,-0.23,-0.92,0.31,1.28,-3.85,-3.11,282,283,204,254,268,12
637,-0.22,-0.91,0.33,1.4,-1.95,-2.99,282,280,206,252,269,12
638,-0.23,-0.91,0.33,0.49,-2.62,-1.77,279,280,203,255,270,12
639,-0.22,-0.91,0.35,-0.31,-3.11,-2.08,283,280,207,254,268,12
640,-0.23,-0.91,0.33,-0.67,-2.87,-0.79,282,284,206,254,270,12
641,-0.23,-0.91,0.34,1.1,-2.32,-2.08,279,281,204,251,267,12
642,-0.24,-0.91,0.34,1.83,-2.32,-2.75,278,287,201,255,268,12
643,-0.24,-0.91,0.33,0.61,-3.36,-1.95,277,282,204,252,271,12
644,-0.24,-0.91,0.34,1.16,-3.48,-2.38,272,287,202,253,269,12
645,-0.23,-0.91,0.34,-0.43,-2.87,-3.11,271,284,206,249,269,12
646,-0.23,-0.91,0.34,0.98,-1.95,-2.87,271,287,205,254,271,12
647,-0.24,-0.91,0.34,1.89,-2.56,-3.05,272,287,206,253,273,12
648,-0.23,-0.91,0.34,1.4,-3.54,-2.62,271,280,203,253,269,12
649,-0.23,-0.9,0.35,-1.28,-3.66,-1.65,276,281,205,252,268,12
650,-0.24,-0.92,0.34,0.85,-3.54,-2.75,276,281,203,254,273,12
651,-0.24,-0.91,0.35,2.5,-2.62,-3.17,273,289,204,266,272,12
652,-0.23,-0.91,0.35,0.67,-2.56,-2.93,275,279,203,255,269,12
653,-0.22,-0.9,0.36,-0.24,-2.38,-1.83,271,288,207,252,269,12
654,-0.24,-0.91,0.35,1.46,-3.36,-2.32,277,287,207,255,271,12
655,-0.23,-0.91,0.35,0.43,-2.99,-2.38,276,287,208,254,269,12
656,-0.23,-0.9,0.35,0.61,-3.54,-1.83,277,285,200,250,270,12
657,-0.24,-0.9,0.35,1.4,-3.17,-2.99,278,280,205,251,271,12
658,-0.23,-0.9,0.36,2.26,-3.6,-3.05,277,284,206,253,270,12
659,-0.22,-0.91,0.36,0.0,-3.36,-2.26,274,288,205,251,273,12
660,-0.23,-0.9,0.37,0.12,-1.59,-2.69,280,287,207,254,271,12
661,-0.23,-0.9,0.36,0.49,-3.17,-2.62,278,288,204,255,269,12
662,-0.22,-0.91,0.36,1.28,-3.17,-3.23,278,286,205,252,270,12
663,-0.22,-0.9,0.37,0.37,-2.44,-2.56,278,286,207,250,270,12
664,-0.23,-0.91,0.36,0.37,-3.11,-1.89,281,283,204,256,273,12
665,-0.23,-0.9,0.37,0.37,-2.62,-2.81,281,283,204,256,272,12
666,-0.24,-0.9,0.36,-0.06,-2.62,-2.56,283,288,207,253,274,12
667,-0.23,-0.91,0.36,1.16,-2.75,-2.99,280,279,206,256,271,12
668,-0.22,-0.91,0.37,0.92,-2.93,-2.44,280,288,203,253,272,12
669,-0.23,-0.9,0.36,0.43,-3.05,-2.44,288,290,206,251,272,12
670,-0.22,-0.9,0.36,0.24,-3.3,-2.32,281,285,206,253,272,12
671,-0.23,-0.9,0.36,0.37,-2.81,-2.62,281,294,205,255,270,12
672,-0.22,-0.91,0.37,0.55,-2.75,-2.14,283,285,210,256,273,12
673,-0.22,-0.9,0.37,-0.73,-2.69,-2.81,282,287,206,257,272,12
674,-0.22,-0.91,0.36,1.04,-3.11,-2.01,282,287,204,255,270,12
675,-0.22,-0.9,0.37,0.55,-1.59,-3.17,277,286,208,264,273,12
676,-0.23,-0.91,0.36,-0.37,-2.87,-2.38,282,284,204,254,273,12
677,-0.22,-0.9,0.37,0.0,-2.87,-2.56,279,285,208,256,300,12
678,-0.23,-0.9,0.37,0.06,-2.5,-3.3,283,282,209,254,273,12
679,-0.22,-0.91,0.36,0.37,-2.62,-2.38,279,289,206,253,276,12
680,-0.23,-0.9,0.37,0.49,-3.23,-2.2,282,283,205,257,270,12
681,-0.23,-0.91,0.37,0.55,-2.38,-2.99,280,287,203,252,274,12
682,-0.22,-0.91,0.36,1.22,-2.87,-2.81,282,285,206,252,268,12
683,-0.22,-0.9,0.37,1.34,-2.87,-2.62,284,285,204,270,271,12
684,-0.22,-0.91,0.36,0.55,-2.62,-2.26,281,284,208,254,270,12
685,-0.23,-0.91,0.36,2.2,-4.52,-2.32,283,285,209,252,270,12
686,-0.22,-0.9,0.37,0.98,-3.11,-2.75,282,285,208,253,272,12
687,-0.22,-0.91,0.36,0.43,-2.87,-2.56,281,286,209,261,270,12
688,-0.22,-0.91,0.37,-0.79,-2.93,-2.2,284,287,204,253,271,12
689,-0.22,-0.91,0.36,-0.18,-2.62,-2.14,283,283,205,255,281,12
690,-0.23,-0.9,0.36,1.16,-2.69,-2.99,281,289,208,254,273,12
691,-0.22,-0.9,0.36,0.55,-2.81,-2.5,285,284,205,257,271,12
692,-0.22,-0.9,0.36,-0.43,-3.05,-2.32,284,285,209,252,270,12
693,-0.23,-0.9,0.36,-0.24,-3.11,-1.71,285,283,207,255,270,12
694,-0.22,-0.9,0.36,0.55,-2.93,-2.75,283,285,206,254,269,12
695,-0.22,-0.9,0.36,0.37,-2.87,-2.87,281,286,204,252,273,12
696,-0.22,-0.9,0.36,0.06,-3.11,-2.26,284,285,206,254,272,12
697,-0.22,-0.9,0.37,1.1,-1.71,-3.72,284,300,205,254,260,12
698,-0.22,-0.9,0.36,-0.37,-3.17,-1.89,292,288,205,254,272,12
699,-0.22,-0.9,0.36,0.18,-2.93,-2.81,284,283,205,259,268,12
700,-0.22,-0.9,0.37,1.65,-3.11,-3.48,286,289,205,253,272,12
701,-0.22,-0.91,0.36,0.43,-2.81,-2.62,284,284,208,254,271,12
702,-0.22,-0.9,0.37,0.49,-2.56,-2.38,284,290,208,256,270,12
703,-0.22,-0.9,0.37,-0.61,-2.62,-1.95,284,281,205,254,270,12
704,-0.22,-0.9,0.37,1.04,-3.36,-2.75,283,286,209,257,272,12
705,-0.22,-0.9,0.37,-1.1,-2.93,-1.65,284,281,204,252,267,12
706,-0.22,-0.91,0.37,0.43,-3.17,-2.14,286,289,209,253,269,12
707,-0.23,-0.9,0.37,0.49,-3.05,-2.44,285,290,203,256,268,12
708,-0.22,-0.9,0.37,-0.55,-3.05,-2.56,283,284,206,254,272,12
709,-0.23,-0.9,0.37,0.31,-3.11,-2.2,284,290,205,253,271,12
710,-0.23,-0.9,0.37,-0.12,-2.81,-1.71,284,282,206,256,270,12
711,-0.22,-0.91,0.37,0.18,-2.69,-2.69,287,283,207,256,273,12
712,-0.21,-0.9,0.37,-0.49,-2.69,-2.69,284,286,208,254,273,12
713,-0.22,-0.9,0.36,-1.04,-2.81,-2.2,284,291,210,254,271,12
714,-0.23,-0.9,0.36,0.37,-3.17,-2.14,282,285,208,254,269,12
715,-0.22,-0.9,0.37,1.22,-2.5,-3.3,283,286,204,257,271,12
716,-0.22,-0.9,0.37,-0.12,-3.11,-2.01,285,286,205,258,269,12
717,-0.26,-0.9,0.4,-3.85,-3.85,-0.73,284,286,204,254,271,12
718,-0.22,-0.9,0.37,3.05,-3.6,-1.59,285,287,208,256,273,12
719,-0.21,-0.9,0.38,-0.06,-2.26,-3.72,287,280,206,256,272,12
720,-0.21,-0.91,0.37,1.71,-2.14,-4.58,282,289,209,254,271,12
721,-0.21,-0.9,0.38,0.31,-2.26,-3.23,281,285,207,257,273,12
722,-0.19,-0.89,0.4,3.48,-3.17,-2.62,284,284,208,256,272,12
723,-0.2,-0.9,0.38,-4.7,-1.95,-1.46,283,289,206,254,270,12
724,-0.21,-0.91,0.38,-0.92,-2.87,-3.3,282,286,207,255,272,12
725,-0.19,-0.91,0.37,0.55,-3.17,-3.17,285,291,208,256,274,12
726,-0.21,-0.9,0.38,-0.06,-2.38,-3.66,287,286,207,251,269,12
727,-0.2,-0.9,0.38,1.59,-3.42,-2.5,289,286,203,258,271,12
728,-0.21,-0.91,0.36,-0.92,-3.54,-1.83,286,295,206,258,270,12
729,-0.2,-0.91,0.36,-1.04,-1.22,-2.87,283,286,210,255,268,12
730,-0.19,-0.91,0.37,0.18,-2.62,-2.32,285,287,204,262,271,12
731,-0.2,-0.91,0.37,-0.37,-3.42,-1.89,282,283,207,257,273,12
732,-0.21,-0.91,0.36,-0.31,-3.42,-1.59,285,281,203,254,266,12
733,-0.2,-0.91,0.37,1.04,-2.87,-2.38,287,289,205,257,268,12
734,-0.19,-0.9,0.37,0.61,-3.42,-1.65,286,282,206,257,271,12
735,-0.21,-0.91,0.36,-1.1,-1.95,-2.26,286,286,208,257,268,12
736,-0.21,-0.9,0.38,0.18,-3.48,-2.38,283,284,218,254,272,12
737,-0.2,-0.91,0.37,0.43,-3.17,-2.32,287,290,205,255,272,12
738,-0.2,-0.91,0.37,0.61,-2.62,-2.5,287,286,207,254,272,12
739,-0.19,-0.91,0.37,0.55,-3.23,-2.62,288,284,208,256,273,12
740,-0.2,-0.91,0.37,1.59,-2.38,-3.3,287,285,206,257,266,12
741,-0.21,-0.91,0.37,-0.49,-3.6,-1.59,276,290,205,255,271,12
742,-0.21,-0.91,0.37,1.22,-2.5,-2.87,287,286,208,255,302,12
743,-0.19,-0.91,0.38,1.95,-1.77,-3.42,287,291,207,257,273,12
744,-0.19,-0.9,0.38,0.73,-3.11,-2.75,289,285,204,257,272,12
745,-0.19,-0.9,0.39,-0.24,-2.69,-1.95,286,290,207,255,274,12
746,-0.21,-0.91,0.37,-6.16,-4.7,5.92,289,299,206,258,275,12
747,-0.22,-0.92,0.35,-1.83,-5.86,3.72,285,289,208,256,272,12
748,-0.2,-0.91,0.34,0.24,-1.46,-2.14,279,290,207,258,271,12
749,-0.24,-0.91,0.34,-0.55,-3.42,-3.3,280,288,209,258,271,12
750,-0.25,-0.91,0.33,-2.26,-3.6,-1.83,282,292,209,256,273,12
751,-0.25,-0.9,0.36,0.12,-4.39,-4.03,282,287,211,257,274,12
752,-0.25,-0.92,0.31,2.75,-3.97,-6.59,282,288,208,256,275,12
753,-0.24,-0.92,0.33,1.1,-2.99,-2.2,282,289,209,259,270,12
754,-0.22,-0.91,0.35,2.75,-3.6,-1.1,280,287,210,258,272,12
755,-0.22,-0.91,0.36,1.65,-3.17,-2.62,281,283,209,254,283,12
756,-0.23,-0.9,0.36,1.95,-3.72,-2.99,282,283,209,256,266,12
757,-0.22,-0.9,0.36,-0.67,-2.5,-2.32,282,289,207,258,272,12
758,-0.23,-0.91,0.35,0.49,-2.75,-2.08,284,283,210,256,273,12
759,-0.23,-0.9,0.36,0.73,-2.2,-2.81,286,287,210,258,272,12
760,-0.23,-0.91,0.34,0.31,-2.01,-2.87,284,283,210,258,275,12
761,-0.23,-0.89,0.35,-2.08,-0.55,-2.5,273,284,205,257,273,12
762,-0.23,-0.92,0.34,-0.55,-2.81,-1.77,274,286,209,257,272,12
763,-0.24,-0.92,0.33,0.49,-2.01,-3.05,273,290,207,259,296,12
764,-0.24,-0.91,0.31,-0.06,-2.62,-1.89,273,287,208,256,273,12
765,-0.24,-0.91,0.32,1.34,-4.88,-1.77,275,290,207,257,270,12
766,-0.24,-0.91,0.34,0.85,-3.6,-2.87,275,290,215,256,276,12
767,-0.22,-0.92,0.34,0.43,-2.69,-2.87,276,290,209,254,269,12
768,-0.24,-0.91,0.34,-1.16,-2.62,-1.89,282,291,212,260,272,12
769,-0.23,-0.91,0.34,0.37,-2.99,-2.44,278,291,212,258,273,12
770,-0.22,-0.91,0.34,-0.12,-3.23,-2.01,277,295,213,256,281,12
771,-0.23,-0.91,0.35,-0.49,-2.5,-2.26,283,294,208,259,270,12
772,-0.23,-0.91,0.35,1.22,-2.87,-3.6,284,289,208,259,273,12
773,-0.22,-0.91,0.34,0.43,-3.36,-2.69,282,292,207,256,272,12
774,-0.23,-0.9,0.35,0.67,-2.08,-2.69,283,297,209,256,274,12
775,-0.23,-0.91,0.35,0.55,-2.93,-2.5,278,296,210,255,275,12
776,-0.22,-0.91,0.35,-0.12,-3.36,-2.32,281,294,208,254,271,12
777,-0.22,-0.91,0.36,-0.61,-3.11,-2.2,284,292,209,258,270,12
778,-0.23,-0.91,0.34,-0.43,-2.32,-1.28,282,292,212,260,275,12
779,-0.23,-0.91,0.35,-0.37,-3.54,-1.83,280,291,211,259,273,12
780,-0.23,-0.91,0.34,-0.43,-2.75,-3.11,287,288,209,259,273,12
781,-0.23,-0.91,0.35,0.18,-3.48,-2.5,280,292,213,257,274,12
782,-0.23,-0.91,0.35,-0.18,-2.87,-2.01,284,288,208,261,270,12
783,-0.23,-0.91,0.35,0.85,-2.69,-2.93,285,297,211,256,271,12
784,-0.22,-0.91,0.35,1.28,-2.99,-3.23,284,291,209,255,273,12
785,-0.22,-0.91,0.35,0.06,-2.99,-2.56,283,296,211,256,271,12
786,-0.23,-0.91,0.35,1.16,-2.26,-2.87,284,285,209,255,274,12
787,-0.23,-0.91,0.35,0.49,-2.62,-2.81,285,296,207,257,273,12
788,-0.23,-0.9,0.35,1.71,-2.56,-3.23,281,291,210,255,270,12
789,-0.22,-0.9,0.37,0.0,-3.66,-1.89,287,296,208,257,272,12
790,-0.23,-0.91,0.36,0.61,-2.56,-2.44,286,287,209,254,271,12
791,-0.22,-0.91,0.36,0.61,-2.81,-2.87,285,294,212,256,272,12
792,-0.22,-0.91,0.35,0.0,-2.81,-2.38,286,288,208,255,271,12
793,-0.22,-0.91,0.36,0.92,-1.89,-3.23,286,295,208,256,273,12
794,-0.22,-0.91,0.36,-0.43,-2.87,-2.32,287,292,211,256,270,12
795,-0.22,-0.9,0.36,0.43,-2.87,-3.05,286,292,209,261,293,12
796,-0.22,-0.91,0.37,1.4,-2.56,-3.42,288,292,207,259,280,12
797,-0.21,-0.91,0.35,1.53,-3.11,-2.93,289,294,208,257,280,12
798,-0.22,-0.91,0.37,1.95,-3.48,-2.56,288,290,213,258,272,12
799,-0.22,-0.91,0.36,0.55,-3.11,-1.28,285,292,208,257,272,12
800,-0.22,-0.9,0.37,0.24,-2.5,-2.26,285,296,210,256,271,12
801,-0.23,-0.91,0.37,1.65,-3.72,-2.69,279,293,207,259,271,12
802,-0.23,-0.9,0.36,-0.06,-2.81,-2.2,282,293,223,256,267,12
803,-0.22,-0.9,0.37,0.73,-2.5,-2.75,280,292,210,256,268,12
804,-0.22,-0.9,0.37,-0.24,-4.03,-2.14,280,292,209,257,276,12
805,-0.22,-0.9,0.38,0.85,-3.36,-2.38,281,292,210,260,266,12
806,-0.22,-0.9,0.37,1.34,-4.03,-2.5,279,294,207,257,268,12
807,-0.23,-0.9,0.38,0.06,-3.42,-2.69,285,291,211,258,270,12
808,-0.22,-0.9,0.37,0.0,-3.05,-2.56,285,292,209,256,270,12
809,-0.21,-0.9,0.39,0.0,-2.81,-2.44,287,299,209,260,270,12
810,-0.22,-0.9,0.38,-0.06,-2.75,-1.95,285,289,214,259,268,12
811,-0.22,-0.9,0.37,-0.24,-3.05,-2.01,290,291,212,260,260,12
812,-0.22,-0.9,0.38,0.43,-2.32,-2.99,288,292,209,258,268,12
813,-0.21,-0.9,0.38,0.85,-3.42,-2.56,288,294,222,257,271,12
814,-0.21,-0.9,0.38,-0.67,-3.66,-1.46,291,289,211,259,271,12
815,-0.22,-0.9,0.38,0.85,-3.42,-2.08,287,287,210,258,272,12
816,-0.22,-0.9,0.38,1.28,-3.48,-2.56,287,291,213,258,271,12
817,-0.21,-0.9,0.38,-0.73,-2.99,-2.44,284,291,210,260,310,12
818,-0.22,-0.9,0.37,0.92,-2.81,-2.01,286,293,210,254,266,12
819,-0.22,-0.91,0.38,1.28,-3.42,-2.01,288,287,210,258,271,12
820,-0.2,-0.9,0.38,0.73,-2.99,-2.38,287,293,209,257,266,12
821,-0.22,-0.9,0.38,-0.43,-2.81,-2.32,288,294,213,257,267,12
822,-0.21,-0.9,0.37,1.16,-2.87,-3.36,291,291,209,261,269,12
823,-0.22,-0.91,0.37,1.16,-3.36,-3.05,290,304,211,257,266,12
824,-0.21,-0.9,0.38,1.4,-2.44,-3.11,289,290,211,260,265,12
825,-0.21,-0.9,0.39,-0.98,-2.69,-1.59,289,295,210,258,269,12
826,-0.22,-0.9,0.38,-0.43,-3.11,-2.2,288,295,211,257,269,12
827,-0.21,-0.9,0.38,0.18,-2.81,-2.44,289,294,209,260,268,12
828,-0.21,-0.9,0.39,-0.61,-3.11,-2.87,291,295,213,260,269,12
829,-0.21,-0.9,0.37,0.12,-2.75,-2.69,287,291,212,257,270,12
830,-0.22,-0.9,0.38,1.04,-2.75,-2.99,290,296,209,258,272,12
831,-0.21,-0.9,0.37,0.55,-2.87,-2.75,287,291,210,258,272,12
832,-0.21,-0.9,0.38,0.61,-2.75,-2.75,291,288,216,260,269,12
833,-0.21,-0.9,0.37,0.61,-3.48,-2.01,292,296,214,258,269,12
834,-0.21,-0.9,0.38,-15.56,-3.23,-1.95,292,298,212,258,270,12
835,-0.21,-0.9,0.39,-0.06,-3.11,-1.65,292,291,210,258,311,12
836,-0.21,-0.9,0.38,0.55,-3.17,-2.26,294,292,210,258,270,12
837,-0.21,-0.9,0.38,-0.73,-2.93,-1.59,292,295,213,258,269,12
838,-0.21,-0.9,0.39,-0.24,-2.44,-2.87,290,292,214,261,294,12
839,-0.21,-0.9,0.38,0.67,-3.23,-2.44,293,291,213,260,269,12
840,-0.21,-0.9,0.38,0.0,-3.54,-1.53,290,295,213,260,270,12
841,-0.21,-0.9,0.38,-0.55,-2.69,-2.2,293,295,212,258,271,12
842,-0.23,-0.89,0.39,1.1,-2.26,-2.87,293,293,212,259,273,12
843,-0.21,-0.9,0.38,0.98,-3.05,-2.87,294,296,222,261,271,12
844,-0.22,-0.9,0.38,-0.61,-3.48,-2.14,294,292,208,257,271,12
845,-0.22,-0.91,0.36,-0.55,-2.69,-2.5,293,293,211,258,269,12
846,-0.21,-0.89,0.38,0.85,-3.23,-2.01,292,293,210,260,271,12
847,-0.21,-0.9,0.37,-0.06,-2.62,-1.95,289,292,209,258,267,12
848,-0.21,-0.9,0.38,1.28,-3.17,-2.62,294,293,214,259,270,12
849,-0.21,-0.9,0.39,1.53,-2.81,-2.69,292,293,209,257,271,12
850,-0.22,-0.9,0.38,0.43,-3.42,-2.32,289,292,210,260,271,12
851,-0.22,-0.9,0.39,0.79,-3.11,-1.65,285,297,209,259,269,12
852,-0.21,-0.9,0.39,0.18,-2.99,-2.75,282,292,208,260,268,12
853,-0.21,-0.9,0.39,0.61,-3.66,-2.44,287,292,213,259,270,12
854,-0.22,-0.9,0.39,-0.31,-3.17,-1.83,287,288,212,256,269,12
855,-0.21,-0.9,0.39,0.06,-2.99,-2.32,286,295,213,260,270,12
856,-0.21,-0.89,0.39,-0.06,-2.56,-2.38,287,292,211,257,270,12
857,-0.21,-0.9,0.39,0.06,-2.93,-2.32,289,292,209,261,271,12
858,-0.22,-0.9,0.39,0.49,-3.3,-2.26,292,288,213,258,272,12
859,-0.22,-0.9,0.39,0.31,-2.81,-2.62,291,296,208,258,265,12
860,-0.21,-0.9,0.38,1.53,-3.3,-2.75,289,295,210,264,273,12
861,-0.22,-0.9,0.39,0.24,-2.93,-2.26,291,295,211,261,271,12
862,-0.21,-0.9,0.39,0.43,-2.62,-2.69,290,290,212,256,270,12
863,-0.2,-0.9,0.39,1.22,-3.3,-2.14,292,293,209,261,269,12
864,-0.21,-0.9,0.39,0.49,-3.05,-2.56,292,290,209,266,271,12
865,-0.22,-0.9,0.39,0.55,-3.17,-1.89,290,294,210,259,270,12
866,-0.21,-0.89,0.4,-0.55,-2.69,-2.69,287,292,212,259,270,12
867,-0.21,-0.9,0.39,0.31,-3.11,-2.38,290,295,214,261,271,12
868,-0.21,-0.9,0.39,-0.06,-3.05,-2.14,292,293,213,257,270,12
869,-0.21,-0.9,0.39,0.24,-2.81,-2.56,290,297,209,261,272,12
870,-0.2,-0.9,0.39,1.04,-2.81,-3.42,290,291,210,259,269,12
871,-0.21,-0.9,0.4,-0.24,-2.93,-2.26,286,296,210,259,271,12
872,-0.21,-0.9,0.39,-0.06,-2.81,-2.38,286,296,208,260,270,12
873,-0.2,-0.9,0.39,0.12,-2.56,-2.81,290,294,209,262,270,12
874,-0.2,-0.89,0.39,0.61,-2.93,-2.56,293,292,211,259,272,12
875,-0.21,-0.9,0.39,0.98,-3.3,-2.14,288,293,210,258,270,12
876,-0.21,-0.9,0.4,0.43,-3.66,-2.08,284,294,215,261,269,12
877,-0.2,-0.89,0.4,-0.18,-2.93,-2.01,279,288,210,259,272,12
878,-0.21,-0.89,0.4,0.31,-3.17,-1.71,277,299,213,259,271,12
879,-0.22,-0.89,0.4,0.98,-3.66,-2.75,277,295,213,257,272,12
880,-0.21,-0.89,0.4,0.73,-3.3,-3.05,273,290,212,256,272,12
881,-0.21,-0.89,0.4,-0.24,-2.87,-1.59,278,296,214,256,274,12
882,-0.22,-0.89,0.39,0.24,-2.69,-3.05,281,288,210,257,271,12
883,-0.22,-0.89,0.39,0.31,-3.48,-2.38,280,297,211,259,271,12
884,-0.22,-0.89,0.4,-0.61,-3.11,-2.14,280,298,208,260,273,12
885,-0.21,-0.89,0.4,0.92,-2.81,-2.81,279,291,213,260,271,12
886,-0.21,-0.89,0.4,-0.55,-3.05,-1.95,285,296,214,258,273,12
887,-0.21,-0.89,0.4,0.98,-3.42,-2.38,284,293,214,258,273,12
888,-0.21,-0.89,0.41,0.98,-3.36,-2.99,284,295,214,259,273,12
889,-0.21,-0.89,0.4,0.18,-3.11,-2.56,285,295,211,260,273,12
890,-0.22,-0.89,0.4,0.0,-3.42,-2.08,285,295,211,258,271,12
891,-0.21,-0.89,0.41,0.18,-2.56,-2.5,283,296,208,261,270,12
892,-0.2,-0.89,0.41,0.49,-2.38,-2.87,285,291,208,258,272,12
893,-0.21,-0.89,0.41,-0.18,-2.26,-2.69,284,296,212,261,272,12
894,-0.21,-0.9,0.4,0.43,-2.87,-2.01,287,294,213,258,269,12
895,-0.21,-0.89,0.4,-0.24,-3.05,-2.38,289,293,211,256,270,12
896,-0.21,-0.89,0.4,1.53,-2.93,-2.44,287,295,212,257,261,12
897,-0.22,-0.89,0.4,1.65,-3.48,-2.5,285,293,208,257,271,12
898,-0.21,-0.89,0.4,1.22,-3.17,-3.11,290,292,211,259,273,12
899,-0.21,-0.89,0.4,0.06,-3.36,-2.56,285,292,211,256,273,12
900,-0.21,-0.89,0.4,0.61,-2.99,-2.38,288,293,211,258,269,12
901,-0.21,-0.89,0.41,0.49,-2.62,-2.5,289,296,214,257,272,12
902,-0.2,-0.89,0.41,0.06,-2.5,-2.32,284,297,212,258,273,12
903,-0.21,-0.9,0.4,-0.37,-2.75,-1.95,285,292,215,259,272,12
904,-0.21,-0.89,0.41,0.37,-3.17,-2.01,291,295,213,260,271,12
905,-0.2,-0.89,0.41,-0.24,-2.87,-2.56,284,296,210,258,274,12
906,-0.21,-0.89,0.4,0.18,-2.81,-2.5,289,293,216,260,275,12
907,-0.21,-0.89,0.4,-0.31,-2.75,-2.14,290,287,212,262,271,12
908,-0.2,-0.89,0.41,0.49,-2.75,-2.75,289,296,211,258,267,12
909,-0.19,-0.89,0.41,-0.49,-2.99,-2.5,287,293,212,258,274,12
910,-0.21,-0.89,0.4,-0.43,-2.38,-2.26,289,297,211,261,273,12
911,-0.21,-0.89,0.41,0.79,-3.05,-2.38,291,292,212,257,274,12
912,-0.2,-0.89,0.4,0.43,-3.11,-2.69,291,287,212,259,273,12
913,-0.21,-0.89,0.41,0.73,-1.53,-3.11,291,292,212,259,272,12
914,-0.21,-0.89,0.4,0.85,-2.93,-2.44,293,290,211,255,275,12
915,-0.2,-0.89,0.41,0.73,-2.93,-2.38,292,295,210,261,272,12
916,-0.2,-0.89,0.4,-0.37,-3.36,-1.65,292,297,212,260,273,12
917,-0.21,-0.89,0.4,0.18,-3.11,-1.83,291,293,213,259,273,12
918,-0.21,-0.89,0.38,1.4,-3.42,-3.3,292,298,212,261,271,12
919,-0.2,-0.89,0.4,0.55,-2.93,-2.44,294,293,210,260,275,12
920,-0.21,-0.89,0.41,0.73,-2.14,-2.81,294,297,212,259,273,12
921,-0.21,-0.89,0.4,0.49,-2.56,-3.05,295,294,211,262,272,12
922,-0.21,-0.89,0.41,0.85,-2.87,-1.89,292,296,206,262,269,12
923,-0.2,-0.89,0.41,0.61,-2.14,-2.44,298,309,217,259,272,12
924,-0.21,-0.89,0.41,1.4,-3.36,-2.69,290,297,214,261,269,12
925,-0.21,-0.89,0.4,0.37,-3.85,-1.89,293,295,215,260,271,12
926,-0.21,-0.89,0.41,0.37,-2.75,-2.93,291,295,212,257,273,12
927,-0.21,-0.89,0.41,0.31,-2.56,-2.56,294,287,212,259,273,12
928,-0.21,-0.89,0.41,0.55,-2.26,-2.08,295,294,214,259,273,12
929,-0.21,-0.89,0.41,-0.12,-2.5,-2.38,291,293,212,261,273,12
930,-0.2,-0.89,0.41,0.24,-2.81,-2.56,297,292,213,263,272,12
931,-0.21,-0.89,0.41,0.24,-3.3,-2.14,293,293,215,262,271,12
932,-0.21,-0.9,0.4,0.0,-2.93,-1.95,291,292,213,262,269,12
933,-0.21,-0.89,0.41,0.12,-2.75,-2.5,294,293,210,261,273,12
934,-0.21,-0.89,0.41,1.22,-3.17,-2.69,295,288,213,261,274,12
935,-0.2,-0.9,0.4,-1.04,-2.99,-1.89,295,297,209,261,278,12
936,-0.21,-0.89,0.42,0.85,-2.81,-2.2,297,293,211,259,271,12
937,-0.21,-0.89,0.41,0.92,-3.11,-2.62,296,292,214,259,271,12
938,-0.2,-0.89,0.42,0.31,-3.17,-2.5,295,297,218,260,270,12
939,-0.2,-0.89,0.41,0.24,-1.65,-2.62,295,290,215,258,272,12
940,-0.23,-0.9,0.4,-0.67,-2.93,-2.81,297,294,214,258,271,12
941,-0.2,-0.9,0.4,0.49,-2.69,-3.72,297,297,211,263,266,12
942,-0.19,-0.89,0.41,0.31,-2.62,-1.83,297,297,212,263,272,12
943,-0.21,-0.89,0.4,1.34,-2.99,-2.5,298,294,215,258,270,12
944,-0.2,-0.89,0.4,2.81,-4.03,-5.31,297,297,215,272,271,12
945,-0.21,-0.89,0.41,1.77,-2.14,-0.43,295,291,212,261,269,12
946,-0.2,-0.91,0.38,3.72,-3.6,-6.23,296,295,212,258,272,12
947,-0.21,-0.9,0.41,-0.37,-4.94,0.92,292,293,208,261,273,12
948,-0.18,-0.89,0.43,1.71,-2.81,-1.16,295,294,212,260,273,12
949,-0.18,-0.89,0.43,1.28,-2.99,-1.83,297,298,211,259,274,12
950,-0.17,-0.88,0.45,1.16,-2.87,-2.44,297,290,212,259,275,12
951,-0.17,-0.88,0.44,0.24,-3.05,-2.38,297,291,211,258,274,12
952,-0.17,-0.88,0.45,0.67,-2.99,-3.23,299,296,211,258,273,12
953,-0.16,-0.87,0.46,1.04,-3.17,-2.81,297,288,212,260,276,12
954,-0.17,-0.88,0.44,0.61,-3.36,-2.5,297,291,209,259,271,12
955,-0.17,-0.88,0.45,-0.18,-3.05,-2.69,297,288,216,267,273,12
956,-0.18,-0.89,0.43,-0.61,-2.2,-0.12,295,292,214,260,275,12
957,-0.21,-0.89,0.41,-0.31,0.18,-0.98,283,291,213,262,275,12
958,-0.23,-0.92,0.38,1.53,13.98,-10.19,276,291,212,263,274,12
959,-0.22,-0.91,0.36,5.8,19.59,-12.76,278,293,215,258,273,12
960,-0.21,-0.91,0.35,-1.83,-2.56,-0.49,277,290,216,257,274,12
961,-0.23,-0.9,0.37,1.22,-2.81,-2.44,274,289,214,263,274,12
962,-0.21,-0.9,0.39,-0.24,-3.6,-1.83,282,294,212,264,275,12
963,-0.21,-0.89,0.4,0.55,-4.7,-1.04,288,299,217,264,275,12
964,-0.22,-0.89,0.39,1.46,-5.55,-2.56,282,295,212,261,274,12
965,-0.21,-0.89,0.39,1.04,-3.78,-2.87,284,295,215,260,284,12
966,-0.21,-0.89,0.39,1.22,-4.21,-1.89,281,294,213,262,273,12
967,-0.22,-0.89,0.4,-0.06,-2.87,-3.05,284,291,215,264,274,12
968,-0.21,-0.9,0.39,0.61,-2.62,-2.99,285,298,214,264,274,12
969,-0.21,-0.89,0.4,-1.4,-2.56,-1.89,284,294,216,262,275,12
970,-0.21,-0.89,0.4,-0.06,-2.32,-2.81,287,293,212,259,271,12
971,-0.21,-0.89,0.41,0.49,-2.81,-2.75,285,311,215,259,275,12
972,-0.2,-0.89,0.39,0.98,-4.46,-1.95,286,293,213,262,275,12
973,-0.21,-0.89,0.41,0.67,-3.36,-2.32,280,297,219,261,275,12
974,-0.22,-0.89,0.41,0.12,-3.97,-1.53,284,294,216,266,272,12
975,-0.22,-0.89,0.4,0.92,-2.5,-1.83,280,296,217,261,271,12
976,-0.2,-0.89,0.4,-0.12,-2.5,-1.53,285,295,214,261,276,12
977,-0.21,-0.89,0.4,0.73,-3.85,-2.32,284,295,215,261,274,12
978,-0.2,-0.88,0.41,0.06,-2.99,-2.56,286,296,215,262,274,12
979,-0.21,-0.89,0.41,0.12,-3.17,-2.32,284,294,214,263,279,12
980,-0.21,-0.89,0.41,0.85,-4.46,-2.08,286,298,214,261,274,12
981,-0.21,-0.89,0.42,-0.98,-2.44,-2.5,286,296,216,265,274,12
982,-0.21,-0.89,0.41,-0.06,-2.81,-2.62,283,300,215,260,274,12
983,-0.21,-0.89,0.42,-0.18,-3.17,-2.14,297,290,214,261,277,12
984,-0.21,-0.88,0.42,-0.49,-1.95,-2.62,281,295,212,261,282,12
985,-0.2,-0.88,0.42,-0.18,-3.78,-1.65,286,295,212,264,273,12
986,-0.21,-0.89,0.42,1.22,-2.2,-2.75,284,293,215,262,271,12
987,-0.21,-0.89,0.41,0.55,-3.78,-2.2,287,291,216,262,312,12
988,-0.21,-0.89,0.42,-0.98,-2.32,-2.75,286,294,216,261,276,12
989,-0.21,-0.89,0.42,0.79,-3.36,-2.38,284,293,215,262,273,12
990,-0.2,-0.89,0.42,-0.67,-3.48,-1.95,283,294,214,264,273,12
991,-0.21,-0.89,0.41,0.43,-2.81,-2.2,294,298,214,262,272,12
992,-0.21,-0.88,0.42,-0.43,-2.14,-2.69,286,294,224,261,276,12
993,-0.21,-0.89,0.42,-1.22,-2.93,-2.2,287,296,214,258,271,12
994,-0.2,-0.89,0.41,-0.55,-2.62,-2.32,287,297,214,261,275,12
995,-0.2,-0.89,0.42,0.49,-2.81,-3.05,289,299,211,264,272,12
996,-0.2,-0.89,0.41,0.79,-3.36,-2.69,291,295,213,262,273,12
997,-0.2,-0.88,0.41,0.18,-1.34,-3.48,287,291,214,258,276,12
998,-0.2,-0.89,0.41,1.16,-3.6,-2.5,286,296,216,259,273,12
999,-0.2,-0.89,0.41,1.53,-3.17,-2.87,287,295,216,261,276,12
1000,-0.2,-0.89,0.42,1.46,-3.91,-2.87,288,300,214,261,273,12
1001,-0.2,-0.89,0.42,1.53,-2.75,-3.17,284,295,210,258,276,12
1002,-0.2,-0.89,0.42,0.85,-4.03,-2.01,286,297,217,261,272,12
1003,-0.2,-0.88,0.42,0.0,-2.81,-2.2,290,299,216,264,275,12
1004,-0.19,-0.89,0.42,0.49,-3.42,-2.44,293,299,213,266,276,12
1005,-0.19,-0.89,0.42,0.06,-2.44,-3.11,289,297,216,262,273,12
1006,-0.19,-0.89,0.42,0.43,-3.36,-2.2,291,296,212,261,274,12
1007,-0.19,-0.89,0.42,0.67,-3.36,-2.38,290,296,213,261,270,12
1008,-0.2,-0.88,0.42,-0.18,-3.3,-2.56,290,291,214,263,275,12
1009,-0.19,-0.89,0.42,0.85,-3.6,-2.44,290,298,213,262,280,12
1010,-0.19,-0.88,0.43,-0.24,-2.81,-2.26,292,295,215,261,275,12
1011,-0.2,-0.88,0.42,-0.55,-3.11,-1.77,289,296,216,266,273,12
1012,-0.19,-0.89,0.41,-0.12,-4.03,-1.53,291,295,216,261,275,12
1013,-0.19,-0.89,0.42,0.92,-2.99,-3.05,290,297,219,260,276,12
1014,-0.2,-0.89,0.42,1.22,-1.95,-3.23,290,299,214,265,275,12
1015,-0.18,-0.88,0.43,-0.18,-2.5,-2.69,293,299,214,265,273,12
1016,-0.19,-0.89,0.43,-0.67,-2.99,-1.71,294,296,211,265,275,12
1017,-0.14,-0.92,0.39,-1.46,-26.92,8.79,293,300,213,258,269,12
1018,-0.21,-0.88,0.44,1.34,14.28,1.59,290,300,210,260,275,12
1019,-0.24,-0.86,0.43,10.56,2.87,-7.08,294,294,216,264,273,12
1020,-0.26,-0.85,0.48,1.46,-6.1,-1.46,294,297,213,258,275,12
1021,-0.25,-0.85,0.47,-2.32,-4.03,-2.5,292,297,216,261,274,12
1022,-0.25,-0.86,0.45,-0.79,-2.14,-2.93,293,295,212,265,276,12
1023,-0.26,-0.86,0.44,-0.67,-2.56,-2.5,292,308,216,267,276,12
1024,-0.25,-0.86,0.44,0.67,-2.44,-2.5,294,295,212,265,277,12
1025,-0.25,-0.86,0.44,1.22,-3.42,-2.69,294,294,214,261,277,12
1026,-0.25,-0.86,0.44,0.0,-2.5,-2.38,293,295,215,264,274,12
1027,-0.14,-0.94,0.3,11.41,-5.8,-1.34,286,261,187,235,231,12
1028,-0.15,-0.92,0.32,-3.42,-4.76,-3.05,288,262,190,237,229,12
1029,-0.15,-0.93,0.35,0.49,-1.16,-0.18,290,263,189,236,237,12
1030,-0.13,-0.94,0.33,-0.67,-2.14,-2.01,290,262,186,237,234,12
1031,-0.14,-0.94,0.27,-1.71,-5.07,-0.37,293,261,185,238,233,12
1032,-0.13,-0.94,0.32,7.2,0.61,-3.91,293,266,185,238,235,12
1033,-0.13,-0.93,0.34,1.04,-2.2,-2.56,295,273,187,241,236,12
1034,-0.14,-0.92,0.34,-0.67,-3.11,-2.93,295,271,188,242,234,12
1035,-0.14,-0.93,0.35,-1.95,-4.03,-3.78,298,266,188,240,237,12
1036,-0.13,-0.93,0.36,0.49,-2.5,-4.94,300,269,189,238,235,12
1037,-0.16,-0.92,0.38,2.99,0.31,-2.87,301,270,191,238,247,12
1038,-0.16,-0.91,0.39,0.12,-4.09,-1.28,303,271,187,239,230,12
1039,-0.12,-0.92,0.39,1.04,4.94,-8.12,303,270,189,240,234,12
1040,-0.16,-0.89,0.47,18.74,2.75,-1.22,304,274,188,240,231,12
1041,-0.06,-0.92,0.37,2.38,-2.14,-4.33,306,269,191,238,234,12
1042,-0.1,-0.91,0.46,4.27,-5.25,3.66,305,276,192,239,235,12
1043,-0.13,-0.89,0.44,5.43,-3.54,2.5,303,274,193,241,234,12
1044,-0.13,-0.88,0.46,3.17,-3.6,-2.38,306,275,191,245,238,12
1045,-0.14,-0.88,0.46,2.44,-3.11,-1.71,307,271,190,242,238,12
1046,-0.13,-0.88,0.46,0.31,-3.3,-2.14,310,279,194,239,235,12
1047,-0.1,-0.87,0.48,3.42,-4.7,-2.56,311,278,190,241,235,12
1048,-0.12,-0.87,0.48,0.49,-2.44,-1.77,311,282,189,246,233,12
1049,-0.13,-0.87,0.49,-0.92,-2.44,-2.26,310,279,194,246,237,12
1050,-0.12,-0.87,0.49,0.18,-4.09,-2.14,310,278,194,242,236,12
1051,-0.13,-0.88,0.47,-2.62,-2.14,-4.64,306,284,189,246,232,12
1052,-0.12,-0.87,0.49,1.59,-3.05,-1.59,309,281,192,244,236,12
1053,-0.12,-0.85,0.5,-0.37,-2.87,-3.36,307,279,193,243,240,12
1054,-0.13,-0.86,0.52,8.85,-5.13,1.4,303,279,194,245,237,12
1055,-0.13,-0.85,0.53,1.65,-3.48,-1.46,298,284,193,246,238,12
1056,-0.13,-0.85,0.52,1.28,-2.87,-2.26,302,274,193,245,240,12
1057,-0.14,-0.85,0.52,1.1,-2.56,-2.62,303,291,197,244,237,12
1058,-0.13,-0.85,0.52,1.89,-2.32,-3.23,303,283,194,244,238,12
1059,-0.13,-0.85,0.52,2.2,-3.42,-1.83,305,279,196,245,242,12
1060,-0.13,-0.85,0.52,2.81,-2.99,-2.56,304,276,195,249,234,12
1061,-0.13,-0.84,0.53,0.98,-3.6,-2.01,305,284,192,256,240,12
1062,-0.13,-0.84,0.53,-1.59,-2.32,-2.75,308,285,195,244,239,12
1063,-0.13,-0.84,0.53,1.22,-3.54,-2.26,309,284,195,246,240,12
1064,-0.12,-0.84,0.54,1.53,-2.87,-2.5,308,277,194,249,244,12
1065,-0.13,-0.84,0.54,0.55,-2.75,-2.87,306,277,195,245,236,12
1066,-0.13,-0.84,0.54,1.53,-3.23,-1.89,305,283,194,245,239,12
1067,-0.13,-0.83,0.54,0.24,-3.05,-2.26,308,282,200,250,238,12
1068,-0.12,-0.83,0.55,2.08,-2.38,-2.62,308,281,198,250,238,12
1069,-0.13,-0.84,0.54,-0.37,-3.23,-2.38,307,284,198,250,240,12
1070,-0.14,-0.83,0.55,-0.61,-4.46,-0.55,307,281,194,244,243,12
1071,-0.12,-0.84,0.53,1.28,-2.56,-3.23,310,285,194,247,240,12
1072,-0.13,-0.84,0.52,0.12,-1.1,-3.42,310,284,198,248,240,12
1073,-0.12,-0.85,0.53,0.12,-2.44,-4.09,305,282,195,249,239,12
1074,-0.13,-0.85,0.53,-3.48,-3.66,-2.81,310,287,197,250,241,12
1075,-0.12,-0.83,0.54,-3.54,-6.59,-0.79,311,283,196,249,241,12
1076,-0.12,-0.84,0.54,-1.53,-2.14,-3.66,306,282,199,249,239,12
1077,-0.12,-0.84,0.53,1.83,-2.75,-2.62,310,286,199,247,242,12
1078,-0.12,-0.83,0.54,2.99,-6.1,0.24,310,278,201,252,239,12
1079,-0.11,-0.84,0.53,3.72,-2.81,-1.95,311,280,199,251,240,12
1080,-0.11,-0.83,0.54,-1.28,-2.26,-4.09,313,283,197,250,240,12
1081,-0.11,-0.84,0.54,1.04,-3.36,-1.65,311,289,196,253,238,12
1082,-0.15,-0.83,0.56,10.07,4.09,2.81,300,283,196,248,242,12
1083,-0.14,-0.82,0.56,-1.04,-1.34,-3.48,290,286,200,246,237,12
1084,-0.14,-0.85,0.52,-0.67,-3.66,-1.83,306,286,200,248,241,12
1085,-0.12,-0.85,0.5,-0.06,-2.5,-4.33,303,288,198,261,238,12
1086,-0.14,-0.85,0.52,-0.55,-3.23,-2.81,305,291,195,250,241,12
1087,-0.14,-0.87,0.49,-1.71,-3.17,-2.75,305,287,197,253,243,12
1088,-0.14,-0.84,0.53,-0.49,-3.78,-1.46,306,282,198,252,239,12
1089,-0.13,-0.85,0.52,1.22,-2.99,-2.69,308,285,200,248,241,12
1090,-0.13,-0.84,0.53,1.77,-2.26,-2.5,309,287,196,250,254,12
1091,-0.15,-0.84,0.54,1.65,-4.76,-0.98,309,284,201,252,241,12
1092,-0.15,-0.83,0.55,2.75,-3.05,-2.2,302,282,199,253,240,12
1093,-0.15,-0.83,0.55,0.12,-2.5,-2.81,307,283,214,252,241,12
1094,-0.14,-0.83,0.54,0.79,-2.99,-2.32,306,280,197,252,240,12
1095,-0.14,-0.83,0.54,1.34,-1.4,-2.56,308,283,201,253,240,12
1096,-0.15,-0.82,0.56,2.2,-2.81,-3.17,304,282,201,250,240,12
1097,-0.14,-0.82,0.55,0.18,-2.26,-3.3,306,282,196,253,241,12
1098,-0.14,-0.82,0.56,1.65,-4.46,-2.08,310,286,196,255,243,12
1099,-0.15,-0.81,0.55,0.73,-4.27,-3.11,308,276,202,254,238,12
1100,-0.14,-0.81,0.58,2.32,-5.31,-1.65,307,279,202,251,240,12
1101,-0.15,-0.81,0.56,1.04,-3.54,-3.17,307,283,198,251,243,12
1102,-0.14,-0.82,0.56,0.18,-2.99,-2.5,307,279,202,250,238,12
1103,-0.14,-0.82,0.56,-0.85,-0.92,-3.17,306,282,197,248,242,12
1104,-0.14,-0.82,0.57,1.77,-3.66,-0.79,306,277,198,254,240,12
1105,-0.14,-0.81,0.57,-0.79,-2.93,-2.2,309,284,197,252,243,12
1106,-0.14,-0.81,0.58,0.43,-2.81,-0.67,304,281,203,252,240,12
1107,-0.15,-0.82,0.57,1.1,-2.99,-2.2,308,277,198,253,242,12
1108,-0.15,-0.84,0.58,0.73,-3.11,-3.36,309,283,196,251,240,12
1109,-0.13,-0.8,0.59,0.43,-2.99,-2.75,308,286,197,268,239,12
1110,-0.14,-0.81,0.58,1.77,-2.5,-2.14,311,287,198,251,240,12
1111,-0.14,-0.81,0.59,-0.18,-1.04,-3.17,307,282,200,259,249,12
1112,-0.15,-0.8,0.59,-0.18,-2.87,-1.28,309,281,202,252,242,12
1113,-0.14,-0.81,0.58,0.18,-2.32,-1.59,306,288,198,251,252,12
1114,-0.16,-0.8,0.59,0.31,-1.4,-1.71,308,283,202,250,243,12
1115,-0.17,-0.81,0.58,-0.49,-2.32,-2.08,305,286,197,254,246,12
1116,-0.13,-0.79,0.61,1.46,-3.11,0.12,306,282,211,253,239,12
1117,-0.16,-0.8,0.58,-1.95,-4.33,-1.46,310,287,198,253,240,12
1118,-0.13,-0.79,0.61,-1.71,-3.85,-3.72,306,283,204,251,243,12
1119,-0.1,-0.8,0.6,5.74,-4.88,-4.58,303,284,199,251,245,12
1120,-0.14,-0.81,0.57,2.32,-2.14,1.16,309,282,203,254,243,12
1121,-0.13,-0.77,0.63,-1.53,-1.22,-3.66,310,282,201,251,258,12
1122,-0.16,-0.8,0.61,-8.97,-4.52,1.04,309,283,202,261,241,12
1123,-0.11,-0.79,0.6,3.54,-3.48,-6.23,309,282,200,255,245,12
1124,-0.15,-0.79,0.62,-0.73,-3.3,-1.1,308,285,201,252,243,12
1125,-0.1,-0.79,0.61,-0.85,-4.58,-7.39,309,281,204,253,240,12
1126,-0.14,-0.81,0.58,2.81,-5.19,-2.99,309,284,200,254,240,12
1127,-0.14,-0.84,0.61,-0.79,-3.17,-4.27,309,289,203,250,241,12
1128,-0.08,-0.85,0.53,5.37,12.57,-13.67,311,280,201,253,258,12
1129,-0.21,-0.8,0.63,14.16,6.41,-15.08,312,279,199,254,236,12
1130,-0.15,-0.78,0.59,12.7,12.33,-10.07,309,282,203,248,237,12
1131,-0.13,-0.75,0.66,22.09,6.47,11.35,311,285,201,250,238,12
1132,-0.17,-0.79,0.58,-9.09,8.24,-8.54,311,279,200,249,235,12
1133,-0.2,-0.75,0.66,24.66,-9.58,9.28,311,283,200,249,235,12
1134,-0.25,-0.69,0.7,-1.1,-1.34,0.85,313,286,201,250,237,12
1135,-0.24,-0.69,0.7,-2.56,-6.16,-2.26,307,284,200,249,238,12
1136,-0.22,-0.73,0.68,1.16,-2.69,-1.4,314,286,203,253,233,12
1137,-0.22,-0.73,0.68,-1.46,-13.31,-0.73,314,281,198,250,237,12
1138,-0.17,-0.74,0.67,-13.55,-18.92,-8.36,313,282,204,253,244,12
1139,-0.06,-0.78,0.63,-7.26,-23.25,-9.09,314,286,199,251,234,12
1140,0.03,-0.8,0.62,-9.77,-14.77,-1.95,312,286,202,251,237,12
1141,0.09,-0.81,0.58,9.7,0.67,-8.73,311,287,204,253,239,12
1142,0.03,-0.78,0.61,2.01,-5.74,-1.4,311,290,197,253,244,12
1143,0.05,-0.8,0.61,5.25,-2.75,4.03,317,290,199,250,240,12
1144,0.03,-0.81,0.59,2.81,-4.76,-1.28,315,293,201,254,241,12
1145,0.03,-0.78,0.63,4.27,-4.46,-3.23,311,283,202,252,239,12
1146,-0.0,-0.81,0.61,-1.95,-4.82,-0.12,314,284,200,257,231,12
1147,0.03,-0.78,0.64,2.87,-7.2,-0.12,312,289,204,251,234,12
1148,0.0,-0.76,0.68,0.55,-0.55,-1.04,315,286,201,255,233,12
1149,0.05,-0.78,0.62,-0.06,1.53,1.59,312,288,200,255,241,12
1150,0.01,-0.81,0.6,-4.46,-0.85,-2.99,315,284,205,253,239,12
1151,-0.0,-0.81,0.6,-3.78,-11.54,-3.42,311,291,200,255,280,12
1152,-0.01,-0.82,0.6,1.4,-4.46,0.73,313,287,204,254,238,12
1153,0.01,-0.81,0.59,-1.4,-6.9,-7.32,317,287,201,255,239,12
1154,-0.01,-0.82,0.56,0.31,6.77,-0.55,317,291,202,255,239,12
1155,-0.04,-0.7,0.81,-18.31,-4.94,0.61,307,286,199,252,239,12
1156,-0.11,-0.86,0.54,-1.53,-19.78,14.22,292,285,198,246,240,12
1157,-0.19,-0.86,0.56,-16.6,-8.67,7.14,290,278,196,242,237,12
1158,-0.24,-0.81,0.49,33.57,16.24,-12.45,290,279,199,242,245,12
1159,-0.18,-0.84,0.57,-1.89,-4.27,-3.97,288,283,200,243,233,12
1160,-0.16,-0.93,0.54,0.12,-0.67,-7.14,290,277,197,240,236,12
1161,-0.14,-0.82,0.45,-1.71,-22.95,-3.17,291,284,200,241,236,12
1162,-0.13,-0.82,0.55,10.5,-0.61,0.06,292,283,198,244,244,12
1163,-0.1,-0.85,0.44,-12.82,2.99,-13.55,298,285,202,238,236,12
1164,-0.09,-0.84,0.5,5.8,-2.38,-10.13,297,281,201,243,235,12
1165,-0.1,-0.87,0.51,-25.63,-0.55,-4.7,297,288,210,243,235,12
1166,-0.1,-0.92,0.38,-6.84,-2.01,-6.53,274,283,198,245,237,12
1167,-0.06,-0.92,0.36,-7.08,-6.1,-7.69,276,280,197,254,233,12
1168,-0.03,-0.96,0.3,-17.21,3.05,-2.08,276,271,197,253,231,12
1169,-0.08,-0.96,0.25,7.51,-16.3,-0.18,267,277,195,251,235,12
1170,-0.14,-0.96,0.26,-4.27,-5.98,1.46,271,274,200,257,234,12
1171,-0.12,-0.97,0.23,-10.31,-9.03,2.5,275,271,197,251,230,12
1172,-0.13,-0.96,0.25,1.89,-5.43,-1.46,275,276,200,252,232,12
1173,-0.1,-0.96,0.23,-0.43,-9.03,-2.75,278,274,198,245,232,12
1174,-0.12,-0.96,0.26,3.6,-3.85,-2.75,280,280,200,250,232,12
1175,-0.13,-0.96,0.24,-1.71,-2.08,-3.23,281,276,197,249,234,12
1176,-0.13,-0.97,0.23,-4.03,-2.99,-2.99,280,278,204,250,234,12
1177,-0.14,-0.97,0.21,1.77,-3.78,-1.53,280,271,198,250,230,12
1178,-0.13,-0.96,0.24,-1.59,-3.91,-2.26,281,276,198,250,231,12
1179,-0.13,-0.97,0.22,0.24,6.23,-4.88,280,277,198,248,233,12
1180,-0.12,-0.96,0.25,0.18,-1.83,-2.62,282,281,198,253,231,12
1181,-0.13,-0.92,0.25,7.2,-1.59,-2.14,280,273,211,253,264,12
1182,-0.14,-0.95,0.29,0.55,-3.05,-2.14,278,278,195,248,233,12
1183,-0.14,-0.95,0.28,-1.95,-4.52,-2.14,282,278,197,252,234,12
1184,-0.13,-0.95,0.28,2.14,-3.42,-2.56,280,281,201,249,235,12
1185,-0.11,-0.94,0.31,3.6,-5.07,-1.22,279,276,198,251,233,12
1186,-0.14,-0.93,0.32,7.08,-3.36,-0.85,279,281,201,252,234,12
1187,-0.13,-0.94,0.33,-0.12,-3.11,-2.56,285,282,196,250,232,12
1188,-0.14,-0.95,0.31,0.43,-5.19,0.43,282,280,196,254,233,12
1189,-0.11,-0.94,0.32,3.11,-3.85,-1.46,284,283,203,253,233,12
1190,-0.11,-0.94,0.3,9.28,-3.3,0.0,284,279,199,254,233,12
1191,-0.14,-0.9,0.4,9.95,-6.04,-1.1,284,285,199,251,234,12
1192,-0.14,-0.91,0.38,-4.58,-0.18,-7.75,285,282,196,251,234,12
1193,-0.13,-0.92,0.38,1.77,-1.89,-0.85,284,282,202,251,236,12
1194,-0.13,-0.92,0.38,0.18,-2.99,-2.26,287,284,203,263,225,12
1195,-0.12,-0.92,0.38,-1.46,-4.03,-0.49,288,285,199,252,234,12
1196,-0.1,-0.91,0.38,0.85,-3.11,-0.06,292,284,196,252,232,12
1197,-0.13,-0.91,0.38,-0.31,-3.48,-1.77,289,285,199,254,232,12
1198,-0.13,-0.92,0.38,2.69,-2.93,-3.3,288,281,201,253,233,12
1199,-0.11,-0.92,0.38,-0.43,-2.2,-4.09,290,287,199,252,237,12
1200,-0.11,-0.9,0.39,3.91,-2.5,-2.44,293,283,201,249,237,12
1201,-0.11,-0.91,0.4,0.67,-2.75,-3.3,292,286,202,253,238,12
1202,-0.11,-0.91,0.41,1.53,-3.6,-2.75,287,281,200,255,237,12
1203,-0.13,-0.92,0.38,0.37,-4.94,-1.22,292,281,202,251,232,12
1204,-0.14,-0.91,0.41,-0.61,-3.3,-0.18,293,294,204,255,234,12
1205,-0.12,-0.9,0.42,-1.34,-4.09,-2.01,294,282,205,252,234,12
1206,-0.14,-0.89,0.39,4.52,-0.12,-7.02,293,287,196,253,233,12
1207,-0.12,-0.9,0.41,0.18,-3.6,-2.44,288,285,204,253,235,12
1208,-0.11,-0.9,0.42,1.53,-2.81,-2.14,291,286,200,256,245,12
1209,-0.11,-0.91,0.42,-0.31,-3.23,-1.95,286,291,202,256,237,12
1210,-0.1,-0.89,0.41,-3.36,-4.94,-0.37,293,286,200,252,234,12
1211,-0.11,-0.91,0.42,-7.63,-4.94,1.1,292,290,198,255,235,12
1212,-0.12,-0.91,0.39,0.12,-3.78,-3.23,292,285,201,250,237,12
1213,-0.11,-0.91,0.39,-0.18,-4.15,-2.62,294,287,203,252,238,12
1214,-0.12,-0.9,0.42,-0.31,-4.94,-2.69,282,289,195,252,235,12
1215,-0.09,-0.91,0.41,2.14,0.67,-2.62,288,286,198,253,235,12
1216,-0.11,-0.91,0.38,10.25,-5.43,-3.17,284,286,202,253,233,12
1217,-0.07,-0.87,0.5,0.85,-4.82,-16.36,289,285,204,251,233,12
1218,0.02,-0.91,0.47,-9.22,-4.64,-0.55,291,287,202,250,235,12
1219,0.01,-0.91,0.45,-12.39,-12.7,7.57,291,283,204,252,234,12
1220,0.05,-0.91,0.42,-3.97,0.43,-12.45,292,285,202,252,235,12
1221,0.03,-0.94,0.34,-5.74,11.78,1.04,292,290,201,256,233,12
1222,-0.06,-0.93,0.4,1.77,0.49,5.37,291,291,203,254,239,12
1223,-0.07,-0.93,0.34,-16.42,2.2,-5.68,293,290,201,255,235,12
1224,-0.09,-0.94,0.3,2.01,-6.47,-3.97,291,288,206,255,234,12
1225,-0.08,-0.96,0.3,-4.7,-3.66,-3.17,293,289,201,252,234,12
1226,-0.07,-0.95,0.29,-1.34,-3.3,-2.44,293,291,209,253,231,12
1227,-0.07,-0.96,0.3,4.88,-5.92,-3.54,294,287,208,255,230,12
1228,-0.04,-0.95,0.31,3.17,-2.38,-4.33,296,292,202,253,237,12
1229,-0.05,-0.96,0.29,-0.73,-7.26,0.06,294,291,203,256,237,12
1230,-0.08,-0.96,0.27,0.55,-3.11,-2.75,294,288,205,250,235,12
1231,-0.08,-0.95,0.29,0.55,-4.7,-0.24,296,285,200,257,237,12
1232,-0.07,-0.95,0.29,-0.18,-3.97,-1.71,295,285,200,256,234,12
1233,-0.09,-0.96,0.28,6.29,0.24,-3.05,297,286,202,251,230,12
1234,-0.08,-0.95,0.31,1.77,-4.21,-2.75,295,285,202,257,237,12
1235,-0.07,-0.94,0.33,0.67,-4.21,-2.2,296,294,202,251,232,12
1236,-0.08,-0.95,0.32,0.61,-4.15,-2.08,294,288,200,256,237,12
1237,-0.07,-0.95,0.31,1.22,-3.05,-2.26,295,287,202,257,237,12
1238,-0.07,-0.94,0.34,1.83,-3.42,-2.01,296,291,204,255,237,12
1239,-0.08,-0.94,0.32,0.79,-3.54,-2.38,300,289,205,254,235,12
1240,-0.08,-0.95,0.3,8.79,-1.34,0.06,298,284,206,257,240,12
1241,-0.12,-0.94,0.37,6.53,-2.81,1.77,296,292,206,267,228,12
1242,-0.11,-0.92,0.39,-3.54,-7.2,-3.48,298,289,201,252,229,12
1243,-0.1,-0.94,0.33,1.1,-2.5,-0.92,298,289,205,258,236,12
1244,-0.1,-0.94,0.34,-3.17,-4.76,-3.42,297,286,203,252,234,12
1245,-0.05,-0.94,0.29,-3.42,2.38,-5.55,299,291,206,254,235,12
1246,-0.05,-0.94,0.33,0.67,-2.38,-2.56,301,293,203,250,234,12
1247,-0.09,-0.94,0.33,1.16,-2.38,-2.08,300,292,206,256,231,12
1248,-0.09,-0.94,0.32,0.24,-2.81,-3.42,302,289,205,255,236,12
1249,-0.08,-0.95,0.32,-0.73,-2.87,-2.81,300,293,205,255,234,12
1250,-0.1,-0.93,0.32,-1.59,-0.67,-3.91,301,292,204,251,232,12
1251,-0.07,-0.95,0.3,3.54,-1.83,-2.56,303,291,204,255,234,12
1252,-0.09,-0.95,0.33,0.49,-4.03,-2.38,302,287,206,263,236,12
1253,-0.09,-0.93,0.32,2.81,-3.85,-2.26,298,289,203,253,234,12
1254,-0.08,-0.93,0.33,-1.46,-3.42,-2.32,303,294,200,254,235,12
1255,-0.1,-0.94,0.31,-0.24,-0.61,-2.2,303,293,205,254,234,12
1256,-0.08,-0.94,0.33,0.85,-3.54,-1.65,303,290,205,253,233,12
1257,-0.1,-0.95,0.3,-2.2,-4.7,-2.56,303,291,201,253,237,12
1258,-0.09,-0.96,0.29,-6.16,-5.07,-2.69,302,292,203,251,236,12
1259,-0.06,-0.96,0.23,-5.49,-8.73,-1.1,302,289,204,255,245,12
1260,-0.08,-0.97,0.24,-2.08,-3.97,-1.4,300,292,204,257,236,12
1261,-0.09,-0.97,0.25,-1.1,-1.83,-1.59,305,294,200,258,237,12
1262,-0.1,-0.97,0.25,-0.31,-3.05,-2.44,301,289,200,257,238,12
1263,-0.09,-0.96,0.24,-0.61,-1.95,-2.62,303,298,203,254,232,12
1264,-0.09,-0.98,0.25,-0.55,-3.17,-2.01,302,290,203,253,232,12
1265,-0.08,-0.97,0.24,-0.37,-1.83,-2.81,303,287,202,254,233,12
1266,-0.1,-0.97,0.23,-1.59,-2.56,-2.62,303,290,202,257,232,12
1267,-0.08,-0.97,0.23,1.95,-3.05,-2.01,304,295,204,261,235,12
1268,-0.09,-0.97,0.23,-0.43,-2.62,-3.97,300,287,206,254,239,12
1269,-0.09,-0.98,0.22,-0.67,-2.81,-2.69,303,286,202,253,237,12
1270,-0.09,-0.97,0.24,2.01,-3.6,-1.34,302,294,201,254,238,12
1271,-0.1,-0.96,0.25,2.87,-2.38,-1.04,303,290,204,250,234,12
1272,-0.11,-0.96,0.26,-0.55,-2.81,-2.69,305,288,201,256,236,12
1273,-0.11,-0.96,0.24,-0.49,-3.05,-2.5,303,291,204,254,236,12
1274,-0.11,-0.96,0.25,0.43,-3.66,-1.89,304,290,204,257,235,12
1275,-0.1,-0.96,0.25,-0.61,-2.87,-2.56,305,290,206,257,232,12
1276,-0.1,-0.96,0.24,0.98,-2.56,-2.2,304,290,207,254,234,12
1277,-0.11,-0.96,0.23,-0.06,-3.85,-2.44,304,292,203,256,235,12
1278,-0.1,-0.96,0.25,2.2,-3.42,-2.81,300,295,204,256,264,12
1279,-0.11,-0.96,0.26,0.92,-3.11,-1.83,299,300,206,254,234,12
1280,-0.11,-0.96,0.26,0.73,-3.72,-2.32,304,286,202,255,235,12
1281,-0.12,-0.96,0.26,0.12,-1.16,-2.38,300,290,206,255,234,12
1282,-0.08,-0.96,0.25,2.32,-1.34,-2.81,306,293,203,257,237,12
1283,-0.11,-0.96,0.26,-3.05,-1.34,-5.0,303,286,202,253,237,12
1284,-0.1,-0.96,0.24,-1.22,-1.89,-2.56,305,293,203,259,235,12
1285,-0.12,-0.96,0.24,-0.37,-2.99,-2.87,304,287,206,261,231,12
1286,-0.11,-0.96,0.27,2.14,-2.44,-1.95,299,292,205,256,236,12
1287,-0.11,-0.96,0.25,2.26,-4.58,-1.34,303,295,201,253,235,12
1288,-0.11,-0.96,0.25,0.55,-3.17,-3.48,301,295,205,256,233,12
1289,-0.12,-0.96,0.28,-2.99,6.41,-6.77,304,293,213,255,236,12
1290,-0.11,-0.95,0.26,0.37,-3.3,-1.22,304,295,206,254,233,12
1291,-0.09,-0.97,0.24,0.98,-3.36,-3.66,308,292,203,254,231,12
1292,-0.1,-0.97,0.23,0.67,-2.32,-1.95,307,290,204,255,228,12
1293,-0.1,-0.96,0.26,1.28,-1.95,-2.62,312,292,201,256,235,12
1294,-0.1,-0.97,0.25,-0.61,-2.62,-2.75,311,297,207,258,246,12
1295,-0.1,-0.97,0.22,-0.73,-0.61,-3.3,312,287,204,258,232,12
1296,-0.1,-0.96,0.28,4.33,-7.75,2.01,308,289,204,259,237,12
1297,-0.1,-0.97,0.22,-5.13,-3.3,-4.46,309,292,206,258,234,12
1298,-0.1,-0.97,0.24,-0.73,-4.09,-2.26,311,296,204,257,236,12
1299,-0.1,-0.96,0.24,0.06,-3.6,-2.26,309,290,206,257,238,12
1300,-0.1,-0.97,0.23,-0.18,-2.93,-2.62,311,292,206,256,233,12
1301,-0.11,-0.97,0.24,-0.98,-2.99,-1.22,311,291,204,258,234,12
1302,-0.11,-0.96,0.23,0.98,-2.44,-1.65,312,293,203,255,232,12
1303,-0.11,-0.97,0.22,0.43,-3.54,-2.08,309,291,206,256,235,12
1304,-0.12,-0.96,0.24,0.12,-3.48,-2.99,311,297,206,261,236,12
1305,-0.13,-0.96,0.25,-2.14,-2.5,-1.89,313,295,204,256,235,12
1306,-0.13,-0.96,0.27,-0.43,-3.6,-0.67,311,294,203,252,236,12
1307,-0.12,-0.96,0.25,1.4,-4.15,-0.79,311,293,205,258,234,12
1308,-0.12,-0.97,0.23,1.16,-3.23,-2.08,310,287,205,256,250,12
1309,-0.13,-0.96,0.24,-0.49,-2.32,-2.93,315,294,202,260,237,12
1310,-0.11,-0.96,0.24,1.65,-3.48,-1.89,309,294,208,253,235,12
1311,-0.11,-0.96,0.24,1.53,-3.42,-1.34,311,292,205,260,237,12
1312,-0.11,-0.96,0.23,0.24,-3.48,-2.38,314,293,205,256,234,12
1313,-0.1,-0.96,0.23,1.4,-1.83,-3.3,311,293,202,257,232,12
1314,-0.11,-0.96,0.23,-0.24,-3.17,-2.81,311,295,208,259,234,12
1315,-0.11,-0.96,0.23,-0.31,-1.89,-3.66,309,290,205,257,238,12
1316,-0.12,-0.96,0.24,1.04,-2.87,-1.71,310,291,209,255,238,12
1317,-0.12,-0.96,0.24,0.73,-2.99,-2.38,313,293,203,260,234,12
1318,-0.13,-0.96,0.24,0.06,-3.54,-3.42,312,288,207,259,241,12
1319,-0.12,-0.96,0.25,-0.18,-1.83,-2.99,310,298,206,260,236,12
1320,-0.11,-0.96,0.25,1.46,-2.62,-2.14,312,294,207,259,237,12
1321,-0.12,-0.96,0.25,-0.12,-2.32,-2.75,310,293,204,257,234,12
1322,-0.12,-0.96,0.24,-0.37,-3.05,-2.69,314,293,203,259,235,12
1323,-0.1,-0.96,0.25,0.92,-3.66,-1.04,313,292,202,256,235,12
1324,-0.1,-0.96,0.24,0.43,-2.75,-1.65,313,295,201,259,235,12
1325,-0.11,-0.96,0.24,-2.93,-2.26,-2.14,312,298,205,256,237,12
1326,-0.1,-0.97,0.21,-3.85,-0.98,-5.19,313,293,206,256,232,12
1327,-0.12,-0.97,0.22,-3.42,-2.38,-2.5,315,294,201,257,237,12
1328,-0.12,-0.97,0.22,-1.04,-3.23,-2.87,313,296,208,254,236,12
1329,-0.12,-0.97,0.22,-0.49,-2.81,-3.36,315,294,205,255,235,12
1330,-0.12,-0.97,0.21,0.85,-2.32,-2.32,309,292,208,255,234,12
1331,-0.13,-0.97,0.22,-0.43,-3.42,-2.38,315,289,207,260,277,12
1332,-0.12,-0.96,0.24,2.08,-2.69,-1.83,313,293,206,258,233,12
1333,-0.11,-0.96,0.22,1.46,-3.66,-1.34,314,295,208,256,234,12
1334,-0.11,-0.96,0.23,1.22,-2.93,-2.93,315,294,207,260,235,12
1335,-0.11,-0.96,0.23,0.92,-3.23,-1.95,309,296,204,257,237,12
1336,-0.12,-0.96,0.23,0.0,-3.05,-2.62,312,288,205,255,235,12
1337,-0.12,-0.96,0.24,0.31,-3.05,-2.81,316,296,207,255,231,12
1338,-0.12,-0.97,0.23,0.43,-2.26,-3.11,313,294,208,256,237,12
1339,-0.13,-0.96,0.22,0.55,-2.44,-1.59,311,295,208,257,234,12
1340,-0.13,-0.96,0.24,0.37,-3.36,-2.2,311,297,209,256,237,12
1341,-0.12,-0.96,0.22,0.67,-3.05,-3.17,313,295,203,257,231,12
1342,-0.13,-0.96,0.25,1.34,-3.42,-2.87,310,297,206,260,237,12
1343,-0.13,-0.96,0.24,1.77,-3.3,-2.87,312,294,208,255,234,12
1344,-0.13,-0.96,0.26,0.98,-3.36,-1.16,314,297,208,254,236,12
1345,-0.13,-0.96,0.25,0.0,-3.05,-1.83,304,297,205,252,235,12
1346,-0.13,-0.96,0.25,0.79,-2.62,-2.38,313,289,208,257,236,12
1347,-0.13,-0.95,0.25,-0.18,-2.93,-3.05,313,293,208,255,235,12
1348,-0.12,-0.96,0.26,-0.18,-3.36,-2.26,312,298,205,259,236,12
1349,-0.12,-0.96,0.26,-0.37,-3.91,-2.01,315,293,202,257,238,12
1350,-0.13,-0.96,0.25,0.06,-2.44,-2.56,314,293,206,258,233,12
1351,-0.13,-0.96,0.25,1.22,-2.44,-2.99,312,298,208,260,237,12
1352,-0.13,-0.96,0.26,-0.06,-2.75,-2.93,316,299,205,255,236,12
1353,-0.13,-0.96,0.26,-0.12,-2.56,-1.83,311,298,208,259,234,12
1354,-0.14,-0.96,0.25,-0.31,-3.91,-1.4,312,296,205,257,235,12
1355,-0.12,-0.95,0.26,1.28,-3.17,-2.44,315,294,208,260,235,12
1356,-0.13,-0.96,0.26,1.1,-3.42,-2.5,312,294,206,258,239,12
1357,-0.12,-0.95,0.26,2.69,-2.81,-2.75,313,290,205,256,235,12
1358,-0.13,-0.96,0.26,2.93,-1.71,-1.59,310,292,209,257,237,12
1359,-0.15,-0.95,0.29,0.37,-0.24,-2.5,306,288,203,259,238,12
1360,-0.14,-0.95,0.27,0.0,-2.08,-2.81,312,293,208,259,238,12
1361,-0.14,-0.95,0.28,-0.79,-2.38,-4.15,309,296,206,254,238,12
1362,-0.13,-0.95,0.28,0.92,-2.87,-2.69,307,293,205,257,234,12
1363,-0.14,-0.95,0.28,0.31,-2.75,-2.93,308,294,205,258,236,12
1364,-0.14,-0.96,0.29,-1.22,-2.87,-1.89,306,288,206,260,234,12
1365,-0.13,-0.95,0.29,0.49,-3.36,-2.32,309,292,208,256,235,12
1366,-0.14,-0.95,0.27,0.67,-2.14,-2.69,306,292,204,259,238,12
1367,-0.14,-0.95,0.27,1.53,-4.52,-1.4,310,287,208,257,224,12
1368,-0.15,-0.95,0.29,0.12,-2.75,-0.92,316,292,207,261,269,12
1369,-0.15,-0.95,0.29,-0.79,-3.17,-2.14,314,287,203,256,237,12
1370,-0.14,-0.95,0.29,0.67,-2.5,-2.93,311,291,205,261,236,12
1371,-0.14,-0.94,0.29,0.43,-2.99,-2.38,312,293,207,260,236,12
1372,-0.13,-0.95,0.29,0.24,-2.81,-2.87,312,292,205,258,235,12
1373,-0.14,-0.95,0.3,0.37,-2.99,-2.26,311,296,208,260,231,12
1374,-0.13,-0.95,0.28,-0.43,-3.6,-1.89,314,304,206,256,233,12
1375,-0.13,-0.94,0.28,1.1,-3.36,-2.08,312,298,209,261,237,12
1376,-0.14,-0.94,0.29,-1.04,-3.85,-2.38,315,289,209,258,238,12
1377,-0.14,-0.94,0.29,0.98,-2.87,-2.14,312,296,207,258,238,12
1378,-0.15,-0.95,0.29,-0.31,-2.69,-3.23,311,293,210,260,239,12
1379,-0.18,-0.95,0.31,-0.85,0.79,-6.53,309,295,208,259,251,12
1380,-0.12,-0.95,0.25,-0.43,1.04,-4.52,313,293,203,262,235,12
1381,-0.09,-0.95,0.26,0.0,1.53,-6.65,315,292,206,261,235,12
1382,-0.06,-0.95,0.28,5.0,-1.71,-0.73,310,294,204,258,235,12
1383,-0.1,-0.96,0.27,-0.79,-4.7,-1.4,312,288,205,258,238,12
1384,-0.05,-0.95,0.25,7.57,-2.01,1.22,313,294,204,261,234,12
1385,-0.09,-0.95,0.32,-2.2,-2.93,-2.81,313,296,209,257,235,12
1386,-0.07,-0.96,0.23,-1.22,-2.44,-4.64,311,296,208,257,239,12
1387,-0.1,-0.96,0.27,-0.31,-3.66,-2.56,313,294,206,262,237,12
1388,-0.08,-0.95,0.26,2.5,-2.14,2.2,314,291,206,258,233,12
1389,-0.09,-0.96,0.26,1.16,-2.56,-0.85,310,295,209,258,236,12
1390,-0.11,-0.96,0.27,0.85,-2.5,-2.38,312,297,209,259,237,12
1391,-0.1,-0.95,0.28,0.73,-4.15,-1.28,313,292,209,257,235,12
1392,-0.1,-0.95,0.28,1.34,-2.87,-2.38,313,290,205,261,236,12
1393,-0.11,-0.95,0.28,0.24,-3.42,-2.08,313,296,207,259,235,12
1394,-0.1,-0.95,0.28,1.71,-3.91,-2.5,310,295,204,258,235,12
1395,-0.11,-0.95,0.3,0.55,-2.75,-1.53,311,293,209,257,235,12
1396,-0.1,-0.95,0.28,0.18,-3.48,-1.83,314,295,206,261,236,12
1397,-0.1,-0.95,0.29,0.85,-2.32,-2.01,313,299,209,258,237,12
1398,-0.11,-0.95,0.29,-0.24,-3.36,-1.83,313,298,208,261,237,12
1399,-0.11,-0.95,0.29,0.18,-2.75,-2.38,316,290,208,262,238,12
1400,-0.12,-0.95,0.28,-0.12,-3.48,-1.77,311,292,209,260,236,12
1401,-0.12,-0.95,0.28,0.73,-3.42,-2.5,312,296,207,262,232,12
1402,-0.12,-0.95,0.3,2.26,-2.08,-1.77,315,289,206,260,236,12
1403,-0.11,-0.95,0.28,1.53,-3.23,-2.87,313,295,205,259,233,12
1404,-0.11,-0.95,0.3,0.12,-2.75,-2.01,313,295,206,259,233,12
1405,-0.12,-0.95,0.29,0.06,-3.23,-2.5,313,295,209,258,233,12
1406,-0.11,-0.95,0.29,0.06,-2.56,-2.44,320,294,208,262,238,12
1407,-0.1,-0.95,0.27,-0.49,-2.08,-4.94,312,294,208,260,238,12
1408,-0.12,-0.95,0.3,-0.31,-3.23,-2.56,313,290,207,260,239,12
1409,-0.12,-0.95,0.3,0.79,-3.54,-1.95,313,299,205,262,233,12
1410,-0.13,-0.95,0.3,-0.85,-3.48,-2.62,316,295,209,260,265,12
1411,-0.13,-0.95,0.29,1.59,-2.08,-2.5,316,293,203,261,237,12
1412,-0.12,-0.95,0.29,1.1,-3.78,-2.5,310,297,209,261,237,12
1413,-0.12,-0.95,0.3,1.77,-3.36,-2.08,310,296,208,260,237,12
1414,-0.12,-0.94,0.31,1.4,-3.05,-2.01,311,295,208,259,235,12
1415,-0.13,-0.94,0.3,0.06,-3.05,-2.38,314,298,205,258,239,12
1416,-0.12,-0.94,0.3,0.61,-2.62,-2.75,311,295,206,259,235,12
1417,-0.14,-0.95,0.3,0.98,-2.32,-1.95,320,290,209,259,238,12
1418,-0.13,-0.94,0.31,-0.12,-3.66,-2.69,315,299,207,261,237,12
1419,-0.13,-0.95,0.3,0.92,-3.11,-2.62,313,295,205,259,236,12
1420,-0.13,-0.95,0.3,-2.62,-2.56,-2.5,315,297,209,259,237,12
1421,-0.12,-0.95,0.31,-0.06,-2.26,-3.11,317,289,209,259,236,12
1422,-0.12,-0.94,0.29,2.32,-2.93,-2.08,320,294,207,260,237,12
1423,-0.12,-0.95,0.29,-1.59,-1.28,-4.03,315,287,206,260,252,12
1424,-0.12,-0.95,0.3,-0.06,-2.01,-3.36,316,300,208,260,236,12
1425,-0.11,-0.94,0.3,-1.28,-2.14,-3.23,316,299,210,261,236,12
1426,-0.14,-0.95,0.3,1.65,-4.82,0.73,318,297,208,260,240,12
1427,-0.13,-0.95,0.3,2.26,-2.38,-1.83,316,300,208,259,238,12
1428,-0.13,-0.95,0.3,-1.83,-2.69,-3.6,318,294,209,257,234,12
1429,-0.13,-0.95,0.3,1.46,-3.05,-2.08,318,299,204,257,236,12
1430,-0.13,-0.94,0.31,1.83,-3.05,-2.38,318,298,205,261,238,12
1431,-0.13,-0.94,0.32,1.77,-3.66,-2.14,321,291,206,261,235,12
1432,-0.13,-0.95,0.31,-1.65,-3.23,-2.62,316,301,204,263,235,12
1433,-0.13,-0.94,0.31,0.37,-2.93,-1.95,316,290,211,260,240,12
1434,-0.11,-0.94,0.3,-0.73,-2.81,-2.38,318,299,206,263,233,12
1435,-0.13,-0.94,0.3,-0.37,-3.05,-2.38,321,301,211,259,234,12
1436,-0.13,-0.94,0.3,1.04,-2.93,-3.17,319,294,209,260,237,12
1437,-0.12,-0.94,0.31,-0.37,-3.36,-3.11,321,293,209,259,237,12
1438,-0.12,-0.94,0.3,1.71,-2.99,-3.72,321,292,208,263,236,12
1439,-0.12,-0.94,0.29,2.2,-0.85,-5.19,316,308,207,261,239,12
1440,-0.13,-0.94,0.3,-1.28,-2.26,-3.66,316,301,210,257,238,12
1441,-0.14,-0.94,0.31,-0.98,-2.99,-2.44,318,301,207,260,237,12
1442,-0.12,-0.95,0.29,1.34,-2.14,-2.75,315,294,206,262,236,12
1443,-0.12,-0.94,0.31,-0.98,-1.53,-2.32,316,301,207,261,248,12
1444,-0.14,-0.94,0.32,1.71,-1.53,-2.99,319,291,210,261,235,12
1445,-0.14,-0.94,0.3,1.34,-3.72,-2.32,319,297,213,261,238,12
1446,-0.14,-0.94,0.31,1.53,-2.62,-3.36,320,301,207,268,238,12
1447,-0.14,-0.94,0.33,1.46,-0.79,-3.97,318,300,208,262,238,12
1448,-0.13,-0.93,0.34,-2.08,-3.3,-1.89,320,295,209,261,236,12
1449,-0.13,-0.93,0.32,4.03,-2.38,-2.08,316,297,207,263,238,12
1450,-0.08,-0.95,0.25,-19.59,5.8,-23.32,314,298,211,260,237,12
1451,-0.08,-0.95,0.22,-6.1,-4.15,-1.46,316,292,204,261,243,12
1452,-0.12,-0.98,0.22,-17.52,2.01,1.89,320,300,206,260,237,12
1453,-0.12,-0.96,0.16,6.47,-11.29,4.7,318,303,207,258,235,12
1454,-0.06,-0.96,0.22,15.2,-6.41,-1.77,320,297,205,263,234,12
1455,-0.13,-0.96,0.23,5.0,-5.92,3.05,323,304,214,261,238,12
1456,-0.11,-0.95,0.27,-0.06,-1.83,-2.26,322,303,209,261,238,12
1457,-0.15,-0.96,0.27,-3.05,-2.56,2.08,327,297,209,260,233,12
1458,-0.1,-0.95,0.27,2.69,-5.19,1.59,325,294,208,262,235,12
1459,-0.09,-0.94,0.21,10.93,-27.65,0.31,325,305,205,262,236,12
1460,-0.13,-0.95,0.27,1.1,1.16,-8.48,316,297,208,263,238,12
1461,-0.11,-0.97,0.28,-2.08,-5.43,-14.71,320,296,210,262,239,12
1462,-0.11,-0.95,0.27,0.49,-4.27,-2.69,317,301,209,261,239,12
1463,-0.11,-0.95,0.28,2.26,-5.43,-0.43,321,301,206,261,237,12
1464,-0.11,-0.95,0.29,-0.49,-2.38,-3.54,323,304,206,267,238,12
1465,-0.12,-0.95,0.29,0.18,-3.91,-1.34,322,301,211,261,237,12
1466,-0.1,-0.95,0.28,-1.22,-2.62,-2.93,324,300,220,261,234,12
1467,-0.11,-0.95,0.27,-0.24,-2.81,-2.56,326,301,211,257,232,12
1468,-0.1,-0.96,0.28,0.61,-0.73,-2.44,323,301,211,261,235,12
1469,-0.1,-0.95,0.28,-0.61,-4.76,-0.98,317,299,210,262,236,12
1470,-0.1,-0.96,0.28,1.65,-1.95,-3.3,324,304,209,260,237,12
1471,-0.11,-0.95,0.28,-0.31,-2.87,-2.69,326,294,210,261,239,12
1472,-0.11,-0.96,0.27,0.31,-2.44,-2.87,329,303,208,267,234,12
1473,-0.11,-0.95,0.28,0.92,-3.17,-2.26,324,295,211,259,236,12
1474,-0.11,-0.96,0.28,-0.43,-3.11,-2.56,322,301,209,272,237,12
1475,-0.11,-0.95,0.29,1.59,-4.09,-1.46,322,301,211,264,255,12
1476,-0.11,-0.95,0.28,-0.43,-2.81,-2.32,325,297,208,261,236,12
1477,-0.11,-0.95,0.29,-1.4,-3.23,-1.53,326,300,208,264,232,12
1478,-0.12,-0.95,0.29,0.31,-3.11,-2.01,325,302,208,264,239,12
1479,-0.11,-0.95,0.28,-0.31,-3.11,-2.08,326,297,209,263,236,12
1480,-0.1,-0.95,0.28,1.16,-2.62,-2.44,325,296,208,263,236,12
1481,-0.12,-0.95,0.28,0.0,-3.36,-2.38,326,296,208,262,238,12
1482,-0.12,-0.96,0.27,-0.61,-3.23,-2.5,318,301,211,264,236,12
1483,-0.12,-0.95,0.28,0.49,-2.2,-2.93,328,302,208,264,236,12
1484,-0.09,-0.95,0.26,0.79,-1.89,-2.44,322,304,207,262,253,12
1485,-0.11,-0.96,0.26,-0.49,-3.48,-2.14,326,299,209,264,242,12
1486,-0.11,-0.96,0.27,0.18,-3.54,-1.65,328,303,210,261,239,12
1487,-0.12,-0.95,0.26,0.37,-3.05,-2.44,325,306,213,263,237,12
1488,-0.12,-0.96,0.27,-0.43,-2.93,-3.05,324,303,211,262,236,12
1489,-0.14,-0.96,0.25,2.93,2.38,-5.86,325,312,208,259,245,12
1490,-0.11,-0.95,0.27,-0.24,-2.5,-3.11,326,303,219,262,237,12
1491,-0.09,-0.95,0.26,1.28,-4.46,-1.4,325,302,207,261,235,12
1492,-0.11,-0.95,0.28,1.46,-2.99,-1.28,321,291,212,258,236,12
1493,-0.12,-0.95,0.27,-0.18,-3.54,-2.56,328,301,211,264,248,12
1494,-0.11,-0.95,0.29,0.43,-3.54,-1.4,326,295,212,261,236,12
1495,-0.12,-0.95,0.29,0.12,-3.05,-2.99,328,292,209,263,238,12
1496,-0.11,-0.95,0.3,0.12,-2.5,-2.62,327,296,207,265,237,12
1497,-0.12,-0.95,0.29,0.55,-2.99,-2.2,325,301,208,265,236,12
1498,-0.11,-0.95,0.28,1.83,-2.56,-2.62,326,300,209,262,237,12
1499,-0.13,-0.95,0.29,1.04,-1.83,-2.56,328,297,212,264,236,12
1500,-0.12,-0.95,0.29,0.55,-3.36,-2.26,327,305,209,265,239,12
1501,-0.12,-0.95,0.29,0.12,-3.66,-1.59,323,297,211,263,236,12
1502,-0.12,-0.95,0.29,0.61,-3.23,-2.44,326,308,209,262,235,12
1503,-0.11,-0.95,0.29,0.06,-3.6,-2.01,326,302,209,262,236,12
1504,-0.12,-0.95,0.29,0.79,-3.85,-2.14,324,301,211,262,239,12
1505,-0.13,-0.95,0.3,1.65,-3.05,-2.2,322,301,206,263,236,12
1506,-0.13,-0.94,0.3,0.06,-2.75,-2.62,324,297,212,261,239,12
1507,-0.12,-0.95,0.29,-1.04,-2.93,-2.08,332,294,207,261,236,12
1508,-0.12,-0.95,0.29,-0.55,-3.78,-2.08,322,299,209,259,237,12
1509,-0.13,-0.95,0.29,0.31,-2.56,-2.38,326,302,209,270,236,12
1510,-0.13,-0.95,0.29,0.12,-3.48,-1.89,322,303,206,262,237,12
1511,-0.12,-0.95,0.29,1.71,-2.93,-2.32,326,303,210,262,238,12
1512,-0.13,-0.95,0.29,0.37,-3.05,-2.32,326,300,209,263,239,12
1513,-0.12,-0.95,0.29,0.85,-3.97,-1.34,326,300,211,264,238,12
1514,-0.13,-0.95,0.29,0.98,-2.99,-2.26,324,299,212,257,237,12
1515,-0.13,-0.94,0.3,1.4,-0.79,-3.97,327,299,211,260,237,12
1516,-0.13,-0.94,0.3,0.67,-3.05,-2.01,326,300,212,264,236,12
1517,-0.13,-0.94,0.29,0.61,-3.05,-2.2,327,298,210,262,237,12
1518,-0.13,-0.95,0.3,-0.37,-3.72,-2.01,327,302,212,263,235,12
1519,-0.13,-0.94,0.31,1.04,-3.54,-2.14,324,299,210,261,237,12
1520,-0.13,-0.94,0.3,1.28,-3.23,-1.59,329,301,210,263,247,12
1521,-0.14,-0.94,0.31,-0.06,-3.6,-2.01,328,298,214,260,234,12
1522,-0.14,-0.94,0.31,0.67,-3.48,-1.65,328,298,207,266,237,12
1523,-0.14,-0.94,0.3,0.0,-2.44,-2.5,328,302,207,264,238,12
1524,-0.13,-0.94,0.3,-1.04,-2.44,-3.17,326,295,212,266,239,12
1525,-0.14,-0.94,0.3,-0.37,-2.81,-3.23,326,297,207,263,239,12
1526,-0.13,-0.94,0.31,3.48,2.26,-4.88,326,301,212,261,236,12
1527,-0.15,-0.94,0.35,0.31,3.17,-6.47,326,297,210,262,236,12
1528,-0.11,-0.94,0.31,-0.06,3.72,-1.04,325,298,211,260,239,12
1529,-0.11,-0.97,0.19,0.12,2.5,-2.38,325,301,202,264,237,12
1530,-0.08,-0.95,0.24,-5.92,-5.25,-12.27,324,294,212,262,237,12
1531,-0.06,-0.98,0.18,1.95,1.83,-1.4,325,300,209,264,239,12
1532,-0.07,-0.97,0.21,1.65,-3.54,-1.34,327,295,213,258,237,12
1533,-0.1,-0.98,0.19,-1.89,-3.6,-1.4,324,298,211,262,233,12
1534,-0.09,-0.97,0.19,-1.95,-3.91,-2.56,326,301,213,262,236,12
1535,-0.1,-0.97,0.22,-0.43,-3.66,-1.28,326,303,215,261,237,12
1536,-0.11,-0.97,0.19,-0.92,-3.6,-1.16,323,299,210,259,236,12
1537,-0.1,-0.98,0.19,-0.18,-3.66,-1.71,326,303,212,264,235,12
1538,-0.04,-0.78,0.67,-9.95,-0.98,-1.59,246,243,172,249,312,12
1539,-0.07,-0.88,0.68,-19.35,37.6,-4.7,258,240,172,249,313,12
1540,-0.18,-0.85,0.51,-7.2,-1.22,2.99,233,224,165,238,321,12
1541,-0.34,-0.81,0.4,-29.48,-5.8,0.18,236,232,177,248,320,12
1542,-0.18,-0.94,0.33,-17.33,10.74,-12.39,229,222,158,237,315,12
1543,-0.16,-0.92,0.18,-31.49,11.29,-20.87,225,207,162,235,284,12
1544,-0.06,-0.82,0.06,15.32,-7.32,3.11,226,215,162,235,274,12
1545,-0.11,-0.92,0.02,9.34,14.65,-15.44,227,209,167,238,276,12
1546,0.09,-1.08,0.28,78.86,-17.76,20.39,235,218,170,238,283,12
1547,-0.15,-0.81,0.44,14.22,-2.69,3.72,236,229,170,250,290,12
1548,0.0,-0.73,0.62,-5.13,-3.78,-30.58,241,230,171,251,291,12
1549,-0.05,-0.96,0.25,-11.35,29.66,-0.06,240,235,177,254,291,12
1550,0.03,-0.94,0.54,32.41,-8.36,-18.86,240,234,175,249,292,12
1551,-0.03,-0.86,0.32,-7.32,-27.22,15.38,240,233,173,254,291,12
1552,-0.04,-0.97,0.37,4.82,0.0,6.41,241,234,179,251,290,12
1553,-0.07,-0.94,0.4,9.4,-4.15,-4.09,240,238,179,249,292,12
1554,-0.04,-0.9,0.39,0.79,-4.39,-4.03,238,237,179,253,295,12
1555,-0.04,-0.91,0.41,3.17,-4.7,-3.48,240,238,180,248,292,12
1556,-0.04,-0.9,0.44,0.79,-3.23,-2.26,242,240,180,257,294,12
1557,-0.03,-0.91,0.45,4.46,-5.25,0.0,243,237,183,249,295,12
1558,-0.03,-0.89,0.44,5.0,-7.57,-4.94,241,240,193,248,293,12
1559,0.01,-0.9,0.46,4.15,-5.86,-0.92,244,241,181,254,296,12
1560,-0.0,-0.89,0.48,1.65,-4.94,-2.56,244,241,180,255,294,12
1561,0.02,-0.9,0.48,0.73,-2.08,-4.46,240,240,182,255,295,12
1562,0.02,-0.89,0.47,-2.14,-2.26,-3.54,242,243,182,253,294,12
1563,0.02,-0.88,0.45,1.89,-3.91,-2.14,239,236,183,254,298,12
1564,0.01,-0.88,0.48,0.24,-3.11,-0.92,242,239,182,253,295,12
1565,0.01,-0.88,0.5,3.54,-4.64,-1.22,243,239,182,257,295,12
1566,0.01,-0.88,0.51,1.65,-3.48,-2.01,242,242,184,256,291,12
1567,0.02,-0.89,0.51,-1.46,0.55,-3.3,243,240,181,253,294,12
1568,0.02,-0.86,0.5,-3.23,-1.71,-4.09,252,239,182,256,293,12
1569,0.01,-0.87,0.5,2.56,-5.74,-2.69,244,242,184,258,295,12
1570,0.0,-0.88,0.49,1.28,-3.23,-2.26,242,240,182,252,297,12
1571,0.01,-0.87,0.51,0.79,-3.78,-2.08,242,243,182,254,297,12
1572,0.01,-0.87,0.48,0.12,-2.87,-2.99,242,244,184,257,304,12
1573,0.0,-0.87,0.5,2.93,-3.42,-2.44,245,241,186,259,295,12
1574,-0.01,-0.87,0.51,1.71,-3.42,-2.44,241,241,186,255,297,12
1575,-0.0,-0.86,0.49,2.14,-4.03,-2.5,244,244,183,255,296,12
1576,-0.0,-0.85,0.53,2.26,-1.89,-0.43,243,241,183,257,295,12
1577,0.02,-0.87,0.51,0.0,-3.36,-4.09,245,247,186,260,295,12
1578,-0.01,-0.86,0.55,0.0,-4.21,-2.75,244,243,190,256,294,12
1579,0.01,-0.84,0.53,1.28,-3.78,-3.66,243,243,184,259,297,12
1580,0.01,-0.86,0.52,-1.59,-2.26,-3.36,247,247,184,258,296,12
1581,0.01,-0.86,0.55,-0.12,-3.11,-2.62,243,245,188,257,294,12
1582,0.01,-0.85,0.55,1.46,-3.48,-2.01,243,245,183,258,295,12
1583,0.02,-0.85,0.55,-1.28,-3.78,-2.44,248,243,184,257,296,12
1584,0.01,-0.85,0.55,1.34,-2.38,-2.38,244,243,188,262,298,12
1585,-0.01,-0.83,0.56,0.61,-4.03,-2.81,244,245,188,255,297,12
1586,0.03,-0.86,0.59,1.71,-7.02,-0.79,241,245,188,257,299,12
1587,-0.01,-0.85,0.56,-2.81,-1.46,2.01,244,245,185,262,297,12
1588,-0.01,-0.88,0.47,-12.7,6.53,6.71,246,245,187,258,297,12
1589,-0.08,-0.96,0.61,15.63,-1.1,-2.87,259,245,185,260,298,12
1590,-0.06,-0.9,0.75,30.4,2.44,-15.69,245,244,185,257,293,12
1591,0.08,-0.8,0.48,-3.54,12.51,-30.33,243,245,186,258,298,12
1592,-0.06,-0.87,0.48,-33.75,2.5,13.18,241,242,189,253,300,12
1593,-0.16,-0.92,0.4,-12.76,2.38,8.85,243,245,190,260,299,12
1594,-0.11,-0.88,0.32,-1.53,-14.16,-18.13,244,249,186,258,297,12
1595,-0.14,-0.93,0.37,7.08,-8.0,-0.06,242,246,187,258,298,12
1596,-0.1,-0.93,0.38,2.32,-2.81,-3.3,242,244,185,259,302,12
1597,-0.1,-0.92,0.37,0.85,-3.36,-2.87,245,258,186,255,297,12
1598,-0.1,-0.94,0.4,1.83,-2.69,-2.2,245,246,190,259,297,12
1599,-0.1,-0.92,0.39,-0.43,-2.87,-2.56,241,246,188,263,299,12
1600,-0.11,-0.94,0.4,-2.44,-1.71,-3.66,267,249,184,258,303,12
1601,-0.11,-0.91,0.37,1.34,-2.2,-2.01,238,245,184,256,299,12
1602,-0.13,-0.92,0.36,-5.0,-3.05,-5.19,240,248,188,257,300,12
1603,-0.12,-0.93,0.35,-0.43,-1.71,-3.36,244,246,188,260,297,12
1604,-0.08,-0.92,0.37,3.72,-4.94,-3.05,247,248,188,260,296,12
1605,-0.09,-0.92,0.37,-1.28,-4.88,-2.26,243,249,190,263,302,12
1606,-0.09,-0.92,0.36,1.95,-2.44,-1.59,243,249,190,259,298,12
1607,-0.1,-0.93,0.4,2.01,-2.93,-1.22,243,249,193,258,300,12
1608,-0.1,-0.91,0.39,-0.06,-3.05,-3.78,245,248,186,257,299,12
1609,-0.1,-0.92,0.39,-2.08,0.37,-2.81,246,250,190,264,301,12
1610,-0.1,-0.93,0.39,-2.14,-1.22,-4.21,246,249,192,261,298,12
1611,-0.08,-0.93,0.34,0.43,0.24,-3.6,244,247,189,262,297,12
1612,-0.08,-0.93,0.37,-2.87,-0.24,-4.58,248,247,191,262,296,12
1613,-0.08,-0.92,0.3,0.31,-2.81,-2.62,242,246,186,260,301,12
1614,-0.1,-0.93,0.25,-1.71,1.1,-4.82,242,248,189,261,300,12
1615,-0.11,-0.95,0.29,1.4,-2.44,-2.56,282,248,189,265,299,12
1616,-0.1,-0.96,0.3,-1.34,-2.69,-2.93,243,246,189,260,302,12
1617,-0.07,-0.95,0.29,0.49,-4.88,-1.34,243,247,190,260,301,12
1618,-0.09,-0.96,0.32,-0.06,-3.42,-2.56,242,248,190,256,303,12
1619,-0.1,-0.96,0.33,1.16,-3.23,-1.34,246,250,191,260,299,12
1620,-0.07,-0.94,0.28,-2.32,-0.79,-6.29,245,245,188,259,300,12
1621,-0.08,-0.98,0.28,-4.94,-2.75,-2.81,245,249,187,257,302,12
1622,-0.04,-0.95,0.23,3.78,-4.88,-0.49,243,252,191,263,301,12
1623,-0.05,-0.95,0.24,-1.53,-2.32,-4.64,246,249,192,265,301,12
1624,-0.08,-0.97,0.25,1.71,-2.38,-1.65,244,249,192,262,298,12
1625,-0.06,-1.01,0.31,-11.96,-1.1,-6.47,245,253,190,259,303,12
1626,-0.22,-0.99,0.36,-18.01,30.82,-14.65,245,249,192,266,304,12
1627,-0.1,-1.02,0.18,-0.18,-12.27,2.87,246,250,188,265,302,12
1628,-0.11,-0.92,0.11,3.72,20.14,0.06,247,248,192,261,302,12
1629,-0.13,-1.05,0.05,4.58,-10.01,-5.92,244,250,189,260,305,12
1630,-0.04,-0.94,0.11,-6.1,17.46,7.39,243,251,188,256,299,12
1631,-0.1,-1.04,0.19,6.29,3.78,-9.03,242,251,188,265,300,12
1632,-0.07,-0.96,0.13,-1.83,-7.14,-1.89,245,248,190,263,302,12
1633,-0.1,-0.94,0.11,5.07,-5.92,4.58,246,248,187,257,303,12
1634,-0.11,-1.01,0.21,0.61,-2.87,-3.11,245,253,189,264,301,12
1635,-0.1,-0.97,0.18,-5.62,0.55,-3.85,244,253,188,265,299,12
1636,-0.07,-0.93,0.19,7.02,-4.7,0.43,249,253,190,269,299,12
1637,-0.09,-0.98,0.16,0.98,-12.02,5.13,250,259,190,265,297,12
1638,-0.23,-0.95,0.28,4.52,-3.48,10.86,247,258,192,268,303,12
1639,-0.2,-0.93,0.25,14.89,6.9,-31.07,241,264,192,269,298,12
1640,-0.09,-0.91,0.3,10.44,-5.49,-7.32,240,263,193,273,301,12
1641,-0.14,-1.0,0.29,6.1,-3.6,0.18,242,261,192,269,296,12
1642,-0.14,-0.94,0.3,-1.77,-3.36,-0.61,253,261,194,267,299,12
1643,-0.13,-0.85,0.37,21.24,16.42,-11.72,246,260,192,271,298,12
1644,0.06,-0.96,0.27,1.71,-2.38,-16.3,246,258,196,273,297,12
1645,-0.04,-0.9,0.27,10.8,-13.92,-8.06,248,265,192,269,297,12
1646,-0.17,-0.88,0.29,-1.22,-2.69,12.63,254,272,197,272,298,12
1647,-0.1,-0.86,0.68,39.79,-31.01,19.41,259,274,196,277,298,12
1648,-0.22,-0.84,0.53,13.0,2.69,-1.95,257,274,196,274,298,12
1649,-0.18,-0.91,0.59,-24.96,0.73,10.19,254,269,193,272,302,12
1650,-0.06,-0.86,0.39,-36.99,28.14,-41.02,252,270,195,270,301,12
1651,-0.09,-0.92,0.37,23.38,-13.0,0.06,244,265,195,271,283,12
1652,-0.04,-0.82,0.38,6.35,-5.31,-2.01,243,265,197,266,287,12
1653,-0.11,-0.86,0.6,20.2,19.71,-17.21,248,262,198,273,289,12
1654,-0.15,-0.87,0.33,-31.8,-3.05,7.57,249,270,198,275,290,12
1655,-0.11,-0.9,0.49,13.24,-3.36,-6.9,248,269,196,273,293,12
1656,-0.09,-0.9,0.41,-0.85,1.65,-5.68,247,267,198,273,290,12
1657,-0.11,-0.93,0.47,-9.52,-3.78,3.23,249,267,198,278,295,12
1658,-0.09,-0.9,0.44,3.54,-9.77,-3.42,249,262,196,275,298,12
1659,-0.08,-0.91,0.46,2.44,-2.62,-4.03,245,269,199,276,294,12
1660,-0.07,-0.89,0.44,2.87,-5.13,-4.58,246,265,195,268,298,12
1661,-0.06,-0.91,0.47,1.34,-3.72,-3.42,247,266,197,270,297,12
1662,-0.06,-0.86,0.49,8.48,-4.39,0.06,246,274,198,271,298,12
1663,-0.06,-0.89,0.5,-1.59,-4.58,-1.95,246,264,196,279,297,12
1664,-0.06,-0.9,0.47,5.62,-5.37,-1.83,246,264,194,274,297,12
1665,-0.05,-0.87,0.44,-2.75,-1.83,-2.56,246,267,195,272,298,12
1666,-0.05,-0.92,0.47,-0.06,-3.05,-1.89,248,263,194,275,298,12
1667,-0.05,-0.87,0.42,1.4,-3.05,-2.81,249,266,200,272,295,12
1668,-0.05,-0.9,0.47,-0.37,-3.72,-2.5,247,260,199,276,296,12
1669,-0.05,-0.89,0.45,2.2,-3.23,-2.2,246,264,198,273,296,12
1670,-0.04,-0.88,0.45,1.16,-3.36,-2.26,247,267,197,269,300,12
1671,-0.05,-0.89,0.45,1.77,-3.11,-2.93,246,267,198,269,298,12
1672,-0.05,-0.89,0.48,-1.46,-3.05,-3.23,249,264,198,269,299,12
1673,-0.05,-0.9,0.47,1.53,-2.87,-3.23,250,265,196,272,297,12
1674,-0.05,-0.88,0.47,-0.24,-2.81,-1.89,247,264,202,273,302,12
1675,-0.05,-0.86,0.44,2.62,-3.05,-2.75,248,264,196,274,300,12
1676,-0.04,-0.88,0.47,1.53,-3.17,-4.09,248,264,198,274,300,12
1677,-0.06,-0.89,0.43,-3.78,-1.04,-1.53,247,269,198,273,302,12
1678,-0.02,-0.9,0.46,-1.16,-4.52,-2.14,246,266,200,276,300,12
1679,-0.01,-0.9,0.44,-4.7,-3.48,-3.6,246,269,199,269,299,12
1680,-0.04,-0.88,0.4,-3.91,-3.91,-2.38,247,267,198,272,302,12
1681,-0.01,-1.03,0.4,-34.55,-39.67,17.64,254,268,201,273,303,12
1682,-0.11,-0.92,0.28,5.92,-0.37,-1.22,247,265,201,277,302,12
1683,-0.09,-0.95,0.31,-4.82,-6.96,-2.62,248,267,197,272,301,12
1684,-0.07,-0.94,0.27,2.56,-3.48,-2.5,249,265,201,276,298,12
1685,-0.07,-0.95,0.31,2.99,1.34,-2.62,247,265,198,272,298,12
1686,-0.07,-0.95,0.31,0.24,-0.31,-2.87,247,266,199,269,300,12
1687,-0.05,-0.95,0.31,1.95,-1.28,-3.11,249,264,202,277,302,12
1688,-0.06,-0.94,0.31,1.22,-3.72,-1.34,247,266,196,271,298,12
1689,-0.06,-0.95,0.3,-0.12,-3.05,-3.23,247,269,198,287,302,12
1690,-0.08,-0.96,0.3,1.28,-3.05,-2.62,242,265,197,268,303,12
1691,-0.07,-0.95,0.3,1.53,-4.58,-1.95,246,269,203,277,304,12
1692,-0.07,-0.93,0.31,2.08,-3.23,-1.1,248,268,197,273,302,12
1693,-0.08,-0.95,0.3,-0.31,2.2,-2.01,248,268,199,277,299,12
1694,-0.07,-0.93,0.3,-0.18,-3.54,-1.28,245,267,201,279,304,12
1695,-0.08,-0.96,0.3,1.1,-2.2,-4.7,249,266,199,278,301,12
1696,-0.12,-0.95,0.31,1.34,-1.34,-3.66,246,267,200,273,300,12
1697,-0.09,-0.95,0.31,-0.92,-2.32,-2.75,242,264,206,278,302,12
1698,-0.09,-0.98,0.32,0.61,-4.21,-2.01,250,265,202,271,303,12
1699,-0.08,-1.0,0.31,-1.1,-8.12,-3.23,246,266,202,267,298,12
1700,-0.07,-0.9,0.33,29.66,-8.67,13.06,246,269,197,276,301,12
1701,-0.06,-0.92,0.34,-3.05,-1.71,-1.83,247,266,199,279,302,12
1702,-0.05,-0.94,0.35,0.18,-3.05,-4.82,245,268,211,274,302,12
1703,-0.05,-0.93,0.38,2.08,-3.42,-3.3,245,269,199,274,304,12
1704,-0.04,-0.92,0.4,-0.12,-4.03,-0.43,246,267,201,277,303,12
1705,-0.04,-0.95,0.38,-1.28,-3.3,-1.65,246,266,203,274,301,12
1706,-0.03,-0.92,0.37,2.38,-4.64,-2.14,247,270,199,277,304,12
1707,-0.04,-0.92,0.37,-0.06,-3.72,-2.56,244,268,202,276,300,12
1708,-0.04,-0.93,0.4,-0.61,-4.33,-2.08,243,267,202,278,302,12
1709,-0.03,-0.93,0.4,1.1,-2.26,-3.66,246,266,201,276,302,12
1710,-0.02,-0.91,0.38,1.89,-2.87,-2.99,246,266,204,278,306,12
1711,-0.03,-0.92,0.39,0.79,-2.38,-3.17,246,267,202,279,303,12
1712,-0.02,-0.92,0.4,1.34,-3.54,-3.48,249,268,204,277,302,12
1713,-0.03,-0.92,0.4,1.53,-1.53,-3.11,249,267,202,271,304,12
1714,-0.03,-0.92,0.4,-0.49,-0.85,-4.21,246,269,201,279,305,12
1715,-0.03,-0.92,0.41,0.31,-3.85,-1.95,248,271,202,272,304,12
1716,-0.03,-0.92,0.4,-1.4,-4.52,-2.08,251,268,204,279,303,12
1717,-0.02,-0.91,0.39,0.31,-3.66,-2.62,247,270,206,274,304,12
1718,-0.03,-0.93,0.4,0.85,-3.42,-2.69,248,270,208,275,304,12
1719,-0.02,-0.93,0.39,0.61,-3.36,-3.23,246,270,200,276,303,12
1720,-0.02,-0.93,0.41,1.89,-2.87,-2.38,248,267,200,274,303,12
1721,-0.03,-0.93,0.39,-0.18,-3.48,-2.75,241,276,205,276,306,12
1722,-0.03,-0.93,0.4,1.53,-2.26,-2.75,246,272,200,277,305,12
1723,-0.02,-0.92,0.4,-0.31,-1.04,-2.56,245,267,202,276,306,12
1724,-0.02,-0.96,0.45,-8.12,0.73,-4.46,251,268,203,274,303,12
1725,-0.01,-0.99,0.37,6.77,-4.58,-4.27,246,267,203,276,304,12
1726,-0.02,-0.94,0.34,0.06,-2.38,-2.44,246,269,207,274,301,12
1727,-0.03,-0.95,0.35,-0.24,-3.23,-2.01,242,266,198,275,301,12
1728,-0.03,-0.95,0.34,0.06,-2.87,-2.14,244,265,203,275,302,12
1729,-0.02,-0.94,0.35,3.17,-4.03,-3.11,243,268,202,276,301,12
1730,-0.03,-0.93,0.36,0.92,-3.05,-3.36,246,267,200,276,302,12
1731,-0.03,-0.94,0.35,2.08,-2.56,-3.36,244,267,203,278,305,12
1732,-0.03,-0.94,0.36,0.12,-1.1,-2.38,246,268,202,272,301,12
1733,-0.04,-0.94,0.35,-0.12,-2.75,-3.17,244,269,198,275,303,12
1734,-0.03,-0.93,0.35,0.18,-3.36,-3.17,245,267,198,275,303,12
1735,-0.02,-0.93,0.36,1.83,-2.2,-2.32,247,267,202,277,301,12
1736,-0.01,-0.93,0.36,0.49,-2.87,-2.69,248,266,201,281,304,12
1737,-0.02,-0.93,0.36,1.22,-2.62,-2.81,247,265,199,277,307,12
1738,-0.04,-0.92,0.35,1.28,-2.69,-2.62,245,266,203,275,306,12
1739,-0.03,-0.98,0.37,-17.82,6.59,-2.69,243,266,201,273,304,12
1740,-0.04,-0.96,0.29,-8.54,-2.26,0.37,241,268,207,271,301,12
1741,0.0,-0.97,0.34,0.79,-5.62,-1.83,238,267,199,268,302,12
1742,-0.01,-0.96,0.31,-8.24,0.06,-0.37,242,266,200,275,303,12
1743,-0.02,-0.97,0.32,0.92,-2.99,-2.81,244,269,204,278,304,12
1744,-0.02,-0.95,0.31,1.59,-3.48,-3.54,242,267,198,270,303,12
1745,-0.01,-0.95,0.35,4.58,2.5,-9.28,243,267,201,281,302,12
1746,-0.03,-0.95,0.3,-7.87,6.04,-4.52,246,268,206,270,301,12
1747,-0.02,-0.97,0.3,1.28,-4.15,-2.2,245,268,202,280,312,12
1748,-0.02,-0.94,0.32,0.98,-3.3,-2.62,244,264,204,270,304,12
1749,-0.02,-0.94,0.33,3.85,-4.52,-2.56,243,269,202,275,306,12
1750,-0.03,-0.94,0.32,1.46,-1.89,-3.66,241,268,201,277,305,12
1751,-0.02,-0.95,0.33,-4.39,-3.78,-3.3,246,272,205,277,304,12
1752,-0.03,-0.93,0.31,0.67,-0.31,1.83,243,268,206,276,313,12
1753,-0.03,-0.92,0.33,6.35,-3.05,0.06,244,271,202,276,304,12
1754,-0.05,-0.96,0.33,0.79,-2.93,-3.6,245,269,202,280,308,12
1755,-0.05,-0.94,0.33,3.54,-2.75,-4.46,244,266,205,281,305,12
1756,-0.02,-0.92,0.3,2.01,-4.82,-4.52,244,270,206,280,305,12
1757,-0.03,-0.93,0.33,1.77,-3.11,-2.26,244,267,206,278,306,12
1758,-0.04,-0.93,0.34,1.28,-2.69,-2.44,245,270,203,272,304,12
1759,-0.03,-0.93,0.36,1.34,-3.85,-2.93,247,270,203,280,305,12
1760,-0.03,-0.94,0.35,-0.92,-1.77,-3.97,247,270,203,277,305,12
1761,-0.02,-0.93,0.34,1.53,-0.55,-3.54,245,271,200,278,305,12
1762,-0.02,-0.94,0.34,-1.22,-4.52,-2.81,247,269,207,281,301,12
1763,-0.02,-0.94,0.33,1.77,-4.88,-1.53,246,267,204,281,304,12
1764,-0.02,-0.94,0.34,2.38,-4.33,-2.2,244,274,207,276,302,12
1765,-0.04,-0.97,0.32,-9.34,-4.64,2.01,243,270,206,287,303,12
1766,-0.05,-0.96,0.31,-1.34,-1.16,-4.82,243,276,206,278,306,12
1767,-0.04,-0.94,0.31,1.22,-3.66,-3.42,246,278,204,277,309,12
1768,-0.03,-0.95,0.31,-1.28,-1.1,-3.54,243,268,206,279,308,12
1769,-0.03,-0.95,0.31,-2.01,-3.17,-3.78,243,268,202,272,306,12
1770,-0.02,-0.93,0.28,0.12,-8.06,-9.34,240,261,198,270,311,12
1771,-0.01,-0.99,0.27,2.56,-1.89,-4.46,237,266,198,267,307,12
1772,-0.02,-0.97,0.28,-5.31,-0.37,-2.99,238,264,197,270,307,12
1773,-0.02,-0.99,0.25,-5.62,-2.32,-3.23,237,268,203,272,307,12
1774,-0.03,-0.96,0.24,-0.06,-4.76,-2.38,239,268,200,273,307,12
1775,-0.02,-0.97,0.24,-1.65,-4.27,-1.28,241,265,204,275,308,12
1776,-0.03,-0.98,0.22,1.34,-6.29,-2.75,239,264,202,278,308,12
1777,-0.02,-0.97,0.24,0.43,-4.76,-4.27,242,270,202,274,309,12
1778,-0.01,-0.98,0.22,0.79,-6.23,-4.03,240,267,201,280,304,12
1779,-0.0,-0.98,0.23,0.24,-4.88,-1.34,242,265,206,281,309,12
1780,-0.02,-0.97,0.24,2.26,-1.83,-2.81,279,268,204,271,309,12
1781,-0.01,-0.96,0.23,1.16,-1.28,-3.11,241,265,205,278,306,12
1782,-0.03,-0.97,0.25,0.85,-2.08,-3.05,241,273,201,275,304,12
1783,-0.02,-0.96,0.25,1.53,-2.14,-1.28,253,270,202,280,308,12
1784,-0.01,-0.96,0.24,0.61,-2.44,-2.38,242,270,201,274,308,12
1785,-0.03,-0.96,0.25,1.59,-1.4,-2.38,243,271,204,277,307,12
1786,-0.03,-0.96,0.26,0.49,-2.81,-2.5,239,269,203,280,308,12
1787,-0.03,-0.96,0.26,0.49,-1.95,-1.89,241,269,201,280,308,12
1788,-0.03,-0.97,0.27,0.18,-0.98,-3.66,244,270,202,277,308,12
1789,-0.03,-0.97,0.26,-0.49,-3.3,-2.99,242,271,206,280,309,12
1790,-0.03,-0.98,0.26,-1.65,-1.71,-2.93,241,265,201,278,310,12
1791,-0.03,-0.97,0.26,0.55,-3.54,-3.11,243,271,201,277,307,12
1792,-0.03,-0.96,0.26,1.1,-3.42,-2.38,244,274,205,280,305,12
1793,-0.03,-0.96,0.25,1.04,-3.78,-2.75,241,273,205,281,305,12
1794,-0.01,-0.97,0.27,1.59,-3.23,-3.97,242,271,204,283,310,12
1795,-0.01,-0.97,0.26,1.46,-1.65,-3.48,244,270,203,275,309,12
1796,-0.02,-0.97,0.27,-0.67,-3.66,-1.83,243,270,202,279,306,12
1797,-0.02,-0.97,0.26,1.34,-3.72,-3.78,245,269,209,278,306,12
1798,-0.02,-0.97,0.27,-0.31,-2.81,-2.38,238,269,204,277,311,12
1799,-0.02,-0.92,0.23,-3.66,-3.72,-7.87,241,268,204,278,308,12
1800,-0.0,-0.99,0.2,9.46,-2.81,-8.67,234,266,204,271,304,12
1801,0.01,-0.91,0.16,-4.33,-8.36,4.21,234,267,204,275,305,12
1802,-0.01,-0.94,0.3,10.38,-13.49,-1.95,236,270,203,279,303,12
1803,0.01,-0.96,0.29,5.55,-9.03,-1.22,239,270,200,275,308,12
1804,0.03,-0.92,0.26,-3.05,-2.5,0.61,236,271,202,279,308,12
1805,0.0,-0.95,0.26,1.34,3.85,-0.43,237,269,205,272,303,12
1806,0.01,-0.98,0.29,0.49,1.46,-7.63,236,270,204,279,305,12
1807,0.01,-0.98,0.33,-3.36,-9.03,-6.04,237,271,203,289,307,12
1808,0.01,-0.96,0.24,-5.13,7.02,-1.95,246,269,206,276,306,12
1809,-0.02,-0.97,0.28,2.69,7.57,0.43,240,272,203,277,309,12
1810,-0.02,-0.97,0.28,-1.59,3.11,-4.15,239,272,203,277,309,12
1811,-0.05,-0.99,0.28,4.52,-0.73,-0.55,239,269,206,282,308,12
1812,-0.05,-0.94,0.32,-2.62,-8.73,-5.37,240,266,205,280,305,12
1813,-0.06,-0.95,0.32,3.17,8.06,-1.83,239,278,202,278,304,12
1814,-0.07,-0.96,0.3,2.08,-2.93,-4.33,239,271,207,279,303,12
1815,-0.01,-0.97,0.29,-5.07,-11.05,-1.65,238,276,206,283,306,12
1816,-0.08,-0.98,0.22,16.17,5.8,-12.51,239,270,204,280,306,12
1817,-0.01,-0.96,0.35,-9.09,-12.39,-4.7,247,273,200,284,306,12
1818,0.0,-0.95,0.26,0.49,-2.69,-8.48,247,272,204,279,303,12
1819,0.02,-0.96,0.31,-9.89,-5.13,-6.59,247,275,207,280,303,12
1820,0.02,-0.98,0.32,-0.55,-4.33,-4.15,245,274,201,280,300,12
1821,0.07,-0.95,0.33,-5.07,-6.59,-4.09,245,271,203,283,299,12
1822,0.06,-0.97,0.33,-3.11,1.59,-2.44,250,275,203,281,301,12
1823,0.05,-0.97,0.3,-8.0,-2.2,0.18,249,273,203,281,309,12
1824,0.06,-0.92,0.3,2.26,-3.97,-2.81,253,270,206,276,305,12
1825,0.04,-0.98,0.32,-0.12,-3.66,-0.79,245,273,207,280,306,12
1826,0.05,-0.94,0.29,-3.42,-1.59,-3.11,245,274,201,285,305,12
1827,0.05,-0.97,0.29,0.0,-3.78,-2.08,244,273,205,283,305,12
1828,0.05,-0.96,0.27,1.04,-2.38,-1.77,244,274,207,290,315,12
1829,0.05,-0.95,0.27,-8.36,0.49,-2.08,246,274,205,283,306,12
1830,0.05,-0.99,0.24,-1.59,4.58,1.4,248,273,206,283,304,12
1831,-0.01,-0.97,0.26,4.88,-0.37,-3.3,244,274,201,280,308,12
1832,0.0,-0.96,0.24,-12.02,-7.39,-6.16,242,274,215,278,305,12
1833,-0.01,-0.95,0.21,0.18,-6.77,-1.59,245,273,203,285,304,12
1834,-0.0,-0.97,0.19,0.98,-6.84,5.19,246,275,204,280,307,12
1835,-0.04,-0.97,0.15,7.63,-6.9,5.19,246,278,203,281,307,12
1836,-0.07,-0.95,0.17,10.86,-6.1,-4.58,248,272,205,281,308,12
1837,-0.08,-1.03,0.28,-5.86,4.33,2.08,241,275,205,275,304,12
1838,-0.05,-0.95,0.19,2.69,-1.22,-2.2,243,273,204,281,307,12
1839,-0.13,-0.99,0.19,-12.76,9.77,-1.28,246,276,204,277,305,12
1840,-0.1,-0.94,0.1,0.06,-4.94,-0.79,246,276,203,287,303,12
1841,-0.11,-0.99,0.12,-2.38,-3.48,-2.01,251,275,206,286,304,12
1842,-0.08,-0.94,0.11,5.55,-3.97,-8.18,248,274,206,283,303,12
1843,-0.06,-1.0,0.22,0.85,0.43,-3.72,252,274,205,283,300,12
1844,-0.05,-0.95,0.15,-1.83,-6.1,-3.91,250,276,204,283,306,12
1845,-0.04,-0.98,0.18,-0.06,-4.15,-2.81,248,270,207,288,305,12
1846,-0.08,-1.0,0.17,-3.05,-2.5,-0.55,250,274,207,283,305,12
1847,-0.07,-0.98,0.16,-2.32,-4.76,-4.39,249,275,207,287,306,12
1848,-0.06,-0.97,0.13,6.04,-2.32,-3.42,250,276,204,280,305,12
1849,-0.05,-0.99,0.16,0.43,-1.28,-3.36,246,281,204,283,307,12
1850,-0.06,-0.99,0.17,-5.68,1.34,-2.93,247,277,207,283,303,12
1851,-0.06,-0.98,0.14,3.23,-3.48,-2.93,246,275,209,281,306,12
1852,-0.05,-0.98,0.16,-0.18,-2.75,-3.11,247,272,207,287,306,12
1853,-0.03,-1.0,0.14,1.89,-1.65,-3.42,245,281,207,283,304,12
1854,-0.04,-1.0,0.16,-1.53,-5.07,-1.59,250,276,202,287,307,12
1855,-0.05,-0.99,0.16,4.46,-4.46,-1.22,248,277,208,284,305,12
1856,-0.05,-1.0,0.16,2.26,-4.39,-2.56,245,275,206,294,305,12
1857,-0.03,-1.0,0.18,-2.26,-6.04,-3.11,249,275,207,280,308,12
1858,-0.02,-1.0,0.16,0.24,-6.71,-2.32,247,275,207,285,304,12
1859,-0.04,-0.98,0.16,0.37,-4.88,-0.79,247,274,202,284,306,12
1860,-0.02,-1.0,0.18,0.12,-3.23,-3.91,247,277,212,284,306,12
1861,-0.04,-1.0,0.16,1.46,-2.56,-0.73,245,277,202,289,306,12
1862,-0.04,-0.99,0.19,-0.06,-2.38,-2.26,247,273,207,282,306,12
1863,-0.03,-0.98,0.19,0.73,-3.05,-2.69,249,275,209,289,305,12
1864,-0.03,-0.98,0.2,1.22,-4.27,-3.72,249,274,204,285,306,12
1865,-0.03,-0.97,0.2,-0.24,-0.24,-2.93,247,277,209,284,307,12
1866,-0.05,-0.98,0.2,1.22,-3.23,5.98,249,271,204,286,299,12
1867,-0.07,-1.01,0.25,-2.75,8.61,-3.48,251,277,206,282,288,12
1868,-0.05,-0.98,0.2,0.73,-3.36,-2.62,250,279,207,286,286,12
1869,-0.03,-1.04,0.22,4.33,-3.97,-4.03,251,277,209,282,284,12
1870,-0.05,-0.95,0.22,1.1,-1.59,-3.54,252,278,206,284,291,12
1871,-0.06,-0.98,0.23,0.85,-3.48,-3.42,253,278,206,285,290,12
1872,-0.04,-0.97,0.23,-0.43,-2.62,-2.62,253,278,207,284,284,12
1873,-0.05,-0.99,0.24,0.24,-3.66,-2.69,250,276,204,283,286,12
1874,-0.05,-0.96,0.22,0.98,-2.44,-2.14,250,275,206,283,288,12
1875,-0.06,-0.98,0.24,-2.08,-2.69,-3.11,253,276,206,287,288,12
1876,-0.04,-0.97,0.22,2.26,-1.65,-2.69,252,276,212,287,289,12
1877,-0.05,-0.98,0.23,0.18,-2.87,-2.01,253,277,207,284,282,12
1878,-0.06,-0.97,0.22,1.28,-3.17,-2.38,252,275,207,282,286,12
1879,-0.05,-0.98,0.24,1.1,-3.11,-2.93,252,276,209,280,288,12
1880,-0.06,-0.98,0.22,0.61,-3.3,-2.2,251,275,207,284,288,12
1881,-0.05,-0.97,0.23,-0.37,-2.38,-2.2,251,275,211,287,290,12
1882,-0.05,-0.98,0.21,0.24,-4.15,-2.99,250,276,211,286,291,12
1883,-0.04,-0.98,0.21,-1.22,-4.39,-2.5,252,279,211,285,290,12
1884,-0.05,-0.97,0.2,0.67,-4.46,-1.71,250,276,205,284,290,12
1885,-0.06,-0.97,0.22,-0.49,-3.85,-2.75,254,279,209,284,292,12
1886,-0.05,-0.98,0.22,1.65,-2.81,-2.62,253,279,206,284,290,12
1887,-0.05,-0.97,0.23,0.92,-2.38,-2.32,249,274,208,286,290,12
1888,-0.05,-0.95,0.2,4.52,-3.42,-2.44,251,278,212,284,286,12
1889,-0.04,-0.98,0.25,-3.85,-3.66,-3.05,253,278,211,286,291,12
1890,-0.05,-0.97,0.23,1.22,-2.26,-2.75,250,278,207,284,291,12
1891,-0.06,-0.95,0.22,1.53,-2.01,-2.2,252,277,210,282,292,12
1892,-0.06,-0.98,0.24,2.32,-2.08,-2.93,250,276,206,282,289,12
1893,-0.06,-0.98,0.25,-0.43,-2.75,-2.62,252,277,210,279,290,12
1894,-0.06,-0.97,0.23,3.48,-2.5,-3.72,252,276,209,285,291,12
1895,-0.05,-0.96,0.22,0.31,-3.6,-2.62,249,277,211,281,292,12
1896,-0.05,-0.97,0.23,-1.1,-1.95,-2.69,253,276,211,287,289,12
1897,-0.06,-1.0,0.25,-0.06,-4.94,-4.88,247,276,218,284,289,12
1898,-0.05,-0.96,0.25,-2.5,-0.85,-2.5,246,277,207,282,291,12
1899,-0.05,-0.97,0.19,2.69,-4.15,-1.59,249,274,213,282,289,12
1900,-0.01,-0.99,0.26,-0.37,-0.49,-5.25,249,275,209,284,286,12
1901,-0.04,-0.96,0.2,3.17,-3.78,-1.77,248,278,208,279,287,12
1902,-0.04,-0.98,0.24,-2.38,-2.87,-3.3,256,280,208,280,290,12
1903,-0.04,-0.97,0.23,0.55,-2.08,-3.11,250,278,210,279,292,12
1904,-0.04,-0.99,0.24,3.23,-2.93,-2.14,249,280,209,284,290,12
1905,-0.05,-0.97,0.22,3.11,-2.93,-3.97,251,278,206,284,291,12
1906,-0.02,-0.97,0.25,0.98,-4.39,-2.26,253,276,212,281,293,12
1907,-0.05,-0.96,0.22,-0.98,-2.87,-1.53,250,278,213,285,292,12
1908,-0.04,-0.97,0.23,0.24,-3.11,-2.44,250,283,213,279,289,12
1909,-0.04,-0.96,0.2,1.89,-3.48,-1.77,252,280,210,278,294,12
1910,-0.05,-0.99,0.23,-1.59,-2.14,-2.62,253,280,210,285,292,12
1911,-0.04,-0.95,0.17,1.34,-3.85,-3.23,273,279,207,284,292,12
1912,-0.04,-0.96,0.17,-2.93,-1.34,-3.05,251,279,211,286,293,12
1913,-0.04,-0.99,0.19,-1.22,-3.3,-3.54,250,279,212,283,290,12
1914,-0.05,-0.99,0.2,1.46,-1.83,-3.17,250,278,212,287,292,12
1915,-0.04,-0.98,0.19,0.18,-2.69,-3.11,250,277,211,287,292,12
1916,-0.03,-0.99,0.2,0.06,-2.99,-2.62,253,278,215,280,292,12
1917,-0.06,-1.01,0.2,-10.44,1.77,-4.7,253,278,211,283,292,12
1918,-0.04,-1.0,0.19,-0.85,-1.77,-2.38,250,280,212,283,293,12
1919,-0.04,-0.99,0.18,2.56,-2.75,-3.3,249,280,213,284,292,12
1920,-0.03,-0.97,0.17,2.56,-2.44,-2.62,250,280,213,285,290,12
1921,-0.02,-0.98,0.19,1.65,-2.93,-3.3,250,280,212,284,293,12
1922,-0.03,-0.99,0.18,0.98,-3.11,-1.89,252,276,209,282,293,12
1923,-0.04,-0.98,0.18,-0.98,-2.32,-1.46,256,281,213,286,293,12
1924,-0.04,-0.99,0.18,-2.14,-3.36,-2.32,247,281,211,283,294,12
1925,-0.05,-0.99,0.18,-1.1,-3.42,-3.85,250,279,211,286,295,12
1926,-0.03,-0.98,0.13,-4.21,0.55,-5.86,252,277,216,285,292,12
1927,-0.06,-0.96,0.11,-4.7,2.56,1.83,252,280,211,284,293,12
1928,-0.08,-0.99,0.14,2.32,-1.1,-1.53,250,281,212,284,296,12
1929,-0.05,-1.0,0.13,0.73,-1.53,-0.49,250,280,212,288,293,12
1930,-0.07,-0.98,0.12,0.98,4.52,-5.62,254,278,211,283,294,12
1931,-0.07,-0.98,0.12,3.3,-2.99,-3.23,252,279,213,285,295,12
1932,-0.07,-1.01,0.15,9.34,2.2,-4.15,287,276,209,283,293,12
1933,-0.08,-1.0,0.16,0.18,-1.22,-3.17,250,277,212,284,294,12
1934,-0.07,-0.97,0.15,-2.93,-3.05,-4.09,251,280,212,286,293,12
1935,-0.05,-0.99,0.16,-4.09,-2.62,-6.47,250,278,212,284,297,12
1936,-0.02,-0.98,0.13,3.91,-3.78,0.31,249,280,213,285,295,12
1937,-0.09,-0.94,0.1,2.26,-6.9,-0.61,249,279,211,296,294,12
1938,-0.09,-0.96,0.19,-4.09,-1.77,-2.14,246,282,210,284,292,12
1939,-0.01,-0.99,0.14,3.3,7.51,-3.78,250,280,208,293,295,12
1940,-0.09,-0.98,0.18,5.49,-2.87,-4.52,250,283,211,286,292,12
1941,-0.07,-0.98,0.15,1.77,6.71,-4.88,250,279,223,289,296,12
1942,-0.04,-0.97,0.22,3.6,5.07,5.0,253,278,212,287,298,12
1943,0.02,-0.96,0.19,13.0,6.71,-9.4,253,283,214,282,301,12
1944,0.03,-1.0,0.21,-7.26,-13.55,11.17,248,283,211,283,300,12
1945,-0.04,-0.96,0.27,4.76,-7.26,-10.68,249,281,210,288,299,12
1946,0.0,-0.97,0.3,-0.98,-7.2,-6.71,248,281,212,285,300,12
1947,0.01,-0.97,0.29,5.49,3.85,-4.58,248,280,213,287,301,12
1948,0.01,-0.94,0.29,-2.32,4.39,-2.01,251,282,210,282,301,12
1949,-0.02,-0.93,0.26,13.31,-3.3,22.64,250,280,208,282,298,12
1950,-0.17,-0.95,0.23,-10.8,23.62,-3.11,247,273,209,283,296,12
1951,-0.21,-0.94,0.26,-4.15,0.43,-6.29,251,276,205,286,301,12
1952,0.08,-0.87,0.61,25.15,3.36,-13.37,270,280,210,283,299,12
1953,-0.12,-0.94,0.26,-10.44,-3.36,4.64,252,274,207,284,294,12
1954,-0.15,-1.0,0.3,5.98,-2.5,1.4,248,279,201,277,295,12
1955,-0.11,-0.95,0.32,2.99,2.26,-19.59,251,279,207,280,293,12
1956,-0.06,-0.88,0.32,3.17,-22.28,0.37,255,277,205,281,293,12
1957,-0.1,-0.95,0.32,-11.96,-25.33,19.84,255,279,208,286,297,12
1958,-0.07,-0.92,0.3,-19.9,-4.09,2.38,255,277,211,285,297,12
1959,-0.1,-0.89,0.33,3.36,-0.43,6.1,256,283,214,286,291,12
1960,-0.07,-0.94,0.47,20.14,5.13,-7.14,260,288,210,289,290,12
1961,-0.07,-0.89,0.48,-3.36,-12.82,1.59,264,290,210,296,297,12
1962,-0.03,-0.91,0.45,7.2,-8.67,-7.63,261,287,213,292,286,12
1963,-0.11,-0.85,0.5,-3.72,-26.61,4.15,261,286,210,295,285,12
1964,-0.03,-0.91,0.5,3.05,-5.31,-3.3,261,289,211,292,284,12
1965,-0.04,-0.89,0.49,-1.16,-4.15,-3.85,257,288,212,294,288,12
