,aX,aY,aZ,gX,gY,gZ,little,ring,middle,index,thumb,number
0,0.88,-0.46,0.0,-1.59,-2.32,-1.83,190,247,199,246,396,13
1,0.9,-0.44,0.02,2.44,-1.65,-3.6,190,246,194,248,393,13
2,0.88,-0.45,0.04,0.61,-3.97,-2.69,191,246,194,248,403,13
3,0.89,-0.45,0.03,3.3,-1.4,-2.5,189,248,200,249,400,13
4,0.89,-0.44,0.03,-1.95,-2.81,-2.08,192,243,199,245,402,13
5,0.89,-0.45,0.03,1.77,-2.87,-2.5,180,258,197,254,397,13
6,0.9,-0.44,0.03,0.49,-2.26,-2.44,188,243,199,253,399,13
7,0.89,-0.45,0.03,1.4,-2.99,-2.81,186,246,198,245,399,13
8,0.9,-0.45,0.03,0.06,-3.05,-2.99,187,246,199,251,402,13
9,0.9,-0.44,0.02,1.1,-2.99,-3.17,188,248,197,251,401,13
10,0.9,-0.44,0.03,1.34,-2.81,-3.17,191,243,194,250,397,13
11,0.9,-0.44,0.03,0.06,-3.85,-3.05,192,244,203,252,402,13
12,0.9,-0.44,0.04,2.14,-3.66,-2.99,193,248,201,251,401,13
13,0.91,-0.44,0.04,0.37,-2.62,-2.62,192,249,201,254,399,13
14,0.9,-0.44,0.04,0.06,-3.36,-2.69,222,249,200,250,399,13
15,0.9,-0.44,0.03,0.37,-2.81,-2.26,193,245,197,250,396,13
16,0.91,-0.44,0.04,0.98,-2.5,-3.05,190,248,198,255,402,13
17,0.9,-0.45,0.04,0.79,-3.11,-2.5,191,248,199,251,400,13
18,0.89,-0.45,0.04,-0.31,-2.99,-2.44,222,248,199,255,397,13
19,0.9,-0.44,0.04,0.18,-3.48,-2.62,190,246,201,249,399,13
20,0.9,-0.44,0.05,1.1,-2.14,-2.69,192,248,205,256,400,13
21,0.9,-0.43,0.04,0.31,-2.26,-2.81,190,246,200,252,402,13
22,0.9,-0.44,0.04,1.16,-3.66,-0.73,184,246,199,252,401,13
23,0.9,-0.44,0.04,-0.55,-3.36,-1.77,194,248,199,251,398,13
24,0.9,-0.45,0.04,1.34,-2.69,-2.93,192,246,198,256,401,13
25,0.88,-0.44,0.05,-0.85,2.26,-2.44,193,246,201,254,398,13
26,0.91,-0.44,0.05,-0.06,-2.56,-3.11,193,247,202,255,401,13
27,0.89,-0.45,0.05,-0.12,-2.62,-2.99,193,246,200,251,400,13
28,0.9,-0.45,0.05,1.04,-2.2,-2.99,190,246,208,255,400,13
29,0.9,-0.44,0.05,0.55,-2.87,-3.11,194,247,197,247,406,13
30,0.91,-0.44,0.05,0.31,-3.54,-3.23,191,246,200,251,401,13
31,0.89,-0.45,0.05,-0.37,-2.69,-2.81,193,250,203,252,403,13
32,0.9,-0.44,0.05,-0.49,-3.72,-2.56,190,249,199,249,404,13
33,0.89,-0.45,0.05,0.18,-3.48,-2.44,195,250,202,265,404,13
34,0.9,-0.44,0.05,0.06,-3.48,-2.08,224,249,202,251,401,13
35,0.9,-0.44,0.05,-0.43,-3.48,-2.69,187,245,199,252,401,13
36,0.9,-0.44,0.04,0.92,-3.05,-2.75,192,248,204,256,397,13
37,0.9,-0.44,0.06,0.79,-2.38,-2.93,191,250,203,254,401,13
38,0.89,-0.45,0.05,0.73,-2.5,-2.87,193,249,200,255,401,13
39,0.89,-0.45,0.05,0.49,-3.17,-3.17,192,250,203,257,399,13
40,0.9,-0.44,0.05,-2.38,-2.99,-2.08,190,249,203,252,399,13
41,0.89,-0.44,0.05,0.06,-2.62,-2.87,195,249,199,256,400,13
42,0.9,-0.45,0.04,2.08,-2.62,-3.11,195,253,206,256,401,13
43,0.89,-0.45,0.04,0.79,-3.17,-2.69,194,248,203,257,399,13
44,0.89,-0.45,0.04,0.43,-2.87,-2.87,195,250,203,252,406,13
45,0.9,-0.45,0.05,0.67,-2.93,-2.44,211,249,202,256,401,13
46,0.9,-0.44,0.04,0.0,-3.6,-3.05,196,248,201,250,401,13
47,0.9,-0.44,0.04,0.98,-3.11,-2.5,190,255,202,255,402,13
48,0.89,-0.45,0.04,0.79,-2.81,-3.54,193,250,199,249,402,13
49,0.9,-0.45,0.04,0.31,-2.32,-2.69,195,250,200,253,398,13
50,0.89,-0.45,0.05,0.79,-2.26,-2.87,196,249,206,254,402,13
51,0.88,-0.45,0.05,1.22,-1.95,-3.17,194,245,205,249,403,13
52,0.9,-0.44,0.05,0.06,-1.1,-3.23,195,248,202,253,402,13
53,0.89,-0.45,0.05,-1.04,-3.91,-2.2,202,246,204,253,401,13
54,0.9,-0.45,0.05,0.0,-3.11,-1.65,195,253,201,253,399,13
55,0.89,-0.45,0.05,0.43,-2.93,-2.5,191,247,203,253,401,13
56,0.89,-0.45,0.05,-0.37,-3.42,-2.32,201,248,201,253,404,13
57,0.89,-0.44,0.05,-0.06,-2.38,-2.69,195,248,202,255,400,13
58,0.9,-0.45,0.05,0.06,-3.05,-2.93,195,250,203,257,401,13
59,0.9,-0.45,0.05,1.16,-2.81,-3.78,196,248,200,258,404,13
60,0.9,-0.44,0.06,0.85,-2.62,-2.56,193,246,207,257,399,13
61,0.89,-0.44,0.05,0.49,-2.5,-3.23,196,248,201,257,401,13
62,0.89,-0.45,0.06,0.61,-2.87,-2.56,193,247,203,254,402,13
63,0.9,-0.45,0.06,0.12,-3.85,-2.75,194,248,201,252,401,13
64,0.89,-0.45,0.05,0.73,-2.87,-2.5,193,248,205,257,400,13
65,0.9,-0.44,0.04,1.04,-4.64,-2.5,196,247,204,251,402,13
66,0.89,-0.45,0.04,0.31,-3.17,-3.05,193,248,201,258,401,13
67,0.9,-0.45,0.04,0.61,-3.23,-2.56,190,250,204,253,398,13
68,0.9,-0.45,0.04,0.43,-2.75,-2.69,194,247,204,255,401,13
69,0.9,-0.45,0.04,0.49,-2.99,-3.23,195,248,204,256,401,13
70,0.89,-0.45,0.04,0.24,-2.81,-3.23,195,248,201,260,402,13
71,0.89,-0.45,0.05,-0.31,-3.11,-2.62,195,248,200,257,401,13
72,0.89,-0.44,0.05,0.0,-2.62,-2.69,193,245,200,257,402,13
73,0.89,-0.45,0.05,0.18,-4.03,-2.75,192,250,202,252,401,13
74,0.89,-0.45,0.04,0.43,-2.62,-2.69,196,251,203,252,397,13
75,0.89,-0.45,0.04,-0.06,-3.23,-2.56,194,250,205,254,404,13
76,0.89,-0.45,0.04,-0.18,-3.66,-2.56,194,247,205,253,402,13
77,0.9,-0.45,0.03,0.12,-3.23,-2.5,194,247,201,256,400,13
78,0.9,-0.46,0.04,0.0,-3.78,-2.5,192,250,200,255,401,13
79,0.89,-0.45,0.03,0.43,-2.32,-2.75,194,250,205,257,401,13
80,0.9,-0.45,0.03,0.37,-2.32,-3.23,194,247,201,255,402,13
81,0.89,-0.45,0.04,0.79,-2.56,-2.75,197,251,201,253,397,13
82,0.9,-0.44,0.05,0.06,-2.5,-5.62,197,248,205,258,400,13
83,0.9,-0.44,0.04,-0.18,-3.11,-2.87,194,251,209,259,398,13
84,0.9,-0.44,0.04,-1.53,-4.15,-1.59,192,250,200,259,402,13
85,0.9,-0.45,0.04,-0.12,-3.3,-2.01,194,251,202,264,401,13
86,0.9,-0.44,0.04,0.18,-3.23,-2.69,196,251,204,257,402,13
87,0.89,-0.45,0.04,0.49,-3.3,-2.44,195,245,202,256,401,13
88,0.89,-0.45,0.03,-0.24,-3.48,-2.08,195,252,205,254,401,13
89,0.9,-0.44,0.03,0.0,-3.05,-2.26,190,251,204,250,402,13
90,0.89,-0.44,0.03,-0.24,-2.99,-3.36,195,248,204,250,394,13
91,0.9,-0.44,0.03,-0.37,-3.17,-2.62,200,249,200,255,402,13
92,0.91,-0.43,0.04,0.55,-2.38,-2.93,195,248,205,257,401,13
93,0.9,-0.44,0.04,0.61,-2.81,-2.87,195,245,203,254,401,13
94,0.89,-0.45,0.05,0.0,-3.36,-2.44,195,248,210,250,401,13
95,0.89,-0.45,0.03,0.73,-3.05,-2.62,203,251,200,258,401,13
96,0.9,-0.44,0.03,0.55,-3.3,-2.44,194,251,202,252,401,13
97,0.89,-0.45,0.03,0.06,-3.05,-2.99,198,251,202,256,403,13
98,0.89,-0.45,0.02,-0.12,-3.48,-1.71,195,248,202,252,401,13
99,0.9,-0.45,0.01,1.83,-4.27,-1.95,195,250,204,251,401,13
100,0.9,-0.44,0.04,0.43,-2.87,-2.69,196,250,202,259,399,13
101,0.9,-0.44,0.04,1.4,-2.62,-2.56,194,251,202,255,404,13
102,0.9,-0.44,0.03,1.22,-2.44,-3.23,193,249,200,255,402,13
103,0.9,-0.44,0.04,0.43,-2.93,-2.62,193,250,203,259,403,13
104,0.91,-0.44,0.02,0.31,-3.05,-2.81,192,250,203,258,402,13
105,0.89,-0.44,0.03,0.12,-2.87,-2.5,196,251,205,252,402,13
106,0.89,-0.45,0.03,0.79,-3.23,-2.56,196,249,201,258,403,13
107,0.89,-0.45,0.03,0.55,-2.93,-2.26,196,250,206,256,402,13
108,0.89,-0.45,0.03,0.67,-2.81,-2.56,197,245,203,259,399,13
109,0.89,-0.45,0.03,-0.43,-3.72,-2.5,197,249,203,253,404,13
110,0.89,-0.45,0.03,-0.31,-3.66,-2.08,194,252,206,253,403,13
111,0.89,-0.44,0.02,0.12,-2.56,-2.32,195,248,205,258,403,13
112,0.9,-0.45,0.01,0.79,-2.75,-5.92,197,251,205,256,403,13
113,0.88,-0.45,0.02,0.79,-5.68,-1.22,195,249,205,255,403,13
114,0.9,-0.44,-0.0,-1.46,-5.37,-2.69,194,250,204,255,405,13
115,0.91,-0.43,-0.01,-4.39,-3.78,-1.71,198,251,200,259,403,13
116,0.9,-0.44,-0.03,-0.18,-3.72,-2.14,203,251,205,255,400,13
117,0.9,-0.44,-0.01,2.38,-3.97,-2.62,194,248,202,259,399,13
118,0.89,-0.44,-0.06,0.43,-3.48,-3.66,193,250,202,257,404,13
119,0.91,-0.44,-0.02,-1.4,-2.62,-2.56,196,249,202,261,406,13
120,0.89,-0.45,-0.04,0.67,0.55,-3.36,198,248,206,253,402,13
121,0.89,-0.41,-0.0,-4.82,-1.53,-4.52,194,248,203,251,399,13
122,0.94,-0.4,0.02,-6.23,-2.81,-4.15,194,248,205,253,402,13
123,0.8,-0.44,-0.1,1.34,-1.4,-1.22,195,249,205,258,402,13
124,0.85,-0.49,-0.07,15.2,-15.08,6.1,198,246,202,252,400,13
125,0.85,-0.47,-0.13,-3.3,-2.87,-7.87,197,250,203,254,400,13
126,0.84,-0.42,-0.2,-15.01,-15.81,3.6,195,250,204,258,402,13
127,0.86,-0.42,-0.04,39.98,18.86,3.66,196,249,207,257,401,13
128,0.88,-0.52,0.03,-37.84,6.53,-9.58,197,251,205,258,403,13
129,0.88,-0.5,-0.3,-11.84,-5.37,-1.65,197,251,200,257,398,13
130,0.81,-0.52,-0.12,14.1,0.85,1.46,196,248,205,257,398,13
131,0.83,-0.53,-0.13,0.0,-3.72,-1.1,198,254,203,261,402,13
132,0.87,-0.52,-0.1,-1.83,3.05,-8.97,198,249,203,256,402,13
133,0.86,-0.53,-0.15,0.92,-3.05,-1.59,197,252,203,260,402,13
134,0.91,-0.43,-0.07,-11.9,1.22,-26.67,198,247,203,260,402,13
135,0.79,-0.49,-0.23,13.49,12.82,-1.71,226,251,202,258,400,13
136,0.83,-0.5,-0.15,-18.98,-3.3,-6.9,196,251,205,257,404,13
137,0.79,-0.53,-0.26,18.8,5.31,1.71,198,249,206,253,399,13
138,0.87,-0.48,-0.04,-7.08,-8.18,0.12,194,249,204,258,403,13
139,0.77,-0.54,-0.22,-8.97,-5.74,4.09,204,251,204,255,400,13
140,0.82,-0.49,-0.15,8.3,5.92,-1.04,195,251,205,252,403,13
141,0.84,-0.49,-0.16,1.28,-5.19,-3.66,195,250,205,255,401,13
142,0.92,-0.46,-0.15,7.87,1.4,-18.8,197,249,205,257,399,13
143,0.88,-0.5,-0.05,-1.65,-7.63,-5.92,199,250,201,260,396,13
144,0.87,-0.49,-0.14,4.46,-1.71,-1.53,195,251,205,254,398,13
145,0.85,-0.47,-0.06,1.77,-5.13,-0.67,196,249,209,261,398,13
146,0.83,-0.52,-0.12,2.2,-4.94,-2.87,197,247,203,260,400,13
147,0.88,-0.52,-0.09,-4.94,-0.49,-1.71,194,253,203,256,401,13
148,0.85,-0.51,-0.15,2.08,-21.06,3.6,197,253,203,258,401,13
149,0.82,-0.59,-0.12,-10.07,-4.58,6.16,190,252,205,253,395,13
150,0.87,-0.56,-0.17,7.87,0.12,7.57,198,249,204,260,401,13
151,0.7,-0.59,-0.06,19.84,-1.65,-4.39,196,250,206,258,395,13
152,0.77,-0.59,0.02,-1.59,5.62,-2.56,194,251,204,258,397,13
153,0.83,-0.56,-0.12,-8.85,-4.58,-1.89,196,250,206,257,401,13
154,0.8,-0.57,-0.09,0.61,-1.89,-2.62,195,254,213,258,398,13
155,0.81,-0.56,-0.12,10.07,4.64,-8.67,196,247,204,254,398,13
156,0.8,-0.56,-0.0,8.24,-1.22,-3.78,201,249,203,255,400,13
157,0.85,-0.51,0.12,7.39,-2.2,-15.56,196,251,203,260,399,13
158,0.78,-0.52,-0.03,5.62,-68.54,8.67,198,252,206,262,391,13
159,0.88,-0.52,-0.06,4.94,5.49,-6.9,194,251,204,254,397,13
160,0.84,-0.49,-0.05,-6.16,1.95,1.16,196,248,204,256,396,13
161,0.85,-0.51,-0.03,5.62,-5.92,-2.99,199,250,205,253,399,13
162,0.87,-0.53,-0.03,0.85,-0.37,0.43,196,251,204,255,399,13
163,0.86,-0.51,-0.04,-3.42,-4.03,-4.15,196,252,204,267,402,13
164,0.87,-0.51,-0.04,-2.93,-6.23,-5.07,194,249,204,260,398,13
165,0.86,-0.51,-0.08,-2.62,-9.4,0.43,185,249,204,260,399,13
166,0.89,-0.48,-0.13,3.3,-5.55,-4.94,198,252,202,256,396,13
167,0.83,-0.5,-0.08,-1.59,-3.66,1.83,197,249,202,262,401,13
168,0.9,-0.49,-0.09,1.34,0.43,-4.94,195,261,204,257,397,13
169,0.86,-0.48,-0.06,-0.31,1.4,-5.31,196,249,202,262,398,13
170,0.88,-0.46,-0.03,6.16,2.14,-5.74,198,252,206,257,398,13
171,0.9,-0.45,-0.02,-3.3,-4.09,-0.67,192,249,205,259,402,13
172,0.88,-0.48,-0.07,2.2,-8.48,-5.43,196,249,207,259,398,13
173,0.94,-0.42,-0.0,6.47,5.37,-9.89,196,250,218,260,395,13
174,0.89,-0.44,0.02,-1.53,-4.94,-3.3,196,251,203,263,400,13
175,0.93,-0.43,-0.06,-1.46,-9.34,-3.54,199,252,203,258,395,13
176,0.91,-0.41,-0.1,2.44,-4.33,-2.01,196,252,210,261,392,13
177,0.87,-0.46,-0.11,-2.93,-2.99,0.49,206,250,202,258,399,13
178,0.86,-0.48,-0.11,-3.48,-3.05,0.49,199,253,206,260,398,13
179,0.86,-0.49,-0.12,-0.18,-4.15,0.43,197,250,206,261,396,13
180,0.87,-0.49,-0.13,-1.04,-2.93,-4.52,198,250,207,258,400,13
181,0.85,-0.49,-0.12,-0.55,-1.53,-3.72,198,252,205,256,394,13
182,0.87,-0.49,-0.13,1.83,-1.53,-2.14,195,250,202,261,397,13
183,0.84,-0.48,-0.09,-4.27,-1.59,-3.17,195,247,204,255,394,13
184,0.82,-0.48,-0.1,-1.46,-1.71,0.31,196,252,207,259,401,13
185,0.79,-0.51,-0.04,-3.05,-4.64,-2.44,199,250,207,258,397,13
186,0.83,-0.53,-0.03,3.05,8.91,9.28,196,248,206,255,378,13
187,0.82,-0.5,-0.05,3.54,-0.12,1.22,226,251,218,261,382,13
188,0.87,-0.49,-0.06,1.53,-1.95,-4.09,196,249,202,262,388,13
189,0.87,-0.5,-0.05,-1.28,-4.64,-1.95,195,251,206,258,387,13
190,0.85,-0.51,-0.07,1.89,-2.2,-2.44,192,250,206,258,390,13
191,0.86,-0.51,-0.07,-0.24,-3.36,-2.01,194,255,205,256,387,13
192,0.86,-0.5,-0.06,1.89,-1.83,-2.5,194,253,204,262,390,13
193,0.86,-0.51,-0.03,0.31,-0.98,-1.71,197,248,205,263,388,13
194,0.86,-0.5,-0.04,-0.24,-3.66,-2.14,200,254,219,260,388,13
195,0.86,-0.51,-0.04,0.92,-4.52,-1.1,196,252,207,258,388,13
196,0.84,-0.52,-0.06,0.43,-4.64,-1.28,200,251,207,260,388,13
197,0.84,-0.53,-0.06,2.93,-3.23,-1.04,196,250,208,261,388,13
198,0.85,-0.53,-0.06,-1.28,-3.66,-2.81,196,252,207,261,376,13
199,0.84,-0.53,-0.05,2.87,-2.69,-2.75,199,256,219,261,386,13
200,0.84,-0.53,-0.06,0.12,-2.26,-3.48,218,252,205,258,389,13
201,0.85,-0.53,-0.05,0.73,-2.2,-2.56,196,251,205,254,389,13
202,0.85,-0.53,-0.05,0.0,-2.69,-3.36,199,249,204,262,390,13
203,0.85,-0.52,-0.04,1.65,-3.36,-2.5,196,254,203,255,388,13
204,0.84,-0.53,-0.05,0.85,-2.14,-2.14,196,247,206,262,387,13
205,0.85,-0.53,-0.05,-0.24,-3.17,-1.83,196,250,204,259,394,13
206,0.85,-0.53,-0.05,-0.85,-3.36,-2.44,198,257,206,257,389,13
207,0.84,-0.38,-0.35,-19.1,-26.55,-15.69,194,249,207,259,392,13
208,0.84,-0.49,-0.07,8.12,17.15,-11.54,200,251,208,258,389,13
209,0.87,-0.49,-0.13,-12.08,-3.42,-2.32,199,255,208,256,386,13
210,0.86,-0.49,-0.11,1.65,-3.97,1.71,196,250,205,255,389,13
211,0.88,-0.47,-0.1,2.5,-4.39,-2.87,199,250,206,255,389,13
212,0.87,-0.47,-0.12,0.55,-4.27,-1.77,195,253,205,259,389,13
213,0.87,-0.48,-0.11,0.37,-3.36,-1.83,198,253,206,256,388,13
214,0.87,-0.48,-0.13,3.3,-0.85,-3.78,204,251,207,259,391,13
215,0.9,-0.47,-0.09,6.29,3.23,-2.75,198,250,203,263,390,13
216,0.87,-0.49,-0.06,8.12,-3.85,1.95,197,251,204,258,391,13
217,0.83,-0.51,0.0,-2.93,-6.96,2.87,196,251,207,261,392,13
218,0.86,-0.5,-0.12,-11.96,-11.05,-0.24,197,249,203,259,391,13
219,0.84,-0.52,-0.17,2.38,0.18,0.43,198,252,202,259,389,13
220,0.84,-0.52,-0.12,4.03,-2.69,-2.69,199,253,207,259,391,13
221,0.85,-0.51,-0.1,-5.8,-3.05,-7.02,195,246,204,259,390,13
222,0.85,-0.49,-0.18,-9.52,2.81,-3.36,200,251,207,259,391,13
223,0.86,-0.49,-0.13,19.53,-27.83,3.3,199,253,206,259,391,13
224,0.77,-0.6,-0.18,19.78,-48.28,5.74,196,251,205,260,393,13
225,0.64,-0.68,-0.19,-5.13,9.16,-13.18,196,251,208,261,388,13
226,0.73,-0.65,-0.24,-8.85,22.77,-1.53,196,251,207,256,394,13
227,0.73,-0.63,-0.19,-2.01,-1.1,-1.46,208,253,208,263,393,13
228,0.76,-0.63,-0.19,-0.18,-1.46,-2.14,198,249,206,259,394,13
229,0.71,-0.64,-0.16,-4.7,-4.76,-17.76,197,251,203,254,394,13
230,0.93,-0.45,-0.28,-36.56,70.8,-7.51,199,249,205,260,393,13
231,0.89,-0.5,-0.21,3.6,-0.55,0.79,197,253,203,262,387,13
232,0.81,-0.52,-0.11,2.32,-1.77,2.56,200,248,206,263,392,13
233,0.81,-0.49,-0.18,4.09,-2.75,3.48,197,254,203,262,390,13
234,0.85,-0.49,-0.15,1.65,3.91,-1.22,198,251,206,263,391,13
235,0.85,-0.49,-0.13,1.16,-3.48,-1.59,198,248,206,261,393,13
236,0.85,-0.49,-0.13,0.61,-0.79,-3.11,199,250,205,268,392,13
237,0.85,-0.51,-0.13,0.98,-1.77,-2.2,197,253,212,261,394,13
238,0.86,-0.49,-0.12,0.79,-2.56,-3.78,197,248,205,263,389,13
239,0.86,-0.49,-0.14,11.6,1.46,-8.36,199,253,205,259,392,13
240,0.88,-0.48,-0.07,-0.79,-3.66,-2.08,196,250,207,270,389,13
241,0.86,-0.49,-0.08,4.76,8.42,-9.22,199,254,205,264,391,13
242,0.83,-0.51,-0.05,-18.37,35.28,-0.55,195,253,205,259,389,13
243,0.86,-0.49,0.08,-2.81,-4.33,-3.23,200,251,206,257,393,13
244,0.87,-0.51,0.05,-1.28,-2.08,-4.88,217,253,207,260,393,13
245,0.86,-0.51,0.06,0.31,-4.64,-1.1,200,253,204,264,393,13
246,0.85,-0.51,0.04,1.34,-7.26,-0.49,197,254,204,263,393,13
247,0.85,-0.51,0.04,-0.98,-3.54,-2.93,201,253,215,259,394,13
248,0.87,-0.51,0.04,0.24,-6.59,1.22,202,253,212,261,390,13
249,0.86,-0.5,0.05,0.85,-2.38,-3.42,199,250,204,264,391,13
250,0.87,-0.51,0.04,0.0,-3.78,-2.14,200,253,208,258,390,13
251,0.85,-0.49,0.04,9.83,-16.3,-2.44,197,253,206,259,390,13
252,0.93,-0.43,0.1,-9.89,2.01,-12.7,197,253,208,260,388,13
253,0.85,-0.48,0.05,1.04,-5.68,-7.45,197,252,218,256,391,13
254,0.83,-0.43,-0.07,-16.97,-10.8,4.82,196,249,207,264,387,13
255,0.99,-0.41,-0.12,-4.88,-5.49,-6.16,197,252,203,259,389,13
256,0.84,-0.47,-0.15,-3.85,-2.32,-8.12,197,251,205,262,391,13
257,0.85,-0.46,-0.13,-1.34,-0.98,8.18,198,252,209,260,391,13
258,0.9,-0.46,-0.08,2.93,0.43,-0.06,197,248,208,264,388,13
259,0.87,-0.47,-0.09,-2.5,-0.18,-5.0,197,251,211,264,394,13
260,0.89,-0.45,-0.06,6.77,-2.26,-3.11,197,252,206,260,391,13
261,0.89,-0.48,-0.0,5.31,-2.08,-2.08,197,251,207,264,392,13
262,0.93,-0.46,0.02,9.28,-3.05,-2.62,197,251,207,257,393,13
263,0.85,-0.47,-0.03,-4.82,-1.16,-1.22,197,252,209,257,392,13
264,0.82,-0.49,-0.09,20.39,-46.14,0.61,197,253,205,262,392,13
265,0.86,-0.5,-0.1,-6.47,-16.17,0.43,197,254,205,260,389,13
266,0.89,-0.48,-0.03,-10.07,-11.17,-3.42,197,250,208,260,394,13
267,0.76,-0.59,-0.26,3.42,4.82,3.23,199,250,205,257,392,13
268,0.98,-0.47,-0.0,14.65,-12.76,-14.4,199,248,205,263,390,13
269,0.86,-0.5,-0.05,-3.36,-4.39,-2.5,187,252,206,257,391,13
270,0.84,-0.53,-0.03,-7.93,-15.93,17.15,217,254,206,260,391,13
271,0.73,-0.59,0.32,24.54,40.16,-22.22,200,251,209,264,388,13
272,0.9,-0.48,-0.2,0.61,-9.83,-9.46,196,255,206,260,393,13
273,0.85,-0.56,0.04,-12.21,3.66,-14.22,198,252,208,262,385,13
274,0.89,-0.45,-0.07,0.18,-19.53,0.12,198,254,213,259,387,13
275,0.87,-0.46,-0.07,-1.59,1.89,-4.88,197,253,207,255,386,13
276,0.89,-0.48,0.06,-9.46,-5.43,11.96,197,252,206,257,391,13
277,0.81,-0.57,-0.16,-7.32,-19.23,7.14,197,254,208,261,388,13
278,0.8,-0.55,-0.17,-15.99,-7.57,6.1,197,252,208,257,389,13
279,0.8,-0.55,-0.16,-3.78,2.75,3.3,199,251,208,260,394,13
280,0.82,-0.56,-0.09,6.71,2.2,-2.32,200,254,205,264,389,13
281,0.8,-0.55,-0.09,0.24,-1.34,-5.55,197,246,202,262,391,13
282,0.82,-0.58,-0.06,7.14,-10.99,1.16,197,250,205,257,392,13
283,0.83,-0.5,-0.06,-2.5,-4.76,-10.5,197,252,202,260,388,13
284,0.89,-0.51,-0.16,1.16,5.19,-11.72,198,249,205,264,388,13
285,0.98,-0.45,-0.03,-6.9,-3.97,7.81,195,253,208,260,386,13
286,0.84,-0.57,-0.33,-5.43,-23.44,-6.1,200,250,208,260,389,13
287,0.99,-0.55,-0.13,-7.08,-1.16,-26.0,198,250,206,256,389,13
288,0.72,-0.59,-0.18,6.9,-16.17,13.92,198,252,205,258,388,13
289,0.8,-0.53,-0.16,4.64,-5.0,5.25,197,251,206,265,392,13
290,0.72,-0.56,-0.27,-6.65,-13.79,-1.53,206,251,204,264,391,13
291,0.86,-0.48,-0.11,-4.64,9.52,-9.03,197,254,208,255,387,13
292,0.96,-0.47,-0.2,-1.34,7.87,-10.68,201,251,205,265,388,13
293,0.84,-0.53,-0.08,11.72,6.65,-8.12,200,250,205,262,386,13
294,0.73,-0.62,-0.13,3.48,-23.32,-4.94,197,251,205,263,388,13
295,0.92,-0.52,-0.0,-16.72,-17.52,5.68,198,249,208,260,393,13
296,0.77,-0.56,-0.26,-9.83,-5.37,9.28,199,254,205,260,389,13
297,0.84,-0.54,-0.24,-9.4,-25.45,-12.76,197,252,203,261,385,13
298,0.73,-0.59,-0.29,-9.89,1.1,2.2,197,251,206,256,392,13
299,0.76,-0.54,-0.34,-2.32,1.22,-3.97,197,251,206,265,390,13
300,0.75,-0.59,-0.18,-7.93,27.04,14.71,197,253,205,265,386,13
301,0.72,-0.64,-0.24,-3.48,-1.1,1.83,198,251,207,264,386,13
302,0.79,-0.58,-0.25,16.42,-9.77,-11.72,200,253,207,263,386,13
303,0.68,-0.69,-0.25,-4.39,-5.25,-10.19,199,255,209,264,384,13
304,0.78,-0.63,-0.1,20.57,-1.95,3.36,197,254,206,258,386,13
305,0.69,-0.67,-0.41,-27.95,-45.59,-13.37,197,254,209,261,387,13
306,0.69,-0.63,-0.26,11.11,-13.55,-4.09,200,252,208,266,383,13
307,0.76,-0.59,-0.26,17.4,13.12,-10.38,196,251,208,258,389,13
308,0.74,-0.63,-0.07,11.9,4.33,-0.92,195,251,205,266,391,13
309,0.79,-0.62,-0.07,-0.85,0.73,-4.21,200,252,207,258,388,13
310,0.79,-0.62,-0.06,0.73,-2.32,-2.38,199,254,205,265,388,13
311,0.81,-0.6,-0.11,-6.53,-4.52,-6.16,198,252,206,266,390,13
312,0.84,-0.55,-0.04,-5.0,-3.05,-2.87,199,253,208,257,388,13
313,0.8,-0.59,-0.15,-0.79,-5.92,-20.81,237,252,210,261,387,13
314,0.79,-0.59,-0.11,5.86,3.72,-5.86,198,250,210,265,383,13
315,0.71,-0.63,-0.01,-1.83,-3.85,-8.97,201,252,206,260,387,13
316,0.79,-0.58,-0.23,-8.67,-10.74,-0.31,199,250,204,267,388,13
317,0.83,-0.56,-0.01,7.57,0.24,0.92,199,254,204,263,388,13
318,0.67,-0.53,-0.27,64.94,-106.87,-16.85,198,251,206,260,388,13
319,1.01,-0.44,0.11,-19.47,-1.34,20.26,208,254,206,262,383,13
320,0.86,-0.5,-0.12,-20.2,-6.96,2.32,199,253,209,264,388,13
321,0.41,-0.76,-0.21,-42.6,142.76,-32.96,195,252,209,265,389,13
322,0.69,-0.48,-0.29,-3.11,15.14,31.43,197,252,208,263,388,13
323,0.69,-0.54,-0.17,-26.92,3.17,14.83,200,252,207,265,389,13
324,0.77,-0.56,-0.27,4.88,17.7,-23.86,198,253,208,261,394,13
325,0.85,-0.51,0.03,31.07,16.54,-9.03,202,251,203,261,387,13
326,0.86,-0.48,0.01,-27.04,3.42,-1.1,197,254,205,264,385,13
327,0.86,-0.5,-0.07,19.35,3.54,-5.68,195,253,210,265,386,13
328,0.86,-0.49,0.02,-1.34,-2.08,4.7,199,255,206,261,390,13
329,0.87,-0.48,0.04,-55.11,71.72,1.83,200,255,206,258,386,13
330,0.82,-0.56,-0.03,0.31,-1.16,6.47,199,252,205,258,389,13
331,0.78,-0.57,0.06,3.72,-4.94,6.59,201,255,204,259,385,13
332,0.79,-0.59,0.03,10.31,2.38,-4.88,201,254,206,264,389,13
333,0.8,-0.56,0.13,5.98,-10.93,-6.53,199,252,217,263,389,13
334,0.87,-0.53,0.08,0.79,-0.92,-6.23,197,254,219,260,384,13
335,0.82,-0.55,0.1,-0.18,-6.77,-1.83,200,252,206,262,391,13
336,0.82,-0.56,-0.02,-1.77,-0.55,-3.6,198,254,205,266,389,13
337,0.84,-0.55,-0.01,3.23,-2.44,-2.62,197,252,207,258,389,13
338,0.83,-0.55,-0.02,0.79,-3.36,-2.62,200,253,206,266,392,13
339,0.81,-0.57,-0.02,-4.7,-5.49,0.73,201,255,209,263,391,13
340,0.82,-0.57,-0.04,-0.79,-5.31,-0.92,189,250,206,258,385,13
341,0.83,-0.56,-0.04,-0.79,0.12,-2.69,198,250,206,258,385,13
342,0.83,-0.57,-0.05,2.2,-16.78,-0.55,203,252,206,259,384,13
343,0.81,-0.57,-0.03,4.7,-0.85,-3.97,197,254,208,264,384,13
344,0.81,-0.58,-0.04,1.71,-2.87,-2.81,199,250,207,268,379,13
345,0.82,-0.58,-0.02,-0.18,-1.53,-2.5,198,253,209,266,385,13
346,0.81,-0.59,-0.02,0.31,-2.99,-2.44,195,252,206,270,379,13
347,0.82,-0.57,-0.01,2.2,-0.49,-3.54,199,251,207,271,384,13
348,0.81,-0.58,-0.01,-0.31,-2.2,-2.69,197,250,206,265,387,13
349,0.82,-0.57,-0.02,1.28,-3.23,-2.5,214,258,208,269,381,13
350,0.82,-0.58,-0.01,0.85,-2.75,-2.87,197,253,206,261,384,13
351,0.83,-0.58,-0.02,1.34,-2.44,-3.05,199,254,211,269,378,13
352,0.82,-0.58,-0.02,-0.18,-3.05,-2.69,197,250,207,270,385,13
353,0.81,-0.58,-0.01,1.1,-2.99,-3.23,198,254,208,266,384,13
354,0.81,-0.57,-0.01,-0.18,-2.62,-2.56,197,252,209,266,380,13
355,0.81,-0.58,-0.02,1.22,-2.62,-5.19,198,253,206,265,383,13
356,0.84,-0.56,0.0,0.06,-4.03,-6.29,198,255,208,267,383,13
357,0.78,-0.56,-0.02,-11.66,9.64,-2.32,197,253,206,268,383,13
358,0.86,-0.52,-0.08,10.01,-8.73,-1.71,198,254,204,271,382,13
359,0.82,-0.53,0.05,5.19,-6.41,-1.22,196,250,209,269,385,13
360,0.87,-0.5,0.02,-8.67,-2.62,-2.56,196,252,206,264,385,13
361,0.88,-0.5,0.01,2.44,4.21,-7.02,199,255,206,272,383,13
362,0.87,-0.5,0.04,-1.65,-4.64,-6.23,198,257,210,266,386,13
363,0.93,-0.44,0.05,3.23,1.4,-4.21,197,253,208,271,387,13
364,0.87,-0.49,0.05,-1.65,-9.89,4.46,197,253,208,269,383,13
365,0.86,-0.5,-0.04,0.85,-4.21,0.43,194,256,206,262,384,13
366,0.89,-0.48,-0.05,-0.12,-1.22,-3.05,197,253,206,265,385,13
367,0.85,-0.5,-0.02,1.77,-1.53,-3.17,196,252,207,268,386,13
368,0.86,-0.5,-0.0,-1.89,-1.53,-1.95,199,253,196,261,384,13
369,0.87,-0.49,-0.01,2.2,-2.87,-2.75,200,255,210,267,384,13
370,0.86,-0.5,-0.02,0.85,0.0,-1.71,198,253,207,268,386,13
371,0.87,-0.5,-0.01,0.85,-2.32,-2.75,200,255,210,267,384,13
372,0.87,-0.5,0.0,1.1,-2.62,-2.81,197,254,209,267,380,13
373,0.87,-0.5,0.0,0.61,-3.23,-2.44,198,257,212,271,385,13
374,0.87,-0.5,0.0,-0.49,-3.11,-2.2,197,251,204,265,385,13
375,0.87,-0.5,0.0,-0.37,-3.11,-0.92,199,253,209,268,386,13
376,0.86,-0.5,-0.01,0.61,-2.75,-2.75,192,254,209,266,386,13
377,0.84,-0.51,0.11,19.23,-6.23,-2.44,200,254,209,268,386,13
378,0.83,-0.51,0.05,-14.71,-7.08,0.98,193,250,209,271,382,13
379,0.98,-0.36,0.07,-70.74,-20.39,13.98,195,253,208,266,384,13
380,0.74,-0.69,-0.27,27.28,-1.04,-2.2,197,253,205,271,382,13
381,0.77,-0.59,-0.24,-18.07,4.94,-11.54,195,254,206,265,385,13
382,0.77,-0.6,-0.13,11.35,-3.11,-7.63,206,256,205,267,381,13
383,0.77,-0.58,-0.09,10.56,-3.42,-3.97,200,254,209,271,384,13
384,0.79,-0.57,-0.12,3.42,-2.5,-15.63,197,254,212,267,385,13
385,0.91,-0.48,-0.12,3.05,1.95,-5.25,204,256,206,275,383,13
386,0.86,-0.49,-0.06,2.14,-0.61,-3.42,200,256,206,268,383,13
387,0.86,-0.49,-0.05,-0.49,-2.32,-3.48,200,253,208,272,383,13
388,0.87,-0.49,-0.04,2.5,-2.5,-3.72,198,254,206,269,385,13
389,0.87,-0.48,-0.05,-0.37,-2.62,-3.17,200,257,211,272,384,13
390,0.86,-0.48,-0.07,2.93,-4.7,-2.62,197,257,206,270,387,13
391,0.87,-0.48,-0.05,0.79,-1.59,-4.88,203,256,206,270,386,13
392,0.88,-0.47,-0.02,0.73,-0.18,-3.42,202,254,209,267,385,13
393,0.88,-0.46,-0.02,2.44,-1.53,-4.15,198,253,209,271,384,13
394,0.89,-0.45,0.02,6.47,-0.24,-1.83,200,257,209,265,385,13
395,0.89,-0.46,0.0,1.59,-2.01,-2.75,198,255,207,269,385,13
396,0.89,-0.46,0.02,-0.24,-2.01,-2.81,199,253,206,265,383,13
397,0.89,-0.47,0.02,-0.55,-2.26,-2.87,196,252,209,264,385,13
398,0.89,-0.46,0.03,0.79,-2.81,-4.33,197,255,206,267,376,13
399,0.89,-0.46,0.04,1.65,-2.44,-2.99,196,255,209,267,386,13
400,0.89,-0.46,0.03,0.43,-2.99,-2.32,198,256,209,275,388,13
401,0.89,-0.46,0.03,1.16,-2.14,-2.38,198,254,206,271,387,13
402,0.88,-0.48,-0.0,0.79,-2.08,-2.26,200,256,209,264,387,13
403,0.92,-0.41,0.03,-3.85,-14.71,-12.02,196,256,205,269,384,13
404,0.95,-0.39,-0.05,-2.01,-1.04,6.29,196,257,206,279,386,13
405,0.84,-0.43,-0.12,6.29,-9.34,5.92,200,255,204,265,387,13
406,0.83,-0.52,0.0,1.65,-9.52,5.07,198,253,204,272,387,13
407,0.93,-0.52,-0.04,9.83,-0.24,-2.14,197,245,206,268,384,13
408,0.91,-0.48,-0.03,-1.46,2.44,-2.2,196,256,207,269,388,13
409,0.88,-0.5,0.01,-2.44,-5.55,-3.97,196,254,206,272,382,13
410,0.86,-0.5,-0.01,-2.38,0.24,-2.87,198,253,205,270,386,13
411,0.89,-0.47,-0.04,-0.37,-5.55,-10.13,200,252,207,272,389,13
412,0.88,-0.48,0.01,1.71,-2.08,-3.3,195,253,205,268,384,13
413,0.88,-0.47,0.01,0.73,-3.54,-1.04,190,255,208,271,387,13
414,0.89,-0.48,0.01,-0.24,-2.62,-3.05,199,256,209,272,386,13
415,0.87,-0.49,-0.02,4.27,-2.93,-2.62,199,255,212,271,386,13
416,0.87,-0.49,-0.03,1.34,-10.93,-3.11,200,254,206,269,387,13
417,0.87,-0.49,-0.0,-2.2,-2.14,-2.32,200,255,209,265,387,13
418,0.92,-0.46,-0.06,9.89,-22.09,-9.09,200,255,207,266,388,13
419,0.88,-0.48,0.03,-10.25,9.64,-4.27,200,254,207,263,382,13
420,0.87,-0.48,-0.0,0.61,-4.64,-1.4,199,253,209,268,387,13
421,0.86,-0.49,-0.01,-0.24,-4.82,-0.06,200,255,210,267,386,13
422,0.87,-0.49,-0.01,0.06,1.65,-0.85,197,257,206,272,387,13
423,0.86,-0.51,-0.0,0.43,-2.69,-2.56,200,258,205,267,385,13
424,0.86,-0.51,-0.01,-0.43,-3.91,-1.34,221,259,207,263,386,13
425,0.86,-0.51,-0.0,-1.04,-3.17,-2.69,198,255,206,272,385,13
426,0.87,-0.5,-0.0,-0.55,-3.42,-1.16,198,252,207,268,386,13
427,0.86,-0.51,-0.03,6.84,-19.96,-2.5,210,257,208,271,385,13
428,0.85,-0.52,-0.03,-0.79,-0.31,-2.26,199,254,208,263,386,13
429,0.85,-0.52,-0.03,0.31,-3.11,-1.16,208,254,207,263,388,13
430,0.84,-0.52,-0.03,-0.31,-3.05,-2.01,197,254,210,268,386,13
431,0.85,-0.52,-0.04,-0.37,-2.93,-2.99,201,257,210,271,384,13
432,0.9,-0.49,-0.01,-0.85,-2.2,-4.58,196,260,208,261,386,13
433,0.85,-0.53,-0.1,-2.44,-4.39,-4.58,197,254,209,284,386,13
434,0.86,-0.51,-0.07,-1.22,-2.44,-2.62,198,253,209,271,383,13
435,0.84,-0.53,-0.07,-1.46,-2.26,-3.36,197,253,206,271,384,13
436,0.92,-0.45,0.02,4.15,-2.2,-3.66,201,256,205,266,383,13
437,0.85,-0.5,-0.04,-0.79,-4.88,-0.43,201,254,206,271,387,13
438,0.88,-0.48,-0.04,-1.28,0.49,-2.14,198,259,207,268,388,13
439,0.86,-0.51,-0.04,-10.62,0.67,0.24,200,254,209,269,384,13
440,0.85,-0.5,-0.03,0.73,1.59,-2.14,205,257,207,264,383,13
441,0.86,-0.51,-0.05,0.31,-1.77,-3.36,199,254,206,270,379,13
442,0.87,-0.51,-0.01,1.1,-2.99,-2.93,198,253,207,265,386,13
443,0.88,-0.49,-0.03,3.42,-4.21,-3.54,202,254,209,265,385,13
444,0.88,-0.5,-0.05,-2.44,-2.08,-3.72,197,257,209,273,384,13
445,0.85,-0.51,-0.04,-0.49,0.49,-2.75,227,257,210,271,383,13
446,0.86,-0.5,0.01,3.48,-2.32,-4.7,198,253,206,272,385,13
447,0.87,-0.5,-0.04,4.09,-2.32,-3.17,201,254,209,279,385,13
448,0.86,-0.5,-0.04,-3.23,-3.17,-2.81,197,252,204,272,387,13
449,0.84,-0.5,-0.01,-1.22,7.32,-2.56,199,255,206,272,387,13
450,0.87,-0.49,-0.02,0.0,-2.69,-1.89,200,254,209,270,386,13
451,0.86,-0.52,-0.08,-3.11,-5.68,-3.54,210,252,211,265,382,13
452,0.86,-0.52,-0.04,-1.77,-1.89,-4.09,197,252,207,268,385,13
453,0.87,-0.5,-0.01,0.12,-2.5,-2.93,197,256,211,263,380,13
454,0.9,-0.52,-0.13,10.74,-8.18,-9.64,200,256,207,268,388,13
455,1.01,-0.43,0.01,-10.07,0.43,-6.29,200,257,204,267,386,13
456,0.86,-0.58,-0.05,-15.75,6.47,-2.69,199,256,207,272,386,13
457,0.9,-0.48,-0.0,4.21,-2.38,0.0,198,253,210,268,388,13
458,0.87,-0.48,0.05,-0.24,-0.92,-0.79,201,252,208,268,387,13
459,0.85,-0.5,-0.01,0.73,-5.25,1.28,198,259,208,268,385,13
460,0.86,-0.5,0.04,-0.37,-3.11,-2.32,196,256,206,267,386,13
461,0.84,-0.52,-0.02,-1.89,-3.05,-5.13,200,257,209,268,387,13
462,0.86,-0.51,0.0,2.56,-5.49,-3.17,200,254,209,268,388,13
463,0.84,-0.46,-0.01,8.61,-8.06,-2.99,198,256,207,268,384,13
464,0.86,-0.49,0.01,-3.36,-2.87,-0.49,197,256,211,263,386,13
465,0.9,-0.49,0.01,4.03,-2.01,-3.11,200,253,208,263,386,13
466,0.86,-0.51,-0.01,-1.89,-3.17,-2.87,197,256,208,264,387,13
467,0.87,-0.51,0.02,0.37,-1.95,-3.05,197,254,210,271,384,13
468,0.88,-0.5,0.0,-0.43,-2.75,-1.28,196,255,210,264,388,13
469,0.87,-0.5,0.01,0.61,-3.78,-3.36,201,254,210,267,386,13
470,0.86,-0.5,-0.03,1.71,-2.69,-3.54,199,255,209,274,385,13
471,0.9,-0.5,0.04,12.39,-0.55,-3.11,199,254,208,268,389,13
472,0.88,-0.49,0.04,-1.16,-3.17,-4.03,199,257,208,269,384,13
473,0.85,-0.51,0.04,-0.12,-0.61,-3.23,198,257,209,270,389,13
474,0.85,-0.52,0.06,-2.99,-3.54,-2.99,199,254,210,268,389,13
475,0.87,-0.52,0.05,-0.12,-4.03,-3.05,196,256,207,271,386,13
476,0.86,-0.52,0.04,0.61,-3.42,-3.42,199,255,207,270,386,13
477,0.97,-0.48,0.1,0.55,-5.07,-0.37,200,255,207,273,397,13
478,0.85,-0.54,-0.04,-1.04,-2.14,-1.77,197,252,206,270,387,13
479,0.86,-0.51,0.0,-23.38,-2.32,6.16,200,255,206,272,386,13
480,0.76,-0.56,-0.15,-14.95,-6.71,-11.35,198,255,207,272,389,13
481,0.82,-0.5,-0.16,-9.95,-5.92,2.99,199,255,209,272,385,13
482,0.86,-0.52,-0.23,3.11,21.97,-7.93,196,253,208,268,387,13
483,0.81,-0.52,-0.16,7.32,-1.04,-2.99,201,254,214,269,385,13
484,0.83,-0.54,-0.15,1.22,-2.87,-6.23,200,254,210,269,388,13
485,0.83,-0.56,-0.17,1.89,-2.32,-2.56,218,255,207,268,388,13
486,0.83,-0.52,0.02,12.88,5.62,-4.88,197,256,210,269,388,13
487,0.85,-0.52,-0.03,-3.72,-0.98,-0.06,198,255,211,269,388,13
488,0.85,-0.53,-0.02,2.69,-11.05,4.7,201,259,203,265,381,13
489,0.8,-0.55,-0.1,-0.43,-8.42,-6.96,198,254,210,270,386,13
490,0.9,-0.53,-0.12,-11.47,-9.83,-23.01,198,257,209,269,388,13
491,0.86,-0.52,0.05,5.25,9.16,11.17,199,254,210,269,387,13
492,0.89,-0.53,-0.04,0.12,-5.19,-3.6,194,255,207,264,391,13
493,0.84,-0.53,-0.02,-4.88,-0.67,-2.56,202,256,207,274,388,13
494,0.88,-0.51,-0.05,-1.95,17.46,-1.65,201,253,207,273,388,13
495,0.89,-0.5,0.03,3.42,-5.19,-2.2,198,257,210,272,387,13
496,0.86,-0.52,0.02,-2.5,-2.44,-2.2,198,262,207,272,388,13
497,0.87,-0.51,0.01,-3.05,-4.58,-3.97,197,257,208,270,387,13
498,0.86,-0.5,0.01,-5.92,3.66,-4.21,194,252,205,268,387,13
499,0.86,-0.51,-0.02,-2.99,-0.98,-2.5,201,257,207,268,387,13
500,0.86,-0.5,0.02,0.67,-1.65,-0.92,198,256,209,272,388,13
501,0.86,-0.49,0.0,0.12,-1.83,-2.32,198,256,208,264,390,13
502,0.88,-0.5,0.03,0.0,-2.26,-2.5,196,260,210,265,384,13
503,0.87,-0.49,0.01,0.55,-2.44,-3.3,199,256,210,272,388,13
504,0.87,-0.48,0.01,2.5,-4.88,-2.38,200,256,210,264,381,13
505,0.86,-0.49,-0.0,0.0,-0.67,-1.83,194,256,207,265,385,13
506,0.85,-0.51,0.02,0.43,-3.48,-1.04,199,254,210,269,383,13
507,0.87,-0.5,0.01,-0.43,-3.97,-2.32,197,254,209,268,386,13
508,0.86,-0.51,-0.0,0.43,-2.81,-2.5,201,255,209,266,387,13
509,0.87,-0.5,0.0,0.73,-1.53,-2.44,199,253,209,269,387,13
510,0.86,-0.51,0.01,-0.12,-2.44,-3.17,199,258,207,268,386,13
511,0.87,-0.5,0.01,0.37,-2.93,-2.5,203,257,206,272,387,13
512,0.86,-0.51,0.01,0.49,-2.81,-2.81,200,254,210,265,387,13
513,0.86,-0.5,0.01,0.49,-2.26,-3.42,199,252,207,269,387,13
514,0.87,-0.5,0.02,-0.73,-3.72,-2.08,197,253,209,272,385,13
515,0.87,-0.5,0.01,1.34,-2.93,-0.85,201,252,205,271,387,13
516,0.84,-0.52,-0.02,-0.73,-6.29,-1.22,199,257,210,269,388,13
517,0.87,-0.5,-0.01,7.63,-5.31,-0.85,201,256,207,272,388,13
518,0.83,-0.53,-0.01,-3.17,-4.58,-0.67,199,254,208,269,390,13
519,0.84,-0.52,-0.0,-0.12,-3.78,-2.38,200,257,210,269,386,13
520,0.86,-0.53,-0.05,1.95,-3.23,-0.24,200,255,211,269,388,13
521,0.85,-0.52,-0.0,8.3,4.03,-7.08,200,255,207,269,388,13
522,0.86,-0.51,0.05,-2.2,1.59,-5.13,200,258,208,271,386,13
523,0.84,-0.52,0.05,1.4,-1.65,-1.77,195,257,207,268,387,13
524,0.85,-0.51,0.08,0.37,-1.83,-2.14,197,257,210,269,390,13
525,0.83,-0.52,0.07,0.12,-4.52,-0.43,201,256,210,272,388,13
526,0.85,-0.52,0.06,-1.16,-2.87,-3.42,198,256,210,267,389,13
527,0.88,-0.5,0.04,1.53,-1.89,-3.05,201,255,209,263,391,13
528,0.85,-0.52,0.06,-1.4,-2.69,-1.53,201,256,208,264,389,13
529,0.85,-0.52,0.05,0.55,-3.17,-4.88,199,257,210,272,387,13
530,0.86,-0.51,0.06,0.06,-2.99,-2.26,202,257,208,264,389,13
531,0.85,-0.52,0.04,4.03,-1.34,-3.36,200,256,209,265,389,13
532,0.87,-0.5,0.09,-0.06,-1.89,-3.85,199,252,212,272,386,13
533,0.85,-0.52,0.08,2.14,-2.26,-2.69,202,254,210,270,391,13
534,0.86,-0.51,0.09,-1.59,-5.07,-3.11,199,257,208,269,390,13
535,0.84,-0.52,0.08,1.71,-4.88,-1.34,197,254,211,272,389,13
536,0.85,-0.51,0.06,-0.55,-3.97,-2.56,198,255,207,273,389,13
537,0.88,-0.51,0.07,2.01,-3.78,-1.89,196,256,211,269,389,13
538,0.84,-0.52,0.07,-0.24,-1.65,-2.01,199,257,210,269,390,13
539,0.86,-0.51,0.07,1.71,-2.14,-2.69,203,255,210,272,389,13
540,0.86,-0.53,0.08,-0.61,-5.68,-0.98,202,254,208,269,392,13
541,0.85,-0.52,0.09,0.67,-1.53,-3.36,202,253,206,273,389,13
542,0.85,-0.5,0.09,-10.38,-18.55,-5.55,200,253,210,272,390,13
543,0.88,-0.52,-0.05,-2.75,-3.72,-2.32,200,255,208,272,386,13
544,0.85,-0.53,-0.01,-0.43,-2.2,-2.99,202,257,206,269,390,13
545,0.86,-0.53,-0.03,1.71,-2.87,-1.77,201,255,210,271,393,13
546,0.85,-0.53,-0.03,1.65,-2.26,-3.23,203,258,211,266,390,13
547,0.94,-0.39,-0.03,10.8,-0.98,-5.62,199,258,207,272,390,13
548,0.8,-0.5,0.01,1.1,-6.1,-5.25,200,255,210,268,393,13
549,0.92,-0.46,0.08,19.65,17.4,-3.72,201,256,207,273,388,13
550,0.98,-0.37,0.01,18.19,-59.57,17.33,202,257,214,271,388,13
551,0.9,-0.42,0.01,-4.39,-16.48,-1.77,202,260,206,272,388,13
552,0.91,-0.38,0.05,3.42,-7.93,-12.39,201,256,211,273,389,13
553,0.95,-0.34,0.0,-4.21,-0.12,-9.83,200,258,211,269,388,13
554,0.99,-0.31,-0.02,-18.19,-1.83,-8.85,198,255,208,269,389,13
555,0.94,-0.35,0.03,4.33,2.87,8.91,200,256,211,273,391,13
556,0.91,-0.43,0.02,-21.3,-2.44,2.87,199,258,208,272,389,13
557,0.95,-0.41,-0.08,-2.87,-5.13,5.8,198,252,208,270,390,13
558,0.87,-0.46,-0.03,-3.54,-0.92,-0.85,197,255,210,272,389,13
559,0.87,-0.47,-0.05,-0.98,-2.93,-2.2,203,254,206,270,390,13
560,0.89,-0.48,-0.04,2.44,-1.65,-2.99,200,258,206,270,394,13
561,0.88,-0.46,-0.02,0.73,-2.38,-2.01,200,255,208,268,389,13
562,0.89,-0.46,-0.03,-0.67,-3.3,-3.05,219,254,212,270,390,13
563,0.86,-0.48,-0.05,1.22,-3.85,-2.38,225,257,211,270,385,13
564,0.88,-0.46,-0.03,1.53,-4.33,-1.77,202,253,208,269,386,13
565,0.9,-0.47,-0.04,0.61,-3.11,-3.23,199,254,207,273,389,13
566,0.88,-0.47,-0.04,0.06,-2.01,-3.3,200,256,207,268,389,13
567,0.88,-0.47,-0.04,1.71,-2.14,-4.33,203,255,213,268,389,13
568,0.88,-0.47,-0.05,0.67,-3.85,-2.44,200,258,207,270,389,13
569,0.87,-0.47,-0.03,-0.12,-2.44,-1.83,199,254,208,264,389,13
570,0.89,-0.46,-0.04,0.55,-3.3,-2.81,198,255,210,274,390,13
571,0.89,-0.46,-0.03,1.22,-3.78,-2.08,209,257,214,269,389,13
572,0.88,-0.46,-0.03,1.1,-2.32,-3.6,199,258,208,268,390,13
573,0.89,-0.47,-0.05,-0.73,-3.48,-2.26,201,257,207,271,387,13
574,0.88,-0.47,-0.04,-0.18,-3.72,-2.26,202,256,208,273,387,13
575,0.88,-0.47,-0.03,1.22,-3.23,-2.69,202,255,208,268,389,13
576,0.89,-0.47,-0.04,-0.12,-2.87,-3.42,200,252,210,273,391,13
577,0.88,-0.46,-0.03,0.67,-2.5,-3.48,199,258,211,269,386,13
578,0.88,-0.47,-0.04,1.04,-2.75,-3.05,200,255,210,271,390,13
579,0.89,-0.46,-0.03,-0.12,-3.05,-2.32,202,255,208,271,389,13
580,0.88,-0.46,-0.03,1.34,-3.23,-2.75,199,259,208,271,395,13
581,0.9,-0.45,-0.0,3.11,-2.26,-2.01,199,257,211,272,386,13
582,0.89,-0.46,-0.03,0.79,-2.87,-2.69,202,257,208,271,389,13
583,0.9,-0.44,-0.03,0.18,-2.93,-2.2,200,253,216,272,386,13
584,0.88,-0.47,-0.03,-0.55,-2.87,-2.26,198,257,214,271,389,13
585,0.88,-0.46,-0.03,0.85,-2.93,-2.62,200,256,208,269,389,13
586,0.89,-0.47,-0.03,0.31,-3.05,-1.59,201,255,211,274,390,13
587,0.89,-0.47,-0.04,-0.43,-3.23,-2.44,202,259,206,274,390,13
588,0.88,-0.47,-0.03,-0.85,-1.16,-2.93,202,253,211,266,390,13
589,0.88,-0.48,-0.01,2.62,-2.87,-1.95,199,260,211,268,386,13
590,0.86,-0.48,0.0,-7.45,-5.25,-2.38,198,260,208,273,390,13
591,0.85,-0.56,-0.08,20.94,0.43,8.06,200,257,210,272,390,13
592,0.81,-0.52,0.06,-10.25,-5.68,-4.15,201,254,208,266,390,13
593,0.87,-0.53,-0.02,14.95,3.54,-1.28,201,258,206,269,392,13
594,0.91,-0.46,0.17,3.66,-5.0,6.04,199,260,206,266,390,13
595,0.85,-0.52,0.02,-2.75,-9.52,0.37,203,257,211,270,392,13
596,0.87,-0.51,-0.04,-5.98,-3.97,-4.94,202,256,208,268,390,13
597,0.83,-0.53,-0.02,2.69,-1.28,-2.44,203,257,208,268,389,13
598,0.86,-0.51,-0.03,-0.61,-2.93,-0.43,202,256,210,273,389,13
599,0.86,-0.52,-0.03,-1.46,-4.03,0.18,203,257,211,267,385,13
600,0.84,-0.53,-0.03,1.4,-2.44,-0.73,201,255,211,269,391,13
601,0.86,-0.52,-0.02,-0.67,-2.56,-2.87,201,256,211,266,391,13
602,0.86,-0.52,-0.02,-0.12,-2.69,-2.56,202,252,209,271,386,13
603,0.84,-0.52,-0.01,1.77,-1.71,-3.23,201,255,208,267,389,13
604,0.86,-0.52,-0.02,0.06,-2.93,-4.09,197,258,211,271,390,13
605,0.85,-0.53,-0.06,25.88,-2.44,1.22,202,257,208,270,390,13
606,0.86,-0.51,0.1,-4.21,-1.28,-5.74,200,257,208,273,391,13
607,0.85,-0.53,0.03,1.53,-3.11,-2.93,203,256,206,265,395,13
608,0.86,-0.53,0.03,-0.43,-3.54,-2.44,198,256,211,270,390,13
609,0.85,-0.52,0.05,0.61,-2.14,-2.69,202,256,211,272,389,13
610,0.85,-0.52,0.04,-0.06,-2.62,-3.17,200,255,209,271,389,13
611,0.85,-0.52,0.04,0.79,-2.14,-2.38,200,262,211,270,390,13
612,0.86,-0.52,0.07,0.0,-3.05,-1.4,199,256,207,274,387,13
613,0.84,-0.53,0.05,1.04,-1.95,-3.17,200,253,210,270,388,13
614,0.93,-0.33,0.19,0.67,-2.99,-2.2,400,297,211,269,221,13
615,0.93,-0.33,0.2,0.31,-3.42,-2.5,405,296,224,265,215,13
616,0.93,-0.33,0.2,0.61,-3.05,-2.62,406,297,212,268,221,13
617,0.93,-0.33,0.2,0.31,-2.5,-2.75,403,300,207,269,220,13
618,0.93,-0.33,0.2,0.43,-2.99,-2.26,402,294,210,270,220,13
619,0.93,-0.33,0.2,0.37,-2.56,-2.44,405,296,209,269,222,13
620,0.93,-0.33,0.2,0.18,-3.11,-2.62,405,297,213,266,222,13
621,0.93,-0.33,0.2,0.31,-3.05,-2.81,404,297,210,273,220,13
622,0.93,-0.32,0.2,0.43,-2.75,-2.62,406,298,210,266,221,13
623,0.93,-0.32,0.2,0.85,-2.75,-2.62,408,299,209,270,219,13
624,0.93,-0.32,0.2,-0.18,-3.66,-2.01,403,298,209,266,222,13
625,0.93,-0.32,0.2,0.55,-3.05,-2.56,404,297,209,265,242,13
626,0.93,-0.33,0.2,0.24,-2.87,-2.44,404,297,209,268,220,13
627,0.93,-0.32,0.2,-0.61,-3.3,-2.2,405,298,210,269,219,13
628,0.93,-0.33,0.2,0.61,-2.62,-2.08,406,297,212,267,230,13
629,0.93,-0.33,0.2,0.49,-2.75,-2.44,402,298,209,270,221,13
630,0.93,-0.33,0.2,0.12,-3.23,-2.44,405,299,212,267,220,13
631,0.93,-0.33,0.2,0.49,-2.93,-2.56,405,298,207,267,221,13
632,0.93,-0.33,0.2,0.43,-2.38,-2.44,403,302,209,268,222,13
633,0.93,-0.33,0.2,0.06,-3.05,-2.38,403,299,211,276,222,13
634,0.92,-0.33,0.21,0.55,-2.08,-2.26,406,294,212,270,222,13
635,0.93,-0.33,0.21,0.61,-1.89,-1.95,405,300,212,270,219,13
636,0.93,-0.33,0.21,-0.06,-3.05,-2.44,407,294,207,268,221,13
637,0.93,-0.33,0.2,0.18,-3.72,-2.93,406,296,209,268,224,13
638,0.92,-0.33,0.21,0.61,-2.99,-2.56,406,292,208,268,221,13
639,0.93,-0.32,0.2,2.44,-6.59,-5.98,402,298,216,269,224,13
640,0.91,-0.34,0.21,3.78,3.91,6.16,401,300,210,269,222,13
641,0.88,-0.43,0.28,2.26,-8.0,35.89,401,298,211,267,217,13
642,0.9,-0.39,0.25,3.54,-1.34,-6.9,402,294,213,268,217,13
643,0.91,-0.39,0.27,0.0,-2.14,-3.66,399,301,213,270,218,13
644,0.89,-0.38,0.27,1.46,-1.34,-3.42,404,300,210,268,219,13
645,0.89,-0.36,0.26,-15.14,-5.07,-3.66,404,299,214,269,217,13
646,0.9,-0.37,0.27,1.89,-1.53,-3.42,400,300,209,268,216,13
647,0.89,-0.38,0.28,-0.79,-3.97,-2.93,405,294,209,272,219,13
648,0.9,-0.37,0.27,-0.18,-1.65,-2.62,404,304,210,268,217,13
649,0.9,-0.37,0.27,-0.06,-2.87,-2.5,404,301,211,271,216,13
650,0.9,-0.37,0.27,0.55,-2.56,-2.44,401,298,212,272,219,13
651,0.9,-0.37,0.27,0.49,-2.56,-2.56,402,294,214,286,217,13
652,0.9,-0.37,0.27,0.31,-2.93,-2.5,407,301,213,268,218,13
653,0.9,-0.37,0.26,0.24,-2.99,-2.32,404,303,214,270,221,13
654,0.9,-0.37,0.27,-0.06,-3.17,-2.44,400,299,209,270,218,13
655,0.89,-0.37,0.27,0.0,-2.56,-2.38,400,301,209,272,218,13
656,0.89,-0.37,0.27,0.43,-2.62,-2.56,404,299,213,269,218,13
657,0.9,-0.37,0.27,-0.06,-2.81,-2.32,404,299,214,273,219,13
658,0.9,-0.35,0.26,-0.79,-2.38,-1.28,408,300,214,273,217,13
659,0.9,-0.37,0.27,0.43,-3.85,-3.17,404,296,215,267,219,13
660,0.9,-0.37,0.27,0.55,-2.08,-2.62,403,295,213,270,236,13
661,0.9,-0.37,0.27,0.67,-2.44,-2.26,404,299,211,279,226,13
662,0.89,-0.37,0.28,0.61,-3.91,-3.54,405,304,212,272,221,13
663,0.9,-0.36,0.26,0.18,-2.38,-1.77,399,303,213,269,222,13
664,0.89,-0.38,0.27,-0.79,-0.31,-0.18,404,300,214,270,221,13
665,0.89,-0.38,0.28,-0.79,-3.48,-3.23,403,299,211,270,220,13
666,0.9,-0.37,0.28,0.85,-4.52,-3.91,402,299,211,271,219,13
667,0.9,-0.37,0.28,-0.12,-2.81,-2.38,403,297,211,267,219,13
668,0.91,-0.36,0.26,0.18,-4.21,-2.62,405,305,214,269,218,13
669,0.9,-0.36,0.26,1.83,-1.59,-3.48,405,301,212,269,218,13
670,0.88,-0.37,0.29,-4.52,2.38,3.36,400,299,222,270,217,13
671,0.87,-0.43,0.26,0.49,5.98,-8.06,400,300,211,270,220,13
672,0.86,-0.47,0.24,0.31,-0.37,9.34,396,301,213,268,220,13
673,0.83,-0.5,0.28,-2.44,1.89,0.12,397,304,216,269,217,13
674,0.82,-0.51,0.27,1.4,-3.66,-1.46,396,301,216,270,219,13
675,0.87,-0.45,0.27,-9.28,-3.72,-6.96,403,300,214,269,220,13
676,0.85,-0.5,0.2,-0.18,-20.39,-5.86,401,301,211,268,216,13
677,0.88,-0.46,0.17,9.58,6.9,-1.65,402,300,213,268,219,13
678,0.81,-0.53,-0.07,-13.49,-27.83,1.65,404,313,214,268,219,13
679,0.88,-0.57,0.02,2.99,-11.23,2.81,401,302,217,269,217,13
680,0.81,-0.57,0.16,5.49,-0.55,-1.65,405,304,215,277,215,13
681,0.85,-0.54,0.12,-3.85,-9.52,-13.73,395,303,216,267,218,13
682,0.87,-0.47,0.15,0.55,-1.95,-0.06,406,302,216,276,217,13
683,0.85,-0.51,0.15,-1.53,-3.42,-0.18,401,303,215,273,220,13
684,0.85,-0.52,0.14,1.1,-2.5,-2.69,404,298,213,273,210,13
685,0.85,-0.52,0.15,-0.18,-3.36,-1.83,409,307,213,274,221,13
686,0.85,-0.51,0.16,1.71,-1.4,-1.53,402,303,210,272,221,13
687,0.85,-0.5,0.15,1.1,-2.44,-3.6,404,304,216,271,222,13
688,0.85,-0.52,0.15,-0.37,-5.19,-5.49,405,306,216,270,225,13
689,0.84,-0.53,0.14,-3.11,-6.35,0.67,404,307,220,269,251,13
690,0.84,-0.54,0.15,1.22,-2.62,-0.73,405,303,212,269,222,13
691,0.84,-0.53,0.13,0.06,-4.03,-3.54,403,299,213,268,215,13
692,0.85,-0.51,0.11,-3.23,-11.84,-9.83,405,302,218,272,248,13
693,0.87,-0.48,0.03,-5.25,-7.69,-5.86,403,306,218,275,228,13
694,0.88,-0.49,0.01,-8.12,-5.0,-7.14,396,300,211,270,224,13
695,1.05,-0.34,0.03,-15.81,-41.14,-25.51,396,298,213,268,215,13
696,0.84,-0.31,-0.02,12.15,21.24,-3.48,399,307,216,269,222,13
697,1.07,-0.22,0.03,-7.39,14.77,-3.3,394,301,215,270,221,13
698,1.04,-0.08,-0.02,9.58,-33.69,-2.69,393,300,214,272,217,13
699,0.99,-0.26,0.06,9.46,1.46,2.5,390,302,214,269,226,13
700,0.98,-0.23,0.08,11.05,-15.99,-5.49,383,297,210,267,234,13
701,0.97,-0.2,0.02,11.17,-6.84,-2.81,391,301,210,274,236,13
702,0.97,-0.25,0.09,2.14,1.04,-1.89,393,300,212,265,234,13
703,0.97,-0.23,0.08,1.4,-3.05,-3.42,396,306,211,271,236,13
704,0.97,-0.23,0.09,1.89,-0.79,-2.81,400,298,213,267,235,13
705,0.97,-0.24,0.1,-2.38,-2.69,-2.38,396,301,214,268,234,13
706,0.97,-0.24,0.09,-1.34,-3.17,-2.56,396,300,212,269,232,13
707,0.97,-0.23,0.09,0.06,-2.56,-3.6,405,307,216,267,234,13
708,0.97,-0.23,0.1,1.16,-2.26,-2.38,395,303,211,269,235,13
709,0.97,-0.23,0.1,0.0,-2.08,-2.69,394,301,215,272,234,13
710,0.97,-0.23,0.11,0.79,-2.81,-2.99,393,301,215,269,233,13
711,0.97,-0.23,0.11,-0.06,-2.75,-2.44,395,303,212,269,233,13
712,0.98,-0.22,0.13,0.18,-2.2,-2.32,396,298,209,268,235,13
713,0.98,-0.22,0.12,0.55,-2.69,-2.44,396,301,213,267,234,13
714,0.97,-0.22,0.12,0.85,-2.2,-2.62,396,303,219,269,247,13
715,0.97,-0.22,0.12,0.92,-3.11,-2.69,393,299,213,268,235,13
716,0.97,-0.22,0.12,-0.12,-3.36,-2.26,393,299,212,268,234,13
717,0.97,-0.22,0.12,0.24,-2.99,-2.69,389,300,212,271,232,13
718,0.97,-0.22,0.12,0.12,-2.87,-2.26,392,300,214,272,233,13
719,0.97,-0.22,0.12,0.49,-3.11,-2.32,392,302,215,277,236,13
720,0.97,-0.22,0.12,0.43,-3.05,-2.44,392,301,212,270,232,13
721,0.97,-0.22,0.12,0.24,-2.38,-2.75,393,299,213,267,235,13
722,0.97,-0.22,0.13,0.92,-2.81,-2.44,389,302,211,268,235,13
723,0.97,-0.22,0.13,0.24,-2.75,-2.38,395,302,216,267,237,13
724,0.98,-0.22,0.13,0.61,-3.36,-2.32,392,297,215,272,232,13
725,0.97,-0.22,0.13,0.61,-2.75,-2.69,391,304,216,268,235,13
726,0.97,-0.22,0.14,0.24,-2.93,-2.44,396,301,213,267,235,13
727,0.97,-0.22,0.13,0.61,-3.48,-2.44,390,306,214,272,235,13
728,0.97,-0.22,0.13,0.12,-2.69,-2.14,389,299,213,271,236,13
729,0.97,-0.22,0.13,0.79,-3.05,-2.32,392,302,215,269,235,13
730,0.97,-0.22,0.14,0.55,-2.81,-2.38,393,306,209,270,235,13
731,0.97,-0.22,0.14,0.55,-2.81,-2.56,390,298,215,268,233,13
732,0.97,-0.22,0.13,0.98,-3.23,-2.81,394,301,216,273,236,13
733,0.97,-0.22,0.14,0.43,-2.62,-2.5,393,303,217,271,235,13
734,0.97,-0.22,0.14,0.06,-3.48,-2.26,393,297,213,269,234,13
735,0.97,-0.22,0.14,0.55,-2.2,-2.56,388,302,215,271,237,13
736,0.97,-0.22,0.14,0.37,-2.93,-2.44,388,302,212,271,233,13
737,0.97,-0.22,0.14,0.43,-2.56,-2.26,389,302,216,268,231,13
738,0.97,-0.22,0.14,1.53,-0.67,-1.89,394,299,213,273,233,13
739,0.97,-0.23,0.16,-0.61,-0.73,-2.5,390,300,215,270,231,13
740,0.96,-0.22,0.17,-1.28,-2.87,-2.38,393,305,213,273,234,13
741,0.96,-0.23,0.17,0.73,-3.85,-2.75,392,306,212,267,229,13
742,0.97,-0.22,0.14,0.24,-4.58,-2.56,392,306,213,272,232,13
743,0.96,-0.22,0.15,3.17,1.53,-2.26,390,307,212,271,235,13
744,0.97,-0.23,0.16,4.94,-3.66,-2.32,392,304,212,272,234,13
745,0.97,-0.22,0.15,0.06,0.0,-1.65,390,306,213,272,236,13
746,0.98,-0.22,0.14,3.23,-8.79,-2.87,395,300,213,278,237,13
747,0.96,-0.23,0.16,-3.42,5.8,-0.55,390,303,217,270,234,13
748,0.93,-0.21,0.23,-0.55,-2.14,-1.59,393,299,214,271,231,13
749,0.97,-0.21,0.15,1.83,-5.0,-1.89,390,306,215,270,235,13
750,0.96,-0.22,0.18,1.4,-2.5,-2.87,396,303,217,274,235,13
751,0.97,-0.22,0.15,-0.37,2.69,0.98,394,300,217,273,235,13
752,1.03,-0.31,0.06,-3.6,-32.96,9.52,397,304,210,272,224,13
753,0.8,-0.32,0.06,-3.48,120.42,68.36,394,297,217,273,221,13
754,0.61,-0.65,0.18,9.77,13.12,-31.86,399,301,217,275,220,13
755,0.63,-0.73,0.08,12.57,-14.16,8.06,401,303,216,267,223,13
756,0.65,-0.74,0.13,21.12,-19.35,10.38,394,304,215,269,226,13
757,0.67,-0.72,0.21,5.37,6.04,-9.83,400,296,213,271,222,13
758,0.67,-0.71,0.23,-6.16,27.16,-15.69,395,302,213,271,224,13
759,0.68,-0.69,0.28,-10.74,-3.85,-2.99,397,306,218,273,221,13
760,0.65,-0.71,0.25,-9.58,-7.2,-3.54,400,301,214,270,220,13
761,0.69,-0.71,0.19,-13.24,-8.61,-6.71,405,299,214,265,219,13
762,0.74,-0.68,0.16,-1.46,-3.91,-9.77,403,305,211,268,219,13
763,0.73,-0.67,0.15,0.24,-6.1,-5.49,401,296,213,263,222,13
764,0.75,-0.65,0.15,-5.98,0.12,-13.55,406,300,214,266,222,13
765,0.76,-0.63,0.14,3.3,-2.26,-4.46,405,302,215,266,220,13
766,0.78,-0.62,0.15,0.24,-2.69,-2.44,408,305,214,269,223,13
767,0.77,-0.62,0.14,1.89,-4.03,-2.81,402,306,216,269,223,13
768,0.78,-0.62,0.14,1.22,-3.91,-2.5,404,302,213,270,223,13
769,0.76,-0.62,0.15,-0.61,-2.44,-3.17,402,305,215,269,221,13
770,0.78,-0.63,0.14,2.01,-2.99,-2.93,401,307,214,270,220,13
771,0.78,-0.62,0.15,0.06,-3.3,-2.2,401,303,214,271,218,13
772,0.77,-0.62,0.16,0.37,-3.11,-2.26,405,301,215,270,220,13
773,0.78,-0.61,0.15,0.67,-2.26,-3.23,403,307,217,271,229,13
774,0.78,-0.62,0.16,-0.37,-3.72,-2.26,405,307,213,270,217,13
775,0.78,-0.62,0.16,0.37,-3.17,-2.32,399,300,226,271,220,13
776,0.78,-0.61,0.16,1.1,-2.69,-2.14,402,298,215,269,244,13
777,0.78,-0.61,0.16,0.61,-2.01,-2.38,402,302,218,268,222,13
778,0.77,-0.61,0.16,0.24,-3.17,-2.62,401,305,217,268,221,13
779,0.78,-0.62,0.15,-0.49,-3.6,-1.77,399,299,214,269,220,13
780,0.78,-0.62,0.16,-0.98,-2.32,-2.5,403,308,217,268,221,13
781,0.78,-0.61,0.16,0.98,-2.32,-2.2,401,297,218,270,225,13
782,0.78,-0.61,0.16,1.53,-2.5,-3.05,402,302,216,270,220,13
783,0.77,-0.61,0.17,0.85,-2.93,-2.69,402,300,215,269,219,13
784,0.78,-0.62,0.15,0.92,-2.5,-2.2,399,304,218,270,222,13
785,0.78,-0.61,0.16,0.37,-3.6,-2.81,401,303,215,271,221,13
786,0.78,-0.61,0.16,1.04,-2.56,-1.95,397,305,215,275,218,13
787,0.78,-0.62,0.16,0.24,-2.81,-2.56,398,305,217,272,230,13
788,0.76,-0.62,0.17,0.79,-2.26,-2.62,402,303,217,269,217,13
789,0.78,-0.62,0.15,0.24,-2.69,-2.38,402,303,219,272,226,13
790,0.78,-0.61,0.17,-0.67,-3.23,-2.62,399,302,216,273,222,13
791,0.78,-0.62,0.16,1.95,-3.3,-1.65,401,304,213,270,223,13
792,0.77,-0.61,0.16,-0.49,-2.99,-2.5,402,304,213,269,217,13
793,0.77,-0.62,0.16,0.24,-4.09,-2.08,402,298,222,273,219,13
794,0.78,-0.62,0.16,-0.12,-2.81,-1.89,398,308,216,270,219,13
795,0.77,-0.62,0.16,-0.24,-2.5,-2.32,404,307,216,268,219,13
796,0.77,-0.62,0.17,0.98,-2.08,-2.01,403,300,216,270,220,13
797,0.77,-0.62,0.16,0.12,-3.23,-2.2,402,306,215,273,220,13
798,0.77,-0.62,0.16,0.24,-3.17,-3.17,397,304,219,273,219,13
799,0.76,-0.62,0.15,0.98,-3.48,-2.2,397,303,214,273,221,13
800,0.77,-0.62,0.16,1.83,-2.01,-3.3,395,307,216,272,222,13
801,0.77,-0.62,0.18,0.73,-2.81,-2.26,396,304,218,272,222,13
802,0.77,-0.62,0.17,-0.37,-1.59,-3.85,399,305,219,271,219,13
803,0.78,-0.62,0.16,0.0,-2.62,-3.6,396,303,216,267,220,13
804,0.77,-0.62,0.17,0.79,-3.36,-3.05,397,305,216,272,218,13
805,0.77,-0.61,0.17,-0.55,-2.08,-2.56,397,304,216,269,219,13
806,0.77,-0.62,0.17,-0.55,-2.44,-2.44,398,306,215,273,219,13
807,0.77,-0.61,0.17,1.1,-2.44,-3.3,398,302,218,268,219,13
808,0.78,-0.61,0.17,1.77,-3.05,-2.99,397,297,218,269,218,13
809,0.78,-0.61,0.17,1.04,-2.93,-2.75,398,303,217,272,218,13
810,0.77,-0.61,0.18,1.16,-2.69,-2.87,397,310,219,270,223,13
811,0.78,-0.6,0.17,0.18,-3.23,-2.38,398,300,215,281,220,13
812,0.79,-0.6,0.18,1.83,-2.56,-3.78,398,305,229,273,220,13
813,0.82,-0.58,0.18,1.22,-0.92,-3.66,398,300,218,271,219,13
814,0.73,-0.63,0.21,-2.75,-3.48,6.23,399,302,229,274,221,13
815,0.74,-0.62,0.19,1.71,-3.23,-6.59,399,305,219,271,218,13
816,0.8,-0.6,0.18,-0.18,-2.44,-4.82,399,304,218,273,222,13
817,0.79,-0.6,0.19,0.85,-2.62,-3.17,400,303,219,271,217,13
818,0.79,-0.59,0.19,0.73,-3.36,-2.14,400,303,224,271,222,13
819,0.77,-0.61,0.19,1.89,-3.72,-3.05,401,304,218,285,221,13
820,0.8,-0.6,0.19,-2.81,-1.1,-1.53,398,304,217,274,222,13
821,0.79,-0.61,0.16,2.26,-4.09,-6.59,402,301,217,269,221,13
822,0.78,-0.61,0.17,2.2,-3.78,-4.09,398,305,217,271,222,13
823,0.78,-0.6,0.19,1.89,-2.99,-1.59,400,309,219,271,222,13
824,0.77,-0.59,0.21,0.55,-2.44,-3.11,399,301,219,276,218,13
825,0.79,-0.6,0.19,0.49,-2.69,-3.42,396,304,214,273,221,13
826,0.78,-0.59,0.2,0.49,-3.42,-2.5,395,308,218,266,253,13
827,0.79,-0.59,0.2,0.0,-2.99,-1.89,395,304,219,273,221,13
828,0.78,-0.59,0.2,0.31,-3.72,-2.75,401,308,217,285,219,13
829,0.79,-0.58,0.2,4.27,-3.11,-5.0,399,299,217,270,221,13
830,0.79,-0.58,0.2,1.04,-3.48,-2.62,400,300,216,275,221,13
831,0.8,-0.59,0.2,2.75,-3.72,-3.91,400,309,214,274,217,13
832,0.79,-0.59,0.2,0.37,-3.91,-2.5,397,307,215,274,220,13
833,0.79,-0.59,0.2,0.55,-3.42,-2.44,396,301,212,273,216,13
834,0.8,-0.58,0.2,0.49,-3.17,-2.44,396,305,216,273,220,13
835,0.79,-0.58,0.21,-0.18,-2.75,-2.26,398,309,217,276,222,13
836,0.77,-0.58,0.16,4.46,-28.81,-7.02,399,302,216,275,223,13
837,0.84,-0.56,0.11,-4.33,-9.46,6.53,396,301,220,270,222,13
838,0.74,-0.6,0.19,-9.28,20.69,12.51,398,301,217,272,218,13
839,0.78,-0.6,0.22,6.59,-3.11,-4.39,400,308,217,273,221,13
840,0.77,-0.62,0.2,2.38,-3.66,-4.94,399,307,219,273,218,13
841,0.79,-0.6,0.17,1.4,-6.47,-2.14,402,308,215,272,218,13
842,0.78,-0.62,0.13,-2.69,-6.23,-1.04,401,307,217,271,250,13
843,0.82,-0.6,0.14,4.03,-1.95,-6.23,397,304,220,273,219,13
844,0.79,-0.6,0.18,4.27,-1.65,-2.2,401,306,216,275,223,13
845,0.79,-0.6,0.16,3.66,-1.89,-3.97,399,305,217,274,223,13
846,0.8,-0.58,0.19,0.31,-3.17,-2.87,397,304,218,274,222,13
847,0.8,-0.59,0.17,1.4,-2.56,-2.87,395,304,220,272,223,13
848,0.79,-0.59,0.17,0.55,-3.17,-2.08,399,301,217,275,219,13
849,0.79,-0.6,0.17,0.85,-2.62,-2.93,397,305,219,270,220,13
850,0.79,-0.59,0.18,-0.55,-2.75,-0.31,399,310,218,275,251,13
851,0.79,-0.6,0.18,1.4,-3.23,-2.56,394,305,219,273,222,13
852,0.78,-0.6,0.17,1.59,-3.11,-3.23,395,306,217,272,221,13
853,0.79,-0.6,0.18,1.16,-3.66,-1.95,398,305,216,276,220,13
854,0.78,-0.6,0.18,1.89,-3.3,-4.39,399,305,219,273,222,13
855,0.79,-0.6,0.18,1.83,-2.69,-3.11,395,318,218,279,249,13
856,0.79,-0.59,0.18,1.34,-1.71,-3.6,399,306,219,282,225,13
857,0.79,-0.59,0.19,0.85,-3.23,-2.14,397,308,215,274,219,13
858,0.79,-0.59,0.18,-0.43,-2.75,-2.44,399,309,217,272,222,13
859,0.8,-0.59,0.18,1.22,-2.81,-2.87,400,305,220,275,221,13
860,0.78,-0.59,0.19,0.43,-3.11,-2.26,400,309,218,275,221,13
861,0.79,-0.59,0.19,0.61,-4.03,-2.56,398,301,220,272,221,13
862,0.78,-0.6,0.18,-0.61,-4.21,-1.95,399,305,219,275,221,13
863,0.78,-0.6,0.19,0.98,-2.26,-2.87,401,305,220,273,240,13
864,0.79,-0.59,0.19,0.12,-3.3,-2.08,400,308,218,274,220,13
865,0.78,-0.6,0.19,0.24,-2.75,-2.87,402,309,219,276,221,13
866,0.79,-0.59,0.19,0.85,-2.38,-2.08,397,306,217,273,221,13
867,0.79,-0.59,0.2,0.79,-2.75,-2.56,399,306,217,273,224,13
868,0.79,-0.59,0.2,0.79,-3.54,-2.99,401,310,215,273,220,13
869,0.78,-0.59,0.19,0.79,-2.87,-2.14,400,305,220,271,222,13
870,0.79,-0.59,0.19,-0.55,-2.87,-2.56,398,302,217,274,222,13
871,0.78,-0.59,0.2,1.46,-2.26,-2.01,397,305,217,273,221,13
872,0.79,-0.59,0.19,-0.12,-2.99,-2.08,399,307,215,273,222,13
873,0.79,-0.59,0.2,0.43,-3.23,-3.3,399,301,218,271,219,13
874,0.78,-0.6,0.19,0.24,-3.11,-1.77,395,309,221,274,220,13
875,0.79,-0.59,0.19,-0.31,-2.69,-2.32,398,306,217,274,220,13
876,0.78,-0.59,0.2,1.04,-2.08,-2.2,395,310,218,275,221,13
877,0.79,-0.59,0.2,1.1,-3.17,-3.05,399,304,219,275,221,13
878,0.8,-0.59,0.19,-1.28,-3.91,-2.32,402,310,215,276,222,13
879,0.78,-0.59,0.19,0.92,-3.54,-2.5,403,302,220,275,220,13
880,0.79,-0.6,0.19,0.0,-2.62,-2.5,400,308,217,271,220,13
881,0.79,-0.6,0.19,0.0,-3.78,-2.56,399,310,221,275,220,13
882,0.79,-0.6,0.2,0.37,-2.56,-2.75,399,305,219,273,222,13
883,0.79,-0.59,0.2,1.59,-3.05,-2.2,398,311,220,276,220,13
884,0.79,-0.59,0.2,-0.12,-2.69,-2.38,401,306,215,274,222,13
885,0.79,-0.59,0.2,0.18,-2.62,-3.11,399,310,220,272,222,13
886,0.78,-0.6,0.19,0.24,-3.3,-2.2,399,307,216,273,218,13
887,0.79,-0.59,0.19,0.79,-2.5,-3.17,399,302,220,269,220,13
888,0.79,-0.62,0.2,-0.67,-2.87,-2.44,398,306,218,277,221,13
889,0.78,-0.59,0.2,0.92,-1.71,-3.17,398,306,217,270,221,13
890,0.8,-0.59,0.19,0.31,-3.72,-2.44,400,310,213,272,212,13
891,0.79,-0.59,0.19,0.12,-2.99,-2.56,398,310,220,273,221,13
892,0.79,-0.59,0.2,0.06,-2.69,-2.2,398,310,217,273,228,13
893,0.79,-0.59,0.2,-0.24,-2.93,-1.71,397,310,220,273,222,13
894,0.78,-0.59,0.2,-0.12,-3.23,-2.01,401,306,216,273,218,13
895,0.79,-0.59,0.2,0.92,-3.36,-1.53,401,304,215,276,219,13
896,0.79,-0.59,0.2,0.85,-3.3,-2.81,400,303,221,273,220,13
897,0.78,-0.59,0.2,1.04,-3.36,-2.44,400,311,216,270,220,13
898,0.78,-0.59,0.2,0.49,-2.44,-2.2,400,319,220,275,222,13
899,0.79,-0.6,0.2,0.18,-3.17,-2.26,395,310,220,276,221,13
900,0.79,-0.6,0.2,1.28,-2.5,-2.26,399,311,221,274,222,13
901,0.78,-0.6,0.21,0.12,-3.42,-2.44,397,316,220,274,220,13
902,0.78,-0.6,0.21,0.18,-2.99,-2.38,399,309,221,273,220,13
903,0.78,-0.6,0.19,-0.12,-2.38,-2.38,400,302,218,276,249,13
904,0.78,-0.6,0.2,-0.98,-3.78,-1.71,398,311,219,271,220,13
905,0.78,-0.6,0.21,0.79,-3.05,-1.89,398,302,220,274,223,13
906,0.78,-0.59,0.21,0.98,-2.75,-2.81,398,321,221,272,219,13
907,0.78,-0.59,0.21,1.1,-2.75,-2.56,399,306,215,274,222,13
908,0.78,-0.59,0.21,0.67,-2.62,-3.36,401,311,219,279,222,13
909,0.79,-0.6,0.17,2.62,-2.56,-4.21,396,306,224,286,220,13
910,0.79,-0.59,0.19,0.73,-2.93,-2.08,397,316,218,274,221,13
911,0.79,-0.59,0.2,1.22,-3.05,-0.73,400,305,217,274,221,13
912,0.79,-0.6,0.19,0.24,-7.32,-2.08,399,311,215,274,223,13
913,0.78,-0.6,0.21,2.93,0.61,-3.3,394,308,219,276,221,13
914,0.79,-0.6,0.2,-0.18,-4.52,-2.93,392,302,217,277,224,13
915,0.77,-0.6,0.2,0.67,-3.85,-2.44,394,308,221,277,224,13
916,0.78,-0.6,0.2,0.49,-3.11,-2.14,394,306,220,274,223,13
917,0.8,-0.58,0.24,-1.95,-2.44,-2.5,396,310,218,274,224,13
918,0.78,-0.59,0.22,-0.79,-3.36,-2.93,395,306,217,274,219,13
919,0.78,-0.59,0.22,0.06,-2.99,-2.32,400,305,220,276,220,13
920,0.79,-0.59,0.22,-1.77,-3.3,-1.46,393,309,218,277,222,13
921,0.78,-0.59,0.23,0.61,-2.14,-2.69,398,307,215,273,221,13
922,0.79,-0.59,0.23,0.31,-2.75,-2.01,393,308,218,276,220,13
923,0.78,-0.59,0.22,0.79,-3.23,-2.2,396,311,217,275,220,13
924,0.78,-0.59,0.22,1.28,-2.75,-2.32,393,310,215,277,219,13
925,0.79,-0.58,0.23,0.12,-2.62,-2.5,399,307,220,288,222,13
926,0.78,-0.6,0.21,0.06,-2.2,-1.95,397,309,221,274,218,13
927,0.77,-0.6,0.22,0.0,-2.87,-2.81,397,309,218,274,221,13
928,0.77,-0.6,0.22,1.04,-2.99,-2.62,396,306,220,274,231,13
929,0.77,-0.6,0.22,0.0,-2.75,-1.89,396,306,217,275,220,13
930,0.78,-0.6,0.23,0.61,-2.99,-2.5,399,308,218,275,219,13
931,0.77,-0.6,0.22,0.12,-2.56,-2.5,398,313,221,272,220,13
932,0.79,-0.59,0.22,0.49,-3.66,-2.99,392,307,217,274,222,13
933,0.81,-0.59,0.22,-2.5,-4.64,-2.32,396,309,227,275,221,13
934,0.76,-0.6,0.23,-1.28,-3.3,-3.97,393,307,216,274,221,13
935,0.78,-0.59,0.23,0.67,-3.36,-4.03,395,303,219,275,220,13
936,0.78,-0.59,0.24,0.06,-3.17,-0.92,393,306,219,276,223,13
937,0.77,-0.59,0.22,-0.61,-2.01,-2.32,396,309,220,275,219,13
938,0.76,-0.6,0.22,0.43,-2.01,-2.26,393,307,220,275,220,13
939,0.78,-0.61,0.21,-0.12,-3.6,-2.2,393,306,217,274,222,13
940,0.77,-0.6,0.24,0.43,-3.48,-3.05,394,308,223,277,223,13
941,0.76,-0.61,0.23,0.12,-3.6,-3.23,395,310,218,275,222,13
942,0.76,-0.61,0.22,-0.24,-2.5,-2.87,396,307,218,275,219,13
943,0.75,-0.62,0.21,-1.65,-4.39,-3.17,397,305,221,278,223,13
944,0.77,-0.61,0.21,0.98,-2.38,-4.39,398,307,221,290,223,13
945,0.79,-0.59,0.21,1.77,-2.08,-2.2,397,312,220,276,223,13
946,0.8,-0.58,0.21,2.01,-3.78,-3.78,399,311,217,274,223,13
947,0.81,-0.58,0.23,1.53,-2.93,-2.99,397,309,218,275,220,13
948,0.8,-0.58,0.24,1.53,-2.99,-2.08,397,302,218,277,221,13
949,0.78,-0.58,0.25,0.85,-3.42,-1.1,397,309,218,276,216,13
950,0.78,-0.59,0.25,0.98,-2.62,-1.53,396,307,219,273,220,13
951,0.76,-0.6,0.24,0.06,-3.23,-1.71,399,311,219,277,221,13
952,0.77,-0.6,0.23,-0.49,-2.99,-3.17,397,310,215,276,221,13
953,0.77,-0.6,0.23,-1.95,-2.69,-2.99,399,311,216,275,221,13
954,0.77,-0.6,0.22,-0.18,-2.75,-3.3,393,307,222,274,223,13
955,0.78,-0.59,0.23,1.65,-2.01,-3.91,399,318,227,277,221,13
956,0.8,-0.58,0.23,0.67,-2.69,-2.26,394,307,227,276,222,13
957,0.79,-0.58,0.24,0.67,-2.56,-1.71,396,306,221,284,223,13
958,0.78,-0.58,0.25,0.18,-3.23,-1.34,397,310,218,274,220,13
959,0.77,-0.59,0.25,0.67,-2.44,-1.65,393,304,220,283,221,13
960,0.77,-0.59,0.25,-0.61,-3.17,-1.46,396,305,218,277,216,13
961,0.77,-0.59,0.24,0.0,-3.48,-2.75,394,304,218,274,223,13
962,0.78,-0.6,0.22,-0.98,-3.48,-3.11,393,302,217,290,220,13
963,0.77,-0.6,0.22,0.24,-2.99,-3.78,397,307,221,276,221,13
964,0.79,-0.58,0.23,1.83,-3.36,-3.97,397,308,221,275,221,13
965,0.8,-0.58,0.24,1.1,-3.48,-2.38,400,307,213,273,218,13
966,0.78,-0.58,0.24,1.34,-2.87,-2.38,396,303,222,277,224,13
967,0.77,-0.58,0.25,-0.18,-3.54,-1.95,394,312,217,277,223,13
968,0.78,-0.58,0.25,-0.18,-3.23,-2.32,398,310,220,274,216,13
969,0.77,-0.59,0.24,0.43,-2.81,-2.26,397,309,219,277,224,13
970,0.79,-0.58,0.23,0.31,-3.3,-2.93,394,310,217,278,223,13
971,0.8,-0.58,0.23,1.16,-3.17,-2.32,393,306,221,278,221,13
972,0.78,-0.59,0.25,1.16,-2.44,-2.38,393,307,219,274,220,13
973,0.77,-0.58,0.25,0.18,-3.36,-2.26,397,307,216,273,224,13
974,0.76,-0.59,0.25,-1.46,-2.75,-1.95,397,308,221,278,219,13
975,0.77,-0.59,0.24,-1.04,-3.91,-2.87,398,309,220,278,218,13
976,0.79,-0.59,0.23,0.06,-2.75,-2.99,396,305,221,273,220,13
977,0.79,-0.58,0.24,1.46,-2.81,-2.99,397,312,216,274,223,13
978,0.78,-0.58,0.25,1.71,-3.3,-2.32,398,313,219,276,223,13
979,0.78,-0.58,0.25,1.16,-2.99,-2.2,398,312,221,272,221,13
980,0.77,-0.58,0.25,0.67,-2.81,-1.4,397,312,217,274,221,13
981,0.78,-0.58,0.24,0.18,-3.48,-3.48,395,308,220,275,219,13
982,0.79,-0.58,0.24,-0.18,-3.11,-3.23,393,304,216,274,221,13
983,0.78,-0.58,0.24,0.0,-2.32,-2.26,398,308,217,274,228,13
984,0.78,-0.59,0.24,1.04,-2.5,-2.56,396,307,217,278,221,13
985,0.79,-0.58,0.25,0.06,-2.99,-1.83,398,308,220,283,224,13
986,0.77,-0.59,0.25,0.73,-3.42,-2.26,392,309,222,278,221,13
987,0.77,-0.59,0.25,0.55,-3.66,-2.14,394,304,220,277,242,13
988,0.78,-0.58,0.24,0.61,-2.93,-2.75,394,307,222,283,223,13
989,0.79,-0.58,0.25,0.73,-2.44,-3.6,397,308,220,275,219,13
990,0.77,-0.59,0.25,0.73,-2.69,-2.14,397,307,217,277,219,13
991,0.78,-0.58,0.25,1.04,-3.42,-2.69,396,307,221,276,223,13
992,0.78,-0.58,0.25,-0.67,-2.14,-2.38,395,309,222,275,220,13
993,0.78,-0.58,0.24,-0.79,-3.3,-1.59,398,308,226,277,222,13
994,0.79,-0.58,0.25,0.06,-2.14,-2.93,397,308,222,275,224,13
995,0.79,-0.58,0.25,0.31,-2.81,-2.38,397,310,218,277,221,13
996,0.78,-0.58,0.25,0.24,-3.23,-1.46,399,312,217,278,221,13
997,0.78,-0.59,0.24,-0.12,-3.66,-2.56,398,310,218,272,221,13
998,0.79,-0.58,0.24,0.12,-3.36,-3.23,395,309,218,277,250,13
999,0.78,-0.58,0.24,-0.98,-3.54,-2.2,397,306,219,273,221,13
1000,0.78,-0.58,0.25,1.46,-3.36,-2.87,392,311,221,275,225,13
1001,0.78,-0.58,0.25,-0.85,-3.11,-1.46,392,311,220,277,231,13
1002,0.77,-0.58,0.25,-0.61,-3.23,-2.75,397,303,217,276,234,13
1003,0.78,-0.58,0.25,0.06,-2.69,-2.81,396,312,218,275,220,13
1004,0.79,-0.58,0.25,0.85,-2.44,-1.71,398,307,217,274,223,13
1005,0.78,-0.58,0.26,1.53,-2.2,-1.83,397,312,220,275,221,13
1006,0.78,-0.58,0.25,-0.12,-3.17,-2.38,392,308,219,277,221,13
1007,0.78,-0.58,0.24,0.0,-3.48,-2.62,402,308,220,275,225,13
1008,0.78,-0.59,0.24,0.06,-2.93,-2.87,393,309,216,278,221,13
1009,0.78,-0.58,0.25,1.46,-2.81,-2.26,393,308,218,276,224,13
1010,0.77,-0.58,0.26,-0.67,-3.3,-1.65,396,306,222,274,217,13
1011,0.78,-0.58,0.25,-0.31,-3.72,-2.44,396,311,217,278,222,13
1012,0.78,-0.58,0.25,0.79,-3.23,-3.11,397,308,219,279,225,13
1013,0.79,-0.57,0.25,0.98,-2.62,-2.69,395,309,219,277,222,13
1014,0.78,-0.58,0.25,0.61,-2.81,-1.1,397,309,218,276,224,13
1015,0.78,-0.58,0.25,0.0,-3.3,-2.5,397,306,218,276,219,13
1016,0.78,-0.58,0.25,0.37,-3.05,-3.05,398,309,222,277,223,13
1017,0.77,-0.58,0.25,0.24,-2.81,-2.44,397,312,219,276,227,13
1018,0.78,-0.58,0.25,0.43,-2.81,-2.5,397,308,221,277,220,13
1019,0.78,-0.58,0.25,0.61,-3.23,-2.56,397,305,220,277,226,13
1020,0.79,-0.58,0.24,2.44,-6.9,-0.61,396,307,219,279,222,13
1021,0.79,-0.58,0.26,5.43,-5.43,-1.34,397,307,219,279,224,13
1022,0.78,-0.57,0.27,-0.49,-2.32,-2.32,390,307,219,279,218,13
1023,0.78,-0.58,0.25,0.49,-3.11,-1.95,396,308,222,274,224,13
1024,0.78,-0.58,0.26,0.92,-2.5,-3.48,395,313,218,279,223,13
1025,0.78,-0.57,0.26,1.71,-4.46,-1.77,397,307,217,273,259,13
1026,0.77,-0.58,0.26,-0.24,-3.66,-2.14,399,308,221,279,229,13
1027,0.78,-0.58,0.25,0.0,-3.11,-2.44,397,304,221,275,224,13
1028,0.79,-0.57,0.26,0.24,-3.48,-1.4,398,310,217,277,225,13
1029,0.78,-0.58,0.25,0.24,-2.69,-2.2,396,303,220,279,223,13
1030,0.78,-0.58,0.27,-0.37,-2.56,-2.38,397,312,222,273,223,13
1031,0.78,-0.57,0.26,0.0,-2.44,-2.01,392,311,223,279,225,13
1032,0.78,-0.57,0.27,0.43,-1.89,-2.56,396,312,219,278,226,13
1033,0.79,-0.58,0.25,0.06,-2.99,-3.17,396,306,222,276,221,13
1034,0.79,-0.57,0.25,2.14,-1.46,-2.75,396,309,230,279,226,13
1035,0.8,-0.57,0.27,0.73,-3.91,-2.32,396,305,220,278,223,13
1036,0.79,-0.57,0.26,0.98,-2.32,-2.75,396,309,220,277,223,13
1037,0.78,-0.58,0.26,-0.37,-2.93,-2.56,396,307,221,276,223,13
1038,0.8,-0.57,0.26,0.24,-3.48,-3.05,396,307,220,277,225,13
1039,0.78,-0.57,0.26,1.22,-2.26,-2.87,393,304,219,275,222,13
1040,0.78,-0.57,0.28,0.06,-3.3,-2.87,397,304,220,278,223,13
1041,0.78,-0.57,0.27,-1.04,-2.99,-2.5,398,310,219,282,225,13
1042,0.79,-0.57,0.26,0.24,-3.23,-3.42,397,309,219,276,224,13
1043,0.78,-0.57,0.26,0.31,-2.38,-2.44,393,304,220,277,255,13
1044,0.78,-0.56,0.28,0.37,-2.5,-2.5,398,312,219,277,223,13
1045,0.78,-0.57,0.26,0.79,-4.94,-1.34,391,309,221,277,235,13
1046,0.77,-0.57,0.27,-0.61,-1.77,-3.11,395,310,221,279,223,13
1047,0.79,-0.57,0.26,1.46,-2.56,-2.81,393,310,221,276,223,13
1048,0.78,-0.57,0.27,0.49,-2.81,-2.32,396,313,222,279,227,13
1049,0.78,-0.56,0.27,1.71,-2.75,-2.38,396,308,219,277,223,13
1050,0.78,-0.57,0.27,0.0,-2.14,-2.69,395,312,222,275,226,13
1051,0.79,-0.56,0.27,0.67,-3.66,-2.93,396,308,221,279,225,13
1052,0.79,-0.56,0.28,0.37,-3.36,-2.38,400,312,219,278,224,13
1053,0.79,-0.55,0.29,0.24,-3.17,-1.65,399,305,223,275,224,13
1054,0.78,-0.56,0.28,0.06,-3.11,-2.01,396,313,222,276,223,13
1055,0.78,-0.56,0.28,-0.24,-3.23,-2.01,396,306,220,279,223,13
1056,0.79,-0.56,0.27,0.79,-2.5,-2.69,398,309,217,276,214,13
1057,0.79,-0.56,0.28,1.4,-3.11,-1.59,398,305,215,274,224,13
1058,0.79,-0.56,0.27,1.16,-3.54,-2.62,398,310,226,281,227,13
1059,0.8,-0.56,0.27,0.24,-3.36,-2.32,399,307,217,276,225,13
1060,0.78,-0.57,0.27,0.73,-3.48,-2.93,398,307,223,278,226,13
1061,0.78,-0.56,0.28,0.92,-3.23,-2.99,398,308,222,275,222,13
1062,0.78,-0.56,0.28,-0.92,-2.87,-1.83,396,312,223,279,225,13
1063,0.79,-0.56,0.27,0.67,-2.56,-2.32,395,306,221,282,225,13
1064,0.79,-0.56,0.27,0.31,-2.5,-1.95,398,311,219,275,226,13
1065,0.78,-0.55,0.28,0.73,-3.48,-2.01,402,311,223,277,229,13
1066,0.78,-0.56,0.28,-1.22,-2.87,-1.59,400,305,227,279,227,13
1067,0.79,-0.56,0.27,0.31,-2.44,-2.62,398,325,218,276,225,13
1068,0.79,-0.56,0.27,1.28,-2.69,-2.2,397,309,220,279,225,13
1069,0.78,-0.56,0.28,0.37,-2.32,-2.56,395,310,220,277,224,13
1070,0.78,-0.56,0.28,0.85,-2.87,-3.05,397,311,220,278,226,13
1071,0.78,-0.56,0.27,-0.12,-4.21,-2.44,393,314,221,276,220,13
1072,0.79,-0.56,0.27,-0.06,-3.11,-3.54,397,310,222,276,223,13
1073,0.79,-0.55,0.28,0.0,-2.56,-2.32,400,313,221,277,225,13
1074,0.79,-0.56,0.27,0.85,-2.69,-2.26,397,313,221,276,225,13
1075,0.79,-0.56,0.27,1.22,-3.17,-2.32,396,314,223,280,224,13
1076,0.79,-0.56,0.27,0.67,-2.56,-2.26,398,314,222,276,224,13
1077,0.8,-0.55,0.28,0.61,-3.17,-2.26,400,308,219,274,226,13
1078,0.79,-0.57,0.27,-0.31,-3.23,-2.44,401,309,225,278,225,13
1079,0.78,-0.57,0.27,-0.06,-2.62,-2.81,396,309,219,279,226,13
1080,0.79,-0.56,0.27,0.61,-3.05,-2.26,398,310,220,273,226,13
1081,0.78,-0.56,0.28,-0.18,-3.17,-2.14,398,305,220,278,224,13
1082,0.78,-0.56,0.28,-0.06,-3.42,-2.81,398,312,220,277,224,13
1083,0.8,-0.56,0.27,0.55,-3.05,-3.11,396,313,223,275,226,13
1084,0.79,-0.56,0.27,1.28,-2.56,-2.81,397,313,221,277,225,13
1085,0.79,-0.55,0.27,0.49,-2.56,-3.3,396,310,221,276,225,13
1086,0.8,-0.55,0.27,-0.49,-3.42,-2.14,399,306,222,277,224,13
1087,0.78,-0.56,0.27,0.67,-2.99,-2.56,398,314,221,275,226,13
1088,0.79,-0.56,0.27,0.0,-3.05,-2.62,396,309,224,279,223,13
1089,0.8,-0.55,0.27,-0.06,-2.99,-2.26,396,309,220,276,224,13
1090,0.79,-0.56,0.27,0.92,-2.5,-2.56,395,308,222,281,226,13
1091,0.79,-0.55,0.28,0.18,-3.54,-1.65,396,307,222,276,226,13
1092,0.79,-0.55,0.27,0.98,-3.23,-2.75,397,311,217,275,225,13
1093,0.8,-0.55,0.27,-0.37,-3.78,-2.87,396,309,218,275,221,13
1094,0.79,-0.55,0.27,0.49,-2.01,-1.71,396,312,224,277,225,13
1095,0.8,-0.55,0.27,0.73,-2.32,-1.89,398,310,219,274,217,13
1096,0.81,-0.55,0.28,-1.59,-4.7,-0.85,397,313,221,277,224,13
1097,0.79,-0.57,0.27,0.92,-2.08,0.31,397,313,222,276,226,13
1098,0.79,-0.57,0.27,1.95,-3.23,-2.44,398,313,219,279,223,13
1099,0.78,-0.56,0.31,2.2,-2.44,-3.54,398,305,222,278,227,13
1100,0.79,-0.54,0.3,3.66,-1.16,-6.41,398,311,223,270,226,13
1101,0.78,-0.55,0.28,0.73,-2.75,-3.91,399,310,224,278,229,13
1102,0.8,-0.54,0.29,1.04,-3.42,-3.6,394,313,219,276,228,13
1103,0.8,-0.53,0.29,0.31,-1.83,-3.17,395,311,218,277,224,13
1104,0.8,-0.53,0.3,0.37,-1.83,-2.26,399,309,218,278,227,13
1105,0.8,-0.53,0.3,0.12,-2.08,-2.93,399,311,217,279,225,13
1106,0.81,-0.52,0.3,0.92,-3.42,-1.89,394,310,223,278,224,13
1107,0.81,-0.52,0.31,1.1,-2.75,-3.6,398,312,220,277,225,13
1108,0.81,-0.53,0.31,-0.55,-3.66,-1.4,394,311,224,277,226,13
1109,0.79,-0.53,0.31,0.18,-2.5,-1.22,396,310,226,289,228,13
1110,0.8,-0.53,0.29,0.18,-3.54,-3.54,399,308,218,283,225,13
1111,0.81,-0.53,0.28,1.59,-2.62,-3.17,395,314,216,280,225,13
1112,0.81,-0.53,0.3,0.85,-2.93,-2.81,397,305,222,276,229,13
1113,0.81,-0.52,0.31,-1.04,-2.99,-2.5,394,309,221,276,227,13
1114,0.8,-0.52,0.3,0.79,-3.23,-2.93,397,313,219,281,226,13
1115,0.8,-0.52,0.31,0.98,-3.05,-2.99,393,313,220,275,226,13
1116,0.8,-0.52,0.31,-0.12,-2.32,-2.32,396,314,222,276,227,13
1117,0.96,-0.29,-0.04,2.62,-4.82,0.55,401,295,222,271,196,13
1118,0.94,-0.3,-0.06,0.18,-4.82,-2.62,403,295,220,271,194,13
1119,0.97,-0.31,-0.06,-0.61,-2.87,-3.66,395,287,218,272,195,13
1120,0.95,-0.31,-0.04,0.61,-0.61,-0.55,396,292,221,270,194,13
1121,0.91,-0.33,-0.03,2.38,-3.85,-5.74,401,289,218,269,197,13
1122,0.93,-0.3,-0.09,-4.94,-3.42,0.85,400,289,218,271,197,13
1123,0.92,-0.31,-0.09,4.27,-1.22,-2.14,405,288,220,272,199,13
1124,0.98,-0.31,-0.12,2.44,-5.25,-3.17,402,294,225,272,199,13
1125,0.95,-0.32,-0.1,0.61,-1.83,-1.65,401,298,217,273,196,13
1126,0.95,-0.33,-0.11,-0.55,-3.11,-0.55,403,293,217,274,200,13
1127,0.95,-0.33,-0.1,1.89,0.06,-2.99,406,291,224,272,198,13
1128,0.94,-0.33,-0.12,4.94,-3.05,-2.26,410,295,223,275,197,13
1129,0.93,-0.35,-0.1,0.67,-0.73,-3.3,409,289,222,270,199,13
1130,0.94,-0.35,-0.09,-2.69,-2.93,-2.2,408,291,222,270,198,13
1131,0.93,-0.34,-0.11,-0.06,-2.62,-2.75,408,300,219,275,197,13
1132,0.94,-0.34,-0.1,-0.24,-3.48,-1.71,409,290,223,272,198,13
1133,0.93,-0.34,-0.12,1.22,-4.15,-1.95,407,298,222,272,200,13
1134,0.93,-0.34,-0.12,0.61,-1.95,-2.56,410,293,217,275,200,13
1135,0.92,-0.35,-0.12,-0.73,-4.39,-2.81,411,289,219,274,197,13
1136,0.93,-0.34,-0.13,2.14,-2.26,-2.81,408,297,219,274,198,13
1137,0.94,-0.34,-0.12,0.79,-3.3,-2.38,410,291,220,275,229,13
1138,0.92,-0.34,-0.13,0.37,-2.56,-2.26,411,294,219,273,200,13
1139,0.93,-0.34,-0.12,0.37,-2.62,-2.69,410,301,222,281,197,13
1140,0.93,-0.34,-0.13,0.06,-3.66,-2.38,410,295,219,276,201,13
1141,0.93,-0.34,-0.12,0.73,-2.08,-2.69,410,293,219,275,200,13
1142,0.93,-0.34,-0.12,0.85,-2.5,-2.75,410,300,221,275,198,13
1143,0.93,-0.34,-0.12,0.92,-2.75,-1.95,412,294,218,275,198,13
1144,0.93,-0.34,-0.13,1.28,-1.71,-2.26,410,292,223,270,199,13
1145,0.94,-0.34,-0.12,-0.06,-2.87,-2.44,409,296,223,273,201,13
1146,0.93,-0.33,-0.12,2.26,-2.44,-2.69,409,295,222,272,199,13
1147,0.93,-0.34,-0.13,0.49,-5.0,-3.11,409,295,222,276,199,13
1148,0.94,-0.35,-0.11,0.31,-3.42,-2.32,410,300,220,274,198,13
1149,0.93,-0.34,-0.13,0.06,-3.42,-1.89,407,300,219,274,201,13
1150,0.93,-0.35,-0.12,0.73,-2.2,-2.56,410,301,223,276,199,13
1151,0.95,-0.34,-0.13,0.18,-3.23,-3.85,410,294,221,275,199,13
1152,0.93,-0.34,-0.12,0.79,-2.62,-2.87,409,299,215,275,198,13
1153,0.93,-0.34,-0.12,0.43,-3.66,-2.81,410,291,223,276,202,13
1154,0.93,-0.34,-0.13,0.79,-1.89,-3.11,410,294,219,271,203,13
1155,0.93,-0.34,-0.13,0.61,-2.75,-2.44,413,299,221,273,202,13
1156,0.93,-0.34,-0.13,-0.06,-2.87,-2.26,405,299,221,274,199,13
1157,0.93,-0.34,-0.12,0.31,-2.5,-2.38,409,295,223,281,200,13
1158,0.93,-0.34,-0.12,0.67,-2.2,-2.26,410,298,221,275,201,13
1159,0.91,-0.34,-0.11,-0.18,-2.01,-1.28,410,296,222,281,199,13
1160,0.93,-0.34,-0.11,0.73,-2.26,-2.99,411,294,223,276,200,13
1161,0.94,-0.34,-0.12,0.43,-2.32,-2.99,408,296,222,274,198,13
1162,0.92,-0.34,-0.11,-1.1,-3.36,-2.62,409,299,223,276,201,13
1163,0.94,-0.34,-0.11,0.18,-2.56,-2.26,409,294,222,283,202,13
1164,0.93,-0.34,-0.13,-0.12,-2.32,-2.5,409,299,221,275,203,13
1165,0.93,-0.33,-0.11,-0.31,-1.83,-2.32,409,299,221,275,200,13
1166,0.91,-0.35,-0.1,-1.16,-5.68,4.09,401,297,222,278,203,13
1167,0.93,-0.38,-0.11,3.66,-3.85,0.79,397,312,224,275,201,13
1168,0.94,-0.36,-0.14,-0.61,-3.78,-4.82,400,303,221,277,203,13
1169,0.92,-0.36,-0.12,0.37,-2.56,-2.99,400,299,227,281,202,13
1170,0.93,-0.35,-0.14,-0.12,-2.69,-4.15,404,300,220,274,202,13
1171,0.93,-0.35,-0.12,0.06,-3.23,-2.08,402,294,222,278,202,13
1172,0.93,-0.36,-0.13,1.04,-2.81,-3.23,402,300,226,275,202,13
1173,0.92,-0.35,-0.12,-0.24,-3.78,-2.44,393,298,224,278,197,13
1174,0.93,-0.34,-0.13,1.34,-2.01,-2.75,402,293,222,273,202,13
1175,0.92,-0.35,-0.12,0.24,-1.83,-2.14,401,303,221,276,203,13
1176,0.93,-0.35,-0.13,0.61,-2.62,-2.56,406,310,224,275,199,13
1177,0.94,-0.35,-0.12,0.18,-3.17,-2.26,403,302,224,276,201,13
1178,0.94,-0.34,-0.12,0.12,-2.99,-2.75,403,298,222,275,200,13
1179,0.93,-0.36,-0.09,-4.09,-2.08,-3.11,400,303,221,277,202,13
1180,0.93,-0.34,-0.15,-2.2,-10.25,-5.55,405,300,223,276,203,13
1181,0.96,-0.33,-0.15,-4.39,-9.4,-8.0,404,300,224,278,201,13
1182,0.93,-0.35,-0.16,-0.31,-3.91,-2.2,394,304,232,274,200,13
1183,0.83,-0.37,-0.15,-5.49,-6.16,-8.54,400,300,225,278,202,13
1184,0.93,-0.34,-0.15,1.16,-5.49,-5.25,397,304,226,275,202,13
1185,0.97,-0.32,-0.15,-4.88,-8.97,-1.16,402,295,223,274,202,13
1186,0.9,-0.33,-0.18,-11.72,-9.28,-9.09,396,298,223,276,200,13
1187,0.95,-0.33,-0.14,1.46,-5.19,-0.79,395,295,225,276,205,13
1188,0.94,-0.33,-0.14,-2.5,-4.15,-2.38,391,300,224,276,203,13
1189,0.93,-0.33,-0.16,-1.1,-2.5,-2.44,393,299,226,280,202,13
1190,0.95,-0.34,-0.15,2.81,-1.4,-1.22,395,299,223,284,203,13
1191,0.95,-0.35,-0.14,-1.28,-2.75,-4.94,390,298,225,276,202,13
1192,0.93,-0.35,-0.13,-1.71,-3.42,-2.62,388,301,222,277,201,13
1193,0.97,-0.34,-0.14,-0.61,-1.77,-5.25,391,294,224,276,201,13
1194,0.94,-0.34,-0.13,1.53,-4.64,-0.67,393,298,225,277,199,13
1195,0.97,-0.31,-0.15,-3.36,-5.13,-3.97,387,297,227,277,202,13
1196,0.93,-0.35,-0.12,-0.61,-1.89,-4.03,384,301,220,276,201,13
1197,0.94,-0.35,-0.14,1.22,-5.07,-2.56,386,300,222,278,199,13
1198,0.9,-0.32,-0.15,-0.98,0.79,-8.79,386,303,232,272,201,13
1199,0.91,-0.35,-0.12,5.8,1.53,-0.18,386,301,225,279,211,13
1200,0.95,-0.33,-0.14,1.46,-6.47,-3.05,383,307,230,278,203,13
1201,0.95,-0.34,-0.16,1.89,-3.54,-1.4,381,302,223,279,201,13
1202,0.92,-0.34,-0.13,0.06,-3.11,-2.75,380,296,222,278,201,13
1203,0.92,-0.34,-0.14,-1.65,-1.89,-3.05,381,300,223,278,201,13
1204,0.94,-0.34,-0.15,-1.4,-3.97,-2.2,377,302,225,273,199,13
1205,0.94,-0.32,-0.15,0.18,-2.87,-3.48,379,299,222,279,202,13
1206,0.95,-0.32,-0.15,0.67,-1.95,-3.05,380,300,225,275,201,13
1207,0.93,-0.33,-0.12,-0.12,-1.77,-1.71,379,297,225,278,201,13
1208,0.92,-0.33,-0.16,-0.37,-3.97,-2.2,381,301,225,275,201,13
1209,0.95,-0.33,-0.13,2.08,-2.2,-2.01,377,303,225,276,204,13
1210,0.93,-0.34,-0.15,2.38,-2.2,1.65,377,304,221,276,201,13
1211,0.9,-0.36,-0.17,4.46,-15.38,-2.87,376,300,226,284,203,13
1212,0.91,-0.35,-0.15,-2.69,-4.39,-1.34,381,304,223,279,203,13
1213,0.88,-0.37,-0.16,-2.69,-6.29,-0.67,376,297,221,278,201,13
1214,0.92,-0.37,-0.15,-0.18,-2.14,-2.32,371,304,225,277,201,13
1215,0.89,-0.36,-0.15,-3.05,0.49,-8.91,374,306,225,278,203,13
1216,0.91,-0.36,-0.13,1.22,-1.59,-1.16,371,303,224,279,242,13
1217,0.91,-0.35,-0.18,5.37,-3.48,-3.05,381,303,223,277,202,13
1218,0.92,-0.35,-0.17,-0.98,-3.36,-2.5,388,301,224,277,201,13
1219,0.9,-0.37,-0.16,0.79,-3.23,-4.82,388,304,227,274,198,13
1220,0.9,-0.35,-0.17,0.06,0.92,-6.53,388,305,223,278,202,13
1221,0.9,-0.35,-0.18,-0.37,-7.39,-2.5,390,302,227,278,199,13
1222,0.92,-0.34,-0.19,1.89,-4.33,0.79,386,305,227,280,203,13
1223,0.92,-0.34,-0.17,2.08,-1.22,-2.01,387,305,224,280,203,13
1224,0.92,-0.35,-0.19,-1.4,-3.11,-2.26,390,302,227,278,201,13
1225,0.92,-0.34,-0.17,0.98,-0.55,-2.69,390,304,224,282,204,13
1226,0.92,-0.32,-0.18,-0.98,-4.76,-3.3,386,302,225,278,203,13
1227,0.92,-0.35,-0.17,-0.24,2.2,-6.16,389,298,226,280,200,13
1228,0.91,-0.36,-0.13,1.59,-3.48,-9.09,387,299,224,280,204,13
1229,0.93,-0.33,-0.1,-2.69,-2.56,-14.71,386,301,224,278,205,13
1230,0.94,-0.29,-0.12,4.39,8.91,0.61,386,300,226,277,202,13
1231,0.95,-0.3,-0.08,0.85,-8.73,-4.27,387,301,223,279,202,13
1232,0.95,-0.29,-0.11,0.06,-6.65,-3.85,386,303,226,276,201,13
1233,0.95,-0.29,-0.12,0.12,-2.01,-2.14,387,298,226,279,202,13
1234,0.95,-0.29,-0.14,0.31,-3.42,-2.26,388,298,221,279,203,13
1235,0.96,-0.29,-0.17,1.34,-6.84,-1.95,389,304,221,280,203,13
1236,0.95,-0.3,-0.15,0.79,-2.93,-2.44,389,309,225,281,205,13
1237,0.95,-0.31,-0.13,0.12,-5.49,-1.53,392,304,226,278,204,13
1238,0.94,-0.32,-0.12,0.92,-3.66,-2.81,389,298,223,274,203,13
1239,0.94,-0.31,-0.14,-0.92,-3.54,-2.5,397,305,226,281,204,13
1240,0.94,-0.31,-0.12,0.24,-4.33,-2.69,391,300,224,280,214,13
1241,0.93,-0.31,-0.12,0.98,-1.77,-2.93,394,312,224,281,200,13
1242,0.94,-0.31,-0.13,0.06,-1.77,-2.56,390,296,228,279,202,13
1243,0.94,-0.3,-0.14,0.98,-3.11,-2.5,393,297,226,279,205,13
1244,0.95,-0.3,-0.15,-0.06,-3.17,-2.44,391,300,225,278,207,13
1245,0.94,-0.3,-0.14,0.98,-4.52,-2.56,390,306,228,280,202,13
1246,0.95,-0.31,-0.15,0.37,-3.42,-2.01,388,304,226,281,203,13
1247,0.94,-0.3,-0.14,0.79,-3.17,-3.17,392,303,227,287,203,13
1248,0.92,-0.3,-0.14,0.31,-0.67,-5.31,388,300,227,276,203,13
1249,0.94,-0.3,-0.13,-0.06,-3.54,-2.69,389,301,227,277,202,13
1250,0.94,-0.3,-0.14,-0.49,-4.03,-2.01,391,299,227,279,203,13
1251,0.94,-0.3,-0.14,0.67,-1.89,-2.62,391,306,227,282,206,13
1252,0.95,-0.31,-0.14,-0.18,-2.69,-2.2,392,300,228,280,203,13
1253,0.95,-0.31,-0.14,2.5,-3.85,-2.2,392,300,227,276,203,13
1254,0.94,-0.31,-0.13,-0.18,-3.23,-2.08,390,305,226,277,205,13
1255,0.94,-0.31,-0.13,0.49,-1.71,-1.4,392,305,227,280,204,13
1256,0.95,-0.31,-0.14,1.1,-2.75,-3.11,392,302,224,278,203,13
1257,0.94,-0.31,-0.15,-0.12,-2.75,-2.14,391,301,225,277,203,13
1258,0.93,-0.31,-0.14,0.43,-2.75,-2.2,389,303,223,282,204,13
1259,0.94,-0.3,-0.14,-0.49,-3.11,-2.38,392,304,226,278,203,13
1260,0.94,-0.33,-0.15,9.77,-1.53,11.66,393,302,225,275,204,13
1261,0.79,-0.42,-0.11,3.17,-10.99,1.1,391,301,227,279,200,13
1262,0.93,-0.45,-0.16,-4.33,-1.16,-6.84,389,303,223,281,218,13
1263,0.88,-0.45,-0.16,1.34,-0.61,-0.67,386,300,228,278,205,13
1264,0.85,-0.46,-0.16,-0.24,0.06,-5.68,390,303,227,277,205,13
1265,0.87,-0.44,-0.13,0.61,-5.31,-5.86,389,302,225,280,200,13
1266,0.93,-0.4,-0.14,-6.47,-3.05,-13.85,385,301,234,281,200,13
1267,0.98,-0.3,-0.18,-0.43,-5.13,-18.37,387,302,228,281,205,13
1268,0.92,-0.33,-0.2,4.64,3.42,-1.95,389,303,228,278,203,13
1269,0.91,-0.33,-0.18,1.83,-2.08,-2.5,388,300,227,279,203,13
1270,0.92,-0.34,-0.17,1.53,-2.93,-1.95,386,305,230,281,205,13
1271,0.94,-0.33,-0.16,0.67,-3.17,-2.32,389,297,224,276,204,13
1272,0.92,-0.33,-0.17,2.2,0.24,-2.01,390,301,229,281,201,13
1273,0.93,-0.33,-0.17,0.12,-3.23,-2.38,388,298,224,281,205,13
1274,0.94,-0.33,-0.16,2.56,-1.59,-2.38,389,305,228,276,203,13
1275,0.92,-0.33,-0.17,-0.55,-2.99,-2.44,389,306,230,280,206,13
1276,0.93,-0.34,-0.17,1.1,-3.54,-1.89,389,302,226,279,203,13
1277,0.93,-0.34,-0.17,0.67,-3.3,-2.56,388,303,236,292,202,13
1278,0.92,-0.34,-0.16,0.67,-3.72,-2.93,390,314,225,281,204,13
1279,0.93,-0.34,-0.18,0.43,-2.56,-2.69,388,305,225,278,206,13
1280,0.93,-0.33,-0.17,1.46,-3.36,-3.05,386,300,226,278,201,13
1281,0.92,-0.33,-0.17,1.1,-3.11,-2.81,385,302,225,279,200,13
1282,0.93,-0.34,-0.17,0.06,-2.81,-2.44,389,306,227,280,203,13
1283,0.93,-0.34,-0.17,1.53,-2.44,-3.05,387,307,226,280,203,13
1284,0.92,-0.33,-0.17,0.18,-2.69,-2.44,389,307,228,279,202,13
1285,0.92,-0.34,-0.18,0.55,-3.48,-2.38,384,302,226,272,205,13
1286,0.92,-0.35,-0.18,1.65,-4.64,-2.69,392,297,241,279,205,13
1287,0.92,-0.34,-0.18,0.73,-2.08,-3.36,390,302,227,280,206,13
1288,0.92,-0.34,-0.17,-1.34,-3.97,-2.62,391,306,224,284,207,13
1289,0.92,-0.34,-0.18,0.92,-1.59,-2.62,385,302,223,278,204,13
1290,0.91,-0.34,-0.17,-0.24,-1.1,-2.38,386,303,226,279,202,13
1291,0.93,-0.34,-0.17,1.1,-3.85,-1.89,390,302,238,280,205,13
1292,0.92,-0.34,-0.17,0.06,-2.62,-1.89,390,304,227,281,212,13
1293,0.93,-0.34,-0.18,0.0,-4.03,-4.03,391,308,225,279,205,13
1294,0.92,-0.34,-0.18,-0.98,-3.48,-2.62,393,299,226,282,204,13
1295,0.93,-0.34,-0.16,0.24,-4.03,-2.01,388,303,225,281,203,13
1296,0.92,-0.35,-0.18,0.79,-2.81,-2.38,390,302,224,280,204,13
1297,0.93,-0.35,-0.17,0.06,-2.99,-2.01,392,306,225,279,203,13
1298,0.92,-0.35,-0.17,0.98,-2.26,-2.2,393,306,226,281,200,13
1299,0.92,-0.35,-0.17,0.55,-2.26,-3.05,391,306,229,281,206,13
1300,0.92,-0.35,-0.17,-0.98,-3.23,-2.5,391,306,223,283,205,13
1301,0.93,-0.35,-0.16,0.06,-4.33,-1.77,391,306,225,279,206,13
1302,0.92,-0.36,-0.17,0.0,-3.36,-2.75,393,305,225,282,207,13
1303,0.93,-0.35,-0.16,1.34,-2.01,-3.11,389,303,229,279,204,13
1304,0.93,-0.34,-0.17,0.92,-3.48,-3.42,394,303,225,279,207,13
1305,0.92,-0.35,-0.17,0.37,-2.69,-2.14,396,306,229,282,202,13
1306,0.92,-0.35,-0.17,0.67,-2.38,-2.01,389,303,226,280,206,13
1307,0.92,-0.36,-0.15,-2.14,-4.27,-1.04,395,302,228,281,244,13
1308,0.92,-0.36,-0.17,-0.06,-4.15,-1.95,392,303,229,280,205,13
1309,0.92,-0.36,-0.17,-0.06,-3.23,-2.93,391,302,226,281,206,13
1310,0.92,-0.36,-0.17,-0.92,-4.03,-2.5,393,302,224,282,205,13
1311,0.92,-0.36,-0.18,0.12,-2.93,-2.81,384,307,226,281,207,13
1312,0.92,-0.36,-0.18,0.18,-3.91,-2.75,393,305,226,281,207,13
1313,0.92,-0.36,-0.18,0.85,-2.5,-2.38,390,300,224,282,204,13
1314,0.92,-0.36,-0.18,0.92,-2.32,-2.38,392,306,232,280,205,13
1315,0.92,-0.36,-0.19,-0.43,-3.11,-2.08,391,305,226,277,202,13
1316,0.91,-0.37,-0.18,0.12,-3.23,-1.83,394,306,223,279,205,13
1317,0.91,-0.36,-0.19,0.43,-4.21,-2.56,393,306,225,281,207,13
1318,0.92,-0.37,-0.17,1.1,-2.69,-3.05,393,305,226,282,206,13
1319,0.92,-0.37,-0.18,0.06,-2.14,-2.87,395,304,227,278,205,13
1320,0.92,-0.36,-0.18,0.18,-2.69,-2.2,390,306,224,286,207,13
1321,0.93,-0.36,-0.18,0.37,-3.48,-1.71,395,307,228,280,213,13
1322,0.92,-0.37,-0.18,0.12,-2.26,-2.01,393,306,229,278,205,13
1323,0.91,-0.37,-0.18,-0.18,-3.11,-1.65,390,308,227,283,204,13
1324,0.91,-0.37,-0.19,-0.12,-4.09,-2.38,391,307,226,279,207,13
1325,0.92,-0.37,-0.17,-1.34,-3.42,-0.98,391,304,222,279,212,13
1326,0.91,-0.37,-0.19,-0.73,-3.6,-1.95,386,305,226,284,203,13
1327,0.91,-0.37,-0.18,-0.61,-2.99,-2.81,394,307,226,278,206,13
1328,0.92,-0.37,-0.18,-0.31,-4.33,-1.83,392,303,240,281,205,13
1329,0.91,-0.37,-0.19,-0.12,-3.48,-1.71,395,306,227,280,205,13
1330,0.91,-0.36,-0.19,0.61,-1.16,-2.32,394,306,228,282,200,13
1331,0.92,-0.37,-0.18,0.98,-7.81,-3.11,388,300,227,281,205,13
1332,0.91,-0.38,-0.18,0.85,-2.62,-2.62,403,303,228,281,204,13
1333,0.91,-0.37,-0.18,0.12,-3.05,-2.81,392,306,229,280,208,13
1334,0.91,-0.37,-0.18,0.85,-2.2,-2.93,392,299,226,283,208,13
1335,0.91,-0.37,-0.18,0.24,-3.3,-2.5,392,304,224,278,206,13
1336,0.91,-0.37,-0.18,0.85,-2.2,-2.32,389,304,233,280,206,13
1337,0.91,-0.37,-0.19,0.37,-2.99,-1.77,391,305,224,282,207,13
1338,0.9,-0.38,-0.17,0.31,-2.62,-1.53,391,304,223,283,206,13
1339,0.9,-0.38,-0.18,0.37,-2.32,-2.01,391,303,226,277,205,13
1340,0.9,-0.38,-0.19,0.79,-2.56,-1.71,392,302,226,281,203,13
1341,0.9,-0.38,-0.2,1.59,-3.23,-2.56,388,303,225,281,202,13
1342,0.9,-0.39,-0.19,-0.49,-4.46,-2.81,390,309,226,282,202,13
1343,0.91,-0.38,-0.18,0.67,-2.5,-2.87,392,305,224,280,205,13
1344,0.91,-0.39,-0.19,0.0,-4.15,-1.83,392,307,227,281,206,13
1345,0.91,-0.39,-0.18,-0.06,-3.3,-2.2,391,306,221,279,205,13
1346,0.9,-0.39,-0.19,0.98,-2.87,-2.32,392,300,226,277,207,13
1347,0.9,-0.39,-0.18,0.37,-2.62,-2.2,388,303,226,283,205,13
1348,0.9,-0.38,-0.18,0.92,-3.17,-2.2,391,298,226,286,205,13
1349,0.89,-0.39,-0.19,-0.24,-3.11,-1.83,393,306,223,275,207,13
1350,0.9,-0.39,-0.19,0.55,-2.87,-3.11,396,310,226,280,203,13
1351,0.9,-0.38,-0.19,0.98,-3.3,-3.3,392,304,226,281,214,13
1352,0.9,-0.38,-0.19,0.73,-3.48,-1.89,391,305,224,279,207,13
1353,0.9,-0.39,-0.18,-0.06,-2.5,-2.08,394,308,229,281,206,13
1354,0.9,-0.39,-0.18,0.12,-2.38,-2.01,388,304,226,282,207,13
1355,0.9,-0.39,-0.19,0.55,-3.3,-2.56,394,302,226,280,205,13
1356,0.9,-0.39,-0.18,1.53,-2.75,-2.5,391,303,228,283,205,13
1357,0.9,-0.39,-0.19,0.67,-3.3,-2.08,391,305,227,285,203,13
1358,0.9,-0.39,-0.17,0.06,-0.85,-3.23,389,303,224,280,205,13
1359,0.9,-0.39,-0.18,0.18,-2.26,-2.69,392,304,224,286,208,13
1360,0.91,-0.39,-0.18,-0.43,-2.87,-1.83,391,304,228,279,208,13
1361,0.9,-0.39,-0.18,0.61,-2.5,-2.01,390,306,226,280,206,13
1362,0.89,-0.39,-0.19,0.73,-2.93,-1.71,390,308,228,283,209,13
1363,0.9,-0.4,-0.18,0.18,-2.08,-2.08,394,305,224,280,207,13
1364,0.89,-0.39,-0.19,-0.06,-2.81,-2.32,391,309,229,283,214,13
1365,0.9,-0.4,-0.19,-0.37,-3.6,-2.08,391,307,227,280,207,13
1366,0.9,-0.39,-0.21,1.1,-2.62,-2.81,392,305,228,283,204,13
1367,0.9,-0.39,-0.19,0.31,-3.05,-3.23,393,320,228,284,208,13
1368,0.91,-0.39,-0.2,0.55,-2.87,-3.23,388,307,224,281,206,13
1369,0.9,-0.39,-0.2,0.18,-2.93,-1.53,389,304,223,283,207,13
1370,0.9,-0.38,-0.2,1.1,-2.81,-2.62,390,299,226,284,205,13
1371,0.9,-0.39,-0.2,1.46,-2.99,-2.75,387,305,226,279,205,13
1372,0.9,-0.39,-0.19,0.61,-1.59,-2.69,393,309,227,281,205,13
1373,0.9,-0.39,-0.18,0.55,-2.81,-2.32,393,301,225,283,208,13
1374,0.9,-0.4,-0.18,-0.31,-3.3,-3.42,392,300,226,280,209,13
1375,0.91,-0.38,-0.18,0.67,-2.56,-3.11,391,306,226,280,206,13
1376,0.9,-0.38,-0.19,1.65,-2.93,-3.17,391,305,226,281,198,13
1377,0.9,-0.38,-0.19,-0.67,-3.23,-2.44,389,308,226,284,205,13
1378,0.9,-0.39,-0.2,1.71,-1.83,-1.89,389,303,229,280,208,13
1379,0.91,-0.38,-0.19,-1.53,-2.01,-3.11,391,307,228,283,204,13
1380,0.9,-0.39,-0.18,-0.98,-0.61,-0.73,387,307,228,279,206,13
1381,0.91,-0.38,-0.18,1.65,-1.95,-1.71,390,308,229,280,207,13
1382,0.89,-0.39,-0.18,2.5,-2.32,-1.95,392,309,229,280,229,13
1383,0.91,-0.38,-0.21,0.55,-1.89,-4.27,394,304,230,283,212,13
1384,0.88,-0.4,-0.17,2.01,-1.71,-2.56,389,300,226,281,206,13
1385,0.88,-0.4,-0.18,-4.15,-3.97,-6.47,390,299,229,293,205,13
1386,0.9,-0.38,-0.19,-1.65,-2.99,-2.93,394,303,229,282,208,13
1387,0.9,-0.38,-0.19,0.18,-3.78,-4.46,388,301,226,281,207,13
1388,0.89,-0.39,-0.19,0.49,-4.39,-0.98,391,310,225,281,203,13
1389,0.89,-0.39,-0.2,-0.24,-0.43,-4.64,393,304,229,279,236,13
1390,0.91,-0.38,-0.17,0.79,-2.81,-2.69,387,305,228,279,207,13
1391,0.9,-0.38,-0.18,2.56,-3.23,-3.97,391,307,227,278,206,13
1392,0.9,-0.35,-0.18,2.44,-3.6,-8.85,391,302,227,283,207,13
1393,0.91,-0.35,-0.1,-9.22,-11.54,-1.71,389,300,226,281,205,13
1394,0.96,-0.33,-0.11,5.98,-10.56,-2.56,389,305,228,280,207,13
1395,0.92,-0.36,-0.13,-5.07,-3.72,-1.34,390,308,240,277,207,13
1396,0.97,-0.33,-0.13,15.01,4.33,-6.59,386,308,226,285,208,13
1397,0.96,-0.28,-0.13,0.55,1.53,-4.88,389,304,227,280,204,13
1398,0.91,-0.31,-0.1,-1.22,-0.79,-6.53,392,304,226,284,208,13
1399,0.95,-0.29,-0.12,0.55,-2.75,-3.72,389,307,225,280,203,13
1400,0.94,-0.29,-0.11,-1.28,-5.43,0.43,387,298,229,281,208,13
1401,0.97,-0.29,-0.09,1.04,-2.75,-1.59,390,305,229,280,206,13
1402,0.96,-0.27,-0.1,2.14,-1.53,-1.77,387,308,229,281,205,13
1403,0.96,-0.27,-0.1,2.08,-3.42,-2.38,389,309,229,284,206,13
1404,0.98,-0.27,-0.1,2.08,-1.65,-2.44,388,310,227,284,206,13
1405,0.95,-0.27,-0.1,-0.55,-3.6,-2.32,387,302,227,284,207,13
1406,0.96,-0.27,-0.1,-2.38,-4.03,-2.69,384,302,225,281,208,13
1407,0.96,-0.26,-0.1,-0.43,-3.42,-2.56,385,306,226,282,206,13
1408,0.96,-0.28,-0.09,-3.48,-6.35,0.98,384,302,226,283,204,13
1409,0.92,-0.25,-0.11,5.43,-0.92,-0.24,382,307,229,284,217,13
1410,0.93,-0.28,-0.14,0.67,-1.65,-5.31,383,306,225,281,209,13
1411,0.96,-0.28,-0.14,0.85,-2.44,-2.32,386,306,230,279,207,13
1412,0.96,-0.26,-0.15,-1.95,-4.15,-2.01,381,306,225,281,206,13
1413,0.96,-0.27,-0.13,-0.73,-3.42,-2.26,381,309,228,282,204,13
1414,0.96,-0.28,-0.12,-0.12,-1.65,-1.59,386,307,229,281,209,13
1415,0.97,-0.28,-0.13,1.04,-2.75,-1.4,380,306,232,280,209,13
1416,0.95,-0.29,-0.14,1.53,-3.91,-1.1,384,309,229,279,206,13
1417,0.94,-0.28,-0.15,3.05,-5.49,-1.65,388,301,223,280,204,13
1418,0.94,-0.32,-0.14,-0.79,-1.83,-2.44,394,304,227,282,206,13
1419,0.94,-0.31,-0.12,-1.89,-3.97,-1.34,388,307,226,280,206,13
1420,0.94,-0.31,-0.14,0.49,-4.82,-2.99,391,305,229,282,209,13
1421,0.98,-0.28,-0.14,-2.08,-3.05,-4.27,395,300,227,282,209,13
1422,0.97,-0.29,-0.16,7.26,-9.46,6.29,394,304,230,282,208,13
1423,0.89,-0.37,-0.11,-0.73,-3.66,2.2,396,304,227,283,205,13
1424,0.96,-0.3,-0.12,7.2,-0.98,-6.71,397,306,224,282,243,13
1425,0.93,-0.33,-0.14,1.16,-1.59,-6.23,396,299,230,285,211,13
1426,0.88,-0.39,-0.13,5.43,1.28,3.72,395,301,228,285,210,13
1427,0.96,-0.4,-0.11,1.89,5.43,-13.18,393,301,227,284,214,13
1428,0.95,-0.37,-0.14,-2.14,-14.4,1.83,399,308,224,284,209,13
1429,0.91,-0.38,-0.17,-2.2,-1.34,-11.05,401,303,225,284,206,13
1430,0.93,-0.36,-0.13,3.42,-6.41,-3.54,398,299,225,280,206,13
1431,0.98,-0.37,-0.14,4.82,11.11,0.49,402,300,227,276,207,13
1432,0.9,-0.37,-0.09,1.65,2.99,-7.93,395,295,227,280,206,13
1433,0.92,-0.37,-0.07,-2.5,-2.93,0.18,399,296,223,281,207,13
1434,0.93,-0.37,-0.06,-1.59,-3.3,-2.14,396,298,224,280,207,13
1435,0.92,-0.37,-0.06,0.61,-3.17,-2.75,397,299,224,280,206,13
1436,0.93,-0.38,-0.04,-0.43,-4.82,-1.53,401,300,228,283,207,13
1437,0.92,-0.37,-0.05,0.79,-2.62,-2.5,398,302,228,281,209,13
1438,0.92,-0.38,-0.07,-2.38,-3.72,-2.2,400,299,224,281,206,13
1439,0.92,-0.39,-0.05,-1.53,-4.03,-2.56,396,299,230,282,208,13
1440,0.94,-0.37,-0.08,2.44,-1.77,-3.3,394,294,225,282,210,13
1441,0.94,-0.38,-0.03,-0.43,-1.22,-0.92,395,299,227,281,208,13
1442,0.93,-0.38,-0.03,-1.46,-4.64,-1.16,394,301,232,286,213,13
1443,0.91,-0.39,-0.06,1.22,-3.23,-3.17,394,295,226,281,207,13
1444,0.92,-0.38,-0.06,2.44,-2.87,-3.23,391,299,228,279,208,13
1445,0.93,-0.38,-0.06,-0.12,-6.16,-1.59,393,299,222,284,209,13
1446,0.91,-0.38,-0.06,0.73,-2.32,-0.37,392,299,224,280,203,13
1447,0.92,-0.38,-0.06,0.92,-0.85,-2.44,395,304,226,282,208,13
1448,0.93,-0.38,-0.05,1.53,-2.5,-1.89,389,299,225,282,205,13
1449,0.92,-0.39,-0.06,0.18,-3.42,-3.85,387,298,224,282,209,13
1450,0.92,-0.38,-0.07,0.12,-3.66,-2.99,390,301,225,281,210,13
1451,0.93,-0.38,-0.04,0.92,-2.93,-1.65,392,300,225,279,208,13
1452,0.93,-0.39,-0.05,2.62,-2.26,-2.62,389,303,226,281,209,13
1453,0.92,-0.37,-0.06,0.49,-1.53,-2.75,387,302,225,280,205,13
1454,0.93,-0.38,-0.08,2.38,-5.19,-2.32,387,301,232,281,209,13
1455,0.92,-0.38,-0.05,0.12,-3.97,-2.32,385,300,226,280,216,13
1456,0.92,-0.38,-0.04,0.31,-2.14,-1.77,384,300,226,282,208,13
1457,0.92,-0.39,-0.05,1.04,-2.08,-2.26,389,303,225,281,208,13
1458,0.91,-0.39,-0.06,2.99,-2.5,-3.05,386,300,225,280,206,13
1459,0.91,-0.39,-0.04,1.89,0.31,-2.32,386,301,227,281,208,13
1460,0.92,-0.39,-0.05,0.12,-3.23,-2.87,386,300,224,281,207,13
1461,0.92,-0.39,-0.03,-0.24,-2.81,-1.59,385,297,227,282,204,13
1462,0.92,-0.39,-0.04,0.73,-2.26,-2.08,382,301,220,286,211,13
1463,0.93,-0.39,-0.04,0.18,-2.81,-3.17,380,304,229,281,207,13
1464,0.91,-0.38,-0.05,0.61,-4.09,-2.81,387,297,227,282,208,13
1465,0.92,-0.39,-0.06,-0.73,-4.21,-1.83,387,304,228,284,207,13
1466,0.92,-0.39,-0.05,0.61,-2.38,-2.32,385,305,226,285,208,13
1467,0.92,-0.38,-0.06,0.98,-2.5,-3.11,387,302,228,283,208,13
1468,0.91,-0.38,-0.06,0.31,-3.66,-0.85,387,302,226,284,209,13
1469,0.91,-0.39,-0.05,0.0,-2.56,-2.2,387,301,229,284,207,13
1470,0.92,-0.39,-0.04,-0.67,-2.56,-1.53,383,306,225,279,207,13
1471,0.9,-0.4,-0.06,-0.43,-5.25,-1.83,389,305,229,282,209,13
1472,0.92,-0.39,-0.06,3.17,-1.4,-3.85,387,305,223,285,206,13
1473,0.92,-0.39,-0.06,0.61,-3.11,-1.28,384,315,226,285,211,13
1474,0.93,-0.39,-0.05,-0.18,-3.23,-1.28,383,307,232,281,204,13
1475,0.92,-0.39,-0.06,0.24,-3.11,-2.2,385,303,228,284,209,13
1476,0.93,-0.4,-0.05,-0.73,-4.76,-2.14,387,302,229,281,210,13
1477,0.92,-0.4,-0.04,0.67,-3.23,-2.44,383,302,227,289,206,13
1478,0.92,-0.39,-0.05,0.37,-3.11,-2.99,385,303,227,281,213,13
1479,1.1,-0.38,-0.18,2.69,-13.79,13.79,376,298,227,283,210,13
1480,0.91,-0.39,-0.08,-6.47,-2.01,3.54,382,300,233,285,207,13
1481,0.93,-0.38,-0.05,0.18,-2.75,-2.56,379,302,227,282,207,13
1482,0.94,-0.37,-0.06,2.2,-2.26,-0.37,376,302,225,283,206,13
1483,0.93,-0.37,-0.06,-0.67,-4.09,-0.55,379,299,229,282,208,13
1484,0.94,-0.38,-0.08,-4.46,-8.12,-0.98,378,298,228,284,209,13
1485,0.92,-0.38,-0.07,-1.22,-2.2,-1.95,377,318,225,282,209,13
1486,0.93,-0.38,-0.08,-0.12,-2.01,-1.95,370,305,226,279,208,13
1487,0.92,-0.39,-0.06,-1.04,-3.05,-0.73,372,316,227,282,208,13
1488,0.9,-0.4,-0.09,-2.08,-1.16,-3.17,366,302,227,282,206,13
1489,0.92,-0.39,-0.08,2.81,-1.28,-3.48,370,304,226,282,207,13
1490,0.92,-0.4,-0.07,0.55,-1.53,-2.93,360,299,228,284,203,13
1491,0.91,-0.4,-0.07,1.04,-2.62,-2.01,355,303,227,281,225,13
1492,0.92,-0.41,-0.09,0.73,-3.3,-3.3,353,304,229,282,211,13
1493,0.92,-0.39,-0.09,-0.55,-2.69,-2.81,353,305,229,283,208,13
1494,0.92,-0.39,-0.08,-0.24,-3.36,-2.32,348,302,227,283,208,13
1495,0.93,-0.39,-0.08,0.55,-3.23,-4.7,350,309,225,281,205,13
1496,0.93,-0.4,-0.07,-1.16,-3.6,-0.55,354,300,227,284,210,13
1497,0.92,-0.4,-0.08,-1.53,-4.33,-1.53,354,308,227,284,211,13
1498,0.91,-0.38,-0.08,-1.4,0.73,-4.39,348,306,227,281,207,13
1499,0.93,-0.38,-0.08,1.89,-3.54,-3.3,353,308,229,285,210,13
1500,0.93,-0.39,-0.07,0.43,-2.93,-2.93,353,305,228,284,208,13
1501,0.93,-0.38,-0.08,-0.12,-4.03,-1.95,352,303,227,280,205,13
1502,0.91,-0.38,-0.07,0.98,-2.44,-2.56,355,305,227,283,209,13
1503,0.92,-0.38,-0.08,0.49,-5.31,-1.71,356,307,228,291,210,13
1504,0.89,-0.38,-0.1,3.48,-4.64,-0.18,368,302,225,279,211,13
1505,0.92,-0.4,-0.1,2.81,-4.52,-2.5,365,303,233,284,209,13
1506,0.91,-0.39,-0.13,11.84,-2.38,3.72,371,300,229,281,210,13
1507,0.92,-0.42,-0.09,0.31,-2.69,-0.98,386,306,224,282,239,13
1508,0.91,-0.41,-0.1,4.21,-6.65,-3.6,393,308,227,285,209,13
1509,0.92,-0.4,-0.1,-0.06,-2.87,-1.95,392,308,227,281,208,13
1510,0.9,-0.41,-0.11,1.53,-3.72,-2.75,391,307,229,283,211,13
1511,0.96,-0.39,-0.09,5.13,-5.25,-6.59,391,303,227,282,207,13
1512,0.9,-0.4,-0.07,3.3,-1.4,-4.03,390,301,228,284,210,13
1513,0.93,-0.4,-0.04,0.12,-3.78,-2.93,388,305,227,283,209,13
1514,0.92,-0.41,-0.05,-0.55,-3.72,-2.26,387,308,230,282,211,13
1515,0.9,-0.4,-0.04,4.7,-4.46,-3.23,384,310,231,284,207,13
1516,0.92,-0.4,-0.05,0.61,-1.77,-3.42,385,302,232,283,209,13
1517,0.93,-0.4,-0.08,-0.31,-5.25,-3.78,382,308,229,285,210,13
1518,0.9,-0.42,-0.05,2.38,-2.81,-2.81,383,310,225,282,211,13
1519,0.92,-0.42,-0.05,-0.49,-3.66,-3.11,387,309,229,283,208,13
1520,0.93,-0.43,-0.06,-0.37,-4.21,-1.83,386,302,230,284,211,13
1521,0.91,-0.42,-0.05,-0.12,-2.38,-2.69,385,307,226,281,208,13
1522,0.92,-0.41,-0.06,-0.55,-5.62,-1.71,381,307,227,282,208,13
1523,0.91,-0.41,-0.07,-0.98,-3.66,-1.83,385,308,227,285,208,13
1524,0.91,-0.41,-0.05,1.4,-1.71,-1.71,385,311,230,281,210,13
1525,0.9,-0.41,-0.06,0.18,-3.17,-2.81,387,312,228,284,209,13
1526,0.91,-0.43,-0.07,-0.31,-2.32,0.18,383,309,227,283,210,13
1527,0.92,-0.43,-0.06,-1.1,-0.18,-3.72,385,318,232,284,220,13
1528,0.91,-0.42,-0.06,1.71,-1.22,-3.23,384,311,232,281,208,13
1529,0.92,-0.41,-0.05,1.89,-2.69,-2.62,386,310,229,284,208,13
1530,0.9,-0.41,-0.03,-1.28,-2.87,-2.01,387,304,228,284,221,13
1531,0.89,-0.41,-0.05,-1.4,-3.72,-1.95,384,311,231,285,211,13
1532,0.9,-0.42,-0.09,0.37,-2.32,-4.46,382,312,227,284,210,13
1533,0.9,-0.42,-0.05,2.81,-2.75,-1.83,388,306,226,286,238,13
1534,0.92,-0.41,-0.06,0.67,-2.87,-2.69,386,306,232,282,211,13
1535,0.91,-0.41,-0.06,0.12,-2.44,-2.75,389,312,228,282,207,13
1536,0.9,-0.41,-0.04,-0.31,-2.08,-2.99,387,308,228,284,210,13
1537,0.92,-0.42,-0.06,-1.04,-4.09,-2.26,384,309,231,287,209,13
1538,0.9,-0.42,-0.05,-1.46,-3.91,-1.34,383,305,230,286,210,13
1539,0.91,-0.41,-0.06,0.31,-4.94,-1.77,381,307,228,283,206,13
1540,0.92,-0.41,-0.04,-4.09,-3.48,6.1,379,309,229,294,211,13
1541,0.92,-0.41,-0.05,-0.43,-3.72,0.0,384,311,231,283,210,13
1542,0.9,-0.42,-0.06,-1.16,-3.48,-1.71,385,313,232,295,209,13
1543,0.91,-0.42,-0.05,-1.1,-4.33,-1.71,386,303,230,285,212,13
1544,0.91,-0.42,-0.06,0.73,-2.44,-1.95,382,308,228,288,209,13
1545,0.91,-0.42,-0.04,-0.55,-3.66,-2.93,384,311,231,283,209,13
1546,0.91,-0.42,-0.05,0.79,-3.42,-3.05,384,305,230,294,210,13
1547,0.92,-0.42,-0.06,0.12,-2.32,-2.26,384,309,231,287,210,13
1548,0.91,-0.42,-0.04,0.43,-2.32,-1.95,384,311,228,284,211,13
1549,0.92,-0.42,-0.06,0.18,-2.62,-2.08,384,309,229,287,211,13
1550,0.9,-0.42,-0.04,-0.06,-3.05,-1.28,383,309,230,284,210,13
1551,0.91,-0.43,-0.04,-0.24,-1.59,-1.95,381,306,232,284,209,13
1552,0.91,-0.42,-0.06,0.55,-3.17,-2.01,381,309,230,286,213,13
1553,0.91,-0.42,-0.05,0.12,-2.87,-2.32,382,312,228,283,211,13
1554,0.91,-0.43,-0.04,-0.31,-3.3,-2.01,378,311,230,284,222,13
1555,0.91,-0.42,-0.05,2.26,-2.14,-2.99,384,310,232,285,207,13
1556,0.9,-0.42,-0.05,2.38,-2.32,-2.62,383,310,233,287,211,13
1557,0.9,-0.43,-0.06,1.65,-2.5,-4.58,379,312,229,286,211,13
1558,0.9,-0.42,-0.07,0.92,-3.3,-2.44,382,311,230,286,210,13
1559,0.91,-0.42,-0.05,1.16,-2.08,-2.2,384,309,230,282,207,13
1560,0.9,-0.42,-0.05,-0.43,-3.17,-1.77,387,313,231,285,208,13
1561,0.91,-0.42,-0.06,0.37,-4.33,-2.69,383,305,229,285,211,13
1562,0.9,-0.42,-0.06,0.24,-3.11,-3.11,378,309,229,287,211,13
1563,0.91,-0.42,-0.05,-0.73,-3.78,-1.83,380,312,230,286,209,13
1564,0.92,-0.42,-0.06,1.34,-2.56,-3.66,379,317,227,284,208,13
1565,0.91,-0.42,-0.05,1.4,-2.69,-2.01,383,305,230,283,212,13
1566,0.92,-0.42,-0.07,-0.49,-2.5,-2.99,379,309,232,284,211,13
1567,0.91,-0.43,-0.05,3.05,-1.34,-2.26,385,310,233,283,214,13
1568,0.91,-0.42,-0.06,-1.1,-3.17,-1.89,380,307,231,286,208,13
1569,0.9,-0.42,-0.07,0.49,-2.75,-3.72,384,310,230,281,210,13
1570,0.91,-0.42,-0.06,0.0,-3.11,-2.75,383,314,229,288,209,13
1571,0.9,-0.42,-0.04,-2.2,-3.36,-1.83,382,313,229,287,209,13
1572,0.9,-0.42,-0.06,1.34,-2.32,-1.83,378,311,232,284,208,13
1573,0.91,-0.42,-0.06,-0.85,-1.77,-2.87,380,312,228,281,208,13
1574,0.9,-0.42,-0.07,0.31,-2.56,-4.09,383,311,227,284,209,13
1575,0.9,-0.42,-0.06,-0.24,-2.01,-2.14,385,310,233,284,209,13
1576,0.91,-0.42,-0.05,0.18,-2.87,-2.38,383,315,233,291,213,13
1577,0.91,-0.41,-0.06,0.12,-1.65,-2.32,377,312,231,290,209,13
1578,0.91,-0.43,-0.06,-1.4,-4.64,-1.95,377,312,233,288,211,13
1579,0.89,-0.42,-0.05,-0.24,-2.87,-1.46,379,312,229,284,209,13
1580,0.9,-0.42,-0.07,0.18,-3.42,-3.05,379,312,230,284,211,13
1581,0.9,-0.42,-0.05,0.85,-2.62,-2.14,381,316,233,282,205,13
1582,0.89,-0.42,-0.04,0.24,-2.87,-3.05,376,313,232,283,209,13
1583,0.9,-0.42,-0.06,0.31,-3.11,-2.81,381,318,230,284,210,13
1584,0.91,-0.42,-0.07,-1.4,-3.05,-2.81,378,312,235,285,210,13
1585,0.91,-0.42,-0.06,-0.31,-3.3,-2.32,379,315,230,283,209,13
1586,0.91,-0.42,-0.06,0.92,-2.26,-2.56,375,317,233,284,205,13
1587,0.9,-0.42,-0.06,0.43,-3.23,-1.53,381,317,233,287,209,13
1588,0.9,-0.42,-0.06,0.31,-2.81,-2.32,377,314,230,286,208,13
1589,0.9,-0.42,-0.05,0.55,-3.23,-2.38,380,317,231,285,212,13
1590,0.91,-0.42,-0.04,-0.67,-3.3,-2.75,376,310,232,286,208,13
1591,0.9,-0.43,-0.04,0.06,-3.11,-1.65,373,312,237,284,210,13
1592,0.91,-0.42,-0.05,-0.67,-2.32,-3.05,374,321,232,285,210,13
1593,0.91,-0.42,-0.06,0.31,-3.23,-2.2,378,317,235,292,211,13
1594,0.91,-0.42,-0.06,0.24,-3.23,-1.46,384,312,230,280,211,13
1595,0.91,-0.42,-0.06,0.18,-2.38,-2.69,378,316,234,289,210,13
1596,0.91,-0.42,-0.08,0.43,-3.3,-2.5,376,313,229,284,207,13
1597,0.9,-0.42,-0.06,1.16,-2.14,-2.69,375,314,231,283,210,13
1598,0.92,-0.42,-0.06,1.04,-2.62,-3.11,376,312,236,286,212,13
1599,0.9,-0.42,-0.05,-0.37,-4.7,-1.53,378,309,230,284,211,13
1600,0.91,-0.42,-0.06,0.55,-2.62,-2.99,377,315,235,283,209,13
1601,0.9,-0.41,-0.07,0.67,-3.48,-1.95,369,316,234,286,210,13
1602,0.91,-0.41,-0.06,0.18,-2.93,-2.44,368,314,232,287,208,13
1603,0.91,-0.41,-0.04,0.0,-3.66,-1.04,374,311,232,283,210,13
1604,0.92,-0.42,-0.07,2.62,-6.47,-1.46,374,311,235,285,210,13
1605,0.9,-0.43,-0.02,-2.87,0.67,-1.46,378,313,230,283,212,13
1606,0.9,-0.44,-0.06,-2.08,-1.59,-2.87,385,311,231,286,213,13
1607,0.92,-0.43,-0.07,-3.17,-16.66,-7.26,388,312,232,285,211,13
1608,0.92,-0.38,-0.13,-7.57,-4.64,-8.24,390,311,232,284,213,13
1609,0.92,-0.37,-0.14,5.31,2.99,-2.38,386,314,234,283,212,13
1610,0.93,-0.37,-0.11,-5.07,-4.09,-1.04,391,313,245,282,213,13
1611,0.91,-0.38,-0.11,-5.19,-5.74,-0.37,391,313,233,286,209,13
1612,0.94,-0.38,-0.05,-6.9,-6.35,-0.73,385,315,233,284,214,13
1613,0.92,-0.38,-0.13,-0.12,-4.03,-0.98,386,313,235,287,213,13
1614,0.93,-0.38,-0.13,3.3,-3.36,-2.38,388,312,235,283,214,13
1615,0.92,-0.38,-0.12,1.59,-3.11,-2.62,385,316,235,295,211,13
1616,0.91,-0.38,-0.12,0.55,-2.32,-2.44,387,314,234,285,210,13
1617,0.91,-0.38,-0.13,-0.55,-3.72,-1.34,385,316,235,285,209,13
1618,0.91,-0.38,-0.12,-0.24,-0.79,-2.69,387,314,233,284,208,13
1619,0.72,-0.72,0.13,-1.89,3.97,16.05,235,280,193,275,389,13
1620,0.39,-0.91,0.04,-28.2,-27.83,-5.25,228,279,194,277,392,13
1621,0.61,-0.75,0.25,17.52,15.93,-8.48,236,284,194,276,391,13
1622,0.6,-0.79,0.0,5.86,-1.59,-1.71,232,282,198,278,390,13
1623,0.56,-0.82,0.12,3.23,0.73,6.16,230,286,200,280,388,13
1624,0.6,-0.78,0.13,3.3,-3.91,-3.72,221,284,196,277,397,13
1625,0.6,-0.75,0.1,5.74,-4.46,-3.91,227,284,199,280,398,13
1626,0.54,-0.8,0.14,-6.96,-4.33,-2.87,233,287,197,271,399,13
1627,0.7,-0.73,0.09,12.88,-20.75,-11.66,230,289,198,280,397,13
1628,0.68,-0.73,0.13,0.98,-2.99,-4.7,229,284,198,278,395,13
1629,0.67,-0.74,0.15,-1.1,-2.87,-4.09,232,287,199,273,400,13
1630,0.69,-0.73,0.14,6.77,-1.71,-5.31,239,292,199,281,402,13
1631,0.67,-0.73,0.17,1.22,-4.03,-3.72,239,291,198,280,402,13
1632,0.66,-0.72,0.16,-1.46,-1.59,-3.85,232,291,200,278,394,13
1633,0.74,-0.68,0.18,3.85,3.23,-6.23,234,292,199,281,391,13
1634,0.71,-0.72,0.25,19.59,-15.2,21.97,232,286,202,279,395,13
1635,0.65,-0.68,0.25,7.08,1.16,-6.65,244,290,201,280,393,13
1636,0.67,-0.69,0.29,1.22,-0.79,-3.54,233,292,201,279,402,13
1637,0.67,-0.68,0.32,4.82,-5.25,1.95,233,290,204,280,407,13
1638,0.66,-0.68,0.36,2.38,-2.56,-5.43,233,291,202,276,407,13
1639,0.65,-0.67,0.32,1.34,-0.49,-3.72,233,290,204,281,408,13
1640,0.66,-0.67,0.37,-2.69,-5.25,-2.81,237,290,202,281,407,13
1641,0.64,-0.69,0.36,-3.11,-3.23,-2.69,236,292,203,278,405,13
1642,0.65,-0.64,0.34,9.09,-0.37,-2.62,234,292,204,292,409,13
1643,0.68,-0.67,0.34,3.6,-5.86,-2.93,234,294,201,284,406,13
1644,0.65,-0.68,0.35,5.49,-0.92,-1.22,234,297,203,283,414,13
1645,0.66,-0.67,0.34,-0.43,-2.38,-1.83,234,294,203,287,411,13
1646,0.66,-0.67,0.35,2.44,-3.3,-2.56,237,294,208,282,410,13
1647,0.66,-0.67,0.34,0.92,-2.5,-2.32,232,295,203,288,406,13
1648,0.68,-0.67,0.32,9.64,-9.64,6.47,238,294,206,290,404,13
1649,0.63,-0.69,0.34,-0.18,-1.53,-3.48,232,295,206,289,409,13
1650,0.63,-0.69,0.36,-1.1,-0.92,-3.97,234,301,204,284,406,13
1651,0.66,-0.69,0.36,0.37,-2.14,-3.54,235,297,210,286,407,13
1652,0.65,-0.69,0.34,0.37,-4.15,-4.09,236,297,204,290,405,13
1653,0.65,-0.68,0.37,2.87,-3.42,-2.99,239,298,207,289,404,13
1654,0.66,-0.67,0.37,1.46,-5.43,-2.38,239,298,208,288,403,13
1655,0.67,-0.68,0.34,1.4,-2.99,-2.26,236,295,207,287,405,13
1656,0.66,-0.68,0.35,-2.56,-4.15,-2.08,235,298,208,289,405,13
1657,0.64,-0.69,0.36,-3.72,-1.28,-1.95,236,297,204,286,404,13
1658,0.64,-0.69,0.34,-0.31,-2.26,-2.56,237,302,205,283,395,13
1659,0.63,-0.7,0.34,1.04,-1.22,-3.05,239,297,208,289,397,13
1660,0.64,-0.7,0.34,-0.06,-2.56,-1.89,239,300,206,288,398,13
1661,0.64,-0.69,0.33,1.16,-4.03,-2.2,239,297,204,287,396,13
1662,0.64,-0.7,0.34,-0.61,-3.36,-2.38,237,297,206,288,401,13
1663,0.63,-0.7,0.34,0.79,-2.87,-2.56,237,297,205,290,406,13
1664,0.64,-0.7,0.33,1.34,-3.23,-2.75,238,298,206,289,403,13
1665,0.64,-0.7,0.34,-0.55,-2.81,-2.93,238,297,210,293,400,13
1666,0.64,-0.7,0.33,0.49,-3.78,-2.99,237,299,206,284,402,13
1667,0.65,-0.7,0.34,0.31,-3.66,-3.85,240,305,207,293,403,13
1668,0.64,-0.7,0.34,-0.55,-2.38,-2.26,240,299,209,295,403,13
1669,0.64,-0.69,0.35,0.43,-2.87,-1.77,238,297,210,290,402,13
1670,0.63,-0.71,0.36,-1.16,-1.59,-3.11,241,299,204,289,403,13
1671,0.64,-0.69,0.34,-14.28,-2.38,-2.38,239,299,207,289,403,13
1672,0.64,-0.7,0.35,1.16,-2.93,-2.08,238,298,215,291,405,13
1673,0.63,-0.7,0.35,-0.85,-2.75,-3.05,239,296,209,293,404,13
1674,0.65,-0.7,0.35,-1.59,-4.09,-2.81,238,300,207,295,401,13
1675,0.64,-0.7,0.33,2.32,-2.38,-3.36,238,298,209,293,403,13
1676,0.64,-0.71,0.35,-3.42,-4.52,-2.62,238,293,207,291,402,13
1677,0.64,-0.7,0.33,1.53,-2.75,-3.11,237,300,210,292,400,13
1678,0.66,-0.71,0.32,-0.49,3.72,-2.01,240,299,206,289,403,13
1679,0.63,-0.7,0.36,2.38,-2.2,-3.11,242,301,208,290,402,13
1680,0.64,-0.69,0.36,0.18,-3.3,-2.32,241,299,207,294,406,13
1681,0.63,-0.69,0.36,2.38,-2.44,-2.56,241,310,206,296,402,13
1682,0.63,-0.69,0.37,0.67,-2.26,-2.5,238,300,207,295,399,13
1683,0.62,-0.71,0.39,-6.71,-3.36,-0.37,236,299,213,291,402,13
1684,0.62,-0.7,0.37,4.7,-3.54,-2.87,241,300,207,290,400,13
1685,0.62,-0.7,0.36,-2.56,-3.78,-2.81,237,302,211,288,398,13
1686,0.61,-0.7,0.37,-1.65,-1.65,-4.03,239,300,208,289,396,13
1687,0.63,-0.67,0.31,9.4,-1.04,0.12,248,300,208,290,393,13
1688,0.53,-0.72,0.38,12.51,1.1,-5.86,250,299,209,287,392,13
1689,0.8,-0.76,0.19,-8.36,-13.18,-7.39,234,302,206,286,391,13
1690,0.68,-0.71,0.26,5.19,-3.42,-2.2,238,293,205,286,394,13
1691,0.65,-0.69,0.29,4.58,1.95,-3.6,274,296,204,295,393,13
1692,0.66,-0.66,0.36,6.1,-2.26,-1.59,240,299,207,292,390,13
1693,0.65,-0.67,0.39,10.93,-3.23,3.6,239,298,206,292,389,13
1694,0.62,-0.69,0.36,0.92,-1.71,-1.04,241,297,211,291,383,13
1695,0.61,-0.71,0.34,-11.05,-0.79,-0.67,238,300,205,293,382,13
1696,0.61,-0.7,0.38,0.92,-1.28,-4.94,238,298,211,291,382,13
1697,0.6,-0.7,0.39,8.61,-4.94,-0.49,277,299,209,290,382,13
1698,0.61,-0.7,0.38,-3.54,-3.85,-2.62,240,300,208,290,381,13
1699,0.61,-0.7,0.39,-0.98,-4.21,-2.14,240,297,207,291,382,13
1700,0.62,-0.71,0.37,3.3,-3.42,-4.58,235,300,210,291,383,13
1701,0.62,-0.68,0.39,-11.47,2.69,2.75,242,299,211,294,384,13
1702,0.61,-0.71,0.38,5.43,-3.23,-3.17,242,304,210,293,384,13
1703,0.61,-0.69,0.39,1.95,-2.08,-3.66,242,302,211,292,385,13
1704,0.62,-0.69,0.41,-1.53,-4.58,-1.34,254,302,211,291,382,13
1705,0.62,-0.69,0.42,5.62,-1.16,-3.42,238,302,209,305,382,13
1706,0.61,-0.68,0.42,1.16,-1.59,-2.99,244,300,211,287,381,13
1707,0.62,-0.69,0.42,0.73,-2.62,-2.62,244,307,209,289,381,13
1708,0.6,-0.68,0.42,-2.62,-2.2,-2.5,238,304,210,291,389,13
1709,0.61,-0.69,0.43,-0.67,-1.83,-2.26,232,302,206,296,388,13
1710,0.6,-0.68,0.4,4.09,-3.48,-2.56,243,304,212,292,389,13
1711,0.6,-0.69,0.42,-0.55,-2.69,-1.71,243,301,210,293,386,13
1712,0.62,-0.69,0.41,-0.24,-3.54,-2.75,241,303,215,291,390,13
1713,0.62,-0.68,0.41,3.6,-2.75,-2.56,243,302,211,290,396,13
1714,0.61,-0.67,0.44,3.97,-2.93,-2.26,247,302,213,292,385,13
1715,0.62,-0.67,0.44,2.26,-2.32,-3.17,240,303,212,295,392,13
1716,0.62,-0.67,0.44,1.34,-2.93,-2.62,248,304,211,294,390,13
1717,0.6,-0.67,0.43,-0.98,-2.81,-2.5,261,302,213,288,391,13
1718,0.61,-0.68,0.43,-1.34,-2.75,-1.71,240,303,209,292,387,13
1719,0.61,-0.68,0.42,-1.34,-2.26,-3.36,245,310,212,292,386,13
1720,0.61,-0.68,0.42,1.04,-2.81,-2.75,240,303,208,296,391,13
1721,0.61,-0.67,0.4,1.1,-3.42,-3.11,245,302,211,296,386,13
1722,0.61,-0.68,0.42,-0.31,-2.01,-2.87,242,305,211,292,387,13
1723,0.61,-0.7,0.44,-2.32,-3.17,-2.26,240,305,211,293,388,13
1724,0.62,-0.68,0.41,1.46,-2.38,-2.44,243,298,214,295,389,13
1725,0.61,-0.68,0.42,1.95,-2.14,-2.87,243,301,211,295,388,13
1726,0.6,-0.67,0.43,0.06,-2.62,-2.26,239,304,212,297,390,13
1727,0.61,-0.68,0.42,1.77,-3.42,-2.99,242,304,208,301,389,13
1728,0.61,-0.68,0.43,1.77,-3.42,-2.87,243,303,213,294,388,13
1729,0.63,-0.66,0.42,5.43,-2.5,-2.69,248,304,212,304,391,13
1730,0.62,-0.68,0.41,1.95,-2.14,-3.05,242,304,209,291,387,13
1731,0.62,-0.68,0.41,0.43,-3.17,-2.99,237,305,210,290,390,13
1732,0.6,-0.67,0.42,-2.01,-2.32,-2.32,243,304,214,298,388,13
1733,0.62,-0.67,0.43,0.0,-1.83,-2.69,243,304,211,291,387,13
1734,0.61,-0.69,0.43,-1.04,-2.08,-2.75,240,304,213,288,388,13
1735,0.6,-0.69,0.41,-1.04,-4.76,-2.01,242,303,214,293,390,13
1736,0.61,-0.68,0.42,1.53,-2.69,-2.08,247,303,213,296,388,13
1737,0.62,-0.69,0.41,2.62,-2.56,-2.62,243,303,215,296,391,13
1738,0.62,-0.68,0.42,-0.98,-2.62,-2.38,243,306,213,295,391,13
1739,0.61,-0.69,0.43,-2.01,-3.11,-2.32,243,301,210,297,387,13
1740,0.61,-0.69,0.42,0.43,-3.05,-3.05,243,304,211,295,390,13
1741,0.61,-0.69,0.41,1.4,-3.3,-2.26,251,304,210,294,388,13
1742,0.61,-0.7,0.48,3.97,-0.98,4.39,242,304,213,295,390,13
1743,0.6,-0.69,0.5,6.1,19.47,2.81,243,305,214,295,389,13
1744,0.51,-0.77,0.45,14.4,-1.53,-4.7,243,306,215,297,390,13
1745,0.53,-0.7,0.52,2.08,-4.15,-1.77,244,304,213,305,390,13
1746,0.54,-0.7,0.5,2.01,-4.15,-2.56,240,301,211,291,390,13
1747,0.52,-0.7,0.49,-1.77,-2.26,-2.26,240,306,213,290,389,13
1748,0.53,-0.7,0.49,0.06,-1.89,-2.75,243,303,210,295,389,13
1749,0.64,-0.67,0.46,-4.46,-12.02,-11.78,245,305,215,299,384,13
1750,0.57,-0.67,0.46,-0.85,-3.17,7.75,242,304,215,299,388,13
1751,0.59,-0.7,0.41,1.89,0.18,-4.03,245,301,214,290,387,13
1752,0.55,-0.71,0.48,2.93,0.0,-2.44,244,306,211,293,385,13
1753,0.58,-0.71,0.45,1.46,-5.55,-2.99,246,307,212,294,388,13
1754,0.56,-0.71,0.41,2.87,-3.36,-2.93,241,305,214,298,389,13
1755,0.56,-0.7,0.45,3.97,-2.26,-3.54,244,305,211,296,384,13
1756,0.56,-0.7,0.45,1.4,-2.87,-3.36,245,304,213,300,386,13
1757,0.56,-0.7,0.47,1.16,-2.62,-2.08,245,306,213,295,390,13
1758,0.57,-0.7,0.45,1.4,-2.62,-3.6,243,307,214,301,387,13
1759,0.56,-0.7,0.46,-0.24,-2.75,-2.75,245,305,214,295,385,13
1760,0.55,-0.71,0.45,-1.53,-2.5,-2.44,241,305,214,296,388,13
1761,0.55,-0.71,0.45,-0.79,-2.87,-2.26,243,303,214,298,388,13
1762,0.55,-0.71,0.45,0.0,-2.99,-2.2,245,308,213,296,382,13
1763,0.56,-0.71,0.47,0.31,-2.75,-1.71,243,308,213,299,385,13
1764,0.55,-0.71,0.46,-2.44,-3.72,-2.14,246,306,213,292,386,13
1765,0.55,-0.72,0.43,-2.08,-3.72,-2.01,244,304,215,296,384,13
1766,0.54,-0.73,0.45,0.24,-7.57,1.95,243,306,216,298,386,13
1767,0.5,-0.76,0.42,-4.09,-7.75,4.33,243,305,211,296,389,13
1768,0.51,-0.78,0.39,-1.46,-2.56,-1.83,246,304,215,296,388,13
1769,0.5,-0.79,0.35,-0.61,-3.3,-3.23,243,305,210,297,388,13
1770,0.54,-0.78,0.36,-3.85,-2.81,-2.87,245,306,213,297,388,13
1771,0.48,-0.8,0.37,-10.01,3.91,-9.7,244,306,216,298,386,13
1772,0.52,-0.78,0.35,-5.62,-2.01,-4.82,275,305,216,293,386,13
1773,0.54,-0.78,0.35,3.36,-1.77,-1.83,245,304,214,300,385,13
1774,0.53,-0.78,0.35,-0.37,-4.33,-2.08,245,305,218,299,385,13
1775,0.53,-0.79,0.32,-1.59,-3.91,-3.42,247,304,213,299,388,13
1776,0.53,-0.78,0.33,3.05,-2.2,-1.71,244,309,214,296,384,13
1777,0.55,-0.78,0.36,2.56,-2.69,-3.3,246,307,214,296,384,13
1778,0.54,-0.78,0.33,0.61,-3.36,-3.48,244,309,211,302,383,13
1779,0.53,-0.78,0.33,1.77,-2.93,-3.3,244,306,216,298,380,13
1780,0.52,-0.78,0.35,-2.38,-1.16,-4.39,243,309,216,299,379,13
1781,0.52,-0.79,0.28,4.03,-4.09,0.0,245,306,214,297,380,13
1782,0.54,-0.79,0.29,-0.67,-4.03,-4.21,245,305,215,297,377,13
1783,0.53,-0.79,0.32,2.08,-2.87,-1.95,245,309,214,296,379,13
1784,0.53,-0.79,0.33,-0.55,-2.81,-1.04,249,308,216,292,382,13
1785,0.57,-0.78,0.32,2.62,0.85,-4.33,246,308,214,294,375,13
1786,0.53,-0.78,0.33,-1.22,-3.3,-2.26,249,306,214,294,378,13
1787,0.52,-0.8,0.29,-2.75,-3.6,-3.36,245,312,216,297,378,13
1788,0.53,-0.79,0.3,0.67,-3.23,-2.69,245,307,216,297,375,13
1789,0.53,-0.79,0.31,-0.61,-3.17,-2.14,245,310,216,302,377,13
1790,0.54,-0.8,0.31,-0.92,-2.56,-2.69,242,310,214,299,375,13
1791,0.54,-0.79,0.37,3.17,-2.5,-0.31,247,309,216,294,380,13
1792,0.5,-0.8,0.27,-2.62,-4.58,-2.44,247,309,215,298,379,13
1793,0.51,-0.81,0.27,1.83,-3.91,-2.14,245,307,217,299,377,13
1794,0.52,-0.81,0.3,0.61,-1.95,-2.87,246,309,218,293,378,13
1795,0.52,-0.8,0.32,-2.87,-2.62,-2.81,242,318,219,297,375,13
1796,0.52,-0.8,0.3,2.14,-1.71,-2.2,247,309,213,298,372,13
1797,0.52,-0.78,0.22,1.89,-1.22,-1.89,247,308,216,300,376,13
1798,0.53,-0.78,0.38,6.47,5.92,-5.55,243,309,215,297,378,13
1799,0.56,-0.77,0.36,2.56,-2.93,-2.93,244,308,212,296,378,13
1800,0.56,-0.76,0.35,0.67,-2.87,-2.5,246,308,216,300,376,13
1801,0.54,-0.77,0.34,-0.18,-5.49,0.85,244,308,213,298,374,13
1802,0.53,-0.79,0.29,-2.99,-3.36,0.43,247,307,215,302,375,13
1803,0.5,-0.71,0.27,36.87,13.18,-59.14,248,305,217,294,374,13
1804,1.01,-0.38,0.54,2.69,-22.34,-30.88,243,305,212,295,372,13
1805,0.77,-0.54,0.44,-18.98,-10.13,30.94,247,304,215,301,370,13
1806,0.68,-0.67,0.32,-12.57,-7.93,51.51,245,308,216,298,372,13
1807,0.33,-0.92,0.09,-13.79,10.19,7.14,245,310,214,298,370,13
1808,0.37,-0.92,0.12,-4.52,-0.49,-3.36,246,306,217,300,373,13
1809,0.38,-0.92,0.11,-1.89,1.16,-4.46,249,310,216,298,374,13
1810,0.38,-0.92,0.15,3.23,-3.48,-3.3,246,306,212,296,369,13
1811,0.38,-0.91,0.17,1.1,-2.08,-0.98,239,309,215,299,372,13
1812,0.37,-0.91,0.11,-3.6,-0.61,-3.72,246,307,215,302,372,13
1813,0.39,-0.92,0.12,11.6,-4.15,-4.58,248,308,218,296,372,13
1814,0.38,-0.92,0.1,2.14,-3.17,-0.31,247,307,218,295,373,13
1815,0.35,-0.92,0.18,-0.73,0.06,-2.75,256,311,218,301,372,13
1816,0.38,-0.91,0.16,-0.61,-1.4,-0.73,245,308,215,302,371,13
1817,0.35,-0.93,0.12,-5.07,-4.58,-1.1,247,310,214,297,370,13
1818,0.36,-0.94,0.05,-6.9,-7.57,-5.13,246,308,214,299,368,13
1819,0.39,-0.93,-0.01,0.92,-10.5,1.34,281,308,218,300,369,13
1820,0.35,-0.94,0.06,1.53,1.34,-3.66,246,309,213,313,366,13
1821,0.37,-0.92,0.09,4.03,-0.31,-3.23,246,308,216,297,366,13
1822,0.38,-0.92,0.07,-4.52,2.5,-2.01,247,308,215,303,367,13
1823,0.29,-0.94,0.17,7.2,-4.15,3.78,247,308,217,303,366,13
1824,0.29,-0.93,0.22,7.93,-1.22,-10.68,245,308,215,298,374,13
1825,0.31,-0.9,0.27,-1.95,3.91,-22.03,246,309,213,293,367,13
1826,0.42,-0.88,0.28,-3.6,-0.06,-2.99,245,303,209,293,374,13
1827,0.41,-0.89,0.23,6.41,-2.26,-8.06,248,306,212,294,375,13
1828,0.42,-0.87,0.25,1.28,-3.91,-7.69,246,303,213,299,377,13
1829,0.63,-0.66,0.26,9.46,-4.15,-16.11,244,301,208,292,377,13
1830,0.74,-0.72,0.23,1.71,1.04,-8.18,245,299,211,298,377,13
1831,0.49,-0.76,0.22,-2.38,4.33,8.73,246,305,211,294,381,13
1832,0.57,-0.74,0.23,-2.32,-2.62,-5.92,245,302,214,298,383,13
1833,0.62,-0.79,0.18,-4.52,-0.49,-2.69,248,306,215,290,378,13
1834,0.61,-0.77,0.21,6.35,-3.91,-2.14,248,305,214,293,381,13
1835,0.57,-0.76,0.27,2.14,-2.81,-0.12,247,301,209,288,377,13
1836,0.58,-0.77,0.26,-2.14,-0.31,-2.75,248,303,211,292,381,13
1837,0.59,-0.76,0.29,7.75,-0.98,-3.05,245,301,213,292,387,13
1838,0.57,-0.76,0.37,4.21,-4.27,-2.62,274,304,211,290,394,13
1839,0.53,-0.74,0.33,0.55,-3.17,1.04,255,301,213,294,395,13
1840,0.56,-0.77,0.36,9.34,-5.98,-1.34,248,304,211,294,394,13
1841,0.58,-0.74,0.39,0.24,-3.17,-1.83,243,305,211,292,397,13
1842,0.55,-0.74,0.36,-0.55,-2.01,-3.97,247,304,211,299,391,13
1843,0.55,-0.76,0.34,-0.24,-2.69,-3.42,246,305,214,295,394,13
1844,0.57,-0.76,0.34,1.59,-3.91,-2.69,244,306,212,295,392,13
1845,0.57,-0.74,0.33,1.71,-5.92,-1.04,246,305,218,300,393,13
1846,0.57,-0.74,0.34,-0.37,-2.93,-2.44,248,307,212,296,388,13
1847,0.57,-0.75,0.33,1.22,-3.11,-2.44,249,312,214,298,393,13
1848,0.57,-0.73,0.32,4.15,-2.56,-3.6,247,308,216,301,395,13
1849,0.53,-0.62,0.43,13.18,10.13,-26.06,249,306,218,297,391,13
1850,0.72,-0.65,0.38,-4.03,-2.08,-8.73,249,307,213,299,392,13
1851,0.63,-0.61,0.42,8.18,-4.82,10.8,243,308,213,297,388,13
1852,0.65,-0.63,0.41,7.75,-3.36,-4.46,248,309,213,297,385,13
1853,0.63,-0.64,0.41,-3.72,-1.71,0.37,251,309,216,300,389,13
1854,0.65,-0.65,0.42,2.2,-2.69,-2.87,249,308,211,296,388,13
1855,0.68,-0.63,0.41,1.1,-1.34,-1.28,248,310,214,295,388,13
1856,0.65,-0.63,0.42,-11.11,1.95,-15.99,250,310,215,297,387,13
1857,0.64,-0.64,0.41,-9.03,-1.83,3.3,247,307,218,297,390,13
1858,0.65,-0.67,0.41,-0.98,-2.93,-2.44,247,313,216,301,397,13
1859,0.65,-0.67,0.39,-1.95,-4.33,-2.14,257,305,212,299,393,13
1860,0.67,-0.66,0.37,6.96,-1.4,-4.03,249,309,216,295,389,13
1861,0.64,-0.65,0.37,2.93,-2.01,-3.6,249,309,216,296,392,13
1862,0.66,-0.65,0.4,-1.22,-4.09,-2.32,247,310,218,299,392,13
1863,0.66,-0.64,0.4,4.39,-3.72,-2.26,252,312,222,301,389,13
1864,0.66,-0.65,0.4,3.05,-2.01,-2.14,249,315,214,299,388,13
1865,0.65,-0.65,0.41,2.32,-2.5,-1.77,246,308,215,295,389,13
1866,0.66,-0.66,0.42,0.55,-3.23,3.91,248,311,218,300,386,13
1867,0.62,-0.68,0.44,-3.6,-5.0,0.92,250,310,215,297,389,13
1868,0.6,-0.68,0.41,4.82,-2.75,-4.82,250,310,213,304,390,13
1869,0.6,-0.68,0.39,1.34,-3.54,-4.88,248,309,216,298,391,13
1870,0.63,-0.68,0.41,-1.04,-4.03,-3.91,252,308,218,298,393,13
1871,0.66,-0.66,0.39,1.53,-2.93,-4.09,249,315,216,295,390,13
1872,0.66,-0.66,0.4,0.73,-3.17,-2.2,250,313,212,294,394,13
1873,0.64,-0.67,0.39,5.74,-3.72,-5.13,249,307,218,300,393,13
1874,0.73,-0.62,0.36,10.5,-18.13,0.24,251,310,215,301,384,13
1875,0.62,-0.64,0.39,-1.28,-2.2,-4.52,276,308,215,300,383,13
1876,0.66,-0.64,0.42,0.67,-2.01,0.61,249,307,218,298,371,13
1877,0.56,-0.65,0.51,2.01,0.92,-6.16,251,310,212,295,400,13
1878,0.57,-0.64,0.45,-3.72,-6.71,-0.55,249,310,216,301,419,13
1879,0.67,-0.65,0.36,-13.0,0.67,-11.78,248,311,212,293,433,13
1880,0.6,-0.6,0.34,2.44,-1.1,-1.04,249,306,212,301,389,13
1881,0.68,-0.58,0.36,-0.61,0.79,-0.85,248,311,216,298,394,13
1882,0.78,-0.62,0.41,-21.0,-3.48,-2.56,249,310,215,289,434,13
1883,0.71,-0.61,0.27,-18.92,3.6,-7.51,266,307,209,277,469,13
1884,0.66,-0.68,0.34,-2.38,3.36,-3.6,251,307,214,288,406,13
1885,0.73,-0.65,0.17,-1.22,16.17,8.24,248,312,215,295,402,13
1886,0.64,-0.64,0.31,21.3,-49.56,-22.09,249,308,210,291,404,13
1887,0.83,-0.61,0.25,11.66,-33.69,5.55,249,306,214,286,432,13
1888,0.82,-0.72,0.21,-15.99,-7.08,0.0,251,302,209,273,465,13
1889,0.5,-0.79,0.19,22.52,-21.67,7.32,251,305,210,280,451,13
1890,0.45,-0.8,0.22,9.89,3.17,-5.49,250,304,208,284,435,13
1891,0.57,-0.75,0.28,18.92,-14.16,-4.82,250,306,213,283,411,13
1892,0.55,-0.81,0.11,-3.42,6.9,6.77,251,307,218,289,409,13
1893,0.51,-0.81,0.33,4.88,1.04,-8.24,251,305,214,286,410,13
1894,0.56,-0.78,0.34,-4.52,31.56,1.04,273,308,210,285,411,13
1895,0.53,-0.76,0.37,1.1,-1.89,-3.05,250,307,217,287,412,13
1896,0.54,-0.78,0.39,-2.14,-6.71,1.46,249,308,218,286,417,13
1897,0.53,-0.78,0.37,1.71,-3.11,-2.87,250,307,216,285,416,13
1898,0.5,-0.77,0.36,-0.61,-5.31,-3.72,250,306,213,285,417,13
1899,0.52,-0.79,0.38,1.4,-3.36,-2.44,253,307,214,287,416,13
1900,0.52,-0.79,0.38,1.46,-4.27,-2.75,250,306,217,285,417,13
1901,0.53,-0.78,0.38,2.69,-3.36,-4.39,249,309,216,289,417,13
1902,0.5,-0.73,0.37,3.54,0.67,-3.48,249,306,218,285,415,13
1903,0.52,-0.77,0.39,-2.2,-3.97,-2.87,249,305,212,289,410,13
1904,0.53,-0.75,0.35,6.77,-2.99,-3.23,251,306,216,286,410,13
1905,0.54,-0.76,0.37,5.55,-0.61,-2.44,249,308,215,285,409,13
1906,0.53,-0.75,0.39,-2.56,-2.56,-3.6,252,315,215,290,412,13
1907,0.54,-0.77,0.4,-2.69,-2.93,-3.11,251,317,215,287,414,13
1908,0.54,-0.75,0.39,-0.73,-2.81,-2.81,248,309,217,285,413,13
1909,0.54,-0.76,0.37,-1.16,-2.99,-1.71,250,306,216,290,417,13
1910,0.53,-0.77,0.38,0.79,-2.44,-3.54,252,308,218,290,410,13
1911,0.56,-0.74,0.37,9.95,-3.36,-24.41,252,309,217,292,411,13
1912,0.73,-0.62,0.39,-7.57,-19.41,-14.22,252,305,214,291,402,13
1913,0.65,-0.67,0.38,-1.65,-0.12,-5.37,250,308,216,289,399,13
1914,0.67,-0.64,0.42,2.81,9.7,3.05,250,310,218,289,395,13
1915,0.57,-0.71,0.44,-6.96,10.07,1.77,250,311,217,288,388,13
1916,0.68,-0.72,0.35,-1.16,-14.1,-4.09,247,311,230,288,400,13
1917,0.64,-0.73,0.5,-8.67,11.72,8.67,251,307,215,292,393,13
1918,0.53,-0.79,0.26,-4.09,-16.66,2.87,252,305,217,292,391,13
1919,0.51,-0.78,0.32,10.99,-5.62,-1.1,251,309,218,289,395,13
1920,0.6,-0.78,0.29,1.34,-1.89,-4.76,246,310,213,293,394,13
1921,0.58,-0.77,0.26,-8.18,1.77,-2.38,271,307,214,296,393,13
1922,0.55,-0.79,0.27,-0.67,-3.54,-3.42,246,307,216,295,401,13
1923,0.56,-0.78,0.28,-0.67,-2.87,-2.32,250,309,216,295,401,13
1924,0.56,-0.79,0.28,3.17,-2.75,-2.99,250,305,214,295,401,13
1925,0.53,-0.79,0.28,-1.22,-3.36,-2.32,250,323,216,293,396,13
1926,0.55,-0.79,0.3,2.01,-4.27,-1.04,250,309,216,293,398,13
1927,0.55,-0.79,0.28,-0.79,-0.55,-1.22,252,308,216,288,404,13
1928,0.54,-0.8,0.29,1.1,-2.56,-2.44,250,309,216,294,404,13
1929,0.53,-0.79,0.3,0.12,-2.56,-1.83,249,307,219,291,404,13
1930,0.54,-0.8,0.3,-0.06,-3.54,-3.3,251,308,218,294,403,13
1931,0.52,-0.8,0.29,0.43,-2.87,-2.14,250,306,217,292,402,13
1932,0.53,-0.81,0.29,-0.24,-2.87,-2.62,249,308,216,291,404,13
1933,0.52,-0.8,0.28,0.98,-2.75,-2.93,251,309,215,294,404,13
1934,0.51,-0.81,0.28,1.65,-1.04,-5.25,250,308,216,292,399,13
1935,0.6,-0.75,0.33,6.96,-1.04,-26.49,247,305,218,289,402,13
1936,0.66,-0.69,0.39,10.56,-23.32,-6.1,252,309,215,290,405,13
1937,0.72,-0.67,0.34,2.32,1.83,-15.93,254,310,216,290,403,13
1938,0.68,-0.67,0.37,-2.62,-4.94,-3.17,254,309,216,296,404,13
1939,0.65,-0.67,0.37,-0.31,-2.69,-2.87,252,308,217,293,404,13
1940,0.66,-0.67,0.37,-1.16,-3.23,-2.5,252,310,217,295,403,13
1941,0.66,-0.67,0.36,2.38,-2.08,-1.77,256,308,213,288,399,13
1942,0.69,-0.65,0.32,3.11,-18.86,-2.99,250,306,219,294,375,13
1943,0.73,-0.65,0.29,-11.23,-2.87,-9.46,250,304,214,291,376,13
1944,0.68,-0.66,0.31,5.8,-0.61,1.59,258,303,212,282,376,13
1945,0.67,-0.66,0.32,0.73,-1.16,-1.83,251,309,210,288,381,13
1946,0.65,-0.67,0.32,2.56,-1.22,-2.5,251,305,215,289,383,13
1947,0.67,-0.68,0.34,-1.71,-3.97,-2.75,252,310,215,292,388,13
1948,0.68,-0.68,0.34,-0.73,-2.81,-1.28,249,303,214,291,395,13
1949,0.67,-0.67,0.34,-1.04,-3.85,-2.99,247,302,216,290,397,13
1950,0.66,-0.68,0.34,-1.16,-3.42,-1.77,251,303,215,289,399,13
1951,0.64,-0.68,0.32,5.37,-0.61,-2.62,252,305,217,285,396,13
1952,0.65,-0.69,0.34,2.32,-1.95,-2.62,254,306,216,288,395,13
1953,0.64,-0.67,0.33,0.06,-3.6,-1.89,252,306,217,289,396,13
1954,0.64,-0.69,0.33,-0.92,-3.54,-2.38,264,307,217,286,397,13
1955,0.66,-0.7,0.35,-1.1,-3.11,-2.26,251,306,212,287,399,13
1956,0.63,-0.69,0.32,2.5,-0.43,-1.4,254,306,213,292,398,13
1957,0.64,-0.7,0.34,0.73,-2.81,-2.38,252,309,213,291,399,13
1958,0.63,-0.69,0.34,2.14,-3.11,-3.23,249,306,218,290,397,13
1959,0.64,-0.69,0.35,-1.89,-3.17,-4.52,243,309,216,293,396,13
1960,0.64,-0.72,0.36,-11.11,-10.25,1.1,252,309,215,285,386,13
1961,0.64,-0.7,0.34,-1.28,-2.01,-2.62,251,312,212,289,382,13
1962,0.68,-0.7,0.22,-2.44,-23.74,-2.99,250,309,226,286,381,13
1963,0.72,-0.71,0.18,3.3,1.16,-8.3,252,312,216,289,383,13
1964,0.68,-0.71,0.22,-1.83,19.41,-2.38,250,308,217,290,382,13
1965,0.69,-0.68,0.27,-8.36,9.7,-9.16,249,274,216,292,376,13
1966,0.68,-0.66,0.2,4.09,-9.03,-11.29,251,278,209,294,378,13
1967,0.69,-0.68,0.3,-2.56,2.44,-0.12,250,250,212,289,375,13
1968,0.68,-0.69,0.26,-4.09,-6.1,-6.35,250,280,221,295,372,13
1969,0.65,-0.68,0.29,0.73,-1.4,-1.89,252,279,217,291,371,13
1970,0.68,-0.69,0.27,3.72,-1.77,0.49,251,287,218,295,372,13
1971,0.67,-0.7,0.28,0.31,-2.87,-2.56,252,298,215,293,375,13
1972,0.66,-0.7,0.27,0.79,-3.11,-2.75,250,306,213,289,373,13
1973,0.69,-0.69,0.25,-3.11,-3.78,-2.38,252,302,218,295,371,13
1974,0.65,-0.72,0.29,-3.85,12.02,1.77,251,304,214,294,374,13
1975,0.66,-0.71,0.26,1.53,-1.34,-1.46,250,303,216,296,373,13
1976,0.63,-0.7,0.24,1.22,-3.17,-1.83,253,307,218,295,381,13
1977,0.65,-0.72,0.27,-1.34,-3.54,-2.44,249,303,218,296,383,13
