,aX,aY,aZ,gX,gY,gZ,little,ring,middle,index,thumb,number
0,0.19,-0.97,0.05,6.65,-5.92,4.21,201,241,191,452,304,14
1,0.15,-0.98,0.11,5.49,-2.5,1.59,203,237,193,452,308,14
2,0.1,-0.98,0.12,4.27,1.16,6.23,200,236,195,450,310,14
3,0.09,-1.0,0.19,4.46,5.92,6.16,203,241,197,450,309,14
4,-0.04,-0.98,0.23,11.11,-10.62,10.13,203,242,197,449,311,14
5,-0.18,-0.94,0.28,12.51,-15.63,15.69,204,242,194,452,304,14
6,-0.16,-0.94,0.29,-1.59,-0.79,-5.0,202,239,197,449,311,14
7,-0.14,-0.95,0.27,0.98,-4.94,-5.86,205,241,193,451,308,14
8,-0.15,-0.95,0.29,4.58,-5.49,-1.65,205,242,200,456,304,14
9,-0.11,-0.95,0.27,-1.4,-1.34,-3.72,206,243,198,452,309,14
10,-0.14,-0.94,0.29,5.55,-2.38,-2.44,206,239,193,455,305,14
11,-0.13,-0.95,0.29,1.59,-5.19,-3.17,200,242,196,452,308,14
12,-0.09,-0.95,0.31,-2.14,-0.85,-5.31,206,241,196,452,310,14
13,-0.1,-0.95,0.3,0.31,-3.78,-2.56,208,242,201,455,311,14
14,-0.11,-0.94,0.3,-0.67,-4.33,-5.8,205,244,198,448,307,14
15,-0.05,-0.96,0.28,-7.87,4.33,-15.69,206,243,199,455,305,14
16,0.02,-0.97,0.2,-3.11,3.85,-14.71,205,244,196,456,308,14
17,0.04,-0.97,0.22,0.06,-4.03,-1.71,205,240,196,457,308,14
18,0.04,-0.97,0.23,3.78,-2.87,-2.38,206,244,201,451,310,14
19,0.04,-0.97,0.22,-2.56,-2.2,-4.82,205,242,198,453,311,14
20,0.06,-0.98,0.21,-0.98,-4.15,-4.27,205,242,198,450,310,14
21,0.05,-0.98,0.21,-1.04,-3.05,-2.62,206,244,197,458,307,14
22,0.04,-0.98,0.21,0.43,-7.02,-6.65,233,242,198,458,308,14
23,0.01,-0.98,0.28,-11.72,-20.26,-1.46,209,242,201,452,309,14
24,0.01,-0.95,0.22,-8.36,4.21,-11.17,206,243,197,459,306,14
25,0.13,-0.97,0.18,-1.46,-6.53,-0.92,209,239,199,454,311,14
26,0.1,-0.96,0.22,-6.9,-0.31,-18.74,207,239,201,460,309,14
27,0.17,-0.96,0.06,-15.44,-9.52,-18.8,205,243,202,456,310,14
28,0.15,-0.98,0.23,14.77,-10.07,7.32,206,245,202,457,307,14
29,0.12,-0.96,0.14,-2.32,-10.07,-2.26,207,242,202,461,308,14
30,0.05,-0.97,0.18,-2.93,-3.97,-0.73,210,246,200,461,310,14
31,0.01,-1.0,0.25,6.16,-1.28,-0.67,211,241,200,456,310,14
32,0.11,-0.96,0.07,-2.69,3.91,-6.35,208,244,197,461,311,14
33,0.08,-0.97,0.11,7.69,-10.5,-2.75,208,247,203,458,313,14
34,0.08,-1.03,0.14,0.12,2.99,-5.0,206,245,199,453,306,14
35,0.1,-1.0,0.16,8.48,-5.31,-3.6,208,246,203,458,310,14
36,0.04,-0.99,0.15,0.0,-5.31,-2.87,208,247,200,455,309,14
37,0.05,-0.98,0.16,1.77,-2.14,-0.43,209,247,200,458,311,14
38,0.04,-0.99,0.17,1.04,-11.23,1.1,210,244,202,453,309,14
39,0.04,-0.97,0.21,0.98,-2.08,0.24,213,245,201,453,311,14
40,0.0,-0.98,0.18,-6.59,-1.34,-11.11,209,245,200,461,310,14
41,0.12,-1.0,0.14,-4.82,-29.79,-14.04,212,245,213,458,314,14
42,0.04,-0.98,0.2,4.27,-0.67,-9.34,209,245,204,455,311,14
43,0.19,-0.97,0.12,-8.12,7.93,-13.67,209,248,208,457,310,14
44,0.23,-0.98,0.14,6.9,7.75,-7.51,210,246,204,458,308,14
45,0.25,-0.96,0.16,-10.86,8.97,-11.6,213,249,205,458,310,14
46,0.23,-0.95,0.15,-7.14,10.44,3.42,213,248,202,458,312,14
47,0.39,-0.96,0.14,-8.12,3.85,8.3,208,248,205,460,313,14
48,0.16,-0.92,0.14,-3.11,-12.39,5.98,210,246,202,453,311,14
49,0.11,-0.97,0.24,-6.29,-3.42,8.0,208,248,199,463,311,14
50,0.11,-0.97,0.15,-4.7,-3.66,-4.09,212,249,204,453,311,14
51,0.12,-0.99,0.17,1.46,-3.3,-3.85,210,246,204,457,312,14
52,0.13,-0.98,0.16,-0.06,-3.36,-1.53,220,250,200,458,311,14
53,0.12,-0.98,0.17,1.34,-3.72,0.0,209,248,205,459,310,14
54,0.09,-0.97,0.17,-1.22,-5.43,-0.73,209,247,202,458,310,14
55,0.1,-0.98,0.16,1.4,-3.11,-2.69,211,247,204,460,308,14
56,0.1,-0.98,0.16,1.46,-3.48,-2.2,211,247,203,453,309,14
57,0.09,-0.98,0.18,0.12,-3.36,-2.93,210,246,205,458,308,14
58,0.09,-0.98,0.16,0.18,-4.46,-3.85,214,249,202,462,309,14
59,0.11,-0.98,0.16,1.53,-3.05,-2.56,209,245,202,459,308,14
60,0.1,-0.98,0.17,0.49,-4.76,-3.11,214,247,206,460,310,14
61,0.12,-0.97,0.17,-0.37,-2.32,-2.62,214,247,203,462,312,14
62,0.13,-0.98,0.17,-15.5,-2.81,-3.11,214,249,204,462,313,14
63,0.13,-0.98,0.17,-0.12,-2.87,-3.05,212,248,209,462,311,14
64,0.13,-0.98,0.17,0.55,-3.72,-2.62,212,247,206,460,312,14
65,0.13,-0.98,0.17,0.92,-3.11,-2.38,208,247,204,462,312,14
66,0.15,-0.98,0.17,-0.49,-1.71,-4.52,211,247,206,462,312,14
67,0.13,-0.98,0.18,0.55,-1.77,-1.04,215,248,204,456,313,14
68,0.13,-0.98,0.16,0.06,-3.23,-3.66,209,255,203,459,311,14
69,0.16,-0.98,0.16,0.31,-3.05,-2.56,210,248,202,460,312,14
70,0.14,-0.98,0.15,1.4,-2.81,-2.01,213,247,206,456,310,14
71,0.12,-0.98,0.16,0.12,-3.36,-3.23,213,248,210,462,308,14
72,0.12,-0.98,0.16,0.55,-3.36,-2.81,213,248,202,458,310,14
73,0.12,-0.98,0.16,0.98,-3.11,-2.08,213,247,206,461,313,14
74,0.12,-0.97,0.15,1.53,-3.78,-2.2,213,249,202,462,309,14
75,0.13,-0.98,0.16,-3.23,-5.13,-2.81,214,248,205,463,305,14
76,0.12,-0.97,0.18,2.81,-5.92,-0.92,241,249,205,458,316,14
77,0.18,-0.96,0.11,0.98,-1.34,-1.95,213,250,203,460,310,14
78,0.12,-0.99,0.17,9.22,-6.1,0.92,213,251,203,461,310,14
79,0.1,-0.98,0.19,-0.92,-3.23,-3.54,216,248,203,460,308,14
80,0.1,-0.98,0.18,-0.55,-2.87,-2.81,214,248,217,461,305,14
81,0.11,-0.98,0.19,1.34,-2.44,-2.2,214,250,205,457,308,14
82,0.1,-0.98,0.18,1.4,-3.36,-2.87,217,248,206,460,305,14
83,0.09,-0.98,0.18,0.98,-2.93,-2.56,214,251,208,462,307,14
84,0.1,-0.97,0.19,1.53,-3.11,-3.05,217,252,208,462,312,14
85,0.08,-0.98,0.19,1.4,-3.85,-2.32,213,264,205,462,309,14
86,0.1,-0.97,0.21,1.77,-2.56,-2.87,214,249,206,464,309,14
87,0.09,-0.98,0.2,-0.31,-2.99,-3.23,216,251,204,464,311,14
88,0.09,-0.98,0.19,-0.49,-3.17,-2.69,213,250,203,459,310,14
89,0.09,-0.98,0.2,0.37,-2.87,-2.99,214,249,207,459,309,14
90,0.09,-0.98,0.2,0.0,-2.69,-2.81,215,248,207,457,308,14
91,0.1,-0.98,0.2,0.73,-2.69,-3.42,210,251,205,460,312,14
92,0.09,-0.97,0.19,1.04,-3.72,-2.5,215,248,208,456,308,14
93,0.09,-0.98,0.2,1.46,-3.05,-2.5,215,261,205,463,312,14
94,0.09,-0.97,0.2,0.43,-2.99,-2.62,216,250,206,466,306,14
95,0.09,-0.98,0.21,0.73,-2.99,-2.69,221,248,207,463,310,14
96,0.09,-0.97,0.2,0.98,-2.38,-2.62,212,250,204,460,311,14
97,0.09,-0.97,0.2,0.73,-2.81,-2.38,216,249,211,465,311,14
98,0.09,-0.98,0.21,0.92,-1.71,-2.75,218,248,204,461,310,14
99,0.08,-0.97,0.22,0.24,-3.17,-2.81,217,252,206,461,308,14
100,0.09,-0.97,0.22,0.92,-2.93,-2.93,213,250,205,461,310,14
101,0.09,-0.97,0.21,-0.06,-2.5,-2.01,222,250,207,464,308,14
102,0.09,-0.97,0.22,0.49,-2.14,-2.56,215,250,206,455,311,14
103,0.08,-0.98,0.22,1.04,-2.62,-2.69,215,249,206,461,308,14
104,0.08,-0.97,0.22,1.28,-2.93,-3.36,218,247,209,465,310,14
105,0.08,-0.97,0.22,0.67,-2.14,-2.44,215,249,208,460,309,14
106,0.09,-0.97,0.21,0.06,-1.89,-2.99,216,248,202,469,310,14
107,0.08,-0.97,0.21,-0.73,-2.81,-2.75,215,252,208,464,312,14
108,0.09,-0.97,0.21,0.37,-2.93,-2.56,215,251,208,460,305,14
109,0.08,-0.97,0.21,-0.31,-3.11,-2.69,216,250,208,463,313,14
110,0.08,-0.97,0.2,0.24,-3.05,-3.11,217,253,209,454,312,14
111,0.08,-0.98,0.21,0.18,-2.26,-3.05,214,250,208,461,310,14
112,0.07,-0.97,0.21,1.59,-3.48,-1.71,212,253,205,456,310,14
113,0.08,-0.97,0.21,0.73,-3.97,-2.32,218,253,206,461,309,14
114,0.07,-0.97,0.21,0.85,-3.42,-2.69,215,251,209,455,312,14
115,0.08,-0.98,0.22,-0.49,-2.93,-3.6,215,250,206,459,306,14
116,0.09,-0.98,0.22,0.92,-1.71,-2.26,219,250,206,459,311,14
117,0.08,-0.98,0.21,-0.67,-2.69,-2.81,216,249,206,460,310,14
118,0.08,-0.98,0.21,-0.79,-2.44,-2.81,215,254,208,463,311,14
119,0.08,-0.97,0.22,0.37,-2.69,-2.5,219,251,207,460,311,14
120,0.08,-0.97,0.21,0.85,-3.17,-3.6,216,252,206,463,312,14
121,0.11,-0.96,0.28,5.55,-2.93,-2.32,224,249,210,460,311,14
122,0.12,-0.96,0.25,4.39,-4.03,-1.4,216,253,208,464,308,14
123,0.1,-0.96,0.26,1.1,-3.05,-4.46,218,252,207,458,313,14
124,0.1,-0.95,0.28,-0.43,-3.05,-3.36,231,250,210,461,305,14
125,0.1,-0.96,0.26,0.12,-2.5,-3.05,216,250,213,462,310,14
126,0.1,-0.96,0.26,-0.06,-2.69,-3.23,217,254,209,460,310,14
127,0.11,-0.96,0.25,-0.49,-1.28,-3.54,220,253,207,462,313,14
128,0.11,-0.96,0.26,-0.55,-3.05,-2.87,217,253,207,459,312,14
129,0.11,-0.97,0.25,0.61,-2.93,-2.81,224,251,210,463,313,14
130,0.11,-0.96,0.25,-1.22,-3.3,-2.14,218,251,208,460,308,14
131,0.11,-0.96,0.25,-0.12,-2.99,-2.32,218,252,210,461,311,14
132,0.11,-0.96,0.25,0.24,-2.93,-1.34,218,252,207,462,312,14
133,0.11,-0.97,0.26,-0.18,-2.62,-2.26,216,259,211,463,308,14
134,0.1,-0.96,0.26,0.85,-3.3,-2.14,218,248,210,459,310,14
135,0.1,-0.96,0.26,0.24,-1.95,-3.05,219,251,210,462,313,14
136,0.1,-0.96,0.26,1.89,-2.2,-1.95,218,252,209,456,313,14
137,0.09,-0.96,0.26,0.43,-2.87,-2.69,219,253,209,457,308,14
138,0.1,-0.95,0.27,7.26,-3.23,-9.09,216,252,210,459,310,14
139,0.19,-1.01,0.28,5.37,2.26,-8.97,218,252,208,455,310,14
140,0.1,-0.95,0.23,-4.64,0.18,0.61,214,250,211,460,310,14
141,0.06,-0.97,0.14,0.37,-6.29,0.43,219,252,208,458,308,14
142,0.14,-0.94,0.19,1.77,-16.17,-5.25,218,251,206,464,312,14
143,0.09,-0.96,0.27,6.29,5.92,-5.07,221,250,208,465,308,14
144,0.09,-0.97,0.28,-3.54,-3.17,-1.16,217,254,220,464,321,14
145,0.13,-0.98,0.24,3.23,-5.25,-8.85,218,254,211,461,313,14
146,0.2,-0.98,0.25,-8.0,-2.26,-3.91,217,254,207,464,311,14
147,0.16,-0.98,0.2,4.09,2.69,-0.31,219,253,209,459,311,14
148,0.1,-0.98,0.24,-5.68,-1.16,-3.23,220,252,215,455,311,14
149,0.12,-0.96,0.16,-1.28,-8.61,1.46,221,255,208,458,310,14
150,0.13,-0.96,0.18,3.85,-2.69,-5.19,217,255,212,463,315,14
151,0.1,-0.97,0.16,-4.39,0.24,-1.65,219,255,209,458,311,14
152,0.13,-0.99,0.24,2.93,1.34,-1.89,217,252,208,463,311,14
153,0.14,-0.98,0.16,4.94,-8.73,-0.43,217,252,212,460,313,14
154,0.09,-0.98,0.19,-2.5,0.37,6.04,216,249,212,460,313,14
155,0.14,-0.98,0.2,-5.55,-10.38,1.4,218,252,210,459,309,14
156,0.12,-0.98,0.15,3.6,6.41,-10.25,215,255,210,463,311,14
157,0.14,-0.99,0.21,0.31,2.69,-0.18,216,251,211,460,322,14
158,0.09,-0.96,0.17,1.71,-11.72,-14.28,223,252,210,463,311,14
159,0.07,-0.98,0.14,5.0,-8.73,3.05,217,252,210,460,312,14
160,0.16,-0.97,0.16,17.4,-3.36,-7.57,220,250,212,463,313,14
161,0.17,-0.97,0.3,14.95,-16.11,5.86,221,254,209,456,313,14
162,0.09,-0.95,0.34,-2.38,2.44,-5.49,218,255,209,459,308,14
163,0.12,-0.94,0.25,-1.89,1.59,0.49,220,252,210,456,311,14
164,0.06,-0.95,0.27,-1.28,-28.14,-2.62,220,255,211,460,315,14
165,0.04,-0.96,0.33,0.49,-6.1,-1.59,222,253,211,460,313,14
166,0.1,-0.96,0.29,-1.71,-5.13,-3.97,220,254,209,461,311,14
167,0.05,-0.96,0.31,-2.44,-3.05,-3.05,221,255,209,457,314,14
168,0.1,-0.96,0.25,-3.42,-7.32,-1.22,220,256,210,460,313,14
169,0.01,-0.93,0.26,2.69,0.0,3.54,220,252,210,458,313,14
170,0.01,-0.98,0.22,-14.65,0.43,-8.36,218,253,209,456,303,14
171,0.03,-0.97,0.17,5.98,-7.2,-2.38,217,253,208,460,314,14
172,0.01,-0.98,0.17,-0.61,-4.21,-4.46,217,255,208,460,313,14
173,0.03,-0.98,0.2,-3.66,-8.3,-4.33,220,251,211,460,311,14
174,0.05,-1.0,0.23,3.48,-6.71,-0.18,216,253,210,458,310,14
175,0.05,-0.97,0.21,1.22,-4.21,-4.09,222,253,210,462,312,14
176,0.04,-0.97,0.21,-0.18,-3.66,-3.78,216,252,212,463,312,14
177,0.05,-0.98,0.21,-0.24,-3.3,-2.32,217,257,208,464,308,14
178,0.05,-0.99,0.19,0.85,-1.77,-2.87,218,253,212,460,309,14
179,0.04,-0.97,0.22,-1.59,-3.72,-2.69,216,254,208,464,312,14
180,0.03,-0.98,0.23,1.4,-2.5,-1.34,221,254,213,458,311,14
181,0.04,-0.98,0.21,1.53,-1.22,-2.14,216,253,212,461,313,14
182,0.04,-0.97,0.25,2.93,-4.39,0.49,220,256,208,465,312,14
183,-0.01,-0.95,0.25,18.07,3.66,-6.41,220,254,210,465,312,14
184,-0.04,-0.93,0.32,7.02,10.19,17.52,227,253,212,458,312,14
185,-0.2,-0.91,0.37,-1.95,10.38,11.17,219,256,222,461,313,14
186,-0.16,-0.94,0.28,5.68,-9.83,0.85,219,255,212,462,313,14
187,-0.11,-0.93,0.18,-20.94,-6.53,-15.99,214,252,210,460,312,14
188,-0.04,-0.98,0.17,-17.27,2.62,2.75,217,255,211,466,310,14
189,-0.05,-1.0,0.13,5.13,-7.93,-6.84,219,256,209,462,312,14
190,-0.02,-0.99,0.13,-2.01,-9.95,-5.19,226,254,210,457,312,14
191,0.02,-0.99,0.11,-1.04,-5.19,-3.36,222,255,211,462,312,14
192,-0.04,-0.99,0.17,-3.85,-4.7,-9.03,221,256,212,462,313,14
193,0.0,-1.0,0.14,4.88,-2.01,-3.66,222,252,213,461,310,14
194,-0.03,-0.97,0.12,-2.2,3.85,-7.81,219,254,213,465,305,14
195,0.06,-1.0,0.11,2.75,-2.2,-2.62,219,256,213,462,313,14
196,0.01,-0.99,0.15,2.93,-2.14,-2.26,219,253,213,464,314,14
197,0.02,-0.99,0.12,-0.24,-4.15,-2.56,220,254,211,461,313,14
198,0.02,-0.99,0.13,0.92,-1.95,-2.99,220,256,208,466,313,14
199,0.02,-0.99,0.14,0.06,-3.36,-2.32,220,253,213,466,314,14
200,0.02,-0.99,0.15,2.01,-2.32,-2.56,221,255,214,460,314,14
201,0.01,-0.99,0.13,-0.43,-4.76,-2.5,221,252,209,462,316,14
202,0.01,-0.99,0.12,-0.18,-3.17,-2.99,220,256,208,463,314,14
203,0.02,-0.99,0.14,-0.18,-2.56,-2.38,244,256,214,457,317,14
204,0.02,-0.99,0.14,-0.24,-2.81,-2.75,222,257,211,465,313,14
205,0.01,-0.99,0.14,0.12,-2.44,-2.62,220,257,208,466,315,14
206,0.01,-0.99,0.13,1.34,-3.42,-2.32,229,254,213,456,313,14
207,0.02,-0.99,0.15,2.08,-3.48,-2.69,222,252,213,462,313,14
208,0.02,-0.99,0.16,0.67,-3.85,-2.44,220,257,213,459,315,14
209,0.02,-0.99,0.15,0.92,-3.05,-2.75,221,255,218,465,314,14
210,0.02,-0.99,0.16,0.79,-3.6,-2.62,222,254,210,465,315,14
211,0.03,-0.99,0.18,0.79,-3.42,-2.08,223,258,213,463,311,14
212,0.02,-0.98,0.17,0.85,-2.08,-2.26,223,252,213,462,311,14
213,0.02,-0.99,0.16,0.0,-2.75,-2.44,222,257,212,457,314,14
214,0.02,-0.99,0.16,0.73,-2.87,-2.99,221,257,209,467,315,14
215,0.03,-0.98,0.15,0.79,0.12,-4.52,220,252,210,466,312,14
216,0.03,-0.99,0.17,0.61,-2.99,-2.87,220,256,213,466,315,14
217,0.04,-0.99,0.16,0.24,-2.75,-2.69,220,254,211,457,315,14
218,0.02,-0.98,0.15,-1.59,-3.97,-2.75,223,252,214,460,314,14
219,0.04,-0.99,0.13,0.61,-3.11,-3.17,221,257,213,457,314,14
220,0.02,-0.99,0.14,2.87,-2.75,-2.44,221,256,213,466,314,14
221,0.03,-0.99,0.15,1.34,-2.62,-2.26,221,256,210,466,316,14
222,0.02,-0.98,0.14,0.24,-1.59,-2.99,222,255,212,461,314,14
223,0.02,-0.99,0.14,-2.87,-0.37,-8.06,223,255,209,466,315,14
224,0.06,-0.99,0.12,-1.04,-3.78,-2.2,221,256,213,462,314,14
225,0.04,-0.98,0.12,0.73,-2.32,-2.26,221,254,208,464,314,14
226,0.05,-0.99,0.12,1.65,-2.87,-2.38,220,256,211,475,313,14
227,0.05,-0.99,0.13,0.92,-2.81,-1.53,222,256,211,459,312,14
228,0.05,-0.99,0.14,0.92,-3.42,-2.5,220,252,208,467,313,14
229,0.04,-0.99,0.14,0.98,-3.78,-2.38,222,253,214,462,312,14
230,0.04,-0.99,0.14,0.49,-3.11,-2.56,216,255,210,466,312,14
231,0.05,-0.99,0.13,0.37,-3.54,-2.5,229,258,215,464,313,14
232,0.09,-0.98,0.13,15.32,-3.97,-3.3,220,256,212,459,313,14
233,0.02,-0.98,0.15,-3.85,4.39,-8.24,218,255,220,466,316,14
234,0.04,-0.98,0.11,0.61,-5.62,-1.16,223,258,214,458,314,14
235,0.05,-0.99,0.1,0.98,0.73,-3.36,223,258,212,466,313,14
236,0.07,-0.99,0.15,1.34,-3.6,-4.58,219,255,212,463,311,14
237,0.08,-0.98,0.1,-4.33,-2.81,-3.72,223,257,218,461,314,14
238,0.08,-0.98,0.1,2.14,-1.4,-5.31,220,254,215,457,317,14
239,0.1,-1.0,0.12,1.16,-2.32,-1.53,224,255,211,466,315,14
240,0.07,-1.0,0.11,-4.15,-3.6,-2.56,222,253,211,466,313,14
241,0.08,-0.99,0.07,2.62,-3.42,-1.28,219,255,212,462,317,14
242,0.08,-0.99,0.09,-0.24,-3.48,-3.23,222,255,211,459,316,14
243,0.07,-0.98,0.1,0.18,-3.66,-3.23,221,255,210,462,314,14
244,0.06,-0.99,0.1,0.43,-3.54,0.43,221,254,215,462,314,14
245,0.07,-0.99,0.11,-1.28,-1.65,-2.38,216,253,213,465,315,14
246,0.07,-0.99,0.1,0.0,-4.03,-0.73,223,265,215,466,313,14
247,0.07,-0.99,0.12,-0.79,-2.75,-2.81,259,259,215,457,318,14
248,0.07,-0.99,0.09,-1.83,-4.7,-1.34,221,258,212,464,312,14
249,0.07,-0.99,0.12,-0.98,-4.03,-0.43,221,255,209,466,309,14
250,0.08,-1.0,0.1,-0.31,-1.4,-0.31,223,255,212,460,310,14
251,0.1,-0.99,0.13,-1.28,-5.07,-1.22,223,251,212,462,316,14
252,0.12,-0.99,0.06,1.71,-6.96,-6.35,220,257,211,461,313,14
253,0.05,-0.99,0.07,-2.08,-4.09,-3.72,221,258,212,457,313,14
254,0.08,-0.99,0.08,2.69,-3.66,-1.95,222,256,211,457,316,14
255,0.09,-0.99,0.09,0.31,-2.56,-2.99,224,256,215,457,313,14
256,0.08,-0.99,0.08,-0.18,-2.99,-3.66,224,256,213,458,315,14
257,0.06,-0.99,0.08,0.61,-5.86,-0.37,220,256,215,471,314,14
258,0.08,-1.0,0.06,-1.22,-3.23,-3.42,220,259,214,466,304,14
259,0.07,-0.99,0.08,1.28,-2.81,-1.89,221,254,216,462,316,14
260,0.09,-0.98,0.08,0.0,-4.33,-3.85,230,257,214,466,314,14
261,0.07,-0.99,0.09,0.92,-3.66,-1.89,222,256,211,461,315,14
262,0.05,-1.0,0.06,-5.0,-4.03,-3.23,223,254,212,457,317,14
263,0.08,-1.0,0.12,3.36,-4.7,-1.28,222,254,211,466,316,14
264,0.09,-0.99,0.1,0.92,-2.75,-3.6,222,258,213,461,315,14
265,0.09,-0.99,0.11,0.18,-3.3,-2.01,220,258,213,459,309,14
266,0.07,-1.0,0.1,0.49,-2.81,-2.5,220,259,214,463,315,14
267,0.08,-0.99,0.09,-0.85,-3.23,-1.95,228,256,213,457,313,14
268,0.07,-0.99,0.09,1.22,-1.77,-2.93,223,262,210,463,314,14
269,0.08,-0.99,0.09,-0.06,-2.81,-2.32,225,254,215,460,316,14
270,0.07,-0.99,0.08,-0.61,-3.48,-2.5,224,257,211,464,311,14
271,0.07,-0.99,0.08,0.73,-2.87,-2.75,224,256,215,462,314,14
272,0.08,-1.0,0.09,0.49,-2.01,-4.21,221,255,214,462,312,14
273,0.07,-0.99,0.09,-0.43,-3.91,-2.01,219,259,214,461,314,14
274,0.07,-0.99,0.09,0.43,-4.09,-2.38,223,256,212,462,315,14
275,0.07,-0.99,0.08,-0.98,-2.56,-2.87,221,256,216,466,314,14
276,0.08,-0.99,0.08,-0.49,-1.1,-4.21,224,257,215,462,314,14
277,0.09,-0.99,0.1,0.18,-2.32,-2.87,221,258,213,464,315,14
278,0.07,-0.99,0.08,0.55,-2.38,-2.5,223,256,216,466,314,14
279,0.06,-0.99,0.09,-0.12,-2.5,-3.11,222,257,215,465,315,14
280,0.07,-0.99,0.09,-0.37,-2.69,-2.99,222,256,214,459,316,14
281,0.05,-0.99,0.08,1.4,-4.21,-3.91,225,255,214,462,317,14
282,0.06,-0.99,0.08,-1.16,-3.11,-2.56,220,257,214,458,311,14
283,0.06,-0.99,0.08,-0.37,-2.01,-3.97,223,258,212,462,312,14
284,0.06,-0.99,0.09,-0.73,-1.71,-3.11,222,257,216,463,313,14
285,0.04,-0.98,0.07,2.93,-5.43,-3.17,218,256,214,466,312,14
286,0.04,-0.99,0.1,-2.26,-0.67,-4.76,222,261,216,465,311,14
287,0.06,-0.99,0.09,0.98,-4.03,-1.71,230,255,214,460,316,14
288,0.05,-0.99,0.06,-1.83,-4.58,-3.42,221,256,216,462,312,14
289,0.1,-1.0,0.12,1.34,-1.34,-4.88,224,254,216,462,314,14
290,0.08,-0.99,0.1,0.12,-2.99,-2.44,222,258,213,457,312,14
291,0.06,-0.99,0.08,-0.12,-3.23,-2.26,224,257,212,468,314,14
292,0.09,-0.99,0.08,0.85,-2.56,-2.93,224,256,221,466,314,14
293,0.06,-0.99,0.09,0.18,-3.97,-2.69,224,257,218,462,314,14
294,0.06,-0.99,0.09,0.61,-3.66,-2.81,220,258,216,461,315,14
295,0.06,-0.99,0.08,0.24,-3.72,-2.44,224,259,214,466,314,14
296,0.07,-0.99,0.08,0.43,-4.21,-1.77,220,256,216,462,317,14
297,0.07,-0.99,0.07,-0.37,-2.62,-2.44,225,257,216,461,317,14
298,0.07,-1.0,0.09,-1.04,-2.44,-2.75,222,257,214,464,315,14
299,0.06,-1.02,0.08,0.0,-2.14,-3.11,222,254,216,464,315,14
300,0.06,-0.99,0.07,0.12,-2.5,-2.75,218,254,212,466,313,14
301,0.06,-1.0,0.08,0.98,-2.75,-2.2,220,259,216,463,311,14
302,0.06,-0.99,0.07,1.28,-2.81,-2.62,222,257,220,466,315,14
303,0.06,-0.99,0.07,1.59,-3.48,-2.32,222,258,213,462,317,14
304,0.03,-1.0,0.08,-1.16,-2.44,-5.19,222,256,213,461,311,14
305,0.09,-0.99,0.06,2.87,-3.85,-2.01,221,253,211,466,312,14
306,0.07,-0.99,0.05,-0.37,-3.42,-2.87,224,259,212,464,313,14
307,0.09,-1.01,0.09,0.55,-3.91,-1.83,223,256,214,459,317,14
308,0.07,-0.99,0.06,0.18,-2.75,-2.69,222,255,213,466,312,14
309,0.07,-0.99,0.06,0.85,-2.93,-2.44,222,257,213,465,314,14
310,0.07,-0.9,0.07,2.14,-1.95,-1.83,225,260,217,462,315,14
311,0.08,-0.99,0.06,0.98,-2.93,-2.99,224,263,217,466,317,14
312,0.06,-1.0,0.07,0.55,-2.56,-2.26,222,256,216,466,313,14
313,0.07,-1.0,0.08,0.67,-4.64,-1.53,224,257,214,460,312,14
314,0.06,-0.99,0.07,1.34,-3.23,-2.93,224,257,216,461,316,14
315,0.07,-0.99,0.07,-1.22,-4.27,-2.26,225,260,214,458,313,14
316,0.07,-1.0,0.07,1.46,-2.81,-2.99,222,257,216,462,313,14
317,0.07,-0.99,0.08,-0.12,-3.11,-2.14,224,259,212,462,317,14
318,0.07,-1.0,0.08,0.92,-2.2,-2.56,220,257,213,463,312,14
319,0.07,-0.99,0.06,-0.49,-2.32,-2.99,225,259,216,459,313,14
320,0.06,-0.99,0.07,0.55,-2.87,-2.14,222,259,214,457,315,14
321,0.07,-1.0,0.07,0.0,-2.62,-2.81,222,258,211,462,316,14
322,0.07,-0.99,0.07,-0.06,-2.81,-2.32,223,258,214,465,313,14
323,0.06,-0.99,0.07,0.49,-2.81,-2.69,222,259,216,457,316,14
324,0.07,-0.99,0.08,1.22,-2.93,-2.44,223,256,212,463,315,14
325,0.06,-0.99,0.06,0.98,-3.78,-2.56,222,257,213,462,307,14
326,0.06,-0.99,0.07,0.55,-2.44,-2.62,224,258,214,465,314,14
327,0.06,-0.99,0.08,1.16,-2.99,-2.5,222,257,214,465,316,14
328,0.06,-0.99,0.03,0.12,-3.17,-2.32,224,260,217,457,313,14
329,0.06,-0.99,0.07,-0.73,-2.62,-2.5,232,256,211,465,314,14
330,0.06,-0.99,0.07,-0.31,-2.93,-2.93,223,257,214,458,318,14
331,0.06,-0.99,0.08,0.31,-2.87,-2.26,222,259,217,468,315,14
332,0.05,-1.0,0.07,1.16,-2.93,-2.99,226,257,214,458,316,14
333,0.1,-1.0,0.12,12.27,-2.32,-2.26,224,256,214,464,314,14
334,0.06,-0.99,0.09,3.11,-0.92,-5.92,220,257,214,457,316,14
335,0.06,-0.99,0.11,0.49,-2.75,-3.72,224,258,213,463,315,14
336,0.07,-1.0,0.12,-0.43,-0.06,-2.14,223,260,219,458,313,14
337,0.05,-0.99,0.09,1.16,-2.5,-2.99,222,257,212,466,317,14
338,0.05,-1.0,0.1,-1.34,-4.03,-3.05,225,261,212,461,315,14
339,0.06,-0.99,0.1,0.12,-2.26,-2.69,224,262,214,457,313,14
340,0.05,-0.99,0.1,1.16,-2.87,-2.69,224,259,212,462,318,14
341,0.04,-0.99,0.08,1.34,-5.74,-2.2,222,257,217,462,317,14
342,0.04,-0.99,0.1,-3.54,-1.1,0.49,224,258,216,466,315,14
343,0.05,-0.99,0.08,-2.01,-2.87,-3.05,222,260,213,462,314,14
344,0.06,-0.99,0.08,0.31,-3.48,-3.17,222,256,216,462,315,14
345,0.06,-0.99,0.08,0.43,-4.46,-2.5,223,258,216,465,314,14
346,0.07,-0.99,0.08,2.08,-1.83,-3.54,223,257,214,460,317,14
347,0.05,-0.99,0.07,-0.31,-3.3,-1.71,224,255,213,462,311,14
348,0.06,-0.99,0.09,0.85,-3.3,-2.5,227,255,217,461,315,14
349,0.05,-0.99,0.08,0.24,-3.05,-3.17,224,260,214,457,314,14
350,0.04,-0.99,0.08,-0.85,-3.36,-3.05,226,261,221,464,315,14
351,0.06,-0.99,0.08,0.61,-4.27,-2.56,222,258,215,457,315,14
352,0.07,-0.98,0.1,1.89,-3.11,-2.14,223,258,217,462,315,14
353,0.06,-0.99,0.1,1.16,-2.01,-2.01,222,258,214,467,315,14
354,0.05,-1.0,0.08,-3.54,-2.87,-3.3,221,263,222,460,315,14
355,0.05,-1.0,0.09,0.55,-2.81,-2.93,222,257,215,461,315,14
356,0.06,-1.0,0.08,1.53,-2.44,-2.93,223,260,217,462,315,14
357,0.05,-0.99,0.07,-0.85,-4.33,-1.59,226,260,214,463,316,14
358,0.07,-1.0,0.08,1.16,-2.75,-3.11,224,259,218,462,315,14
359,0.04,-0.99,0.09,-0.73,-3.54,-3.78,223,262,214,458,315,14
360,0.06,-0.98,0.09,-0.37,-2.87,-2.44,221,261,217,461,318,14
361,0.06,-0.99,0.07,2.32,-2.38,-3.97,221,261,217,466,316,14
362,0.07,-1.0,0.09,2.87,-2.62,-3.66,223,257,217,461,313,14
363,0.07,-0.99,0.09,0.73,-3.3,-2.75,226,258,213,466,318,14
364,0.07,-0.99,0.09,0.37,-2.99,-2.01,225,261,212,462,315,14
365,0.06,-0.99,0.08,-0.24,-1.95,-3.6,219,261,215,466,314,14
366,0.06,-0.99,0.08,0.37,-3.42,-2.08,227,260,213,466,315,14
367,0.08,-0.99,0.09,1.46,-2.87,-2.2,231,262,214,463,316,14
368,0.06,-0.99,0.09,-0.18,-2.81,-2.62,223,261,218,461,313,14
369,0.05,-0.99,0.09,0.43,-2.99,-0.49,223,265,216,464,323,14
370,0.05,-0.99,0.08,2.14,-2.87,-2.5,227,254,213,463,312,14
371,0.05,-0.99,0.11,-0.79,-3.3,-2.99,223,260,213,466,319,14
372,0.04,-0.99,0.09,0.31,-4.52,-2.62,224,257,213,462,318,14
373,0.07,-0.99,0.12,1.22,-2.14,-2.93,226,264,216,466,315,14
374,0.05,-0.99,0.12,2.56,-2.62,-3.66,225,255,216,458,315,14
375,0.06,-0.99,0.11,-0.55,-2.38,-3.3,224,260,220,459,316,14
376,0.05,-0.99,0.1,-0.12,-2.44,-2.2,224,260,217,466,314,14
377,0.04,-0.99,0.12,0.92,-2.44,-2.56,224,259,215,462,313,14
378,0.05,-0.99,0.11,1.16,-3.23,-2.93,225,260,213,466,315,14
379,0.05,-0.99,0.11,0.31,-3.66,-2.26,228,259,214,463,316,14
380,0.05,-0.99,0.11,-0.61,-3.23,-2.44,222,259,218,463,317,14
381,0.05,-0.99,0.1,-0.73,-2.5,-3.3,225,258,223,461,317,14
382,0.05,-0.99,0.11,-0.31,-1.83,-4.15,223,259,220,462,314,14
383,0.04,-0.99,0.12,-0.31,-3.66,-1.89,224,258,218,465,315,14
384,0.08,-0.99,0.1,-0.79,-2.93,-2.69,227,259,215,466,317,14
385,0.05,-0.99,0.1,-0.37,-3.3,-2.5,223,260,218,466,316,14
386,0.06,-0.99,0.1,-0.18,-2.87,-3.05,224,259,218,463,316,14
387,0.05,-0.99,0.1,0.98,-2.99,-3.11,220,259,215,466,318,14
388,0.05,-0.99,0.12,-0.18,-3.11,-2.81,226,261,216,460,317,14
389,0.05,-0.99,0.1,0.79,-4.09,-3.36,226,259,215,462,318,14
390,0.08,-0.99,0.12,-0.49,-2.99,-1.83,224,262,216,462,315,14
391,0.07,-0.99,0.13,0.67,-1.46,-2.93,224,262,215,467,313,14
392,0.06,-0.99,0.11,1.71,-3.3,-2.87,223,257,215,466,315,14
393,0.05,-0.99,0.11,0.06,-3.78,-1.46,227,257,222,462,317,14
394,0.06,-0.99,0.11,1.59,-2.69,-2.5,236,260,216,463,317,14
395,0.05,-0.99,0.11,-0.18,-2.32,-3.3,225,258,215,462,315,14
396,0.03,-0.99,0.11,-1.04,-3.66,-2.26,227,262,217,459,317,14
397,0.06,-1.0,0.12,-2.01,-2.93,-2.44,227,260,215,462,317,14
398,0.06,-0.99,0.11,2.2,-2.44,-2.32,225,260,214,463,317,14
399,0.05,-0.99,0.11,0.49,-3.36,-1.34,224,256,216,466,315,14
400,0.05,-1.0,0.12,0.43,-3.05,-3.6,224,260,214,462,317,14
401,0.05,-0.98,0.12,1.1,-3.66,-1.34,227,259,216,466,314,14
402,0.01,-0.98,0.08,-0.24,-7.14,-2.14,222,261,213,459,317,14
403,-0.1,-0.96,0.26,3.6,-4.09,10.99,227,259,217,461,319,14
404,0.09,-0.98,0.09,-2.81,4.09,-15.32,222,257,215,463,316,14
405,-0.11,-0.98,0.1,2.99,-4.76,-0.31,224,258,216,466,317,14
406,0.05,-0.98,0.04,-9.28,-3.23,-4.27,221,259,212,462,314,14
407,0.03,-0.99,0.13,-1.46,-3.05,-0.67,214,262,215,467,316,14
408,0.05,-0.99,0.1,-1.22,-3.91,-2.93,223,262,218,462,318,14
409,0.06,-0.99,0.11,3.23,-2.93,-3.11,224,261,215,462,312,14
410,0.06,-0.99,0.11,-0.85,-3.85,-3.05,224,261,218,463,316,14
411,0.06,-0.99,0.1,-0.79,-3.91,-3.05,222,259,216,464,316,14
412,0.07,-0.99,0.11,-1.34,-2.93,-3.85,228,258,218,463,317,14
413,0.06,-0.99,0.01,-13.61,-49.74,-15.08,226,262,218,463,316,14
414,0.2,-0.97,-0.04,-18.98,-10.31,3.3,224,259,218,458,314,14
415,0.04,-0.98,0.02,-0.79,-14.65,-9.83,224,257,219,467,317,14
416,0.12,-1.0,0.08,-5.13,-13.43,0.55,227,261,219,458,314,14
417,0.1,-0.98,0.0,4.88,-7.87,-0.31,225,258,217,464,319,14
418,0.06,-0.99,0.13,3.97,1.89,-7.57,227,262,218,465,316,14
419,0.14,-0.99,0.1,4.58,-0.73,-0.85,225,259,219,466,314,14
420,0.11,-0.99,0.2,3.66,2.26,0.31,226,267,219,459,317,14
421,0.01,-0.95,0.2,19.47,-4.21,16.11,231,259,218,468,323,14
422,0.06,-0.98,0.17,-8.42,11.11,-2.69,225,260,226,467,314,14
423,0.08,-0.98,0.17,4.82,-3.48,-0.85,225,262,217,462,315,14
424,0.01,-1.0,0.17,-5.25,-4.46,-10.19,228,262,217,463,318,14
425,0.04,-0.96,0.22,-8.48,0.18,0.61,226,259,218,465,315,14
426,0.06,-0.98,0.09,-1.89,-0.12,-7.32,226,263,217,465,316,14
427,0.08,-0.99,0.19,3.6,-3.3,-2.01,227,262,223,462,314,14
428,0.05,-0.98,0.11,-0.92,-0.31,-3.85,225,261,217,459,315,14
429,0.03,-0.99,0.15,3.78,-3.91,-1.89,228,262,217,461,319,14
430,0.05,-0.99,0.15,0.55,-2.5,-3.36,225,258,216,462,316,14
431,0.05,-0.99,0.15,0.98,-2.99,-2.01,228,262,216,466,316,14
432,0.04,-0.98,0.16,1.1,-2.62,-2.75,229,262,218,461,316,14
433,0.05,-0.99,0.16,0.49,-1.65,-3.66,221,263,219,462,317,14
434,0.04,-0.98,0.16,1.28,-3.42,-2.26,227,261,216,466,314,14
435,0.05,-0.98,0.16,0.73,-3.23,-2.14,225,258,217,463,316,14
436,0.05,-0.98,0.16,2.44,-4.09,-0.85,225,257,214,462,317,14
437,0.03,-0.98,0.18,1.46,-3.78,-2.2,227,261,217,458,314,14
438,0.02,-0.98,0.18,1.22,-3.48,-2.56,225,260,226,458,313,14
439,0.04,-0.99,0.18,0.18,-3.05,-2.32,226,257,217,466,312,14
440,0.03,-0.98,0.17,0.85,-2.69,-2.2,264,262,220,462,318,14
441,0.03,-0.98,0.17,-0.12,-3.11,-2.62,226,258,214,462,315,14
442,0.03,-0.98,0.16,0.67,-3.3,-2.5,228,262,220,462,316,14
443,0.02,-0.98,0.19,-0.12,-3.05,-1.71,229,261,218,461,316,14
444,0.01,-0.99,0.16,0.43,-4.39,-0.92,226,263,215,459,318,14
445,-0.0,-0.98,0.18,-3.6,-0.37,-5.74,228,260,216,461,316,14
446,0.07,-0.99,0.13,0.67,0.24,-4.39,226,260,221,459,318,14
447,0.07,-0.99,0.14,-2.93,-1.59,-4.21,225,262,215,463,317,14
448,0.08,-0.99,0.13,-3.91,-0.67,-5.74,257,258,214,459,315,14
449,0.1,-0.99,0.07,-2.81,-1.65,-3.05,228,258,216,466,313,14
450,0.08,-0.99,0.09,0.31,-2.69,-2.93,226,260,219,464,316,14
451,0.08,-0.99,0.09,0.12,-2.87,-2.56,224,259,215,461,314,14
452,0.09,-0.98,0.07,-2.32,-4.7,-2.14,227,263,216,462,318,14
453,0.1,-0.99,0.07,2.44,-1.59,-3.66,227,262,218,465,316,14
454,0.12,-1.01,0.08,-1.71,-1.28,-2.14,227,259,216,464,316,14
455,0.12,-0.99,0.06,6.1,-3.85,-0.37,227,269,217,466,316,14
456,0.1,-0.99,0.09,0.92,-5.55,-1.65,228,263,216,464,315,14
457,0.08,-0.99,0.1,-2.26,-4.82,-2.32,226,258,221,462,312,14
458,0.07,-0.97,0.06,2.56,-4.46,-3.85,237,260,220,466,315,14
459,0.18,-0.94,0.22,21.06,-1.95,19.23,223,261,220,463,318,14
460,-0.23,-0.74,0.42,14.77,0.61,6.23,228,262,230,461,315,14
461,-0.13,-0.94,0.31,-9.28,-7.87,6.35,224,259,216,462,314,14
462,-0.27,-0.91,0.34,14.47,3.85,-6.65,226,263,214,466,318,14
463,-0.22,-0.91,0.33,-8.79,-9.83,-6.77,228,263,213,462,316,14
464,-0.23,-0.88,0.34,0.73,-5.68,-2.62,251,263,219,467,319,14
465,-0.2,-0.91,0.34,7.75,-0.61,-4.82,229,263,215,466,317,14
466,-0.16,-0.92,0.34,-6.41,-0.85,-2.62,228,262,217,462,319,14
467,-0.23,-0.89,0.32,4.76,9.09,-4.33,227,260,219,462,317,14
468,-0.08,-0.96,0.28,-3.54,-4.09,-25.21,223,262,219,463,316,14
469,-0.14,-0.94,0.3,-11.35,6.29,-10.62,229,263,218,457,318,14
470,-0.03,-0.98,0.27,-6.9,-3.54,-16.78,246,257,219,465,315,14
471,0.02,-0.91,0.28,-1.28,0.0,-9.64,228,263,214,462,316,14
472,0.01,-0.93,0.29,8.12,11.78,-2.99,228,262,219,463,317,14
473,0.01,-0.92,0.39,3.42,2.93,-1.65,225,262,214,465,316,14
474,0.0,-0.92,0.42,-1.46,-3.97,-5.31,222,258,218,463,316,14
475,-0.02,-0.91,0.4,0.49,-1.59,-0.37,226,261,220,461,316,14
476,-0.01,-0.91,0.42,-3.05,-10.13,-7.69,227,262,217,458,316,14
477,0.07,-0.93,0.41,-1.22,-1.4,-12.21,228,262,217,462,320,14
478,0.08,-0.93,0.38,2.5,-3.91,-0.67,226,258,217,465,313,14
479,0.08,-0.93,0.37,-2.87,-5.31,-4.64,226,276,216,464,317,14
480,0.08,-0.93,0.36,-3.23,-3.11,-2.62,226,261,218,458,314,14
481,0.08,-0.94,0.37,0.0,-5.68,-2.32,229,256,219,461,317,14
482,0.08,-0.94,0.38,-3.48,-26.18,-13.61,229,260,218,462,316,14
483,-0.05,-0.87,0.26,4.09,-25.63,13.0,228,262,213,464,318,14
484,0.23,-0.97,0.23,-16.05,-17.58,18.68,227,263,217,462,318,14
485,0.2,-0.96,0.34,16.72,3.3,-27.83,224,263,216,462,317,14
486,0.17,-0.91,0.22,18.92,1.77,7.32,226,261,219,461,318,14
487,0.05,-0.9,0.3,-4.15,9.16,10.13,226,261,216,465,313,14
488,0.1,-0.93,0.34,-5.07,5.8,-2.56,253,263,220,456,316,14
489,-0.05,-0.94,0.45,4.27,-8.06,10.8,226,259,219,459,314,14
490,0.01,-0.93,0.38,-1.04,-5.25,-4.52,222,257,219,467,315,14
491,0.12,-0.94,0.33,17.88,-10.19,-4.46,224,259,216,465,317,14
492,0.04,-0.92,0.44,-2.75,-1.28,-2.69,227,261,219,465,316,14
493,-0.01,-0.92,0.4,-5.62,-8.12,-2.2,222,262,217,461,319,14
494,0.1,-0.93,0.38,-3.85,-8.79,-9.46,226,261,217,462,315,14
495,0.09,-0.93,0.32,-2.44,-1.77,-4.33,230,259,217,465,316,14
496,0.06,-0.93,0.34,-11.78,6.53,-13.37,232,261,217,457,320,14
497,0.12,-0.95,0.32,-0.49,-8.61,5.49,229,261,215,465,321,14
498,0.05,-0.93,0.34,5.98,0.12,-8.79,228,262,214,471,313,14
499,0.15,-0.93,0.38,5.0,-2.38,-8.12,225,259,218,465,318,14
500,0.1,-0.92,0.45,3.36,-3.6,-4.58,234,261,215,458,318,14
501,0.12,-0.91,0.41,1.83,-4.46,-6.04,226,264,215,461,320,14
502,0.14,-0.91,0.4,1.65,-2.99,-3.48,224,261,219,467,317,14
503,-0.0,-0.99,0.15,0.98,-2.69,-2.38,198,210,179,438,284,14
504,-0.0,-0.99,0.17,1.16,-2.26,-2.5,195,209,187,439,284,14
505,-0.01,-0.98,0.16,0.24,-3.36,-2.26,196,206,183,433,288,14
506,-0.01,-0.98,0.17,1.59,-3.78,-2.81,195,213,183,438,283,14
507,-0.01,-0.98,0.18,0.98,-3.05,-2.81,197,212,181,444,287,14
508,-0.01,-0.99,0.2,0.55,-3.48,-2.44,196,208,180,444,286,14
509,-0.01,-0.98,0.18,2.14,-3.85,-2.08,205,211,183,443,288,14
510,-0.01,-0.98,0.19,2.69,-2.81,-2.01,193,214,183,440,286,14
511,-0.01,-0.98,0.2,1.28,-2.99,-2.08,195,216,179,438,288,14
512,-0.01,-0.98,0.2,1.04,-3.3,-2.5,199,213,180,435,282,14
513,-0.02,-0.98,0.21,1.53,-3.42,-2.32,198,215,183,441,283,14
514,-0.02,-0.96,0.21,1.89,-3.05,-2.5,195,211,184,443,286,14
515,-0.01,-0.97,0.22,0.18,-3.6,-2.87,199,217,184,441,289,14
516,-0.01,-0.98,0.21,0.06,-3.48,-2.75,196,214,184,442,287,14
517,-0.02,-0.97,0.22,0.55,-2.87,-3.11,198,213,188,436,290,14
518,-0.02,-0.97,0.22,0.92,-3.36,-2.69,230,218,181,438,285,14
519,-0.02,-0.98,0.23,1.46,-3.85,-2.69,198,215,185,443,289,14
520,-0.03,-0.96,0.24,2.87,-3.05,-1.77,201,213,180,445,295,14
521,-0.02,-0.97,0.24,2.62,-3.36,-2.2,197,210,181,443,292,14
522,-0.0,-0.98,0.22,-0.55,-2.08,-4.7,199,217,188,447,290,14
523,-0.02,-0.97,0.24,0.18,-4.03,-1.59,198,216,182,442,290,14
524,-0.01,-0.98,0.22,-2.01,-2.75,-2.75,200,215,183,441,288,14
525,-0.02,-0.98,0.22,1.16,-3.66,-2.38,202,216,184,447,293,14
526,-0.02,-0.96,0.23,0.12,-2.5,-3.11,201,216,183,438,292,14
527,-0.01,-0.97,0.21,0.12,-1.89,-3.11,201,212,184,439,291,14
528,-0.01,-0.97,0.22,1.59,-3.66,-2.14,210,213,186,437,292,14
529,-0.01,-0.97,0.21,0.98,-2.32,-2.62,201,216,183,443,289,14
530,-0.01,-0.97,0.22,-2.26,-2.87,-4.09,200,214,183,437,291,14
531,-0.02,-0.98,0.24,-0.67,-5.62,-2.62,201,213,182,446,290,14
532,-0.01,-0.98,0.21,-1.22,-2.87,-3.97,201,214,183,437,294,14
533,0.02,-0.97,0.2,0.49,-1.59,-3.36,201,215,183,439,291,14
534,-0.01,-0.97,0.2,-6.1,-2.26,-3.23,201,213,186,448,292,14
535,0.05,-0.97,0.22,11.41,-2.69,-13.49,200,214,186,445,293,14
536,-0.01,-0.97,0.21,-1.59,-12.88,15.69,204,217,182,447,293,14
537,0.06,-0.97,0.14,-19.65,3.3,-5.55,196,214,183,443,291,14
538,0.05,-0.99,0.04,-0.31,0.31,-0.12,200,217,192,443,295,14
539,0.01,-0.99,0.09,8.18,-0.67,-1.1,201,214,185,442,292,14
540,-0.01,-0.99,0.17,4.46,-1.4,-0.85,203,214,186,441,293,14
541,-0.03,-0.99,0.1,-5.62,-11.11,-2.32,204,217,183,444,295,14
542,0.06,-0.99,-0.02,-19.41,-12.33,-5.74,201,216,186,443,291,14
543,-0.0,-1.0,0.02,-6.16,10.44,-9.16,211,215,182,440,292,14
544,-0.07,-1.01,0.01,5.0,-5.74,2.2,200,215,184,443,294,14
545,0.0,-1.0,0.02,-3.17,-6.84,-0.24,195,218,187,443,296,14
546,0.01,-1.0,0.02,-0.06,-3.97,-2.62,203,216,188,448,295,14
547,0.0,-0.99,0.02,0.79,-2.81,-2.81,203,217,184,445,293,14
548,0.0,-1.0,0.03,1.22,-3.91,-1.65,198,218,186,447,292,14
549,-0.01,-1.0,0.02,1.34,-3.36,-2.26,211,217,187,442,289,14
550,-0.01,-0.99,0.02,-5.19,-2.56,-6.35,203,216,185,440,294,14
551,-0.0,-0.99,0.01,1.89,-3.36,-2.99,202,219,182,447,292,14
552,0.0,-1.0,0.01,0.06,-2.32,-2.32,202,215,185,443,293,14
553,-0.01,-1.0,0.02,0.37,-2.62,-2.62,203,215,186,438,292,14
554,-0.01,-1.01,0.02,-0.67,-3.11,-2.5,201,217,185,439,293,14
555,-0.0,-1.0,0.01,0.55,-3.11,-2.26,201,216,187,439,295,14
556,-0.01,-0.99,-0.01,4.94,-3.66,-3.54,204,216,185,438,295,14
557,0.04,-0.99,0.09,14.65,-1.46,-4.27,209,214,185,443,292,14
558,0.03,-0.98,0.2,7.87,-2.26,-2.32,202,216,183,444,293,14
559,0.01,-0.98,0.17,1.77,-3.78,-1.28,201,217,183,443,292,14
560,0.01,-0.98,0.21,0.0,-3.3,-2.62,201,215,183,445,293,14
561,0.01,-0.98,0.2,1.28,-2.93,-2.38,203,219,186,447,296,14
562,0.01,-0.98,0.21,0.37,-3.48,-3.66,201,219,182,446,293,14
563,0.01,-0.97,0.23,-0.18,-2.38,-2.87,202,215,188,442,290,14
564,0.01,-0.98,0.23,0.85,-2.75,-3.48,201,216,187,446,293,14
565,0.01,-0.98,0.22,1.46,-4.46,-1.95,204,217,184,443,295,14
566,0.02,-0.97,0.21,0.18,-2.56,-2.62,205,215,185,446,292,14
567,0.01,-0.97,0.22,0.06,-3.36,-3.11,200,217,184,447,294,14
568,0.01,-0.97,0.22,1.4,-3.17,-2.81,203,219,184,444,295,14
569,0.01,-0.97,0.22,1.22,-3.17,-2.08,202,215,186,443,295,14
570,0.01,-0.97,0.21,-2.69,-3.54,-3.3,204,217,188,448,294,14
571,0.01,-0.97,0.22,-0.12,-2.93,-3.91,205,217,189,439,294,14
572,0.01,-0.97,0.24,0.49,-2.38,-2.44,200,217,185,446,294,14
573,0.01,-0.97,0.23,1.16,-3.3,-2.56,215,220,184,437,293,14
574,0.01,-0.97,0.23,1.89,-2.75,-2.87,204,218,185,440,295,14
575,0.02,-0.97,0.23,0.92,-2.87,-2.75,202,219,185,441,292,14
576,0.01,-0.97,0.23,1.83,-3.11,-3.36,211,219,188,443,292,14
577,0.0,-0.98,0.24,0.61,-2.81,-2.44,204,218,185,448,291,14
578,0.0,-0.97,0.24,-0.06,-2.87,-2.14,212,217,188,444,294,14
579,-0.0,-0.97,0.23,0.43,-3.11,-2.99,205,218,186,444,292,14
580,0.0,-0.98,0.24,-0.31,-2.81,-2.75,201,218,189,448,294,14
581,-0.0,-0.97,0.24,-0.18,-2.5,-3.23,202,220,186,441,294,14
582,0.0,-0.92,0.25,0.73,-2.93,-2.75,201,229,186,444,294,14
583,0.01,-0.97,0.24,0.73,-2.62,-3.11,202,218,187,445,295,14
584,-0.01,-0.97,0.23,-2.26,-3.11,-3.11,203,219,188,441,294,14
585,-0.0,-0.97,0.24,-0.24,-2.32,-3.42,242,220,186,442,293,14
586,-0.0,-0.97,0.24,2.14,-3.23,-2.01,203,217,187,444,293,14
587,0.01,-0.97,0.24,2.2,-3.54,-2.32,203,219,185,448,295,14
588,0.0,-0.97,0.24,0.18,-3.6,-2.99,205,218,189,447,299,14
589,0.01,-0.97,0.25,0.61,-2.93,-2.5,204,221,188,445,295,14
590,0.01,-0.97,0.25,1.16,-3.6,-2.62,204,216,188,442,294,14
591,0.0,-0.97,0.24,0.24,-2.93,-2.81,201,224,186,443,296,14
592,-0.0,-0.97,0.26,0.0,-2.62,-3.48,230,219,184,445,295,14
593,0.01,-0.96,0.26,1.4,-3.17,-2.5,202,220,189,444,295,14
594,0.0,-0.97,0.25,-0.31,-2.87,-2.56,201,219,185,443,296,14
595,0.0,-0.97,0.25,0.55,-3.11,-2.93,203,217,186,445,295,14
596,0.01,-0.96,0.26,0.92,-3.11,-2.62,203,220,189,442,295,14
597,-0.0,-0.97,0.25,0.06,-3.48,-2.5,203,220,183,443,294,14
598,-0.0,-0.97,0.25,0.92,-3.11,-2.69,204,228,185,444,296,14
599,0.0,-0.96,0.26,-0.31,-3.17,-2.69,203,218,189,445,295,14
600,0.01,-0.97,0.25,0.0,-2.99,-3.11,206,220,188,438,297,14
601,0.0,-0.97,0.26,-0.12,-3.17,-2.75,203,218,189,442,295,14
602,-0.0,-0.97,0.25,-0.55,-3.48,-2.99,203,219,189,448,295,14
603,0.0,-0.96,0.26,1.22,-3.72,-2.38,204,218,189,444,295,14
604,-0.0,-0.97,0.26,0.12,-2.87,-2.81,207,219,186,451,294,14
605,-0.0,-0.97,0.26,0.49,-2.93,-2.87,203,219,185,444,295,14
606,-0.0,-0.97,0.26,0.98,-2.99,-2.26,202,220,187,443,297,14
607,-0.0,-0.97,0.26,0.31,-3.36,-2.56,203,222,190,443,298,14
608,0.0,-0.96,0.26,0.55,-2.81,-2.81,211,220,189,449,297,14
609,-0.01,-0.96,0.26,1.16,-3.11,-2.26,203,221,190,444,296,14
610,-0.0,-0.97,0.26,0.06,-3.3,-2.81,208,218,189,443,297,14
611,0.0,-0.97,0.26,-0.06,-3.17,-2.81,202,214,189,439,296,14
612,-0.0,-0.97,0.26,0.98,-2.93,-2.5,205,217,190,447,294,14
613,-0.0,-0.97,0.26,0.85,-3.72,-2.87,205,221,188,455,288,14
614,-0.01,-0.97,0.26,-0.37,-3.05,-2.69,205,219,187,439,296,14
615,-0.0,-0.97,0.26,0.06,-3.23,-2.93,206,222,188,444,297,14
616,-0.0,-0.97,0.27,1.34,-2.81,-2.99,211,217,189,442,296,14
617,0.01,-0.97,0.26,-0.06,-1.89,-3.36,206,221,187,448,294,14
618,0.0,-0.97,0.26,0.55,-3.42,-2.87,199,219,188,445,294,14
619,0.01,-0.97,0.26,0.12,-3.05,-2.81,207,215,186,439,297,14
620,0.0,-0.97,0.26,0.49,-3.36,-2.99,204,219,188,444,295,14
621,0.01,-0.96,0.26,0.67,-3.11,-2.69,208,218,189,448,296,14
622,0.0,-0.96,0.27,0.06,-2.75,-2.75,208,218,187,444,296,14
623,0.0,-0.97,0.26,1.04,-2.81,-2.87,206,219,190,447,294,14
624,0.0,-0.96,0.27,-0.37,-3.3,-3.17,206,218,188,448,293,14
625,0.0,-0.96,0.26,0.43,-3.11,-2.56,204,223,190,445,296,14
626,0.01,-0.97,0.26,1.4,-2.99,-2.56,206,221,190,443,296,14
627,-0.0,-0.97,0.27,-0.67,-3.3,-3.11,196,221,188,438,298,14
628,0.01,-0.96,0.25,1.28,-3.23,-1.53,205,222,188,451,298,14
629,-0.02,-0.96,0.28,2.26,2.69,-4.39,207,222,187,448,296,14
630,0.0,-0.96,0.29,2.62,4.33,-6.53,207,218,188,444,294,14
631,-0.01,-0.97,0.25,-26.25,-1.71,1.22,208,219,190,444,292,14
632,0.01,-0.99,0.05,-9.77,-2.38,-1.4,206,218,188,442,297,14
633,-0.0,-0.99,0.05,2.01,-3.11,-2.81,206,219,198,443,293,14
634,-0.01,-0.99,0.07,1.59,-4.39,-1.89,196,219,187,444,296,14
635,-0.01,-0.99,0.08,2.14,-3.48,-1.83,204,218,190,440,297,14
636,-0.02,-1.0,0.09,1.4,-2.56,-2.99,203,222,191,458,297,14
637,-0.03,-0.99,0.09,0.92,-3.11,-2.62,220,222,188,446,298,14
638,-0.02,-0.99,0.1,0.67,-3.05,-2.69,206,220,192,445,298,14
639,-0.02,-0.99,0.1,2.14,-2.99,-2.56,210,221,188,447,293,14
640,-0.03,-0.99,0.11,0.0,-2.93,-2.69,209,220,189,444,298,14
641,-0.02,-0.99,0.1,-0.24,-3.05,-2.99,206,220,190,443,297,14
642,-0.02,-0.99,0.1,1.4,-3.3,-1.59,206,215,192,448,295,14
643,-0.02,-0.99,0.11,-1.83,-3.23,-2.62,203,223,190,444,298,14
644,-0.02,-0.99,0.1,-0.31,-2.93,-3.42,204,220,187,439,297,14
645,-0.02,-0.99,0.06,0.67,-4.15,-3.17,204,218,188,445,293,14
646,-0.02,-0.98,0.14,12.88,-4.76,-3.05,206,220,189,444,294,14
647,-0.0,-0.96,0.3,18.92,-4.15,0.98,205,223,191,448,297,14
648,-0.02,-0.94,0.39,1.4,-4.46,-0.98,208,221,190,444,296,14
649,0.0,-0.94,0.34,-2.69,-4.46,-2.32,203,221,192,441,293,14
650,0.03,-0.96,0.27,-9.09,-6.96,-4.09,209,221,187,445,299,14
651,0.0,-0.98,0.2,-9.52,-16.3,5.86,204,220,189,449,296,14
652,0.03,-0.99,0.2,-7.26,-4.52,-9.77,208,221,189,441,298,14
653,0.09,-0.99,0.13,-2.75,-5.37,-5.0,206,222,189,449,298,14
654,0.08,-0.99,0.12,-0.49,-1.65,-4.03,203,220,192,444,299,14
655,0.09,-0.99,0.13,2.81,-2.08,-0.85,206,221,188,448,298,14
656,0.08,-0.99,0.13,6.77,-1.16,0.37,206,224,196,445,296,14
657,0.04,-0.98,0.19,7.32,-0.31,1.46,205,220,192,452,296,14
658,0.02,-0.97,0.25,3.6,5.68,0.61,206,222,188,448,301,14
659,-0.01,-0.99,0.23,-9.03,4.7,-2.62,204,224,187,443,299,14
660,-0.03,-0.98,0.17,-25.27,9.22,-12.51,209,220,188,445,298,14
661,0.06,-0.98,-0.06,-18.25,-3.42,-5.98,205,223,193,448,298,14
662,0.01,-0.99,-0.02,9.16,-5.25,4.82,204,223,192,449,299,14
663,-0.04,-0.99,0.03,1.16,-3.17,-2.08,204,220,192,445,301,14
664,-0.04,-0.99,0.06,4.09,-3.91,-1.34,206,220,192,445,296,14
665,-0.01,-1.04,0.08,1.77,-5.0,-0.61,207,221,189,448,299,14
666,-0.04,-1.0,0.06,-0.06,-3.11,-2.14,206,220,188,450,301,14
667,-0.05,-0.99,0.07,0.85,-3.17,-1.95,210,219,189,440,301,14
668,-0.06,-0.99,0.08,-0.06,-3.78,-2.5,206,218,192,451,299,14
669,-0.06,-0.99,0.08,0.55,-3.17,-1.65,205,221,191,445,300,14
670,-0.06,-1.0,0.08,0.61,-3.36,-2.5,206,221,192,444,292,14
671,-0.06,-0.99,0.08,2.93,-3.36,-1.89,221,225,190,446,300,14
672,-0.04,-1.0,0.07,1.04,-3.54,-2.69,203,222,190,446,299,14
673,-0.06,-0.99,0.05,4.58,-2.5,-5.86,207,224,189,446,299,14
674,-0.05,-0.99,0.13,0.06,-3.66,-2.32,207,223,190,440,301,14
675,-0.05,-0.99,0.13,1.22,-3.11,-2.62,208,220,194,452,300,14
676,-0.02,-0.99,0.12,5.31,-2.87,-4.39,209,222,193,443,300,14
677,-0.02,-0.97,0.24,17.76,-5.55,-5.0,206,222,192,443,299,14
678,-0.01,-0.95,0.32,10.19,-3.66,-2.08,211,222,190,446,299,14
679,-0.0,-0.95,0.31,-2.62,-3.17,-4.82,205,222,189,446,296,14
680,-0.04,-0.95,0.31,-7.45,-5.74,1.28,205,222,193,449,301,14
681,-0.03,-0.95,0.25,-10.86,-5.07,-2.5,206,222,188,449,301,14
682,-0.02,-0.96,0.22,5.68,-1.71,-2.87,207,223,187,444,298,14
683,-0.02,-0.97,0.21,-1.71,-2.87,-2.26,207,223,192,446,298,14
684,-0.03,-0.97,0.23,1.4,-2.32,-2.56,207,223,190,445,298,14
685,-0.03,-0.97,0.23,2.62,-3.54,-1.77,207,221,193,450,299,14
686,-0.04,-0.97,0.25,1.71,-3.11,-2.2,209,221,190,442,295,14
687,-0.03,-0.97,0.24,2.81,-3.05,-2.38,206,222,191,446,302,14
688,-0.06,-0.97,0.25,-1.89,-1.22,-3.11,208,222,193,444,300,14
689,-0.04,-0.97,0.26,1.04,-3.17,-2.44,209,222,192,447,299,14
690,-0.03,-0.97,0.24,-3.3,-2.08,-3.05,209,220,191,449,299,14
691,-0.01,-0.98,0.2,-6.23,-5.92,-5.31,206,225,194,446,299,14
692,-0.04,-0.98,0.18,5.8,-8.73,1.28,208,218,186,440,300,14
693,-0.01,-0.98,0.18,-6.29,-4.15,-5.0,209,222,194,445,302,14
694,-0.01,-0.97,0.22,1.53,-1.53,-3.54,205,223,188,442,299,14
695,-0.02,-0.97,0.22,3.97,-3.36,-1.28,210,220,186,445,298,14
696,-0.02,-0.98,0.17,0.06,-2.87,-0.18,207,221,192,449,297,14
697,-0.04,-0.97,0.25,4.21,-2.81,0.18,208,221,192,450,298,14
698,-0.04,-0.96,0.27,2.5,-5.13,-1.95,208,225,189,449,300,14
699,-0.04,-0.96,0.28,1.4,-6.35,-1.95,209,223,194,443,301,14
700,-0.03,-0.96,0.28,3.17,-3.17,-2.14,209,228,193,446,302,14
701,-0.03,-0.96,0.29,0.37,-2.93,-2.14,210,222,194,449,298,14
702,-0.03,-0.96,0.27,4.27,-6.35,-3.91,210,225,195,447,299,14
703,-0.01,-0.95,0.28,1.95,-6.96,-5.43,215,225,192,445,300,14
704,0.01,-0.96,0.29,-4.27,-4.52,-10.8,212,225,197,446,298,14
705,0.04,-0.96,0.27,-1.1,-5.8,-5.07,206,219,190,445,302,14
706,0.05,-0.97,0.27,2.14,-1.77,0.67,208,225,191,445,298,14
707,0.03,-0.97,0.16,-8.12,-3.91,1.04,208,222,192,450,300,14
708,0.01,-0.98,0.22,8.3,-2.08,-1.83,206,223,191,440,301,14
709,0.02,-0.98,0.19,0.67,-1.16,-5.74,208,225,194,451,298,14
710,-0.01,-0.98,0.22,5.49,-0.49,-0.43,211,220,194,447,301,14
711,0.0,-0.98,0.23,3.17,-1.89,-3.97,210,225,194,447,300,14
712,0.01,-0.97,0.19,-3.36,-1.71,-7.57,208,226,192,449,302,14
713,0.03,-0.96,0.2,2.01,-3.66,-1.4,207,226,192,444,301,14
714,0.03,-0.99,0.19,-1.59,-2.32,-3.91,209,224,192,448,303,14
715,0.03,-0.98,0.18,1.53,-2.62,-1.95,209,227,195,445,300,14
716,0.04,-0.98,0.18,0.67,-3.17,-2.75,207,224,194,449,305,14
717,0.04,-0.99,0.17,-2.26,-3.23,-3.6,210,225,192,451,301,14
718,0.05,-0.98,0.16,0.98,-3.17,-2.14,208,224,193,447,302,14
719,0.04,-0.99,0.17,0.73,-2.56,-2.81,208,223,191,446,300,14
720,0.05,-0.98,0.17,-0.37,-3.05,-3.42,210,223,194,445,303,14
721,0.03,-0.98,0.15,-0.24,-3.48,-1.83,208,226,193,446,299,14
722,0.04,-0.99,0.15,-0.85,-2.81,-2.93,214,224,194,446,302,14
723,0.06,-0.98,0.13,0.92,-1.04,-2.14,229,224,194,445,301,14
724,0.02,-1.01,0.17,2.75,-0.73,0.06,209,226,193,451,301,14
725,0.02,-0.99,0.19,-0.43,-2.99,-3.48,211,229,190,446,302,14
726,0.03,-1.0,0.17,2.99,-2.38,-1.53,203,226,193,446,298,14
727,0.02,-1.0,0.2,-2.01,-4.03,-2.93,208,222,195,445,301,14
728,0.04,-1.0,0.16,-3.23,-5.43,-3.72,211,224,193,447,302,14
729,0.03,-0.99,0.13,-4.09,-4.76,-4.09,206,223,195,450,304,14
730,0.03,-0.99,0.15,5.37,0.43,-1.59,208,222,192,448,301,14
731,0.02,-0.97,0.2,13.55,-1.59,4.39,208,224,195,447,303,14
732,-0.05,-0.97,0.27,2.08,3.97,-1.1,207,223,194,451,303,14
733,-0.04,-0.98,0.21,-11.6,4.52,-4.27,208,224,195,447,304,14
734,-0.04,-0.99,0.13,-4.76,-1.65,-0.73,208,227,189,447,302,14
735,-0.01,-0.98,0.14,4.64,-6.47,1.1,209,226,194,442,302,14
736,-0.03,-0.99,0.13,0.67,-0.43,-2.08,208,224,194,442,305,14
737,-0.04,-0.95,0.14,3.97,-3.72,-1.46,208,223,196,446,302,14
738,-0.03,-0.99,0.16,3.3,-4.09,-0.55,208,223,193,450,302,14
739,-0.04,-0.99,0.18,2.44,-3.42,-1.34,210,226,194,451,302,14
740,-0.04,-0.98,0.17,0.49,-2.99,-3.23,204,225,194,446,302,14
741,-0.05,-0.98,0.18,-0.92,-1.77,-3.23,209,226,196,446,301,14
742,-0.05,-0.98,0.18,-2.2,-2.69,-2.81,211,226,193,444,302,14
743,-0.03,-0.98,0.16,-5.31,-5.74,-1.28,211,223,194,447,303,14
744,-0.04,-0.98,0.18,-3.42,-1.95,-0.92,209,221,195,446,305,14
745,-0.01,-0.99,0.21,-19.84,-0.37,-15.2,208,226,192,454,303,14
746,0.0,-0.95,-0.29,-20.87,-15.81,14.34,234,225,194,451,302,14
747,-0.02,-0.95,-0.27,-0.55,-5.62,-2.93,209,227,194,443,301,14
748,-0.1,-0.95,-0.27,-11.78,-14.4,8.97,206,225,195,447,300,14
749,-0.16,-0.92,-0.35,-2.32,-7.02,-1.83,209,227,193,443,300,14
750,-0.13,-0.91,-0.32,0.73,-3.48,-1.34,209,225,194,451,297,14
751,-0.16,-0.92,-0.32,1.83,-3.17,-3.54,210,224,198,452,298,14
752,-0.16,-0.92,-0.32,-0.18,-2.93,-2.62,213,226,187,441,304,14
753,-0.16,-0.93,-0.32,1.28,-3.78,-2.26,210,225,193,453,299,14
754,-0.16,-0.93,-0.32,0.67,-3.11,-2.5,208,223,195,451,303,14
755,-0.17,-0.92,-0.31,-0.37,-2.87,-2.2,208,226,196,449,304,14
756,-0.16,-0.92,-0.31,0.67,-3.54,-2.5,209,225,192,452,301,14
757,-0.17,-0.92,-0.32,2.99,-3.54,-1.34,208,226,193,441,299,14
758,-0.16,-0.93,-0.31,0.37,-3.6,-1.59,208,226,192,447,301,14
759,0.17,-0.87,-0.12,70.31,40.22,-80.14,212,224,193,447,300,14
760,0.35,-0.89,0.34,30.82,-25.45,46.39,208,225,192,448,302,14
761,-0.04,-0.97,0.3,0.98,-2.5,-1.16,211,222,194,449,304,14
762,0.01,-0.96,0.25,-1.16,-4.27,-0.43,211,223,187,448,302,14
763,0.03,-0.97,0.26,-3.72,-1.16,-8.97,208,227,192,446,302,14
764,-0.04,-0.97,0.27,3.11,-2.2,-0.37,210,227,193,447,304,14
765,0.04,-0.96,0.24,-3.11,-3.17,-4.21,211,225,194,451,301,14
766,0.0,-0.97,0.24,4.94,-3.3,2.56,212,228,193,448,301,14
767,-0.01,-0.97,0.26,5.43,-15.38,-8.24,210,227,196,449,302,14
768,0.06,-0.97,0.18,-9.77,1.22,-9.77,212,227,191,449,297,14
769,0.04,-0.99,0.12,-13.98,-1.77,0.98,212,225,196,448,299,14
770,-0.03,-1.0,-0.01,-17.7,-7.63,2.69,211,224,192,450,302,14
771,0.0,-0.99,-0.09,-8.06,-2.01,2.62,212,228,193,451,301,14
772,-0.08,-0.98,-0.16,6.53,10.07,7.2,199,229,197,446,305,14
773,-0.1,-0.99,0.02,10.93,1.59,-2.38,209,224,196,453,304,14
774,-0.09,-0.99,0.01,0.79,-1.28,-3.66,209,228,193,452,304,14
775,-0.1,-0.99,-0.0,2.26,-2.2,-1.59,211,227,199,448,302,14
776,-0.1,-0.99,-0.01,1.46,-2.69,-1.28,212,224,197,449,301,14
777,-0.11,-0.99,0.01,0.0,-3.11,-1.04,212,222,197,445,298,14
778,-0.12,-0.99,0.02,-1.53,-6.23,1.28,217,225,193,444,305,14
779,-0.14,-0.97,-0.01,-0.18,-7.69,-6.04,211,227,194,449,302,14
780,-0.12,-0.98,0.02,-6.41,-2.99,-8.97,209,225,194,460,304,14
781,-0.11,-0.97,-0.11,-21.73,-12.57,-3.11,209,225,194,450,300,14
782,-0.06,-0.96,-0.21,-8.97,-7.14,-6.29,211,227,193,450,305,14
783,-0.09,-0.96,-0.24,-3.48,-5.8,-5.55,207,227,196,443,304,14
784,-0.1,-0.96,-0.24,0.73,-6.77,-0.92,212,228,196,446,303,14
785,-0.09,-0.96,-0.22,-0.43,-5.37,-3.05,208,226,195,446,302,14
786,-0.1,-0.96,-0.24,-1.71,-2.69,-2.69,209,227,194,449,300,14
787,-0.11,-0.95,-0.25,0.37,-2.69,-3.23,209,226,196,448,302,14
788,-0.1,-0.95,-0.25,-1.53,-1.95,-1.89,211,227,191,452,304,14
789,-0.1,-0.95,-0.25,-1.83,-2.75,-2.69,212,224,191,449,304,14
790,-0.11,-0.95,-0.28,0.06,-3.97,-1.89,210,226,195,445,302,14
791,-0.11,-0.95,-0.27,0.98,-2.81,-2.44,211,225,193,449,301,14
792,-0.11,-0.95,-0.26,0.12,-2.5,-2.99,237,225,196,452,298,14
793,-0.11,-0.94,-0.27,1.46,-3.6,-2.87,207,225,198,447,300,14
794,-0.11,-0.95,-0.27,-0.06,-3.11,-3.11,224,226,194,451,302,14
795,-0.16,-0.81,-0.32,1.59,-2.93,-2.44,208,227,195,445,304,14
796,-0.11,-0.95,-0.26,0.49,-2.56,-2.99,210,226,195,445,301,14
797,-0.11,-0.95,-0.27,0.61,-3.17,-2.5,211,228,199,445,304,14
798,-0.12,-0.95,-0.27,0.79,-3.72,-2.08,211,226,194,449,300,14
799,-0.11,-0.95,-0.27,0.06,-3.42,-2.01,208,226,194,446,310,14
800,-0.13,-0.95,-0.28,2.56,-3.66,-2.62,207,226,197,447,302,14
801,-0.11,-0.95,-0.24,1.77,-3.91,-4.33,210,227,196,443,299,14
802,-0.04,-0.95,-0.25,7.08,-6.77,-12.88,238,225,191,449,302,14
803,0.03,-0.97,-0.16,-0.37,-0.79,-11.78,211,229,197,449,300,14
804,0.01,-0.93,-0.34,-12.15,-10.86,15.81,210,226,195,446,301,14
805,-0.1,-0.93,-0.37,1.22,0.0,-9.28,205,223,194,449,304,14
806,-0.08,-0.95,-0.26,1.77,-5.49,0.0,212,229,194,453,302,14
807,-0.1,-0.94,-0.28,5.07,-6.65,-2.93,208,227,195,451,304,14
808,-0.05,-0.94,-0.32,-1.53,-2.87,-7.02,209,226,195,444,302,14
809,-0.09,-0.95,-0.28,8.67,-1.34,-0.92,210,227,197,453,299,14
810,-0.09,-0.95,-0.3,-0.31,-3.97,-1.95,211,226,200,452,301,14
811,-0.09,-0.94,-0.28,-3.66,-1.04,-3.3,212,228,196,449,302,14
812,-0.08,-0.95,-0.28,1.77,-2.75,-2.93,212,226,192,449,303,14
813,-0.11,-0.95,-0.29,-0.06,-4.21,-0.79,210,228,199,448,301,14
814,-0.08,-0.96,-0.25,3.11,-3.42,-3.42,210,229,196,446,302,14
815,-0.11,-0.95,-0.25,1.77,-3.78,-2.01,209,226,197,451,300,14
816,-0.1,-0.95,-0.24,0.73,-4.27,-1.16,208,225,194,452,304,14
817,-0.11,-0.96,-0.24,-0.49,-3.97,-1.95,210,229,194,446,303,14
818,-0.11,-0.96,-0.25,2.2,-1.95,-3.97,209,228,194,449,302,14
819,-0.12,-0.95,-0.24,1.22,-4.21,-2.56,209,225,194,443,304,14
820,-0.11,-0.97,-0.24,0.18,-4.09,-2.56,208,223,192,450,303,14
821,-0.12,-0.94,-0.25,0.61,-3.05,-2.38,211,227,193,455,302,14
822,-0.12,-0.95,-0.23,0.24,-3.17,-2.75,209,225,193,453,302,14
823,-0.12,-0.96,-0.23,1.46,-3.17,-2.69,208,225,195,445,304,14
824,-0.12,-0.96,-0.23,0.49,-3.23,-2.62,212,226,197,446,302,14
825,-0.12,-0.96,-0.23,0.85,-3.66,-3.72,209,226,196,453,305,14
826,-0.14,-0.96,-0.21,2.44,-2.56,-2.38,212,230,196,442,302,14
827,-0.12,-0.97,-0.19,2.38,-2.69,-3.48,209,228,198,448,303,14
828,-0.12,-0.97,-0.21,2.26,-0.73,-7.69,213,225,198,447,304,14
829,-0.12,-0.96,-0.2,1.65,-4.33,-2.01,211,225,193,449,306,14
830,-0.12,-0.97,-0.21,-0.18,-4.21,-3.97,210,225,196,453,302,14
831,-0.12,-0.97,-0.22,-2.26,-1.4,-3.6,218,228,198,450,302,14
832,-0.12,-0.96,-0.23,2.2,-4.52,-1.46,213,225,201,452,305,14
833,-0.11,-0.96,-0.23,0.98,-4.39,-2.08,208,227,196,449,302,14
834,-0.11,-0.96,-0.22,0.55,-2.32,-2.26,207,226,195,454,303,14
835,-0.1,-0.96,-0.23,2.62,-2.2,-0.73,210,223,194,453,302,14
836,-0.1,-0.96,-0.22,-0.31,-2.5,-3.05,211,223,197,448,300,14
837,-0.12,-0.96,-0.2,-0.49,-1.59,-3.97,210,225,194,449,302,14
838,-0.1,-0.96,-0.22,2.14,-6.47,-3.72,213,227,195,443,302,14
839,-0.11,-0.96,-0.23,2.26,-1.4,-1.83,213,227,199,450,302,14
840,-0.09,-0.97,-0.19,-0.49,-0.61,-3.17,219,225,195,454,304,14
841,-0.09,-0.96,-0.23,-3.97,-2.32,-2.69,208,228,198,448,302,14
842,-0.12,-0.95,-0.23,6.47,-2.75,-4.27,206,226,192,450,304,14
843,-0.09,-0.96,-0.24,0.79,-2.81,-2.32,210,224,194,450,303,14
844,-0.08,-0.96,-0.22,1.71,-5.0,-10.5,212,228,196,451,303,14
845,-0.12,-0.97,-0.22,3.85,-0.37,-6.9,211,227,195,452,299,14
846,-0.08,-0.97,-0.14,0.06,1.16,-11.6,211,229,195,452,303,14
847,-0.03,-0.97,-0.23,1.16,-12.27,1.1,211,229,193,452,305,14
848,-0.04,-0.96,-0.24,-5.43,-6.29,-3.11,214,224,195,449,303,14
849,-0.02,-0.96,-0.25,-1.22,2.08,-8.36,212,224,195,443,300,14
850,-0.03,-0.95,-0.27,0.79,-3.6,2.44,213,226,198,454,299,14
851,-0.06,-0.97,-0.23,8.54,2.69,-2.87,213,228,193,448,302,14
852,-0.07,-0.97,-0.18,6.71,-1.71,-0.73,210,226,197,453,303,14
853,-0.07,-0.97,-0.16,1.89,-2.01,-3.11,211,229,193,450,299,14
854,-0.06,-0.98,-0.17,1.59,-2.99,-3.23,213,227,195,449,306,14
855,-0.05,-0.98,-0.18,-0.85,0.0,-8.54,213,222,197,449,304,14
856,-0.06,-0.97,-0.18,-3.3,-7.32,-1.22,211,227,197,449,302,14
857,-0.05,-0.97,-0.21,-1.53,-4.21,-1.46,213,228,193,452,303,14
858,-0.06,-0.97,-0.21,-0.06,-3.78,-3.05,214,227,194,448,303,14
859,-0.06,-0.98,-0.19,2.75,-5.68,-5.43,213,229,198,449,305,14
860,-0.07,-0.97,-0.17,-4.88,2.56,-7.2,206,229,194,454,304,14
861,-0.07,-0.96,-0.29,-6.9,-18.49,14.59,211,228,196,448,302,14
862,-0.14,-0.96,-0.2,12.88,1.59,-7.69,214,229,196,451,302,14
863,-0.03,-1.0,-0.14,16.72,1.4,-11.66,214,227,197,453,303,14
864,-0.1,-0.83,-0.34,-9.52,0.73,-8.06,213,228,198,449,304,14
865,0.04,-1.0,-0.22,47.42,-15.93,-11.23,210,226,193,451,305,14
866,0.11,-1.0,0.18,4.33,1.89,-3.78,213,226,199,450,305,14
867,-0.02,-0.99,0.02,-35.28,8.12,10.74,214,227,198,455,299,14
868,-0.01,-0.97,-0.27,-8.06,-7.51,7.39,211,227,196,453,302,14
869,-0.02,-0.97,-0.24,-10.68,-3.23,-6.53,222,227,196,453,308,14
870,-0.06,-0.96,-0.29,0.37,-14.65,-3.97,213,229,197,447,299,14
871,-0.06,-0.97,-0.25,3.17,-8.54,-2.93,214,227,194,449,304,14
872,-0.03,-0.98,-0.16,7.32,-2.93,-6.53,211,227,198,449,306,14
873,0.01,-0.98,-0.13,2.38,0.85,-8.42,211,224,196,453,303,14
874,-0.06,-0.99,-0.11,-6.1,4.82,2.99,213,226,193,449,307,14
875,-0.04,-0.96,-0.2,1.65,-1.89,7.45,214,230,193,449,305,14
876,-0.07,-0.95,-0.3,0.12,-5.31,-1.53,212,224,195,446,305,14
877,-0.05,-0.95,-0.29,-0.31,-2.69,-7.2,211,230,198,452,304,14
878,-0.05,-0.95,-0.29,-0.79,1.89,-2.93,209,227,199,443,302,14
879,-0.11,-0.95,-0.28,2.62,-1.53,-0.06,214,224,198,446,304,14
880,-0.08,-0.95,-0.25,2.56,-1.46,2.01,211,228,196,449,302,14
881,-0.12,-0.95,-0.26,5.37,-3.54,-0.73,210,230,199,449,301,14
882,-0.1,-0.96,-0.22,2.38,-3.36,-2.14,211,230,198,448,302,14
883,-0.11,-0.96,-0.24,0.12,-3.36,-1.71,209,229,196,447,305,14
884,-0.12,-0.95,-0.24,1.16,-3.78,-2.08,215,235,199,454,303,14
885,-0.12,-0.96,-0.24,0.43,-2.93,-2.2,209,230,197,454,304,14
886,-0.12,-0.96,-0.24,-2.32,-1.34,-4.52,211,227,197,444,302,14
887,-0.13,-0.96,-0.25,-0.43,-3.72,-1.4,212,228,196,444,305,14
888,-0.14,-0.96,-0.25,2.38,-9.52,-8.48,211,227,198,453,302,14
889,-0.05,-0.96,-0.23,11.41,-8.42,-19.78,211,230,199,457,303,14
890,0.04,-0.97,-0.15,2.32,-1.28,-17.76,212,230,198,453,308,14
891,0.07,-0.96,-0.24,-7.75,-3.36,-3.17,212,228,199,446,304,14
892,0.08,-0.97,-0.23,1.1,-0.24,-1.4,213,227,198,449,305,14
893,0.06,-0.97,-0.23,-2.93,-4.58,4.27,213,227,196,448,305,14
894,0.05,-0.95,-0.29,-1.77,-4.76,-9.83,212,229,200,446,303,14
895,0.06,-0.97,-0.24,3.97,-7.51,-1.22,211,228,200,451,302,14
896,-0.01,-0.96,-0.24,7.14,-6.77,1.95,212,228,193,449,302,14
897,0.03,-0.98,-0.21,1.22,-4.76,-2.38,212,228,193,452,303,14
898,-0.01,-0.99,-0.17,-3.48,-0.73,-2.2,210,229,199,450,301,14
899,0.0,-0.99,-0.15,3.78,0.79,-5.13,212,227,197,456,300,14
900,0.01,-0.97,-0.2,-7.81,-3.11,-0.67,215,225,195,447,303,14
901,0.0,-0.98,-0.2,0.37,-1.77,-4.88,207,229,200,448,305,14
902,-0.02,-0.98,-0.14,0.06,-3.97,-4.33,212,227,197,450,304,14
903,0.01,-0.98,-0.22,-2.2,-0.24,-3.36,209,230,199,448,299,14
904,0.02,-0.98,-0.16,3.85,-1.89,-5.43,215,228,199,453,301,14
905,0.01,-0.97,-0.16,4.09,-4.27,-0.67,210,229,200,450,303,14
906,0.03,-0.98,-0.17,-0.61,-2.69,-2.81,213,230,195,448,302,14
907,0.0,-0.98,-0.16,3.23,-5.0,-6.35,212,231,196,449,303,14
908,-0.0,-0.97,-0.14,10.07,-10.13,-0.18,215,231,198,452,305,14
909,0.01,-0.98,-0.12,-0.85,-1.95,-4.82,212,234,197,449,303,14
910,0.01,-0.99,-0.12,0.49,-4.33,-2.38,212,231,199,449,305,14
911,0.03,-0.99,-0.13,0.49,-2.08,-3.48,214,228,199,449,305,14
912,0.02,-0.99,-0.14,-1.83,-2.44,-3.54,213,229,198,446,300,14
913,0.03,-0.98,-0.16,-0.55,-2.75,-2.56,213,228,199,455,299,14
914,0.04,-0.98,-0.17,-0.37,-2.87,-2.87,214,227,197,453,304,14
915,0.03,-0.98,-0.15,-0.98,-2.5,-3.78,212,230,193,449,307,14
916,0.03,-0.98,-0.17,-0.92,-2.44,-3.23,212,238,192,448,306,14
917,0.04,-0.97,-0.18,0.0,-3.11,-2.69,212,229,197,449,301,14
918,0.04,-0.98,-0.19,-0.24,-2.44,-3.17,211,227,196,449,303,14
919,0.04,-0.97,-0.19,-0.55,-3.54,-2.56,214,231,196,449,303,14
920,0.02,-0.98,-0.16,4.15,-5.74,-0.43,214,229,200,444,300,14
921,0.02,-0.98,-0.14,1.53,-3.3,-2.5,212,226,211,453,303,14
922,0.01,-0.98,-0.14,0.06,-2.75,-2.93,213,226,199,449,305,14
923,0.02,-0.98,-0.15,-0.06,-3.05,-3.23,212,227,197,452,305,14
924,0.02,-0.98,-0.15,0.06,-3.05,-2.56,214,229,196,449,302,14
925,0.02,-0.98,-0.16,-2.08,-2.99,-3.11,215,227,197,452,300,14
926,0.02,-0.98,-0.16,0.12,-3.17,-3.05,213,226,199,449,302,14
927,0.02,-0.98,-0.16,0.85,-3.3,-2.69,213,226,195,449,306,14
928,0.02,-0.98,-0.15,0.37,-3.11,-2.5,210,226,199,448,303,14
929,0.02,-0.98,-0.16,0.92,-3.3,-2.87,215,228,195,448,303,14
930,0.02,-0.98,-0.17,0.18,-3.05,-2.62,214,231,199,450,304,14
931,0.02,-0.98,-0.16,1.28,-3.36,-2.75,212,231,199,449,304,14
932,0.01,-0.97,-0.15,0.55,-2.81,-2.32,213,228,199,449,307,14
933,0.02,-0.98,-0.17,-0.06,-2.93,-2.14,216,231,197,444,301,14
934,0.02,-0.98,-0.15,1.95,-4.15,-1.34,214,228,196,443,305,14
935,0.03,-0.98,-0.16,0.49,-2.75,-2.75,212,227,197,444,306,14
936,0.02,-0.98,-0.15,1.53,-3.05,-2.56,240,228,199,451,304,14
937,0.01,-0.99,-0.15,1.71,-3.66,-2.5,213,228,200,448,306,14
938,0.01,-1.0,-0.13,5.98,-4.52,-2.93,214,227,201,449,305,14
939,0.04,-0.99,-0.1,-8.06,4.82,-11.66,214,228,200,455,304,14
940,0.03,-0.98,-0.15,2.69,-7.32,2.14,213,231,200,457,303,14
941,0.02,-0.99,-0.11,-0.73,-3.36,-2.81,213,230,200,451,305,14
942,0.01,-0.99,-0.12,0.98,-3.91,-2.44,215,229,195,449,305,14
943,0.02,-0.99,-0.12,-0.18,-2.87,-2.62,213,228,199,446,302,14
944,0.01,-0.98,-0.13,0.24,-2.62,-2.38,251,228,198,444,302,14
945,0.01,-0.99,-0.12,0.43,-3.48,-2.81,211,226,195,451,304,14
946,0.02,-0.99,-0.13,0.24,-1.59,-3.78,213,231,200,452,304,14
947,0.03,-0.99,-0.12,-2.08,5.31,-7.69,210,228,200,452,304,14
948,0.07,-0.97,-0.18,-7.93,1.71,-3.42,213,230,197,450,303,14
949,0.07,-0.98,-0.18,1.04,-3.66,-2.14,211,228,195,451,305,14
950,0.06,-0.97,-0.17,0.43,-3.42,-2.32,215,227,200,455,304,14
951,0.08,-0.97,-0.19,-1.04,-0.67,-3.05,215,229,198,455,304,14
952,0.06,-0.98,-0.18,-1.59,-4.82,0.98,216,229,200,450,306,14
953,0.05,-0.97,-0.2,-2.99,-2.44,-3.6,212,231,196,454,307,14
954,0.04,-0.98,-0.2,0.61,-3.6,-2.01,214,227,195,451,305,14
955,0.04,-0.97,-0.2,0.67,-3.42,-2.32,216,232,198,456,306,14
956,0.04,-0.97,-0.2,0.37,-3.48,-2.32,213,230,201,453,304,14
957,0.04,-0.97,-0.21,0.18,-3.78,-1.83,213,229,197,452,304,14
958,0.03,-0.98,-0.18,6.41,-8.67,-2.26,211,229,205,452,304,14
959,-0.0,-0.99,-0.2,-5.19,-14.95,7.02,222,230,198,452,304,14
960,-0.06,-0.98,-0.01,11.41,-3.36,-17.03,213,226,197,452,306,14
961,0.08,-0.98,-0.09,-4.64,-10.19,-6.16,216,230,200,455,301,14
962,0.06,-0.98,-0.18,-2.93,-2.69,-4.39,212,234,201,455,308,14
963,0.09,-0.98,-0.14,1.83,1.65,-4.58,216,229,201,451,306,14
964,0.11,-0.97,-0.13,-12.7,11.54,9.7,213,232,200,452,305,14
965,-0.05,-0.97,-0.32,-10.56,5.49,12.7,213,230,198,454,305,14
966,-0.02,-0.95,-0.26,7.45,-2.87,-0.31,213,228,201,447,304,14
967,-0.02,-0.97,-0.23,5.74,-6.41,0.37,216,229,195,455,306,14
968,-0.08,-0.97,-0.12,14.28,6.41,1.46,213,231,202,445,302,14
969,-0.04,-0.98,-0.24,6.29,-13.43,-4.52,212,232,201,446,303,14
970,0.08,-0.95,-0.12,-1.16,3.48,-9.28,216,232,199,450,308,14
971,-0.02,-0.99,-0.16,7.75,-4.58,2.93,215,232,198,450,304,14
972,-0.01,-0.98,-0.16,1.65,-0.31,0.67,214,228,199,455,306,14
973,-0.01,-0.98,-0.17,2.2,4.21,-5.74,214,234,199,450,304,14
974,-0.03,-0.98,-0.12,0.24,-8.3,-5.55,225,234,202,456,310,14
975,-0.03,-0.98,-0.16,-1.34,-7.87,-3.36,215,231,210,455,304,14
976,-0.01,-0.99,-0.1,5.98,-0.31,-1.28,213,232,199,447,302,14
977,-0.05,-0.99,-0.06,-2.5,-1.22,-4.7,216,237,197,452,301,14
978,-0.05,-0.99,-0.08,-0.55,-2.56,-2.32,216,230,198,456,306,14
979,-0.05,-0.99,-0.07,1.46,-2.81,-2.44,214,229,197,450,307,14
980,-0.05,-0.99,-0.06,0.67,-2.75,-2.2,214,232,198,452,305,14
981,-0.06,-1.0,-0.07,0.06,-3.05,-2.44,213,231,197,451,305,14
982,-0.06,-0.99,-0.06,-0.43,-3.17,-4.27,215,230,199,454,304,14
983,-0.05,-0.99,-0.07,-0.61,-4.33,-3.6,211,227,198,451,308,14
984,-0.03,-0.99,-0.1,-4.7,-2.93,-4.52,217,230,197,453,303,14
985,-0.05,-0.99,-0.1,0.18,-4.33,-1.77,213,229,197,451,303,14
986,-0.05,-0.99,-0.09,2.56,-3.3,-2.75,213,231,198,456,306,14
987,-0.04,-0.99,-0.11,0.49,-3.11,-2.56,211,229,201,451,305,14
988,-0.04,-0.99,-0.11,-0.67,-2.5,-3.48,215,229,194,455,305,14
989,-0.04,-1.01,-0.1,1.53,-3.78,-2.2,216,230,201,449,306,14
990,-0.04,-0.99,-0.11,0.43,-3.17,-2.75,213,231,200,449,303,14
991,-0.04,-0.99,-0.11,1.59,-2.56,-2.32,215,231,197,451,307,14
992,-0.04,-0.99,-0.1,2.08,-1.65,-1.28,213,230,199,453,304,14
993,-0.06,-0.99,-0.09,-0.55,-3.11,-2.08,213,230,201,451,306,14
994,-0.06,-0.98,-0.12,0.12,-1.95,-2.44,215,233,197,456,305,14
995,-0.07,-0.99,-0.09,-2.87,-1.71,-3.48,214,237,200,452,308,14
996,-0.06,-0.99,-0.11,0.24,-4.88,-3.36,216,233,198,451,305,14
997,-0.06,-0.99,-0.11,0.06,-4.03,-3.23,208,230,199,455,305,14
998,-0.07,-0.99,-0.12,0.98,-4.46,-2.81,213,229,197,453,314,14
999,-0.07,-0.98,-0.12,0.85,-3.97,-2.08,213,231,202,451,307,14
1000,-0.07,-0.98,-0.12,2.32,-3.66,-1.83,215,232,200,451,308,14
1001,-0.07,-0.99,-0.12,0.79,-3.6,-2.69,215,232,201,452,306,14
1002,-0.06,-0.98,-0.12,1.34,-3.05,-2.87,213,230,201,456,305,14
1003,-0.07,-0.98,-0.11,1.22,-2.69,-1.89,213,230,205,453,305,14
1004,-0.06,-0.98,-0.11,-2.08,-1.83,-4.09,215,230,196,452,300,14
1005,-0.07,-0.99,-0.09,-0.85,-1.46,-3.91,212,233,199,447,307,14
1006,-0.06,-0.99,-0.1,-0.92,-4.46,-3.66,216,233,195,452,303,14
1007,-0.06,-0.99,-0.1,3.91,-7.63,-5.62,223,230,198,451,304,14
1008,0.18,-0.98,0.16,-0.85,-2.56,1.34,182,247,183,432,343,14
1009,0.16,-0.98,0.14,0.98,0.43,-2.87,189,248,179,431,350,14
1010,0.15,-0.97,0.16,1.34,-9.28,-0.55,190,246,188,429,349,14
1011,0.14,-0.99,0.15,-3.48,-12.76,-4.58,196,249,180,438,349,14
1012,0.13,-0.98,0.18,8.48,-6.9,-2.14,185,250,183,431,347,14
1013,0.15,-0.98,0.17,0.24,-5.68,1.53,203,255,184,432,349,14
1014,0.14,-0.97,0.15,4.33,5.92,-0.12,186,248,187,431,349,14
1015,0.15,-1.0,0.16,5.68,-1.04,-3.91,194,248,183,428,350,14
1016,0.13,-0.95,0.18,-3.66,-9.4,-0.92,196,248,190,433,351,14
1017,0.18,-0.99,0.19,-1.1,-2.75,-5.62,195,250,179,435,351,14
1018,0.18,-1.01,0.16,5.55,0.79,-0.43,198,252,185,427,354,14
1019,0.11,-0.97,0.12,-0.06,8.54,8.24,196,248,187,435,350,14
1020,0.06,-1.0,0.19,-7.57,-11.35,8.24,192,254,185,433,349,14
1021,0.05,-0.9,0.18,-22.83,4.39,4.33,197,256,194,436,352,14
1022,0.0,-0.98,0.2,8.79,0.92,-0.67,206,253,195,435,353,14
1023,0.01,-0.99,0.18,0.92,-1.59,-6.59,198,252,186,436,348,14
1024,-0.01,-0.95,0.18,0.31,-5.25,-3.17,193,252,190,438,356,14
1025,0.02,-0.98,0.21,1.95,-4.58,-2.99,195,249,188,438,352,14
1026,0.02,-0.99,0.19,-1.83,-2.99,-3.11,199,257,192,436,354,14
1027,0.02,-0.99,0.19,-0.79,-3.54,-5.07,195,250,186,436,356,14
1028,0.03,-0.98,0.18,-1.95,-6.59,-6.59,197,256,191,433,345,14
1029,-0.03,-0.99,0.12,4.09,-5.25,-1.22,197,258,192,429,348,14
1030,0.02,-1.0,0.16,2.44,-6.65,-6.29,209,256,192,435,349,14
1031,0.06,-0.98,0.15,-5.0,-0.92,-5.37,197,261,189,431,349,14
1032,0.07,-0.99,0.11,-2.2,-3.36,-5.25,202,273,193,438,350,14
1033,0.08,-0.99,0.1,0.24,-2.93,-1.53,193,256,189,439,354,14
1034,0.07,-0.99,0.09,-0.43,-3.66,-5.62,202,258,195,436,351,14
1035,0.08,-0.99,0.1,0.12,-5.98,-2.93,203,258,194,437,346,14
1036,0.07,-0.98,0.08,-0.67,-4.15,-2.26,202,260,198,429,348,14
1037,0.08,-0.99,0.09,0.55,2.32,-1.34,195,260,198,439,351,14
1038,0.09,-0.99,0.08,-0.61,-2.69,-2.2,197,260,189,436,349,14
1039,0.1,-1.0,0.06,5.37,-6.23,-2.62,193,258,194,437,352,14
1040,0.09,-1.0,0.09,0.92,-2.69,-1.04,200,255,196,437,349,14
1041,0.08,-0.99,0.07,-1.77,-3.05,-3.6,195,259,193,432,352,14
1042,0.08,-0.98,0.08,-1.65,-1.4,-2.81,198,263,185,437,348,14
1043,0.07,-0.99,0.08,5.62,-1.4,-0.85,198,260,188,431,354,14
1044,0.05,-1.0,0.15,-1.04,-5.74,-3.91,195,259,191,438,351,14
1045,0.08,-0.99,0.13,-0.37,-6.65,-0.61,199,259,192,434,354,14
1046,0.09,-0.99,0.11,2.32,-3.23,-2.5,199,259,200,439,352,14
1047,0.08,-0.99,0.12,1.95,-2.26,-2.14,197,262,194,437,349,14
1048,0.08,-0.98,0.14,-1.65,-3.91,-1.22,201,262,195,435,350,14
1049,0.06,-0.99,0.13,0.06,-2.01,-2.5,199,260,192,440,350,14
1050,0.09,-0.99,0.13,1.53,-2.62,-3.54,205,263,198,439,351,14
1051,0.09,-0.99,0.12,1.1,-3.23,-2.62,201,261,183,438,355,14
1052,0.08,-0.98,0.13,-0.79,-3.66,-2.62,199,257,194,439,352,14
1053,0.08,-0.98,0.1,-1.22,-2.69,-2.32,197,257,200,436,349,14
1054,0.08,-0.99,0.12,-1.1,-2.5,-2.81,204,259,194,437,350,14
1055,0.08,-1.0,0.13,-1.53,-1.65,-2.87,201,264,192,441,353,14
1056,0.07,-0.99,0.11,0.61,-3.6,-1.59,203,260,195,438,349,14
1057,0.09,-1.0,0.11,-0.61,-1.28,-3.23,202,259,198,436,352,14
1058,0.08,-0.99,0.12,0.61,-3.3,-2.69,195,263,197,444,353,14
1059,0.09,-0.98,0.12,0.24,-3.78,-2.26,199,262,194,443,354,14
1060,0.09,-0.99,0.11,1.46,-3.54,-2.99,202,261,198,443,351,14
1061,0.08,-1.01,0.15,-2.75,-0.98,-0.85,199,261,197,438,353,14
1062,0.08,-0.99,0.12,0.61,-5.43,-4.7,197,263,195,438,351,14
1063,0.09,-0.98,0.1,0.92,-3.6,-1.59,201,256,197,442,351,14
1064,0.11,-0.98,0.12,5.68,-10.86,-4.82,200,258,194,439,351,14
1065,0.09,-0.97,0.11,-1.4,-2.38,-2.62,203,258,197,434,353,14
1066,0.1,-0.97,0.14,-3.11,-4.21,-4.46,200,262,196,455,352,14
1067,0.11,-0.98,0.14,-1.95,-0.24,0.61,203,264,193,443,353,14
1068,0.13,-0.97,0.11,2.62,-4.88,-4.94,199,261,195,440,352,14
1069,0.08,-0.95,0.17,-1.89,-1.65,-1.4,200,265,208,439,349,14
1070,0.12,-1.08,0.22,8.91,-13.43,-3.66,201,259,198,440,353,14
1071,0.14,-0.95,0.15,4.39,0.61,-4.33,204,261,198,438,354,14
1072,0.15,-1.01,0.21,3.11,3.48,3.36,199,257,200,449,351,14
1073,0.09,-0.96,0.17,-7.39,5.74,-2.08,203,260,198,441,352,14
1074,0.12,-0.98,0.17,3.36,-2.87,-5.86,209,259,199,442,354,14
1075,0.13,-0.97,0.17,1.4,-3.54,-2.01,204,257,193,439,355,14
1076,0.16,-1.0,0.19,2.62,-1.46,-4.64,197,259,189,435,352,14
1077,0.11,-0.95,0.15,-2.93,-8.79,-0.49,198,266,190,438,350,14
1078,0.11,-0.97,0.14,-2.38,-3.6,-4.76,200,261,199,438,352,14
1079,0.12,-0.98,0.1,2.5,0.24,-2.2,218,263,194,441,354,14
1080,0.09,-1.01,0.14,6.77,-0.12,1.22,202,264,195,435,351,14
1081,0.12,-0.98,0.16,0.73,4.58,-4.88,199,255,199,442,350,14
1082,0.13,-0.96,0.15,-6.65,-2.38,-2.87,209,261,192,435,353,14
1083,0.13,-0.97,0.15,-0.18,-3.42,-2.32,202,260,201,439,354,14
1084,0.12,-0.91,0.12,-7.51,2.93,-3.6,208,260,196,437,353,14
1085,0.07,-0.98,0.14,-0.24,-0.37,5.13,203,265,200,437,353,14
1086,0.12,-0.99,0.14,2.08,-1.89,0.37,198,260,188,434,353,14
1087,0.06,-0.98,0.1,-8.18,-4.7,-3.78,201,264,195,435,351,14
1088,0.09,-1.01,0.17,3.97,-7.51,-2.26,206,265,194,439,354,14
1089,0.07,-1.04,0.09,-6.04,-1.4,-11.6,205,261,194,435,346,14
1090,0.08,-0.98,0.1,1.53,-5.13,-1.53,192,266,199,436,350,14
1091,0.09,-0.98,0.1,0.98,-6.1,-2.38,202,263,200,438,351,14
1092,0.08,-0.99,0.13,1.46,-4.15,-3.48,203,263,194,446,352,14
1093,0.01,-1.03,0.16,19.53,8.97,3.54,202,262,202,438,351,14
1094,-0.0,-0.97,0.28,-0.92,-9.77,-0.43,201,261,196,436,354,14
1095,0.05,-0.85,0.09,2.44,14.95,19.04,203,266,200,440,350,14
1096,0.16,-0.79,0.38,18.01,-29.79,0.43,206,265,196,438,353,14
1097,0.16,-0.91,0.4,-5.62,14.71,-20.69,206,266,200,434,355,14
1098,0.13,-0.95,0.4,-4.7,30.09,-13.98,207,264,202,441,354,14
1099,0.26,-0.87,0.35,-30.4,-10.5,-7.02,207,259,204,436,353,14
1100,0.0,-0.95,0.2,8.54,16.36,7.14,203,259,202,437,347,14
1101,0.04,-1.01,0.34,15.5,-23.5,-9.4,202,256,198,436,354,14
1102,0.1,-0.97,0.33,-7.63,-4.03,-7.87,201,263,196,441,350,14
1103,0.24,-0.93,0.39,6.47,6.71,-28.44,206,267,211,440,350,14
1104,0.12,-0.98,0.33,-0.55,2.32,-0.24,216,264,202,440,350,14
1105,0.04,-0.95,0.31,-0.98,-7.26,-2.32,203,265,202,444,347,14
1106,0.08,-0.94,0.3,0.49,-15.2,-1.46,216,266,199,444,348,14
1107,0.14,-0.94,0.21,-9.28,-11.6,-0.12,206,264,201,439,347,14
1108,0.12,-0.98,0.18,1.34,-14.65,-1.34,197,258,202,444,351,14
1109,0.2,-0.89,0.25,-14.59,7.93,18.43,207,263,199,439,348,14
1110,0.31,-0.88,0.09,14.77,-14.59,-26.06,207,266,204,438,354,14
1111,0.05,-1.01,0.11,6.65,0.24,-12.39,204,262,197,438,352,14
1112,0.12,-0.99,0.17,0.0,-5.31,3.23,202,268,199,436,349,14
1113,0.13,-0.97,0.11,3.23,3.23,-10.68,203,257,201,442,351,14
1114,0.12,-0.98,0.22,1.22,-4.58,0.0,205,264,199,442,352,14
1115,0.12,-0.98,0.16,0.61,-5.92,-0.31,206,264,197,444,351,14
1116,0.11,-0.98,0.17,-6.59,-0.98,-5.0,210,265,199,440,350,14
1117,0.15,-0.97,0.13,-0.37,-5.74,-1.4,208,267,199,441,343,14
1118,0.11,-0.98,0.12,-3.05,-7.32,-0.61,211,261,197,442,351,14
1119,0.1,-0.96,0.08,1.53,6.23,-3.42,206,264,202,446,351,14
1120,0.13,-0.97,0.23,1.65,3.66,-4.15,208,262,198,440,350,14
1121,0.13,-0.96,0.21,-6.96,1.34,-6.71,205,267,202,441,351,14
1122,0.15,-0.96,0.2,0.06,-3.54,-2.69,208,263,197,445,353,14
1123,0.17,-0.96,0.19,2.69,-2.81,-2.56,210,261,197,439,351,14
1124,0.15,-0.97,0.2,2.87,-2.14,-3.85,207,266,202,439,349,14
1125,0.16,-0.96,0.21,0.06,-2.14,-3.48,201,269,199,443,351,14
1126,0.15,-0.97,0.2,-0.24,-2.75,-2.44,209,260,200,441,352,14
1127,0.17,-0.97,0.21,0.79,-2.01,-3.17,203,266,205,445,359,14
1128,0.17,-0.96,0.2,0.55,-1.22,-3.17,208,266,199,438,351,14
1129,0.16,-0.96,0.22,0.06,-2.2,-2.38,207,265,204,446,347,14
1130,0.16,-0.97,0.21,0.55,-3.05,-3.54,205,263,199,438,352,14
1131,0.16,-0.97,0.22,-2.26,-4.21,-3.72,204,265,201,444,347,14
1132,0.17,-0.96,0.22,5.07,-4.15,-2.26,206,265,204,440,349,14
1133,0.15,-0.96,0.21,-1.65,-2.44,-2.44,207,266,202,442,352,14
1134,0.16,-0.96,0.2,-0.73,-5.07,-4.27,207,267,197,444,353,14
1135,0.18,-0.96,0.22,2.14,-4.03,-3.66,207,259,203,440,353,14
1136,0.19,-0.95,0.22,1.83,-2.99,-4.58,208,264,204,443,351,14
1137,0.2,-0.95,0.21,-1.46,-1.34,-2.62,209,264,203,439,351,14
1138,0.2,-0.96,0.21,-2.38,-2.38,-2.75,208,261,201,444,351,14
1139,0.17,-0.98,0.19,0.92,-3.91,-0.85,212,266,201,458,354,14
1140,0.13,-0.98,0.2,5.8,-3.72,-1.83,208,258,199,438,353,14
1141,0.16,-0.96,0.19,0.18,-3.78,-1.71,203,263,200,444,355,14
1142,0.16,-0.96,0.19,2.2,-4.15,-1.4,208,268,197,441,351,14
1143,0.16,-0.96,0.2,13.06,0.31,-0.55,211,270,198,439,351,14
1144,0.14,-0.96,0.18,-4.09,1.34,-5.86,206,266,207,443,355,14
1145,0.16,-0.97,0.19,0.73,-2.69,-1.71,206,265,203,444,357,14
1146,0.15,-0.98,0.18,3.36,-5.92,-0.92,208,264,200,445,351,14
1147,0.17,-0.96,0.19,2.81,-4.09,-3.23,207,262,201,441,349,14
1148,0.17,-0.97,0.18,-1.34,-3.3,-2.01,209,271,201,442,354,14
1149,0.16,-0.98,0.18,0.43,-1.77,-3.97,212,266,198,439,354,14
1150,0.17,-0.97,0.2,-0.79,-2.93,-2.32,206,271,192,441,354,14
1151,0.15,-0.97,0.18,0.0,-3.23,-1.71,203,267,201,445,352,14
1152,0.17,-0.96,0.18,-0.12,-2.93,-3.48,207,264,197,439,352,14
1153,0.16,-0.97,0.2,1.4,-2.14,-3.05,215,267,201,446,354,14
1154,0.16,-0.97,0.18,1.46,-4.09,-2.38,209,268,200,440,350,14
1155,0.17,-0.97,0.18,-0.06,-2.87,-2.44,208,266,210,439,354,14
1156,0.16,-0.97,0.16,-1.53,-2.01,-3.54,207,265,199,442,355,14
1157,0.16,-0.97,0.19,-1.59,-3.97,-1.4,209,266,205,447,355,14
1158,0.18,-0.96,0.17,-0.61,-2.26,-3.3,209,263,206,446,355,14
1159,0.18,-0.97,0.17,0.79,-2.81,-1.95,210,261,207,443,348,14
1160,0.17,-0.97,0.18,0.79,-2.38,-1.59,209,264,197,442,353,14
1161,0.16,-0.98,0.18,0.06,-3.42,-2.38,201,268,202,447,353,14
1162,0.17,-0.97,0.18,0.18,-3.11,-2.44,210,263,201,443,353,14
1163,0.14,-0.98,0.19,0.92,-4.03,-2.81,209,267,195,445,349,14
1164,0.16,-0.97,0.19,-0.37,-3.72,-3.11,204,266,201,439,353,14
1165,0.16,-0.97,0.18,0.85,-2.69,-1.71,221,266,204,442,352,14
1166,0.17,-0.97,0.18,-4.76,-2.93,-2.26,206,265,201,444,352,14
1167,0.16,-0.97,0.16,2.87,-4.09,-3.17,204,268,203,449,354,14
1168,0.18,-0.98,0.18,1.65,-2.87,-2.62,203,257,199,437,354,14
1169,0.18,-0.97,0.17,-2.38,-1.77,-3.3,209,265,201,441,352,14
1170,0.16,-0.97,0.18,-1.65,-1.95,-3.36,206,264,196,436,352,14
1171,0.15,-0.97,0.2,3.05,-3.78,-2.08,211,266,205,438,353,14
1172,0.15,-0.97,0.19,0.98,-4.33,-1.89,209,264,206,446,350,14
1173,0.15,-0.97,0.18,1.65,-3.97,-2.32,207,266,205,444,351,14
1174,0.16,-0.97,0.19,1.77,-4.7,-2.75,210,265,203,440,351,14
1175,0.16,-0.97,0.17,0.37,-3.66,-2.38,211,270,200,443,349,14
1176,0.16,-0.97,0.18,-0.43,-3.11,-2.44,217,268,194,443,350,14
1177,0.17,-0.97,0.18,-0.92,-2.81,-3.72,211,265,205,444,352,14
1178,0.18,-0.97,0.19,-0.06,-3.17,-4.03,209,264,207,448,353,14
1179,0.18,-0.98,0.19,2.2,-4.46,-2.26,209,263,200,443,353,14
1180,0.18,-0.96,0.18,2.75,-4.88,-2.5,212,269,201,444,347,14
1181,0.17,-0.96,0.18,-1.59,-3.36,-1.89,213,265,206,452,354,14
1182,0.19,-0.97,0.19,1.83,-2.99,-3.11,208,269,203,441,352,14
1183,0.21,-0.96,0.22,2.32,-2.99,-3.72,213,265,208,442,348,14
1184,0.2,-0.96,0.21,0.73,-4.09,-0.85,204,268,207,445,351,14
1185,0.18,-0.97,0.19,-0.12,-3.23,-2.32,209,271,192,445,348,14
1186,0.19,-0.97,0.18,0.92,-3.42,-2.56,209,268,201,443,356,14
1187,0.19,-0.97,0.18,0.49,-3.23,-2.5,213,269,197,446,348,14
1188,0.18,-0.99,0.18,1.4,-2.93,-2.26,214,267,205,442,355,14
1189,0.18,-0.97,0.18,0.79,-2.99,-2.5,213,266,205,443,352,14
1190,0.19,-0.96,0.22,-0.98,-2.81,-3.48,211,258,207,445,349,14
1191,0.2,-0.96,0.19,1.22,-4.21,-0.85,211,264,206,437,353,14
1192,0.19,-0.97,0.18,1.34,-2.01,-3.3,214,270,199,445,352,14
1193,0.2,-0.95,0.19,0.55,-2.26,-1.59,213,262,204,435,347,14
1194,0.16,-0.97,0.18,-0.98,-3.78,-1.59,210,264,200,443,348,14
1195,0.19,-0.97,0.18,-0.49,-3.6,-3.23,213,263,200,450,353,14
1196,0.17,-0.97,0.19,0.06,-4.7,-1.95,213,263,200,441,342,14
1197,0.18,-0.97,0.19,0.12,-2.87,-2.62,212,259,198,444,346,14
1198,0.17,-0.97,0.19,0.61,-2.14,-2.08,210,268,204,436,353,14
1199,0.17,-0.97,0.18,0.06,-3.42,-3.17,209,268,204,439,359,14
1200,0.17,-0.97,0.19,0.85,-2.69,-2.32,217,265,203,442,353,14
1201,0.17,-0.97,0.18,-1.28,-4.27,-3.17,212,268,192,442,354,14
1202,0.16,-0.98,0.18,-2.75,-2.38,-2.32,216,267,195,433,342,14
1203,0.17,-0.97,0.19,0.73,-2.69,-4.15,209,265,213,439,349,14
1204,0.17,-0.96,0.14,5.55,-3.97,-2.5,215,266,209,449,355,14
1205,0.19,-0.98,0.17,2.38,-2.87,-3.05,237,273,202,442,353,14
1206,0.18,-0.97,0.17,1.22,-2.62,-2.99,209,268,205,441,353,14
1207,0.17,-0.97,0.18,1.22,-2.44,-2.44,211,266,193,442,349,14
1208,0.17,-0.97,0.18,-0.12,-2.44,-2.81,210,268,199,436,354,14
1209,0.17,-0.97,0.19,-0.18,-2.75,-2.87,218,268,206,441,344,14
1210,0.18,-0.97,0.18,1.28,-2.87,-1.04,212,270,203,441,355,14
1211,0.18,-0.97,0.16,-1.04,-2.99,-2.44,213,263,201,436,350,14
1212,0.18,-0.98,0.15,-1.1,-3.72,-2.5,238,269,204,444,353,14
1213,0.18,-0.97,0.19,-2.08,-2.01,-3.11,210,274,204,441,350,14
1214,0.18,-0.97,0.17,1.65,-2.87,-2.5,211,268,204,445,352,14
1215,0.17,-0.97,0.18,-0.49,-2.08,-3.17,212,267,209,442,350,14
1216,0.18,-0.98,0.16,-0.73,-1.89,-3.66,213,268,205,438,353,14
1217,0.17,-0.97,0.16,0.67,-3.91,-0.85,212,269,205,434,348,14
1218,0.18,-0.96,0.15,-1.04,-2.14,-2.44,207,268,209,441,353,14
1219,0.16,-0.97,0.14,-0.61,0.43,-0.43,213,269,204,441,350,14
1220,0.16,-0.97,0.17,1.28,-2.69,-2.01,212,264,202,442,357,14
1221,0.12,-0.93,0.2,4.52,-5.19,-0.18,209,270,205,442,352,14
1222,0.17,-0.96,0.17,1.65,-3.6,-2.2,214,261,201,440,353,14
1223,0.18,-0.97,0.18,1.28,-3.85,-3.3,211,265,204,445,351,14
1224,0.14,-0.97,0.17,0.24,-2.26,-1.16,205,270,208,444,352,14
1225,0.16,-0.97,0.16,-1.16,-3.66,-2.38,211,265,204,446,353,14
1226,0.17,-0.97,0.19,0.18,-3.3,-2.44,212,266,202,446,350,14
1227,0.15,-0.98,0.17,2.44,-2.69,-1.04,208,268,201,447,352,14
1228,0.18,-0.97,0.17,2.5,-1.71,-3.6,213,269,203,440,351,14
1229,0.16,-0.97,0.17,5.62,-3.11,-4.88,214,267,205,448,357,14
1230,0.2,-0.96,0.16,-1.1,-3.6,-3.54,212,273,209,443,353,14
1231,0.2,-0.97,0.18,0.92,-2.56,-4.39,210,266,204,443,357,14
1232,0.19,-0.97,0.19,-1.71,-3.36,-1.95,211,270,200,440,355,14
1233,0.19,-0.97,0.2,-0.43,-2.44,0.79,213,269,195,437,352,14
1234,0.2,-0.97,0.14,3.42,-4.21,-2.69,211,266,205,445,355,14
1235,0.2,-0.97,0.16,3.97,-2.32,-1.71,213,267,203,435,352,14
1236,0.17,-0.97,0.23,3.48,-2.99,-6.16,209,269,201,440,354,14
1237,0.19,-0.97,0.23,1.4,0.31,-5.49,211,264,204,438,356,14
1238,0.17,-0.97,0.19,-2.26,-2.38,-2.5,211,267,205,446,352,14
1239,0.11,-0.97,0.28,-7.51,-28.5,-10.19,215,262,199,453,354,14
1240,0.31,-0.96,0.05,5.98,6.96,5.49,236,266,204,442,355,14
1241,0.23,-0.96,0.13,7.39,9.4,2.93,211,267,200,440,350,14
1242,0.17,-0.97,0.23,9.09,-2.01,-1.28,215,268,202,447,353,14
1243,0.14,-0.97,0.23,1.34,-8.67,0.67,210,265,203,437,353,14
1244,0.16,-0.96,0.18,-3.17,-9.22,-1.83,209,271,204,444,351,14
1245,0.16,-0.97,0.21,-1.22,-3.11,0.0,214,271,215,444,363,14
1246,0.16,-0.97,0.17,2.99,-5.8,-2.5,214,269,195,447,355,14
1247,0.16,-0.97,0.18,-1.34,-1.83,-1.95,212,266,205,448,352,14
1248,0.17,-0.97,0.18,1.71,-2.99,-2.2,212,269,215,447,348,14
1249,0.14,-0.97,0.17,-2.38,-1.1,-3.78,207,266,201,448,353,14
1250,0.16,-0.97,0.2,2.69,-3.48,-2.32,210,266,199,442,355,14
1251,0.16,-0.97,0.19,1.83,-3.36,-3.05,204,263,206,451,352,14
1252,0.17,-0.97,0.18,0.31,-3.3,-2.32,212,264,206,441,353,14
1253,0.16,-0.97,0.19,0.06,-2.08,-2.75,211,269,203,444,350,14
1254,0.15,-0.97,0.21,0.06,-2.62,-2.44,213,266,204,438,350,14
1255,0.14,-0.97,0.2,1.4,-3.91,-1.4,215,268,203,448,352,14
1256,0.15,-0.97,0.2,0.85,-2.56,-3.05,215,264,190,438,352,14
1257,0.17,-0.97,0.2,2.38,-4.88,-2.2,207,270,200,446,353,14
1258,0.15,-0.97,0.21,0.06,-1.46,-2.87,213,264,201,437,354,14
1259,0.15,-0.97,0.19,-3.42,-0.67,-5.13,213,269,202,438,349,14
1260,0.16,-0.97,0.18,-0.24,-4.76,-3.17,210,267,209,446,353,14
1261,0.16,-0.97,0.2,2.62,-3.48,-2.08,207,267,203,445,350,14
1262,0.16,-0.97,0.2,0.06,-3.66,-2.75,210,280,200,451,352,14
1263,0.15,-0.97,0.21,0.18,-2.62,-3.17,211,269,203,448,355,14
1264,0.15,-0.97,0.2,0.98,-3.17,-2.2,215,266,203,444,350,14
1265,0.17,-0.97,0.23,1.59,-3.48,-2.93,211,265,210,445,346,14
1266,0.16,-0.97,0.19,-2.81,-0.92,-3.54,216,271,203,439,354,14
1267,0.14,-0.97,0.24,1.89,-2.38,-2.69,210,270,207,450,345,14
1268,0.16,-0.97,0.22,-1.77,-2.87,0.31,211,272,207,449,349,14
1269,0.14,-0.97,0.2,-0.18,-2.81,-3.36,212,269,201,439,350,14
1270,0.15,-0.98,0.2,-0.79,-2.32,-2.62,211,267,208,442,352,14
1271,0.15,-0.97,0.2,0.92,-3.6,-2.38,206,273,204,448,350,14
1272,0.15,-0.97,0.2,0.49,-2.93,-2.69,214,269,209,444,352,14
1273,0.15,-0.97,0.19,0.98,-2.5,-3.3,212,273,201,445,352,14
1274,0.14,-0.98,0.2,-1.28,-3.36,-2.14,214,268,204,442,349,14
1275,0.16,-0.97,0.2,1.95,-2.93,-1.89,210,265,203,446,348,14
1276,0.16,-0.97,0.19,0.55,-3.11,-1.16,201,267,205,444,351,14
1277,0.14,-0.97,0.17,0.85,-3.91,-2.26,214,270,204,442,353,14
1278,0.16,-0.98,0.18,1.34,-4.39,-2.32,212,270,205,445,351,14
1279,0.16,-0.97,0.2,1.4,-2.93,-2.69,213,268,201,444,350,14
1280,0.15,-0.97,0.19,0.24,-2.5,-3.54,214,267,193,445,353,14
1281,0.14,-0.97,0.18,-1.83,-1.95,-2.5,215,267,201,441,354,14
1282,0.16,-0.96,0.2,0.06,-3.23,-0.31,209,268,196,448,356,14
1283,0.18,-0.98,0.19,7.14,-3.91,-1.71,210,264,203,443,355,14
1284,0.17,-0.97,0.17,3.54,-7.39,-1.1,212,272,202,444,354,14
1285,0.16,-0.97,0.13,1.59,-5.31,-1.34,215,265,199,448,353,14
1286,0.16,-0.97,0.16,0.0,-1.46,-3.72,215,268,203,445,352,14
1287,0.17,-0.98,0.18,-2.08,-3.91,-2.99,213,266,203,445,354,14
1288,0.18,-0.97,0.16,1.65,-3.3,-2.69,211,268,202,445,353,14
1289,0.19,-0.97,0.18,3.6,-1.59,-1.53,212,261,201,440,348,14
1290,0.18,-0.96,0.17,1.65,-1.89,-2.5,214,271,202,449,350,14
1291,0.14,-0.95,0.23,0.55,-1.46,-2.32,215,272,197,445,358,14
1292,0.17,-0.97,0.19,0.73,-2.2,-2.81,216,268,196,441,350,14
1293,0.17,-0.98,0.16,1.22,2.87,-12.21,213,273,197,444,352,14
1294,0.26,-0.96,0.21,2.44,-1.53,-4.52,213,267,204,450,354,14
1295,0.22,-0.95,0.16,-4.09,-2.75,-4.52,214,266,201,446,353,14
1296,0.17,-0.97,0.19,0.31,-4.39,-4.52,215,264,207,445,354,14
1297,0.22,-0.94,0.25,-0.18,-3.3,-4.82,218,267,203,443,355,14
1298,0.23,-0.95,0.23,-5.55,-2.5,-2.99,216,266,208,450,352,14
1299,0.22,-0.95,0.22,-5.19,-2.01,-3.05,215,267,210,443,354,14
1300,0.22,-0.95,0.21,1.4,2.62,-6.1,214,271,208,445,355,14
1301,0.17,-0.95,0.22,0.49,-2.93,-4.58,215,265,203,445,356,14
1302,0.18,-0.92,0.22,-0.18,-14.59,3.6,209,270,195,439,356,14
1303,0.17,-0.96,0.23,12.39,-2.5,3.48,212,269,203,442,356,14
1304,0.22,-0.94,0.31,3.54,0.12,-10.07,215,266,190,447,353,14
1305,0.12,-0.96,0.27,-3.11,-6.23,6.96,215,271,207,446,355,14
1306,0.17,-0.94,0.3,5.98,-16.36,11.35,215,271,202,445,349,14
1307,0.15,-0.96,0.21,-6.84,-9.28,-1.95,216,268,208,446,351,14
1308,0.21,-0.94,0.25,-0.92,6.41,-0.37,217,267,206,446,350,14
1309,0.13,-0.95,0.26,2.69,-3.3,-0.49,216,272,204,449,351,14
1310,0.11,-0.93,0.36,1.71,5.43,-10.44,216,269,207,445,352,14
1311,0.13,-0.96,0.27,6.04,-6.77,-2.01,215,271,202,441,352,14
1312,0.16,-0.93,0.33,3.85,-11.54,-2.99,217,268,206,445,354,14
1313,0.12,-0.96,0.33,-7.81,-7.2,-1.34,217,267,196,440,355,14
1314,0.16,-0.97,0.23,-6.35,-0.37,-1.95,217,265,203,449,352,14
1315,0.18,-0.98,0.26,-5.19,-6.16,-11.66,215,271,210,446,348,14
1316,0.24,-0.95,0.27,-7.51,9.46,-7.57,217,272,194,449,350,14
1317,0.23,-0.92,0.28,2.81,-10.25,0.61,218,268,194,445,354,14
1318,0.25,-0.93,0.33,6.53,-2.44,15.2,215,270,208,444,352,14
1319,0.23,-0.95,0.24,13.49,-6.65,0.18,217,267,205,450,355,14
1320,0.33,-0.91,0.29,6.1,-37.66,-5.37,219,269,206,447,349,14
1321,0.38,-0.9,0.33,-0.79,-0.92,-4.94,216,274,203,440,349,14
1322,0.26,-0.95,0.18,-3.54,-4.27,0.55,212,265,208,448,353,14
1323,0.21,-0.95,0.25,0.12,-8.54,-0.98,216,270,204,445,355,14
1324,0.21,-0.95,0.25,11.17,-2.81,4.64,232,263,204,449,357,14
1325,0.21,-0.94,0.3,10.44,4.88,-3.05,217,270,198,448,355,14
1326,0.12,-0.95,0.33,10.38,-2.32,-0.61,242,259,207,441,356,14
1327,0.16,-0.95,0.36,4.15,18.62,-4.88,219,266,202,443,358,14
1328,0.09,-0.99,0.29,6.65,16.6,4.39,217,266,202,445,356,14
1329,0.18,-0.96,0.37,1.16,-1.95,-18.86,215,265,203,438,359,14
1330,0.25,-0.9,0.31,0.61,-3.85,-4.82,218,269,204,437,355,14
1331,0.14,-0.92,0.25,-1.1,-10.74,2.5,222,271,197,442,359,14
1332,0.15,-0.91,0.28,15.69,-7.14,0.61,215,270,194,439,358,14
1333,0.16,-0.94,0.3,-0.31,-2.69,-2.2,218,272,206,436,361,14
1334,0.15,-0.95,0.3,-1.53,-2.69,-4.94,218,274,203,441,358,14
1335,0.12,-0.95,0.28,0.98,-7.63,1.71,225,269,206,446,356,14
1336,0.16,-0.95,0.26,3.6,-6.53,-3.72,217,270,205,442,358,14
1337,0.14,-0.95,0.3,-0.79,-0.12,-3.36,222,272,204,446,356,14
1338,0.16,-0.95,0.3,4.58,-5.43,-1.59,221,271,206,446,360,14
1339,0.16,-0.94,0.3,-0.85,-2.75,-2.69,222,272,205,447,359,14
1340,0.15,-0.95,0.31,2.75,-4.7,-3.72,222,268,207,447,360,14
1341,0.17,-0.95,0.27,-0.18,-4.39,-2.38,222,273,207,448,354,14
1342,0.18,-0.95,0.27,2.5,-2.44,-2.81,225,268,205,443,356,14
1343,0.18,-0.94,0.22,4.58,-3.05,-7.63,223,262,208,451,356,14
1344,0.13,-0.96,0.23,0.61,-3.05,-1.77,219,272,203,446,359,14
1345,0.18,-0.94,0.32,10.86,-2.2,-2.5,220,270,205,449,357,14
1346,0.18,-0.94,0.34,5.55,-6.96,4.15,221,261,204,448,356,14
1347,0.16,-0.95,0.31,7.26,-4.03,-0.55,218,266,210,461,359,14
1348,0.17,-0.95,0.3,-3.42,-2.99,-2.93,222,275,204,444,350,14
1349,0.15,-0.95,0.28,1.22,-2.69,-2.69,218,272,205,447,360,14
1350,0.15,-0.95,0.27,-4.82,-4.88,-0.37,221,270,207,446,358,14
1351,0.15,-0.96,0.25,-6.77,-0.98,-3.17,219,270,203,450,360,14
1352,0.13,-0.94,0.19,-0.73,-2.81,-3.78,212,270,209,451,355,14
1353,0.11,-0.98,0.29,-1.77,-4.03,0.18,217,274,206,448,356,14
1354,0.16,-0.96,0.18,-12.76,-0.18,-6.29,214,270,207,446,358,14
1355,0.17,-0.96,0.2,5.8,-5.13,-2.01,221,271,210,448,358,14
1356,0.13,-0.95,0.27,4.88,-2.38,-1.59,221,271,208,446,359,14
1357,0.15,-0.97,0.23,0.79,-3.97,-1.89,219,269,206,448,359,14
1358,0.14,-0.97,0.19,-4.94,1.89,1.46,221,271,206,444,353,14
1359,0.13,-0.97,0.23,11.6,-7.81,0.49,223,271,208,446,358,14
1360,0.14,-0.96,0.22,-0.73,-3.66,-3.3,222,273,209,445,354,14
1361,0.13,-0.96,0.24,-0.61,-2.01,-4.09,234,270,209,445,356,14
1362,0.12,-0.97,0.25,4.88,-7.63,-0.73,221,267,203,444,356,14
1363,0.11,-0.95,0.29,2.38,-0.67,-2.87,221,274,206,446,356,14
1364,0.12,-0.96,0.29,-8.67,-0.24,-6.41,221,272,210,442,359,14
1365,0.13,-0.94,0.28,-0.55,-2.87,-2.32,222,278,208,446,360,14
1366,0.12,-0.96,0.26,0.85,-9.52,-2.56,220,278,203,449,356,14
1367,0.15,-0.97,0.26,2.08,-2.56,-1.77,239,271,196,457,359,14
1368,0.15,-0.95,0.25,1.04,-2.44,-4.27,221,272,204,448,357,14
1369,0.14,-0.95,0.25,2.2,-3.36,-2.44,224,265,210,446,354,14
1370,0.13,-0.95,0.28,0.06,-2.69,-3.3,220,272,210,451,359,14
1371,0.13,-0.96,0.28,0.55,-3.85,-2.44,221,269,198,448,359,14
1372,0.13,-0.96,0.27,0.31,-3.36,-2.5,222,275,204,443,359,14
1373,0.14,-0.95,0.27,0.67,-2.93,-2.93,223,275,206,446,361,14
1374,0.13,-0.96,0.28,1.22,-3.23,-2.5,222,271,205,439,359,14
1375,0.14,-0.95,0.26,0.98,-3.05,-2.38,216,275,207,450,366,14
1376,0.14,-0.95,0.28,0.24,-3.72,-2.69,220,291,206,451,359,14
1377,0.15,-0.95,0.28,-0.98,-3.78,-2.32,224,269,208,448,359,14
1378,0.14,-0.95,0.28,0.24,-1.71,-2.99,226,268,201,447,361,14
1379,0.15,-0.95,0.27,-0.67,-2.69,-2.75,221,273,200,452,363,14
1380,0.13,-0.95,0.27,0.24,-3.72,-2.32,222,272,209,449,358,14
1381,0.15,-0.95,0.3,1.65,-2.87,-2.93,219,274,205,451,357,14
1382,0.14,-0.96,0.28,-0.18,-3.97,-2.14,223,272,205,450,359,14
1383,0.13,-0.96,0.28,-2.32,-3.3,-2.56,219,273,208,447,357,14
1384,0.14,-0.96,0.27,1.04,-3.48,-2.08,225,270,213,449,358,14
1385,0.14,-0.96,0.27,0.98,-3.11,-1.4,221,273,200,450,358,14
1386,0.15,-0.96,0.26,0.79,-3.05,-2.38,223,274,205,447,354,14
1387,0.15,-0.95,0.25,0.31,-2.87,-2.69,218,270,206,450,358,14
1388,0.15,-0.96,0.26,1.4,-3.6,-2.5,223,272,207,453,357,14
1389,0.13,-0.97,0.27,3.54,-3.48,-0.85,224,272,204,452,358,14
1390,0.15,-0.96,0.25,2.5,-3.66,-1.59,222,269,204,448,358,14
1391,0.14,-0.96,0.27,1.4,-2.75,-2.32,227,272,205,453,360,14
1392,0.14,-0.96,0.26,0.37,-2.81,-1.89,221,275,204,452,359,14
1393,0.14,-0.96,0.26,-0.61,-2.32,-2.93,225,273,207,453,358,14
1394,0.14,-0.96,0.27,0.43,-2.56,-2.56,217,272,207,447,354,14
1395,0.15,-0.96,0.26,2.14,-2.81,-2.01,221,271,205,450,358,14
1396,0.15,-0.96,0.24,-1.22,-2.2,-4.15,221,273,196,452,359,14
1397,0.15,-0.96,0.25,-0.06,-3.72,-3.11,221,272,212,449,361,14
1398,0.14,-0.96,0.26,-0.31,-2.62,-2.38,224,272,208,448,357,14
1399,0.14,-0.96,0.25,0.61,-2.62,-2.32,224,275,206,447,358,14
1400,0.15,-0.96,0.25,0.0,-2.62,-2.56,222,272,204,452,358,14
1401,0.14,-0.96,0.25,-0.43,-2.69,-2.93,222,273,198,447,354,14
1402,0.14,-0.96,0.25,0.67,-2.87,-2.38,222,281,207,452,355,14
1403,0.14,-0.97,0.25,-0.18,-2.69,-2.81,222,273,211,451,358,14
1404,0.14,-0.96,0.25,0.67,-3.48,-2.93,222,272,212,452,361,14
1405,0.14,-0.96,0.25,0.73,-3.3,-2.26,223,273,206,449,358,14
1406,0.14,-0.96,0.24,0.85,-2.87,-1.77,222,270,210,448,356,14
1407,0.15,-0.96,0.23,-0.85,-2.75,-2.81,223,273,210,443,359,14
1408,0.14,-0.96,0.24,0.18,-3.05,-2.62,222,273,204,451,356,14
1409,0.14,-0.96,0.24,0.67,-3.11,-2.2,223,274,210,445,352,14
1410,0.15,-0.96,0.22,-3.42,-3.11,-2.2,223,274,203,454,354,14
1411,0.12,-0.97,0.19,-5.31,-4.15,-1.22,223,271,210,449,361,14
1412,0.16,-0.96,0.22,4.39,-4.76,-0.85,222,274,199,451,361,14
1413,0.14,-0.96,0.25,2.08,-4.33,-2.87,222,275,206,464,351,14
1414,0.14,-0.96,0.25,0.12,-4.27,-2.01,221,273,208,449,358,14
1415,0.13,-0.96,0.26,0.79,-3.54,-2.62,223,275,207,452,357,14
1416,0.13,-0.96,0.26,0.12,-2.81,-2.26,218,272,209,445,353,14
1417,0.14,-0.96,0.26,1.28,-3.36,-1.77,219,268,212,445,360,14
1418,0.14,-0.96,0.25,0.92,-2.75,-2.14,221,274,203,452,355,14
1419,0.14,-0.96,0.24,0.55,-2.81,-2.5,223,275,203,449,358,14
1420,0.14,-0.96,0.24,-0.37,-2.81,-2.56,224,273,203,440,358,14
1421,0.13,-0.96,0.23,0.31,-2.56,-2.44,221,275,201,452,362,14
1422,0.14,-0.96,0.24,-1.1,-3.11,-3.54,222,277,206,451,359,14
1423,0.15,-0.96,0.24,2.32,-6.35,-3.42,227,273,208,450,359,14
1424,0.14,-0.96,0.25,0.37,-2.56,-3.3,222,277,205,447,357,14
1425,0.13,-0.97,0.24,-1.46,-2.81,-2.75,227,274,208,446,350,14
1426,0.15,-0.96,0.24,1.34,-2.75,-2.14,222,270,202,445,357,14
1427,0.13,-0.97,0.24,1.89,-2.99,-2.01,221,273,211,452,356,14
1428,0.14,-0.96,0.22,0.67,-3.42,-2.26,220,272,208,444,361,14
1429,0.15,-0.97,0.23,0.43,-3.11,-2.44,221,283,202,442,357,14
1430,0.14,-0.97,0.22,0.61,-3.05,-2.2,217,275,210,447,355,14
1431,0.15,-0.96,0.22,1.95,-3.72,-3.36,220,275,208,444,358,14
1432,0.14,-0.96,0.3,2.69,-7.51,1.22,224,278,210,451,358,14
1433,0.14,-0.97,0.23,1.53,-9.64,1.46,225,277,210,448,360,14
1434,0.13,-0.95,0.33,7.93,-0.92,1.04,222,277,212,448,359,14
1435,0.13,-0.95,0.28,2.81,-3.05,-0.92,219,274,208,452,361,14
1436,0.13,-0.95,0.31,-2.56,-1.89,-4.33,239,276,200,448,361,14
1437,0.13,-0.95,0.27,-0.24,-4.33,-2.2,220,275,203,452,358,14
1438,0.13,-0.95,0.26,0.55,-3.48,-1.4,222,275,205,450,355,14
1439,0.13,-0.96,0.26,1.16,-2.56,-3.48,227,275,202,448,358,14
1440,0.13,-0.95,0.29,2.62,-1.95,-2.38,222,275,202,444,360,14
1441,0.13,-0.95,0.28,1.59,-2.99,-1.65,231,270,207,445,359,14
1442,0.13,-0.95,0.29,1.28,-3.42,-2.14,220,274,208,448,357,14
1443,0.13,-0.95,0.28,-0.24,-3.78,-2.32,226,273,197,444,361,14
1444,0.12,-0.95,0.3,0.24,-3.85,-2.81,225,276,208,451,354,14
1445,0.15,-0.94,0.29,6.77,-4.7,-2.01,223,272,208,452,360,14
1446,0.15,-0.94,0.33,5.98,-1.83,-8.73,220,278,212,450,364,14
1447,0.16,-0.95,0.32,-0.73,-2.75,-1.89,220,276,200,450,359,14
1448,0.15,-0.95,0.29,-1.16,-3.91,-2.81,221,269,206,448,357,14
1449,0.17,-0.95,0.28,-0.79,-2.44,-3.42,221,272,208,464,356,14
1450,0.17,-0.94,0.28,1.53,-2.93,-2.62,222,270,209,448,358,14
1451,0.17,-0.95,0.25,-2.01,-3.42,-4.27,221,277,210,445,361,14
1452,0.22,-0.94,0.23,-10.68,-2.81,-4.88,222,276,207,448,357,14
1453,0.16,-0.96,0.24,0.24,-9.4,-2.26,225,275,208,448,356,14
1454,0.21,-0.94,0.32,16.85,0.73,-1.04,223,278,206,446,356,14
1455,0.16,-0.96,0.22,2.32,6.29,-8.61,222,276,202,448,360,14
1456,0.13,-0.96,0.29,0.12,-1.1,-3.78,221,277,204,445,357,14
1457,0.16,-0.95,0.28,0.0,-2.2,-2.56,225,275,210,447,358,14
1458,0.15,-0.95,0.27,-0.06,-2.81,-2.44,226,276,204,448,359,14
1459,0.16,-0.95,0.28,2.5,-3.36,-2.08,221,273,208,446,359,14
1460,0.15,-0.95,0.26,-0.12,-1.46,-1.65,225,274,206,447,358,14
1461,0.13,-0.96,0.29,2.26,-4.27,-1.16,219,275,207,459,358,14
1462,0.13,-0.96,0.28,-0.55,-3.72,-2.01,221,276,195,444,358,14
1463,0.12,-0.96,0.31,-0.67,-2.44,-2.99,224,277,214,448,355,14
1464,0.14,-0.95,0.29,0.92,-3.48,-2.01,225,278,205,448,357,14
1465,0.13,-0.95,0.28,-1.46,-2.99,-3.36,224,276,204,448,360,14
1466,0.13,-0.96,0.26,-1.95,-2.01,-2.5,227,277,213,445,361,14
1467,0.14,-0.95,0.26,1.22,-3.42,-3.3,225,280,211,450,358,14
1468,0.13,-0.96,0.28,1.1,-3.6,-1.59,221,277,208,453,353,14
1469,0.13,-0.96,0.27,2.5,-3.72,-2.14,224,275,209,451,355,14
1470,0.15,-0.96,0.26,2.14,-3.54,-2.14,219,274,201,443,363,14
1471,0.13,-0.95,0.28,2.81,-1.59,-2.93,223,277,208,448,356,14
1472,0.14,-0.95,0.3,0.55,-4.88,-3.17,219,278,202,449,355,14
1473,0.16,-0.95,0.27,-1.1,-2.01,-3.54,226,275,210,445,354,14
1474,0.15,-0.96,0.26,1.59,-0.55,-3.97,224,278,210,446,348,14
1475,0.13,-0.96,0.27,1.46,-2.32,-1.59,225,272,209,447,353,14
1476,0.14,-0.96,0.25,3.85,-7.57,-4.03,223,275,208,446,351,14
1477,0.18,-0.94,0.25,0.37,-5.0,-2.93,221,278,207,456,357,14
1478,0.17,-0.94,0.29,-0.61,-2.99,-1.22,223,276,208,445,353,14
1479,0.18,-0.95,0.26,-0.79,-1.77,-2.87,227,277,206,449,355,14
1480,0.18,-0.95,0.27,-0.55,-2.56,-1.1,222,281,201,449,353,14
1481,0.18,-0.95,0.27,0.61,-3.36,-3.3,220,277,211,450,355,14
1482,0.18,-0.96,0.27,1.28,-4.21,-2.56,223,279,203,440,353,14
1483,0.17,-0.95,0.27,0.73,-2.44,-2.69,222,279,211,450,353,14
1484,0.18,-0.94,0.28,-1.16,-2.32,-2.5,222,278,205,448,349,14
1485,0.17,-0.95,0.3,1.22,-2.56,-2.2,221,276,211,449,352,14
1486,0.16,-0.94,0.3,0.37,-2.99,-2.69,225,279,209,445,356,14
1487,0.17,-0.95,0.29,0.55,-2.14,-2.99,222,275,210,449,350,14
1488,0.17,-0.94,0.3,2.08,-3.23,-2.32,220,278,204,449,349,14
1489,0.17,-0.94,0.3,1.28,-3.11,-1.83,221,277,210,452,354,14
1490,0.16,-0.95,0.29,-0.49,-2.93,-2.62,224,280,207,451,357,14
1491,0.16,-0.95,0.31,0.49,-3.11,-2.2,224,278,208,448,354,14
1492,0.15,-0.95,0.29,-0.06,-3.11,-2.75,225,271,212,450,355,14
1493,0.17,-0.95,0.29,2.44,-4.94,0.18,226,278,208,452,350,14
1494,0.15,-0.94,0.29,1.65,-4.09,-0.79,225,280,207,447,352,14
1495,0.15,-0.95,0.29,0.43,-3.3,-2.26,226,274,213,449,353,14
1496,0.14,-0.95,0.29,-1.59,-3.54,-2.44,218,278,215,447,354,14
1497,0.15,-0.95,0.3,-1.16,-2.75,-3.48,219,280,210,446,354,14
1498,0.16,-0.95,0.3,0.92,-2.56,-3.6,227,278,213,441,354,14
1499,0.15,-0.94,0.3,-1.22,-2.75,-2.44,223,282,211,454,355,14
1500,0.15,-0.94,0.3,1.1,-2.38,-2.62,224,277,207,448,353,14
1501,0.15,-0.95,0.29,0.61,-2.32,-2.99,244,279,214,450,351,14
1502,0.15,-0.95,0.3,-0.79,-2.93,-3.54,223,280,209,443,355,14
1503,0.15,-0.95,0.3,2.2,-3.05,-2.87,224,279,206,450,354,14
1504,0.15,-0.95,0.29,1.83,-2.99,-2.2,224,272,209,455,357,14
1505,0.16,-0.95,0.29,-1.28,-3.48,-3.17,225,276,213,444,357,14
1506,0.15,-0.95,0.3,1.1,-2.93,-1.59,226,277,213,450,355,14
1507,0.17,-0.95,0.27,2.93,-3.72,-2.99,223,279,213,448,357,14
1508,0.16,-0.95,0.28,1.16,-1.16,-3.17,222,280,211,449,359,14
1509,0.16,-0.95,0.28,3.11,-1.59,-2.81,227,279,215,450,355,14
1510,0.17,-0.94,0.3,4.21,-2.69,-1.71,237,268,214,443,353,14
1511,0.16,-0.94,0.29,-1.1,-2.08,-2.26,220,275,211,447,353,14
1512,0.15,-0.94,0.3,-0.79,-2.32,-2.62,228,279,207,450,356,14
1513,0.15,-0.96,0.29,-0.67,-2.69,-2.99,226,276,209,442,355,14
1514,0.16,-0.95,0.28,0.24,-3.17,-2.5,221,274,210,449,353,14
1515,0.15,-0.95,0.28,-0.61,-2.69,-2.44,225,274,201,458,356,14
1516,0.16,-0.94,0.28,0.61,-3.42,-2.75,221,279,212,449,352,14
1517,0.16,-0.95,0.28,-0.43,-2.5,-2.26,223,283,210,450,352,14
1518,-0.0,-0.83,0.48,-23.01,-33.81,-11.72,285,302,230,433,367,14
1519,0.26,-0.95,0.46,-16.66,-8.0,-9.03,280,296,229,438,340,14
1520,0.06,-0.87,0.42,6.96,25.21,6.16,286,298,231,442,341,14
1521,0.03,-0.88,0.48,4.82,-3.48,-4.09,283,294,228,439,353,14
1522,0.05,-0.87,0.48,2.38,-5.37,-5.86,288,299,230,442,353,14
1523,0.07,-0.88,0.5,0.67,-4.03,-1.59,284,302,229,442,355,14
1524,0.07,-0.87,0.48,-2.26,-5.68,-0.55,275,298,231,436,354,14
1525,0.04,-0.83,0.47,4.03,-3.72,-6.04,259,299,233,437,346,14
1526,0.06,-0.89,0.49,0.79,-1.34,-3.23,261,297,235,435,344,14
1527,0.05,-0.88,0.51,-2.08,-1.77,-0.85,266,304,231,436,349,14
1528,0.03,-0.89,0.49,-0.12,-1.71,-3.6,270,305,234,438,351,14
1529,0.01,-0.88,0.46,0.31,-5.19,-2.81,273,304,233,441,356,14
1530,0.02,-0.89,0.49,-0.37,-2.56,-3.36,274,300,235,442,350,14
1531,0.02,-0.85,0.47,3.54,-4.76,-4.03,273,301,233,442,349,14
1532,0.03,-0.87,0.52,-11.96,0.67,-3.3,270,303,234,440,352,14
1533,0.03,-0.91,0.51,-14.16,-1.16,-3.6,272,302,235,438,351,14
1534,0.05,-0.9,0.43,3.85,-5.25,1.65,273,303,238,440,347,14
1535,0.02,-0.9,0.41,-3.54,-1.59,-2.87,291,304,235,437,350,14
1536,0.02,-0.93,0.45,-7.32,-2.32,-2.56,275,306,237,437,352,14
1537,0.03,-0.9,0.44,1.34,-3.85,-2.5,272,302,235,439,353,14
1538,0.02,-0.9,0.42,2.62,-3.05,-3.85,276,301,234,439,351,14
1539,0.1,-0.89,0.36,-33.33,32.78,-45.96,275,304,233,441,353,14
1540,0.1,-0.97,0.33,-7.14,51.39,-9.64,272,306,238,443,352,14
1541,-0.01,-0.91,0.25,1.59,25.88,-6.65,277,308,234,439,352,14
1542,-0.03,-0.98,0.32,-9.95,-6.65,-8.85,277,314,232,437,350,14
1543,0.04,-0.91,0.34,-0.55,-6.23,-6.16,278,305,237,446,348,14
1544,0.06,-0.93,0.39,9.09,-11.41,0.73,278,304,236,443,357,14
1545,0.01,-0.9,0.41,5.49,-10.19,0.92,275,303,235,442,351,14
1546,0.03,-0.88,0.4,-11.72,-22.64,12.27,274,304,236,437,344,14
1547,-0.01,-0.93,0.38,7.45,10.25,-7.63,280,305,235,432,342,14
1548,0.05,-0.92,0.47,2.93,-7.69,-0.43,274,308,237,438,342,14
1549,0.04,-0.94,0.4,-7.32,-15.56,4.27,272,308,236,436,342,14
1550,-0.03,-0.95,0.37,-10.5,-1.53,-3.23,277,309,236,437,348,14
1551,-0.04,-0.94,0.32,-4.21,-8.36,-5.98,278,306,235,434,348,14
1552,0.02,-0.92,0.48,-1.4,0.31,3.48,281,313,236,428,352,14
1553,0.04,-0.91,0.38,0.43,-3.42,-8.36,280,309,233,437,356,14
1554,0.04,-0.91,0.39,-4.21,-4.82,-1.89,281,308,238,433,354,14
1555,0.04,-0.93,0.41,-0.49,-0.85,-3.6,279,306,235,439,353,14
1556,0.05,-0.92,0.41,2.01,-3.05,-2.81,279,305,237,434,355,14
1557,0.06,-0.92,0.41,-0.61,-2.38,-2.62,283,309,237,452,354,14
1558,0.05,-0.93,0.42,-1.59,-4.58,-1.4,280,307,234,434,353,14
1559,0.06,-0.91,0.39,-0.98,-5.31,-3.72,287,312,240,439,356,14
1560,0.05,-0.92,0.41,0.31,-2.69,-3.36,283,307,239,439,354,14
1561,0.05,-0.92,0.41,2.26,-2.01,-3.6,281,308,248,439,356,14
1562,0.07,-0.91,0.37,5.98,-5.43,-2.62,282,312,238,446,351,14
1563,0.06,-0.91,0.39,2.5,-2.5,-2.62,282,308,236,445,355,14
1564,0.06,-0.9,0.39,1.59,-2.81,-3.05,279,310,235,442,353,14
1565,0.07,-0.92,0.44,-3.85,-2.99,-3.11,279,309,238,442,357,14
1566,0.07,-0.93,0.42,2.5,-2.32,-2.32,279,311,238,448,355,14
1567,0.07,-0.91,0.4,-1.22,-1.83,-3.3,278,309,239,443,351,14
1568,0.07,-0.92,0.42,-0.12,-2.81,-2.87,281,306,239,444,355,14
1569,0.07,-0.93,0.41,1.1,-3.54,-2.87,305,308,237,446,356,14
1570,0.06,-0.92,0.4,0.18,-1.65,-3.36,282,308,250,443,353,14
1571,0.07,-0.91,0.42,-12.82,-4.88,-3.6,283,309,237,443,356,14
1572,0.05,-0.91,0.41,0.67,-4.33,-1.1,280,311,235,442,356,14
1573,0.05,-0.92,0.41,-0.43,-3.23,-3.3,281,307,239,443,359,14
1574,0.06,-0.92,0.38,1.34,-3.11,-3.23,302,308,237,440,355,14
1575,0.06,-0.92,0.4,-0.98,-2.5,-2.38,280,307,237,442,355,14
1576,0.08,-0.92,0.44,-4.21,7.75,-4.33,279,308,237,446,354,14
1577,0.05,-0.95,0.31,1.95,-4.64,-0.98,278,310,236,440,356,14
1578,0.06,-0.96,0.31,-1.53,-2.14,-3.66,280,309,237,444,353,14
1579,0.06,-0.95,0.3,3.05,-0.55,-2.44,270,309,237,446,355,14
1580,-0.07,-0.94,0.35,-1.53,68.3,-10.74,278,311,235,443,354,14
1581,-0.01,-0.98,0.26,1.71,-7.02,-30.4,274,310,235,447,356,14
1582,-0.05,-0.94,0.31,0.18,1.16,-4.39,280,311,238,443,354,14
1583,-0.05,-0.95,0.32,-1.16,-1.83,-2.26,280,313,237,448,357,14
1584,-0.05,-0.95,0.31,1.16,-4.09,-2.99,280,311,234,446,355,14
1585,-0.05,-0.96,0.32,1.89,-2.93,-2.2,278,310,235,446,354,14
1586,-0.03,-0.95,0.36,-8.91,-125.61,9.58,279,310,236,444,356,14
1587,0.02,-0.94,0.3,-2.14,-26.37,2.26,279,310,239,437,353,14
1588,0.02,-0.95,0.29,1.65,1.77,-2.38,282,309,237,443,356,14
1589,0.03,-0.96,0.29,2.62,-1.65,-5.0,278,307,239,445,355,14
1590,0.04,-0.96,0.3,5.55,-0.92,-5.98,280,308,240,445,357,14
1591,0.04,-0.94,0.3,2.44,-2.56,-3.66,279,311,237,445,355,14
1592,0.04,-0.94,0.34,-0.49,-4.94,-7.75,280,306,236,449,354,14
1593,0.05,-0.94,0.33,3.36,-3.48,-2.99,280,308,240,447,355,14
1594,0.05,-0.94,0.38,-2.56,-2.56,-3.85,281,308,238,446,356,14
1595,0.05,-0.93,0.37,-0.85,-3.91,-2.26,279,308,236,445,356,14
1596,0.05,-0.94,0.37,0.0,-2.81,-2.56,280,311,239,446,355,14
1597,0.05,-0.93,0.34,0.0,-2.99,-2.69,282,311,237,451,354,14
1598,0.05,-0.93,0.35,-0.67,-2.08,-3.6,280,308,237,442,353,14
1599,0.05,-0.95,0.33,-4.46,-4.58,-0.85,281,309,235,453,351,14
1600,0.05,-0.95,0.34,2.44,-2.69,-2.81,282,310,239,444,357,14
1601,0.05,-0.95,0.33,2.69,-3.11,-2.32,290,311,236,445,352,14
1602,0.06,-0.94,0.32,7.2,-2.99,-0.85,282,312,240,440,357,14
1603,0.06,-0.93,0.35,1.28,-1.59,-3.11,284,309,236,440,355,14
1604,0.06,-0.92,0.34,5.8,28.08,-6.96,285,314,241,445,354,14
1605,0.0,-0.92,0.38,-1.22,0.55,-1.77,280,313,240,442,354,14
1606,0.03,-0.92,0.36,0.31,-0.49,-5.49,282,311,237,445,354,14
1607,0.0,-0.93,0.37,3.91,-10.25,0.0,283,311,240,445,353,14
1608,-0.01,-0.95,0.38,-3.97,-2.32,-1.71,280,310,237,444,355,14
1609,0.0,-0.94,0.33,0.37,-0.37,-3.11,282,311,239,443,355,14
1610,-0.01,-0.95,0.33,-2.87,-2.69,-3.54,284,311,239,444,356,14
1611,0.02,-0.94,0.37,0.85,-1.22,-3.36,285,310,242,448,356,14
1612,-0.03,-0.93,0.34,-1.16,-5.98,-0.67,284,312,238,443,355,14
1613,-0.03,-0.93,0.35,2.38,-6.1,-2.01,282,309,237,445,358,14
1614,0.01,-0.93,0.36,-3.36,-1.95,-3.05,281,315,239,442,354,14
1615,0.01,-0.93,0.36,0.92,-3.3,-3.11,288,310,237,450,355,14
1616,-0.01,-0.93,0.36,-0.67,-2.32,-2.08,282,309,237,448,353,14
1617,-0.0,-0.93,0.37,0.0,-1.95,-2.56,284,311,237,445,353,14
1618,-0.01,-0.94,0.36,2.87,-2.2,-1.95,283,309,238,449,355,14
1619,-0.0,-0.94,0.35,0.43,-7.57,-2.32,281,312,240,448,354,14
1620,0.0,-0.94,0.35,2.01,-4.88,-2.87,282,313,239,443,353,14
1621,0.02,-0.9,0.41,7.08,-6.35,0.49,282,311,239,446,359,14
1622,0.07,-0.88,0.33,-1.22,8.36,-9.58,276,305,238,449,372,14
1623,0.04,-0.94,0.37,-18.8,-0.55,4.94,270,296,229,433,333,14
1624,0.03,-0.91,0.42,1.71,-1.16,-2.14,276,301,231,440,337,14
1625,0.06,-0.93,0.36,2.75,-3.36,-2.38,275,300,233,444,343,14
1626,0.03,-0.94,0.34,-1.28,2.38,-4.94,277,301,233,445,342,14
1627,0.03,-0.93,0.33,0.73,-2.38,-4.27,276,302,232,447,346,14
1628,0.04,-0.93,0.35,-1.1,-2.44,-3.23,276,300,234,451,346,14
1629,0.05,-0.94,0.37,1.22,-2.99,-4.03,276,302,232,451,347,14
1630,0.05,-0.94,0.37,0.06,-2.87,-2.81,278,316,234,442,343,14
1631,0.05,-0.93,0.38,-1.4,-3.23,-3.17,278,303,233,449,345,14
1632,0.06,-0.9,0.38,5.8,-2.69,-2.81,273,302,232,449,343,14
1633,0.06,-0.93,0.37,1.1,-3.85,-2.75,276,305,232,449,348,14
1634,0.07,-0.93,0.38,2.14,-3.91,-4.27,275,302,234,455,344,14
1635,0.07,-0.92,0.38,-4.46,-3.17,-1.83,276,303,235,451,347,14
1636,0.07,-0.93,0.39,1.16,-3.17,-2.87,275,306,231,451,348,14
1637,0.07,-0.93,0.4,-0.18,-3.05,-2.26,277,306,231,445,346,14
1638,0.07,-0.92,0.38,1.34,-2.87,-1.71,280,303,232,454,347,14
1639,0.06,-0.92,0.38,-0.37,-2.62,-1.83,277,303,233,451,350,14
1640,0.05,-0.93,0.38,-0.85,-1.46,-1.89,277,308,234,450,347,14
1641,0.05,-0.92,0.37,0.92,-3.91,-1.77,293,305,235,446,354,14
1642,0.06,-0.92,0.39,0.24,-2.99,-4.39,278,306,234,454,349,14
1643,0.06,-0.92,0.36,4.82,-5.07,-1.16,275,303,235,452,347,14
1644,0.07,-0.91,0.38,1.28,-3.66,-2.81,278,307,232,447,348,14
1645,0.06,-0.92,0.39,-1.46,-4.94,-2.75,280,305,230,446,347,14
1646,0.04,-0.94,0.32,-5.0,-5.43,-0.92,278,305,231,449,347,14
1647,0.1,-0.93,0.32,-1.34,-2.62,-5.07,280,305,234,447,351,14
1648,0.04,-0.92,0.39,1.95,-4.82,-0.85,276,306,230,456,349,14
1649,0.04,-0.93,0.37,2.56,-3.6,-2.93,278,301,235,458,347,14
1650,0.06,-0.91,0.38,-0.85,-1.28,-1.77,279,307,233,449,349,14
1651,0.07,-0.93,0.43,1.77,0.24,-4.76,278,307,233,452,348,14
1652,0.08,-0.94,0.38,2.93,-1.65,-5.8,280,304,235,457,348,14
1653,0.09,-0.93,0.36,0.06,-3.11,-4.58,288,302,235,460,348,14
1654,0.11,-0.93,0.36,-0.73,-1.95,-4.21,285,310,235,456,347,14
1655,0.1,-0.93,0.38,0.85,-0.98,-2.08,280,303,233,459,345,14
1656,0.07,-0.93,0.38,1.04,-0.37,-4.7,281,305,231,456,348,14
1657,0.07,-0.92,0.38,1.4,1.34,-5.49,280,303,233,458,350,14
1658,0.1,-0.91,0.4,2.93,-9.28,-0.79,276,307,232,463,344,14
1659,0.05,-0.89,0.39,-0.85,-0.79,-0.18,277,307,236,463,349,14
1660,0.07,-0.94,0.38,2.93,3.48,-5.68,279,306,233,460,349,14
1661,0.08,-0.91,0.41,1.16,-2.14,-5.13,287,304,236,460,349,14
1662,0.07,-0.93,0.42,0.24,-2.62,-2.87,275,301,235,460,349,14
1663,0.07,-0.92,0.38,0.73,-3.05,-3.05,279,303,237,462,347,14
1664,0.06,-0.91,0.39,-6.35,0.06,-5.62,281,306,236,461,349,14
1665,0.11,-0.92,0.41,2.38,-3.11,-2.93,280,306,237,460,351,14
1666,0.09,-0.93,0.4,2.69,-0.73,-2.32,282,304,234,461,349,14
1667,0.1,-0.91,0.39,-3.17,-1.83,-3.78,280,304,234,463,349,14
1668,0.1,-0.93,0.37,-2.32,-2.14,-1.89,278,306,235,460,348,14
1669,0.07,-0.91,0.38,0.85,-5.25,-0.31,280,305,242,463,350,14
1670,0.03,-0.92,0.42,3.48,-7.45,-3.17,281,305,233,460,348,14
1671,0.1,-0.92,0.41,1.59,-0.92,-4.03,280,304,233,463,350,14
1672,0.08,-0.93,0.43,0.31,-4.76,-2.99,281,307,234,459,352,14
1673,0.08,-0.91,0.42,-5.49,-3.85,-5.19,283,304,233,457,349,14
1674,0.11,-0.94,0.38,6.53,-7.51,-3.11,283,303,232,457,348,14
1675,0.07,-0.89,0.4,0.61,-3.48,-0.98,283,308,235,461,348,14
1676,0.06,-0.93,0.36,0.85,-3.97,-1.65,282,307,240,458,350,14
1677,0.05,-0.93,0.42,-2.2,-0.67,-2.87,282,308,236,452,348,14
1678,0.09,-0.92,0.41,-0.92,-0.67,-2.14,282,308,234,453,344,14
1679,0.08,-0.93,0.36,3.36,0.98,-3.05,278,307,236,457,345,14
1680,0.12,-0.91,0.4,4.03,-7.69,-2.01,280,305,236,455,350,14
1681,0.04,-0.93,0.37,-3.36,-2.62,0.79,281,304,233,461,348,14
1682,0.05,-0.93,0.4,0.24,0.31,-3.66,281,304,237,458,347,14
1683,0.07,-0.91,0.37,-2.69,-5.31,-2.08,283,308,235,456,348,14
1684,0.1,-0.92,0.36,3.42,-1.53,-1.83,279,309,235,461,350,14
1685,0.06,-0.92,0.39,-1.59,-1.04,1.16,282,305,234,458,349,14
1686,0.03,-0.94,0.36,2.56,-7.75,9.34,276,305,233,461,349,14
1687,0.01,-0.95,0.34,0.06,-4.39,-2.32,281,306,237,456,347,14
1688,0.03,-0.95,0.35,1.89,-2.01,-0.67,281,305,238,454,350,14
1689,0.0,-0.92,0.38,1.59,0.0,-3.17,316,306,234,457,348,14
1690,0.01,-0.92,0.35,-8.24,-5.25,-1.34,282,304,234,454,345,14
1691,-0.01,-0.96,0.32,-3.97,-3.54,0.85,283,305,237,457,347,14
1692,0.0,-0.95,0.3,2.56,-4.39,-2.56,283,306,238,452,346,14
1693,0.0,-0.96,0.3,2.93,-2.62,-3.85,284,315,238,459,347,14
1694,0.01,-0.95,0.32,-1.83,-2.44,-3.91,279,307,238,452,349,14
1695,0.01,-0.96,0.35,-3.54,-3.97,-1.83,278,307,233,461,348,14
1696,-0.01,-0.95,0.3,-1.1,-1.71,-2.75,283,311,240,457,349,14
1697,0.0,-0.97,0.31,2.44,-3.48,-1.77,280,306,237,457,350,14
1698,-0.05,-0.95,0.35,-0.55,0.12,-2.87,283,315,235,461,350,14
1699,0.01,-0.96,0.34,2.75,-3.05,-5.86,281,306,237,461,348,14
1700,-0.0,-0.94,0.33,2.01,-3.3,-4.88,279,307,239,459,351,14
1701,-0.02,-0.93,0.33,0.49,-0.06,-1.95,280,303,236,462,344,14
1702,0.0,-0.95,0.38,1.71,-3.97,-1.71,284,307,236,452,348,14
1703,-0.06,-0.91,0.29,-2.69,-2.26,-5.43,278,307,237,458,348,14
1704,-0.01,-0.95,0.31,-4.7,2.56,-0.37,280,308,231,454,347,14
1705,-0.0,-0.98,0.35,6.47,-3.91,-2.08,284,306,236,469,346,14
1706,-0.01,-0.93,0.34,-1.16,-2.08,-4.15,281,304,237,458,347,14
1707,-0.05,-0.97,0.35,-4.15,-3.91,1.77,281,304,236,459,351,14
1708,-0.07,-0.92,0.31,2.56,-1.71,-4.03,281,305,236,458,351,14
1709,-0.08,-0.95,0.33,1.83,-4.82,-3.6,280,308,236,459,349,14
1710,-0.04,-0.95,0.36,-1.83,-7.75,-3.78,271,304,236,460,350,14
1711,-0.06,-0.92,0.33,-2.93,-9.52,-1.95,283,305,234,461,346,14
1712,-0.05,-0.93,0.33,-0.67,-4.09,-2.2,280,306,237,459,350,14
1713,-0.05,-0.95,0.33,1.16,-3.3,-2.08,281,306,232,458,348,14
1714,-0.06,-0.95,0.35,-1.83,-5.07,-1.83,281,303,238,453,345,14
1715,-0.08,-0.95,0.23,6.16,4.27,-0.24,284,307,235,453,347,14
1716,-0.07,-0.95,0.31,4.7,-1.16,-7.57,278,309,232,450,341,14
1717,-0.11,-0.88,0.33,16.48,3.05,-0.49,283,304,233,443,339,14
1718,-0.08,-0.99,0.48,-42.54,5.74,-11.23,286,305,236,441,342,14
1719,-0.02,-0.98,0.32,10.13,-10.74,-5.92,287,309,237,440,345,14
1720,0.01,-0.97,0.31,10.01,-1.77,-5.68,287,307,238,447,344,14
1721,-0.01,-0.93,0.31,-0.49,-3.72,-0.12,285,310,237,445,355,14
1722,-0.01,-0.98,0.34,-10.86,-4.64,1.4,284,307,240,451,346,14
1723,0.02,-0.91,0.26,10.19,-9.22,-14.04,285,308,236,437,348,14
1724,-0.0,-0.95,0.28,0.12,-7.81,0.79,296,309,237,446,349,14
1725,-0.01,-0.96,0.34,-1.34,-2.32,-5.68,320,308,237,442,349,14
1726,0.02,-0.96,0.29,-1.04,-1.46,-5.55,285,308,237,446,343,14
1727,0.03,-0.96,0.3,1.16,-4.7,-1.71,285,306,240,450,348,14
1728,0.01,-0.95,0.31,-1.22,-4.33,-1.59,288,311,233,449,349,14
1729,0.02,-0.93,0.3,5.0,-5.13,-2.99,280,314,236,449,346,14
1730,0.05,-0.94,0.27,15.2,-14.28,-3.42,265,308,242,443,333,14
1731,0.04,-1.01,0.41,-19.78,10.38,5.31,272,306,241,444,336,14
1732,-0.0,-0.97,0.32,11.11,-2.38,-0.12,271,302,236,438,321,14
1733,0.02,-0.94,0.36,-6.04,-2.32,-4.09,267,299,238,442,315,14
1734,0.03,-0.93,0.39,2.56,-4.27,-3.91,276,306,235,434,328,14
1735,0.02,-0.92,0.36,-0.79,-3.3,-2.26,277,306,234,439,329,14
1736,0.02,-0.94,0.37,-0.79,-3.05,-4.64,283,307,239,439,329,14
1737,0.02,-0.95,0.36,8.06,-6.77,-3.42,286,310,235,431,333,14
1738,0.03,-0.93,0.33,2.5,-0.24,-2.56,284,312,238,442,338,14
1739,0.01,-0.93,0.34,0.37,-5.07,-2.75,277,313,239,441,337,14
1740,0.03,-0.94,0.33,-0.49,-0.06,-8.3,312,310,234,446,338,14
1741,0.02,-0.92,0.38,3.78,-3.11,2.99,281,310,233,442,340,14
1742,-0.02,-0.93,0.41,-1.77,-4.58,1.83,285,312,237,441,340,14
1743,0.08,-0.93,0.31,0.79,-8.73,-8.06,282,311,235,449,341,14
1744,0.04,-0.89,0.35,0.85,-3.42,0.06,282,308,238,450,343,14
1745,0.07,-0.93,0.38,-0.73,-7.32,-3.66,286,312,235,451,345,14
1746,0.03,-0.91,0.36,7.51,-1.46,1.65,285,308,237,453,342,14
1747,0.06,-0.92,0.36,9.64,-1.95,1.04,283,309,236,454,339,14
1748,0.02,-0.93,0.39,1.4,-4.09,0.49,285,311,237,456,339,14
1749,0.01,-0.93,0.39,-0.73,-2.93,-2.87,285,310,240,455,343,14
1750,0.02,-0.94,0.39,-0.98,-3.42,-2.93,285,311,237,452,340,14
1751,0.01,-0.92,0.38,1.53,-0.43,-2.56,284,312,240,440,340,14
1752,-0.01,-0.92,0.37,3.17,-0.12,-3.72,284,310,237,451,342,14
1753,0.02,-0.93,0.38,0.24,-2.75,-3.36,299,310,237,449,341,14
1754,0.01,-0.94,0.37,-0.49,-4.33,-1.65,285,310,238,446,346,14
1755,0.02,-0.93,0.37,5.74,-2.99,-2.26,313,313,237,451,342,14
1756,0.03,-0.92,0.4,0.24,-1.4,-3.05,284,310,237,468,343,14
1757,-0.0,-0.9,0.36,-3.72,2.99,-3.3,287,314,238,458,338,14
1758,0.03,-0.94,0.38,-5.92,-1.53,-0.31,284,312,240,452,342,14
1759,-0.01,-0.97,0.37,-5.31,1.77,-5.86,287,313,239,458,342,14
1760,0.03,-0.94,0.34,-10.93,-5.55,-2.2,283,310,241,457,341,14
1761,0.03,-0.97,0.33,2.93,-2.81,-2.38,286,311,237,452,343,14
1762,0.03,-0.94,0.33,5.31,-4.15,-2.26,285,310,234,450,344,14
1763,-0.0,-0.95,0.36,0.0,-3.85,-1.16,285,310,237,457,344,14
1764,0.02,-0.95,0.36,2.14,-4.33,-1.83,285,312,240,456,340,14
1765,0.0,-0.91,0.36,1.4,-3.91,-1.4,289,313,239,456,343,14
1766,0.01,-0.94,0.36,-2.2,-7.08,0.06,285,312,241,453,344,14
1767,0.02,-0.93,0.35,2.87,-3.72,-2.75,283,317,237,459,343,14
1768,0.01,-0.96,0.35,6.53,-8.48,0.73,283,310,237,445,339,14
1769,0.0,-0.89,0.47,-2.69,-2.69,-1.4,290,310,233,432,349,14
1770,0.06,-0.92,0.42,0.18,-3.91,-4.7,289,314,235,439,348,14
1771,0.01,-0.91,0.41,1.22,-9.09,4.76,289,314,240,444,348,14
1772,-0.02,-0.91,0.39,2.99,-3.42,-1.4,291,314,238,444,350,14
1773,0.0,-0.92,0.41,1.83,-2.56,-2.75,290,312,240,442,350,14
1774,0.01,-0.91,0.41,-1.77,-0.79,-3.11,285,314,237,445,343,14
1775,-0.03,-0.89,0.45,0.31,0.55,-2.5,288,311,240,445,341,14
1776,-0.01,-0.9,0.43,-1.59,2.5,-6.47,287,314,239,453,344,14
1777,0.01,-0.91,0.47,2.99,-6.16,0.12,286,312,238,451,345,14
1778,0.01,-0.92,0.44,4.94,-5.19,-2.81,289,314,236,450,346,14
1779,0.05,-0.9,0.41,0.55,-4.27,-4.46,293,311,240,451,345,14
1780,-0.0,-0.89,0.44,-0.92,-4.21,-0.92,287,316,239,454,347,14
1781,0.04,-0.91,0.46,1.28,-5.19,-2.87,287,318,240,454,346,14
1782,0.03,-0.9,0.41,3.78,-3.48,-3.72,290,312,238,455,346,14
1783,0.01,-0.89,0.45,-0.43,-2.32,-1.22,290,315,244,451,347,14
1784,0.02,-0.89,0.45,-0.06,-6.53,-2.44,291,314,236,460,347,14
1785,-0.0,-0.9,0.42,1.16,-1.53,-4.21,285,315,242,454,341,14
1786,0.01,-0.9,0.43,1.89,-1.28,-4.27,287,314,240,455,346,14
1787,0.02,-0.89,0.46,-2.2,-4.27,-1.53,288,312,235,455,348,14
1788,-0.0,-0.9,0.43,1.34,-1.77,-3.23,287,311,250,457,348,14
1789,0.01,-0.9,0.41,0.0,-1.89,-2.93,289,312,240,457,345,14
1790,0.01,-0.89,0.46,-4.27,-7.2,-0.79,287,309,239,451,348,14
1791,-0.0,-0.91,0.43,0.24,-2.44,-3.6,288,313,241,461,346,14
1792,0.0,-0.91,0.42,0.24,-0.92,-4.21,289,322,239,453,345,14
1793,0.02,-0.92,0.44,-4.64,-0.98,-1.59,289,313,235,457,347,14
1794,0.01,-0.92,0.43,0.67,-2.62,-1.71,287,314,241,458,347,14
1795,-0.01,-0.9,0.41,2.69,-1.65,-2.56,289,314,238,452,346,14
1796,-0.02,-0.9,0.45,-2.2,-0.12,-1.83,288,308,240,460,345,14
1797,0.02,-0.89,0.43,2.93,-1.04,-6.9,289,315,242,451,346,14
1798,-0.02,-0.9,0.42,0.73,-1.83,-1.77,289,314,235,458,347,14
1799,0.01,-0.91,0.42,-0.12,-3.97,-2.93,285,312,244,462,348,14
1800,-0.02,-0.91,0.47,-0.92,-10.25,0.98,290,311,243,457,348,14
1801,-0.02,-0.89,0.43,-1.16,-1.34,-4.46,287,314,237,457,346,14
1802,-0.01,-0.91,0.47,-2.5,-6.23,-2.01,287,312,243,455,346,14
1803,-0.01,-0.9,0.45,-1.34,-8.85,0.18,289,313,242,457,346,14
1804,0.01,-0.93,0.38,2.75,-3.6,-4.39,286,315,240,453,349,14
1805,0.02,-0.93,0.38,1.95,-3.78,-1.28,287,311,239,458,346,14
1806,-0.0,-0.92,0.38,3.78,-3.66,-0.98,286,311,239,455,351,14
1807,-0.02,-0.91,0.41,2.14,-2.81,-5.13,286,314,236,461,343,14
1808,-0.03,-0.9,0.4,-1.34,0.73,-2.01,286,314,237,455,345,14
1809,-0.0,-0.92,0.42,2.75,-3.78,-3.3,287,311,241,461,343,14
1810,-0.02,-0.92,0.42,-1.1,-2.44,-3.54,288,312,239,461,343,14
1811,-0.02,-0.93,0.42,1.22,-2.44,-3.3,287,311,240,455,346,14
1812,-0.01,-0.92,0.4,-0.06,-2.56,-1.83,285,313,241,457,346,14
1813,-0.0,-0.91,0.38,-2.62,3.3,-2.44,288,308,240,457,347,14
1814,-0.01,-0.92,0.38,0.79,-1.53,-5.0,301,315,238,461,345,14
1815,-0.02,-0.92,0.39,3.78,-2.62,-2.38,294,312,242,460,343,14
1816,-0.01,-0.92,0.38,1.16,-2.01,-3.42,285,314,239,457,346,14
1817,-0.02,-0.92,0.4,0.31,-4.15,-1.4,287,312,240,458,346,14
1818,-0.02,-0.92,0.42,1.22,-2.62,-2.69,290,310,242,461,349,14
1819,-0.02,-0.91,0.4,0.18,-3.66,-2.75,287,314,236,458,348,14
1820,-0.03,-0.92,0.4,1.1,-2.56,-2.93,286,312,240,458,346,14
1821,-0.03,-0.91,0.39,0.79,-0.12,-3.72,286,313,242,464,343,14
1822,-0.01,-0.92,0.44,2.87,-6.65,-0.61,287,315,239,454,347,14
1823,0.01,-0.91,0.38,1.28,-0.85,-9.09,287,312,239,458,343,14
1824,0.0,-0.91,0.41,-0.37,-2.44,0.06,286,311,237,462,346,14
1825,-0.0,-0.91,0.43,0.18,-5.55,0.06,287,312,241,457,344,14
1826,0.0,-0.9,0.39,2.32,-4.94,-2.14,286,312,238,459,349,14
1827,-0.01,-0.89,0.4,0.67,-2.81,-0.49,287,314,241,459,347,14
1828,0.01,-0.93,0.41,-7.08,-8.12,-2.69,288,312,240,453,350,14
1829,0.01,-0.92,0.37,-4.58,0.73,-5.8,289,313,241,458,343,14
1830,-0.01,-0.92,0.36,3.3,0.79,-2.32,286,318,242,458,344,14
1831,-0.03,-0.93,0.37,0.61,-2.44,-1.59,288,321,242,458,354,14
1832,-0.01,-0.94,0.39,-0.37,-5.92,-2.93,286,309,238,461,348,14
1833,0.01,-0.95,0.36,3.66,-3.54,-2.69,287,316,239,459,347,14
1834,-0.0,-0.93,0.33,-0.18,-1.04,-4.94,289,312,245,459,347,14
1835,0.0,-0.96,0.4,0.24,-11.17,3.17,289,313,235,459,350,14
1836,-0.03,-0.95,0.36,0.61,-3.23,-4.27,283,310,241,458,347,14
1837,-0.01,-0.93,0.38,0.67,-0.67,-4.46,289,313,242,457,349,14
1838,-0.03,-0.94,0.38,1.28,-3.36,-3.48,288,315,240,456,348,14
1839,-0.0,-0.92,0.37,0.79,-3.3,-2.87,287,312,239,458,349,14
1840,-0.03,-0.92,0.38,1.16,-3.05,-2.32,286,313,240,454,348,14
1841,-0.02,-0.93,0.39,-0.12,-6.04,-1.65,287,313,242,453,346,14
1842,0.02,-0.93,0.38,2.69,-3.23,-1.95,289,310,241,458,350,14
1843,0.01,-0.95,0.39,9.52,-6.53,-2.32,283,310,236,456,348,14
1844,-0.01,-0.91,0.38,3.91,-2.81,-6.59,286,310,241,458,344,14
1845,-0.02,-0.96,0.29,2.44,-5.8,1.71,299,314,240,457,349,14
1846,-0.05,-0.9,0.42,2.62,-4.39,1.77,287,309,240,461,345,14
1847,-0.02,-0.92,0.38,-5.25,-5.43,-1.22,286,313,238,458,348,14
1848,-0.06,-0.91,0.37,-1.89,0.24,-2.62,289,314,237,461,349,14
1849,-0.04,-0.92,0.4,1.04,-4.21,-3.48,307,310,238,457,346,14
1850,-0.02,-0.92,0.38,-0.12,-2.56,-3.11,286,312,240,462,344,14
1851,-0.02,-0.93,0.38,1.71,-8.3,-1.89,286,309,237,452,347,14
1852,0.0,-0.92,0.35,-1.4,-3.48,-2.14,287,311,245,458,347,14
1853,-0.05,-0.91,0.35,-0.98,-4.46,-0.92,286,312,240,456,347,14
1854,-0.02,-0.91,0.4,-0.73,-8.54,-2.01,285,311,240,454,349,14
1855,0.03,-0.96,0.34,5.37,-7.81,0.61,288,311,241,450,348,14
1856,-0.01,-0.91,0.39,0.18,-5.55,1.71,283,314,240,444,343,14
1857,-0.03,-0.98,0.45,2.62,-1.71,-4.15,286,311,238,440,346,14
1858,-0.14,-0.87,0.48,19.47,18.19,-30.64,289,315,235,440,349,14
1859,-0.02,-0.9,0.45,-24.72,-12.57,21.12,287,314,233,442,351,14
1860,-0.03,-0.94,0.3,-2.26,-1.1,-15.08,288,324,234,442,350,14
1861,0.01,-0.97,0.28,2.01,-5.07,-3.36,288,309,238,438,343,14
1862,0.03,-0.95,0.31,-1.53,-3.6,-5.25,284,310,237,442,342,14
1863,0.02,-0.95,0.27,1.1,-2.26,-3.05,289,313,238,441,345,14
1864,0.06,-0.95,0.25,-0.55,-1.04,-0.43,316,305,241,442,345,14
1865,-0.01,-0.97,0.33,5.07,-2.14,-5.25,287,310,235,439,346,14
1866,0.06,-0.94,0.33,7.81,-6.65,-8.73,289,309,238,438,340,14
1867,0.05,-0.93,0.36,-0.73,-2.69,0.43,288,310,234,442,345,14
1868,0.04,-0.92,0.36,-2.75,-1.53,1.28,289,308,236,439,341,14
1869,0.02,-0.94,0.35,-6.59,-4.94,2.5,291,308,238,440,345,14
1870,0.04,-0.96,0.29,-19.53,-6.47,-12.15,284,312,242,440,344,14
1871,0.05,-0.97,0.29,-1.22,-5.86,0.24,289,313,237,439,344,14
1872,0.02,-0.96,0.26,6.04,-0.43,-6.53,289,306,237,444,343,14
1873,0.03,-0.96,0.25,0.49,-0.06,-2.5,290,309,235,438,340,14
1874,0.02,-0.97,0.3,2.08,-0.55,-0.24,282,308,238,440,336,14
1875,0.02,-0.96,0.3,1.77,0.0,-3.85,270,308,243,433,332,14
1876,0.02,-0.98,0.28,-6.9,-5.43,2.32,260,303,237,437,331,14
1877,-0.0,-0.95,0.27,0.85,-2.44,-0.12,267,302,239,431,333,14
1878,-0.01,-0.96,0.21,4.15,-1.71,-6.41,269,304,237,438,331,14
1879,0.0,-0.97,0.32,20.69,-2.44,-3.85,273,304,237,432,335,14
1880,0.0,-0.96,0.29,-0.92,-1.95,-2.44,269,306,240,431,336,14
1881,0.01,-0.92,0.29,5.37,-1.04,-3.6,270,309,241,439,341,14
1882,-0.01,-0.94,0.28,3.36,-4.46,-3.66,273,304,239,440,336,14
1883,-0.03,-0.94,0.31,-1.34,-4.76,-1.04,276,308,244,440,337,14
1884,-0.0,-0.94,0.34,-5.74,-4.15,-2.62,273,311,236,440,335,14
1885,-0.01,-0.98,0.35,1.4,-0.61,-2.14,273,310,237,440,337,14
1886,0.02,-0.96,0.26,-5.49,-0.37,-5.19,273,308,242,439,341,14
1887,0.02,-0.96,0.29,-1.65,-6.65,2.56,275,320,249,446,338,14
1888,0.04,-0.98,0.32,-5.55,-4.03,-6.84,272,306,239,437,344,14
1889,0.03,-0.98,0.31,-0.18,-4.46,-2.38,277,309,242,447,343,14
1890,0.02,-0.96,0.32,-0.12,-5.13,-0.98,275,309,239,446,344,14
1891,0.04,-1.0,0.21,-24.96,-2.2,-15.81,277,309,239,446,347,14
1892,0.04,-1.0,0.26,11.17,-7.57,-1.65,276,308,241,441,341,14
1893,0.05,-0.96,0.26,1.65,-5.62,-0.85,278,311,236,441,344,14
1894,0.05,-0.96,0.31,0.12,-7.75,-1.53,278,313,243,441,342,14
1895,0.07,-0.97,0.31,0.73,-5.0,-2.38,279,311,236,446,343,14
1896,0.04,-0.95,0.33,2.26,-3.48,-1.77,281,309,240,445,344,14
1897,0.05,-0.95,0.31,0.67,-4.88,-1.46,281,308,238,446,344,14
1898,0.04,-0.95,0.31,-0.49,-2.69,-2.99,278,309,238,448,342,14
1899,0.04,-0.96,0.31,2.75,-2.2,-2.62,280,310,235,443,345,14
1900,0.04,-0.95,0.31,0.06,-2.87,-3.05,278,308,241,441,344,14
1901,0.05,-0.94,0.32,-0.24,-2.32,-2.75,276,308,239,448,342,14
1902,0.05,-0.95,0.27,0.24,-0.06,-4.58,277,311,236,446,342,14
1903,0.04,-0.95,0.34,0.18,-3.42,-2.2,297,312,239,451,344,14
1904,0.05,-0.95,0.32,2.75,-2.01,-3.78,280,308,244,455,346,14
1905,0.04,-0.94,0.33,0.37,-3.17,-2.93,277,309,240,457,345,14
1906,0.07,-0.95,0.31,-0.06,-2.2,-3.36,277,312,236,449,347,14
1907,0.05,-0.94,0.32,1.59,-2.08,-2.99,280,312,237,455,345,14
1908,0.04,-0.95,0.33,1.71,-3.78,-1.16,277,311,240,456,342,14
1909,0.03,-0.95,0.35,3.6,-4.09,-0.55,279,314,236,457,346,14
1910,0.04,-0.93,0.31,-1.28,-3.78,-0.98,280,311,241,444,351,14
1911,0.03,-0.95,0.31,0.18,-4.03,-2.75,281,313,239,443,345,14
1912,0.03,-0.95,0.33,1.77,-3.6,-2.93,281,313,238,436,348,14
1913,0.04,-0.95,0.33,-1.71,-3.36,-3.23,280,315,238,445,349,14
1914,0.03,-0.95,0.34,-2.14,-2.56,-2.75,282,310,237,445,346,14
1915,0.03,-0.94,0.27,6.04,-2.38,-1.89,286,315,234,441,345,14
1916,0.0,-0.98,0.35,-3.6,1.65,-5.55,267,309,239,442,337,14
1917,0.05,-0.96,0.28,1.04,-2.44,-2.38,260,306,241,438,337,14
1918,0.05,-0.95,0.33,-0.67,-3.11,-3.05,262,309,241,443,334,14
1919,0.05,-0.97,0.3,4.7,-3.72,-1.46,264,308,238,444,336,14
1920,0.03,-0.95,0.29,1.34,-3.54,-2.32,261,309,246,442,334,14
1921,0.03,-0.95,0.31,-2.62,-2.14,-2.5,263,311,241,446,335,14
1922,0.03,-0.97,0.25,4.33,-2.87,-0.79,266,310,240,435,337,14
1923,0.03,-0.96,0.24,1.28,-2.87,-1.34,267,314,241,442,341,14
1924,0.02,-0.97,0.26,0.37,-1.83,-2.56,268,311,239,444,342,14
1925,0.02,-0.98,0.3,-3.36,-2.5,-3.17,270,311,240,441,342,14
1926,0.04,-0.95,0.27,3.23,-1.89,-3.23,268,313,243,444,339,14
1927,0.02,-0.97,0.25,3.97,-3.36,-2.32,268,316,238,439,336,14
1928,0.03,-0.98,0.31,-0.43,-2.62,-3.42,270,313,244,444,342,14
1929,0.04,-0.99,0.29,0.55,-3.48,-1.65,270,312,238,438,339,14
1930,0.03,-0.96,0.27,2.87,-1.71,-2.56,269,310,242,444,340,14
1931,0.03,-0.95,0.27,0.31,-2.5,-2.26,270,322,243,448,340,14
1932,0.03,-0.96,0.29,0.67,-3.36,-2.87,263,313,244,440,340,14
1933,0.03,-0.97,0.31,1.22,-2.75,-3.48,269,313,241,447,341,14
1934,0.03,-0.95,0.28,2.69,-3.11,-2.14,266,311,242,441,341,14
1935,0.03,-0.96,0.29,-0.61,-2.87,-2.32,269,313,247,440,340,14
1936,0.02,-0.97,0.29,-4.15,-3.78,-2.14,272,313,240,444,341,14
1937,0.02,-0.97,0.22,-3.6,-2.14,-1.95,272,312,243,441,342,14
1938,0.03,-0.99,0.18,3.23,-2.56,-1.46,270,312,239,446,342,14
1939,0.02,-0.96,0.21,1.28,-3.6,-1.34,269,325,242,441,339,14
1940,0.0,-0.98,0.2,-2.26,-3.54,-2.99,268,309,240,444,338,14
1941,0.01,-0.99,0.2,1.77,-2.44,-2.87,272,327,243,444,343,14
1942,0.02,-0.97,0.23,0.85,-2.99,-3.78,273,314,241,444,343,14
1943,0.02,-0.99,0.23,3.6,-3.72,-3.11,275,315,241,437,341,14
1944,0.02,-0.98,0.23,0.79,-2.62,-3.23,269,313,240,444,341,14
1945,0.02,-0.97,0.23,0.24,-2.99,-3.54,273,314,256,444,342,14
1946,0.02,-0.99,0.25,-1.22,-3.17,-2.81,276,311,242,443,340,14
1947,0.02,-1.01,0.24,-15.14,-4.7,0.73,274,312,243,444,341,14
1948,0.02,-0.98,0.23,1.46,-2.38,-2.38,274,314,247,439,343,14
1949,0.02,-0.98,0.23,0.79,-3.11,-1.1,274,311,240,445,343,14
1950,0.01,-0.96,0.21,2.32,-3.36,-0.98,274,313,242,447,343,14
1951,0.01,-0.97,0.24,-0.98,-3.54,-2.93,272,313,242,448,341,14
1952,0.02,-0.98,0.24,1.71,-2.87,-2.44,273,311,243,448,342,14
1953,0.01,-0.97,0.24,1.71,-2.62,-3.42,272,312,243,444,337,14
1954,0.01,-0.96,0.22,2.38,-2.2,-3.66,275,313,241,445,343,14
1955,0.01,-0.97,0.23,1.04,-2.56,-2.87,272,311,240,445,341,14
1956,0.02,-0.97,0.24,1.71,-3.17,-2.56,274,312,242,446,342,14
1957,0.02,-0.97,0.25,2.62,-2.32,-2.87,274,314,242,441,342,14
1958,0.0,-0.97,0.25,2.44,-4.82,-0.31,276,313,243,451,342,14
1959,0.02,-0.96,0.26,1.22,-3.78,-2.14,267,316,240,451,344,14
1960,0.01,-0.97,0.26,0.85,-3.23,-1.83,270,310,243,453,343,14
1961,0.01,-0.96,0.26,1.46,-4.33,-2.62,273,314,244,450,339,14
1962,0.02,-0.98,0.29,-9.46,-3.42,-1.4,276,312,242,447,342,14
1963,0.01,-0.97,0.24,4.03,-2.5,-2.99,273,313,241,451,341,14
1964,0.0,-0.97,0.26,0.85,-3.36,-2.93,273,312,241,450,344,14
1965,0.01,-0.96,0.24,1.77,-3.85,-3.48,273,315,241,452,344,14
1966,0.01,-0.96,0.26,-1.46,-2.93,-2.87,273,314,241,449,345,14
1967,0.01,-0.97,0.27,0.43,-2.69,-2.44,273,313,241,445,343,14
1968,0.01,-0.97,0.28,0.67,-3.3,-3.23,272,314,242,453,341,14
1969,0.02,-0.97,0.28,-0.55,-2.62,-2.2,273,316,241,443,344,14
1970,0.01,-0.96,0.28,2.26,-2.2,-2.5,269,314,242,451,345,14
1971,0.02,-0.97,0.29,-0.49,-3.3,-0.85,268,324,239,447,351,14
1972,0.0,-0.96,0.28,-0.98,-3.72,-2.44,273,314,242,446,346,14
1973,0.01,-0.97,0.29,-0.18,-3.6,-3.6,270,329,241,449,343,14
1974,0.0,-0.97,0.28,-0.06,-3.91,-3.05,276,314,241,452,344,14
1975,0.01,-0.97,0.29,-0.85,-3.11,-3.17,273,316,241,449,346,14
1976,0.01,-0.96,0.27,0.49,-2.56,-2.93,273,313,243,451,345,14
1977,0.01,-0.96,0.28,-0.43,-2.69,-2.56,273,316,242,453,343,14
1978,0.01,-0.96,0.28,1.28,-2.56,-2.81,273,314,243,449,344,14
