,aX,aY,aZ,gX,gY,gZ,little,ring,middle,index,thumb,number
0,-0.17,-0.98,-0.06,0.79,-2.69,-2.81,426,293,238,475,319,24
1,-0.17,-0.98,-0.06,0.37,-3.17,-2.44,428,305,239,466,321,24
2,-0.17,-0.98,-0.06,0.55,-2.2,-2.26,422,296,240,472,319,24
3,-0.18,-0.98,-0.05,0.18,-0.49,-1.89,428,296,239,472,321,24
4,-0.17,-0.98,-0.06,1.53,-5.19,-2.69,423,293,241,471,318,24
5,-0.19,-0.98,-0.05,-0.55,-2.44,-2.99,424,293,238,472,319,24
6,-0.15,-0.96,-0.11,0.0,-0.98,-5.98,423,293,243,474,317,24
7,-0.19,-0.97,-0.04,-0.49,-2.2,-5.86,426,294,240,467,318,24
8,-0.15,-0.97,-0.05,-2.38,7.39,-1.89,424,293,242,470,320,24
9,-0.18,-0.98,-0.03,-0.43,-2.08,-3.11,419,296,239,473,317,24
10,-0.17,-0.98,-0.03,0.79,-4.58,-0.92,423,298,240,473,318,24
11,-0.16,-0.98,-0.05,1.1,-3.23,-1.95,423,293,243,473,315,24
12,-0.16,-0.98,-0.05,1.53,-2.93,-2.08,422,293,239,466,319,24
13,-0.17,-0.98,-0.04,-0.61,-1.89,-2.32,426,295,243,473,320,24
14,-0.17,-0.98,-0.06,-0.73,-0.18,-4.39,422,294,238,471,318,24
15,-0.1,-0.94,-0.14,-2.08,4.33,5.49,425,293,239,474,318,24
16,-0.25,-0.99,0.03,8.18,-8.12,3.66,424,293,237,475,315,24
17,-0.17,-0.99,-0.02,-2.81,8.61,-4.64,424,290,240,468,307,24
18,-0.15,-0.98,-0.03,7.69,-3.72,2.93,431,289,237,478,308,24
19,-0.16,-0.99,0.08,1.46,-1.04,-0.85,422,290,237,475,307,24
20,-0.16,-1.0,0.04,2.99,-0.24,-12.76,428,290,236,470,313,24
21,-0.14,-0.98,-0.05,-1.77,-0.73,1.53,425,294,241,470,313,24
22,-0.16,-0.99,0.01,-1.53,1.46,-7.14,423,296,240,473,311,24
23,-0.12,-0.99,-0.04,-10.74,-0.43,-2.93,425,295,237,466,315,24
24,-0.08,-0.98,-0.03,-5.43,-0.92,-10.93,425,294,240,467,311,24
25,-0.16,-0.98,-0.06,10.01,-7.26,-2.32,424,296,242,470,315,24
26,-0.0,-1.01,0.19,-8.61,7.45,0.43,422,292,242,470,313,24
27,-0.1,-1.05,0.1,-8.61,-3.66,-3.97,425,296,240,471,313,24
28,-0.16,-0.98,-0.12,-13.24,-8.91,-9.28,424,293,237,474,315,24
29,-0.14,-0.97,-0.12,5.43,-2.81,-2.56,425,294,241,471,314,24
30,-0.19,-0.95,-0.13,-2.08,-8.3,0.67,425,291,241,466,313,24
31,-0.15,-0.99,-0.02,6.65,-2.87,-6.35,423,291,241,466,318,24
32,-0.13,-0.98,-0.04,2.01,-17.76,0.85,421,290,241,474,318,24
33,-0.14,-0.99,0.02,-1.16,10.74,3.97,422,294,241,474,313,24
34,-0.14,-0.99,0.0,-2.69,-7.57,-4.33,425,293,244,474,312,24
35,-0.09,-0.99,-0.0,-1.46,-1.34,-3.48,423,293,242,472,316,24
36,-0.09,-0.99,-0.04,2.14,-3.36,-4.09,423,292,241,470,318,24
37,-0.09,-0.99,-0.04,0.12,-1.16,-2.01,426,292,243,474,312,24
38,-0.09,-0.99,-0.02,1.53,-0.73,-3.6,421,293,243,474,312,24
39,-0.09,-0.99,-0.01,0.31,-2.93,-3.72,425,293,241,469,313,24
40,-0.08,-0.99,-0.03,0.43,-2.56,-2.75,423,295,240,470,316,24
41,-0.08,-0.99,-0.02,0.85,-1.77,-2.38,426,293,244,471,314,24
42,-0.09,-0.99,-0.02,-0.31,-3.11,-2.56,423,291,239,470,314,24
43,-0.09,-0.99,-0.02,0.67,-2.62,-2.38,423,295,241,470,315,24
44,-0.09,-1.0,-0.03,0.0,-3.48,-2.93,426,291,240,469,316,24
45,-0.09,-0.99,-0.02,-0.12,-2.08,-2.99,424,294,238,470,316,24
46,-0.08,-1.0,-0.03,0.31,-1.89,-2.56,437,292,241,474,316,24
47,-0.08,-0.99,-0.04,0.61,-2.32,-2.99,424,296,240,466,316,24
48,-0.08,-0.99,-0.04,0.92,-3.42,-2.01,424,294,243,466,315,24
49,-0.08,-0.99,-0.04,0.92,-1.83,-2.44,424,293,239,470,318,24
50,-0.08,-0.99,-0.03,-0.49,-2.44,-2.81,426,294,241,471,316,24
51,-0.09,-0.99,-0.04,-0.12,-2.44,-2.87,426,294,243,470,317,24
52,-0.09,-0.99,-0.04,-0.12,-2.26,-3.36,424,293,255,471,317,24
53,-0.08,-0.99,-0.03,0.85,-3.17,-2.2,424,295,240,467,316,24
54,-0.09,-0.99,-0.04,0.12,-2.32,-2.75,423,290,241,469,318,24
55,-0.1,-0.99,-0.03,0.73,-2.81,-2.5,422,290,242,470,313,24
56,-0.09,-0.99,-0.04,1.16,-1.53,-1.53,423,294,238,473,314,24
57,-0.1,-0.99,-0.05,-1.28,-1.16,-0.06,425,293,244,470,313,24
58,-0.11,-0.99,-0.04,1.4,-2.81,-2.26,426,292,256,479,319,24
59,-0.12,-0.99,-0.04,0.18,-2.2,-2.62,422,296,242,468,316,24
60,-0.13,-0.98,-0.03,0.73,-1.71,-1.16,420,299,240,470,316,24
61,-0.12,-0.99,-0.02,1.34,-1.46,-2.56,423,290,243,468,317,24
62,-0.12,-0.99,-0.03,0.24,-3.36,-1.83,421,293,238,473,316,24
63,-0.1,-0.99,-0.01,3.66,-3.23,-1.34,423,294,241,466,316,24
64,-0.13,-0.99,-0.01,-0.79,-2.44,-2.69,423,293,242,471,314,24
65,-0.13,-0.99,-0.01,-3.6,-5.8,-3.66,421,298,245,472,317,24
66,-0.13,-0.99,0.0,0.31,-3.48,-3.3,420,294,241,469,314,24
67,-0.1,-0.99,-0.02,-0.49,-0.55,-1.71,421,294,241,468,318,24
68,-0.11,-0.99,-0.02,1.59,-4.39,-1.83,422,294,238,468,317,24
69,-0.13,-0.98,-0.03,0.85,-4.21,-3.42,424,294,243,468,317,24
70,-0.09,-1.01,-0.02,11.47,-1.46,-8.12,423,291,241,473,318,24
71,-0.06,-0.98,0.0,-3.36,-6.47,1.59,426,295,242,471,317,24
72,-0.11,-0.99,0.01,-1.04,-1.46,-2.69,424,293,244,467,316,24
73,-0.11,-1.0,0.01,3.23,0.24,0.0,423,291,240,470,315,24
74,-0.09,-0.99,0.02,1.22,-4.46,-3.97,428,293,244,469,310,24
75,-0.08,-1.0,0.01,-1.16,-2.87,-2.99,427,292,244,467,318,24
76,-0.1,-0.99,-0.0,0.55,-3.6,-0.79,425,295,242,464,315,24
77,-0.09,-0.99,0.01,-0.67,-3.17,-2.62,422,296,244,469,315,24
78,-0.1,-0.99,0.03,0.98,-3.42,-5.55,425,297,245,468,319,24
79,-0.09,-0.99,0.02,-2.44,-2.99,-2.01,426,295,243,475,318,24
80,-0.08,-0.99,-0.01,-0.06,-2.01,-2.26,425,294,243,468,316,24
81,-0.1,-0.99,0.0,-2.01,-2.69,-3.54,424,293,244,468,319,24
82,-0.08,-0.99,-0.01,0.67,-2.38,-2.69,424,294,240,470,316,24
83,-0.09,-1.0,0.01,1.53,-2.99,-1.34,459,293,246,473,317,24
84,-0.09,-0.99,-0.01,-0.37,-3.05,-2.93,424,296,242,472,317,24
85,-0.09,-0.99,-0.01,1.4,-2.99,-2.14,422,293,245,464,312,24
86,-0.09,-0.99,-0.01,0.49,-3.72,-1.89,426,296,243,468,317,24
87,-0.1,-0.99,-0.01,-0.67,-1.95,-4.03,426,294,242,465,316,24
88,-0.09,-0.99,-0.01,0.24,-3.23,-2.32,428,293,245,470,318,24
89,-0.09,-0.99,-0.0,1.77,-2.75,-4.03,425,296,245,463,317,24
90,-0.1,-0.99,-0.01,0.12,-2.32,-3.11,423,294,242,464,317,24
91,-0.09,-0.99,0.01,-0.37,-3.05,-3.54,426,294,241,464,316,24
92,-0.08,-0.99,-0.01,-0.55,-3.05,-3.17,425,295,242,464,318,24
93,-0.09,-0.99,0.0,3.17,-2.26,-1.34,427,296,246,468,314,24
94,-0.1,-1.0,0.03,-2.44,-6.96,-1.28,425,293,242,470,317,24
95,-0.09,-0.99,0.01,-0.49,-2.99,-2.2,423,296,245,464,318,24
96,-0.11,-0.99,-0.02,0.85,-3.3,-2.44,429,292,243,469,321,24
97,-0.11,-0.98,-0.01,0.67,-4.82,-1.95,427,300,240,472,319,24
98,-0.09,-0.99,0.0,0.43,-2.81,-2.32,427,294,244,473,320,24
99,-0.1,-0.99,-0.0,0.0,-2.2,-4.09,424,294,244,468,318,24
100,-0.1,-0.99,-0.01,-1.04,-2.56,-2.32,422,296,245,469,315,24
101,-0.08,-0.99,-0.01,0.24,-2.38,-3.23,427,294,245,471,321,24
102,-0.08,-0.99,-0.02,1.04,-2.99,-2.75,427,296,241,469,318,24
103,-0.09,-0.99,-0.02,-0.37,-3.66,-2.93,428,294,244,467,318,24
104,-0.09,-0.99,-0.01,0.43,-2.81,-2.81,427,293,243,470,318,24
105,-0.1,-0.99,-0.01,0.55,-2.99,-2.38,428,294,241,468,322,24
106,-0.09,-0.99,-0.01,-0.18,-2.99,-3.05,425,297,243,472,319,24
107,-0.09,-0.99,-0.02,0.0,-2.14,-2.87,427,294,243,468,317,24
108,-0.09,-0.99,-0.02,-0.24,-2.14,-3.17,426,292,241,464,321,24
109,-0.09,-0.99,-0.02,0.18,-3.17,-2.75,427,295,240,471,321,24
110,-0.09,-0.99,-0.03,0.98,-2.99,-2.5,425,295,244,468,319,24
111,-0.09,-0.99,-0.02,0.37,-2.99,-2.5,425,295,243,464,313,24
112,-0.09,-0.99,-0.02,0.73,-3.23,-2.38,425,294,241,472,317,24
113,-0.1,-0.99,-0.01,0.79,-3.05,-1.95,426,295,242,472,315,24
114,-0.09,-1.0,-0.02,0.79,-3.36,-2.08,425,294,244,469,320,24
115,-0.1,-0.99,-0.02,0.73,-3.91,-2.26,422,296,246,469,320,24
116,-0.09,-0.99,-0.01,1.1,-3.36,-2.44,425,294,242,464,320,24
117,-0.1,-0.99,-0.02,0.24,-2.2,-3.11,422,296,252,468,319,24
118,-0.09,-0.98,-0.03,-1.16,-2.32,-3.54,424,296,242,471,318,24
119,-0.1,-0.99,-0.03,0.67,-2.75,-3.36,428,292,244,467,320,24
120,-0.07,-0.99,-0.04,0.67,-2.75,-2.99,432,297,242,466,318,24
121,-0.08,-0.99,-0.02,2.44,-2.5,-3.17,424,295,246,468,322,24
122,-0.08,-0.99,-0.02,-0.55,-2.5,-2.62,424,295,244,468,321,24
123,-0.09,-0.99,-0.02,1.28,-2.56,-2.44,426,294,245,471,316,24
124,-0.08,-0.99,-0.02,-0.79,-3.6,-3.11,425,295,246,468,322,24
125,-0.08,-0.99,-0.03,-0.31,-2.81,-3.85,427,298,243,463,318,24
126,-0.07,-0.99,-0.02,-0.31,-4.03,-2.32,426,297,241,469,320,24
127,-0.07,-0.99,-0.03,-0.61,-2.2,-3.23,425,297,242,469,320,24
128,-0.08,-0.99,-0.03,-0.67,-3.11,-2.5,424,294,245,466,318,24
129,-0.09,-0.99,-0.04,-3.36,-3.6,-2.87,424,295,243,468,316,24
130,-0.08,-0.99,-0.02,-8.97,-3.42,-4.03,424,295,244,469,319,24
131,-0.06,-0.99,-0.03,0.12,-2.75,-2.32,425,298,255,468,322,24
132,-0.05,-1.0,-0.03,2.69,-5.8,-1.53,426,299,246,464,319,24
133,-0.08,-0.99,-0.04,-1.28,-1.4,-3.48,425,298,242,473,317,24
134,-0.08,-1.0,-0.03,-0.49,-2.69,-2.56,425,295,245,467,320,24
135,-0.07,-0.99,-0.05,2.87,-3.48,-2.38,422,296,244,464,322,24
136,-0.07,-0.99,-0.06,0.0,-2.01,-3.11,425,297,241,472,322,24
137,-0.06,-0.99,-0.04,2.56,-0.98,-0.79,426,296,244,469,319,24
138,-0.06,-0.99,-0.02,1.53,-0.06,-4.15,452,297,245,468,317,24
139,-0.07,-1.0,-0.02,1.04,-6.35,0.06,422,297,247,468,320,24
140,-0.07,-0.99,-0.01,0.43,-5.37,-1.53,425,297,244,468,321,24
141,-0.1,-0.99,-0.04,1.22,-4.09,-2.14,426,291,246,472,318,24
142,-0.12,-0.99,-0.01,0.0,-3.97,-2.26,424,297,246,467,315,24
143,-0.09,-0.98,-0.01,-1.04,-3.48,-2.56,445,298,246,469,320,24
144,-0.1,-1.0,-0.01,-0.31,-4.82,-1.77,422,295,245,468,319,24
145,-0.11,-0.99,-0.0,0.24,-2.69,-3.6,424,296,244,472,321,24
146,-0.11,-0.99,-0.01,0.73,-1.53,-4.46,423,298,243,469,322,24
147,-0.09,-0.99,0.01,0.98,-1.04,-0.92,423,296,246,469,322,24
148,-0.08,-0.99,-0.01,0.67,-2.01,-2.56,425,296,248,467,323,24
149,-0.09,-0.99,-0.0,1.1,-3.05,-2.69,422,299,241,468,323,24
150,-0.09,-0.99,-0.0,0.24,-3.42,-2.32,424,294,244,471,325,24
151,-0.09,-0.99,-0.02,0.67,-2.2,-2.62,423,294,244,469,325,24
152,-0.08,-0.99,-0.0,0.31,-2.93,-2.75,424,297,244,471,321,24
153,-0.09,-1.0,-0.01,0.73,-2.75,-2.93,424,298,244,468,325,24
154,-0.09,-0.99,-0.01,1.1,-2.44,-2.69,425,294,244,469,326,24
155,-0.09,-0.99,0.0,2.08,-2.2,-3.66,426,294,245,471,327,24
156,-0.09,-0.99,-0.0,1.1,-2.75,-2.99,426,295,255,467,326,24
157,-0.12,-0.99,0.01,9.83,1.77,-5.8,421,297,247,465,310,24
158,-0.02,-0.99,-0.05,-7.45,-2.75,-8.24,421,299,246,462,312,24
159,-0.03,-0.99,-0.02,-1.89,-2.93,-8.67,424,298,257,468,311,24
160,-0.01,-1.03,-0.08,-2.81,-2.75,-2.81,421,296,245,468,311,24
161,0.01,-0.98,-0.09,7.2,-3.17,-2.14,425,297,247,474,311,24
162,-0.06,-0.99,-0.04,2.75,-4.21,-0.37,425,299,244,467,312,24
163,-0.08,-0.99,-0.06,0.18,-6.1,-3.36,422,305,246,468,308,24
164,-0.12,-0.98,0.04,0.73,-2.93,1.71,423,297,245,468,311,24
165,-0.03,-0.97,-0.01,-0.61,-12.57,-4.33,423,296,251,472,312,24
166,-0.08,-0.99,0.08,3.54,-5.31,0.85,424,297,245,467,310,24
167,-0.07,-0.99,0.03,-2.56,-0.67,-6.1,424,299,245,462,313,24
168,-0.11,-0.99,0.04,-1.4,-3.48,-2.69,423,297,251,470,313,24
169,-0.09,-0.99,0.02,-5.37,3.72,-4.94,422,297,252,472,315,24
170,-0.06,-0.99,-0.01,0.98,-1.16,-2.62,424,295,244,468,310,24
171,-0.09,-0.99,-0.01,0.79,-1.53,-1.28,423,300,247,468,315,24
172,-0.07,-0.99,-0.01,1.1,-2.01,-2.81,443,298,249,472,314,24
173,-0.07,-1.0,-0.0,-0.61,-4.39,-2.87,422,296,248,469,316,24
174,-0.06,-0.99,-0.01,1.71,-2.81,-1.89,422,303,241,468,316,24
175,-0.08,-0.99,-0.01,0.61,-2.32,-2.56,423,300,247,468,315,24
176,-0.09,-0.99,-0.0,-0.79,-2.75,-3.66,421,297,247,468,314,24
177,-0.07,-1.0,-0.02,-0.79,-3.17,-2.26,430,297,248,466,316,24
178,-0.07,-0.99,-0.02,0.85,-2.87,-2.32,424,297,248,466,316,24
179,-0.08,-0.99,-0.01,0.24,-3.05,-2.56,423,297,248,469,314,24
180,-0.07,-0.99,-0.03,-1.1,-3.97,-3.85,411,294,247,468,315,24
181,-0.1,-0.98,-0.02,3.42,-2.87,-3.11,422,299,249,468,317,24
182,-0.08,-1.0,0.03,-10.31,-6.84,-1.4,424,299,244,471,315,24
183,-0.05,-0.99,0.01,1.77,-1.4,-0.55,426,297,243,468,315,24
184,-0.08,-1.01,0.03,0.49,-3.11,-3.3,425,298,249,470,316,24
185,-0.03,-1.02,0.02,-2.62,-4.09,-6.84,430,305,248,467,314,24
186,-0.0,-0.99,-0.03,1.04,-0.98,-5.37,410,300,246,471,316,24
187,0.06,-0.99,-0.01,-8.61,-18.74,-17.33,422,300,246,469,313,24
188,0.02,-1.0,-0.05,-9.77,-1.1,-1.71,425,297,248,462,316,24
189,0.1,-0.98,-0.13,-5.74,-1.28,-2.14,418,297,247,472,317,24
190,0.07,-0.99,-0.08,2.56,-5.13,2.14,422,297,249,471,313,24
191,0.08,-0.98,-0.11,-5.31,-0.98,-5.13,423,298,248,468,315,24
192,0.07,-0.99,-0.07,5.62,-3.97,0.18,435,299,247,473,317,24
193,0.03,-1.0,-0.05,1.16,-4.27,-0.24,425,296,253,469,314,24
194,0.06,-0.99,-0.03,2.38,-4.03,-1.28,427,297,245,469,315,24
195,0.02,-0.99,-0.05,3.17,-8.54,0.49,421,299,246,468,315,24
196,0.05,-1.0,0.02,10.74,4.15,-1.65,420,298,247,462,315,24
197,0.12,-1.01,-0.01,-3.78,-14.28,-8.12,422,298,252,468,315,24
198,-0.05,-0.99,0.04,-3.78,-5.19,1.28,424,300,247,466,318,24
199,-0.0,-1.01,0.07,-7.2,-16.91,-7.75,420,298,249,472,318,24
200,-0.01,-1.0,0.0,-0.98,-6.84,-4.82,422,301,244,471,316,24
201,-0.0,-0.99,-0.03,1.65,-3.66,-1.53,422,297,250,471,314,24
202,-0.01,-0.99,-0.01,1.59,-4.27,-1.53,423,298,246,464,317,24
203,-0.01,-1.0,0.01,-0.55,-3.72,-1.71,422,299,246,469,316,24
204,-0.02,-0.99,-0.01,-0.06,-1.22,-2.93,423,300,248,468,316,24
205,-0.04,-0.99,0.01,1.59,-4.94,0.37,421,298,246,467,316,24
206,-0.02,-1.0,0.0,-0.61,-3.72,-2.26,440,293,245,472,318,24
207,-0.03,-0.99,0.0,0.06,-2.81,-1.77,419,298,250,468,316,24
208,-0.02,-0.99,0.0,0.67,-3.48,-1.89,426,298,245,475,319,24
209,-0.03,-1.01,0.08,-10.38,4.7,-2.62,422,299,246,464,317,24
210,-0.04,-1.0,0.05,2.08,2.5,0.92,422,298,248,472,316,24
211,-0.08,-0.98,-0.0,13.98,18.37,5.31,420,299,248,474,317,24
212,-0.13,-0.97,-0.04,12.88,29.48,-2.32,418,297,249,471,315,24
213,-0.04,-1.01,0.1,4.88,0.79,0.98,423,300,244,463,316,24
214,-0.04,-0.99,0.03,-0.37,-16.42,-8.0,444,301,248,468,312,24
215,-0.03,-1.01,0.07,-9.7,6.41,-22.22,422,301,246,469,318,24
216,0.03,-1.0,0.04,5.13,2.99,-3.23,420,299,243,473,315,24
217,-0.1,-0.94,-0.16,-1.34,4.82,10.31,422,298,250,465,314,24
218,-0.12,-0.99,0.11,6.84,-13.43,9.09,423,301,249,469,316,24
219,-0.01,-1.01,0.08,-0.24,-7.45,-5.37,424,298,249,468,317,24
220,-0.0,-0.98,-0.01,7.08,-17.64,-15.26,424,297,247,463,316,24
221,0.19,-1.01,0.22,-32.65,23.32,-18.43,424,301,249,467,320,24
222,0.13,-1.0,-0.07,20.57,-11.29,16.05,424,299,246,466,317,24
223,0.02,-1.0,-0.09,4.21,-14.77,2.2,421,299,242,467,320,24
224,-0.04,-0.98,-0.03,-11.66,-12.45,-14.4,425,299,248,469,319,24
225,0.14,-0.99,-0.08,9.52,-1.04,-6.77,423,298,251,468,320,24
226,0.03,-1.0,0.06,10.68,9.95,3.42,424,294,249,472,317,24
227,0.07,-1.0,0.08,2.44,2.44,-8.12,423,299,247,468,323,24
228,0.05,-0.97,0.02,-1.59,-1.4,-5.74,424,299,248,466,317,24
229,-0.01,-0.97,0.09,-1.46,-2.69,5.43,425,298,247,470,316,24
230,-0.03,-0.99,0.08,3.11,-2.62,-4.94,419,300,248,463,317,24
231,0.06,-1.0,0.1,-4.46,1.59,-10.62,425,298,251,471,318,24
232,0.06,-0.99,0.06,-1.46,-4.94,-2.99,420,295,246,462,320,24
233,0.07,-0.99,0.06,6.77,-9.77,-3.36,423,301,248,472,318,24
234,0.08,-1.0,0.14,14.83,-0.61,-11.05,423,298,249,467,319,24
235,0.08,-1.01,0.12,-11.96,-5.13,-1.16,422,301,249,469,319,24
236,0.11,-0.99,0.13,1.77,-2.08,-0.31,423,301,246,468,321,24
237,0.06,-0.99,0.14,0.85,-5.25,-1.89,425,298,250,465,319,24
238,0.08,-0.99,0.15,-0.98,-1.89,-1.22,421,307,249,464,316,24
239,0.08,-0.97,0.1,2.01,-0.98,-4.21,422,301,249,468,318,24
240,0.06,-1.0,0.13,2.62,-3.11,2.81,441,296,249,463,319,24
241,0.02,-0.98,0.17,0.98,-4.09,-1.65,424,298,249,468,322,24
242,0.06,-1.0,0.18,1.04,-2.01,0.12,421,294,247,467,321,24
243,0.03,-0.98,0.18,3.42,-3.17,-3.66,425,299,247,466,318,24
244,0.05,-0.99,0.18,4.7,-5.19,-2.99,425,299,247,471,319,24
245,0.01,-0.99,0.22,2.44,-2.99,-6.77,423,303,247,463,319,24
246,0.09,-0.98,0.15,-7.45,-0.85,1.22,421,301,247,468,318,24
247,0.01,-0.99,0.16,-0.61,-3.48,2.01,423,298,249,471,318,24
248,0.07,-0.99,0.15,-0.31,-2.08,-3.66,425,303,245,468,320,24
249,0.0,-1.0,0.16,0.67,-5.74,0.55,422,300,250,468,322,24
250,0.02,-0.98,0.15,2.2,-2.38,-2.87,426,296,249,469,316,24
251,0.0,-0.98,0.15,0.06,-3.91,-2.08,424,300,246,468,320,24
252,0.02,-0.99,0.16,-1.28,-2.5,-3.17,424,299,248,463,316,24
253,0.02,-0.99,0.16,-1.65,-3.66,-2.56,425,307,247,467,317,24
254,0.01,-0.99,0.15,-0.79,-4.21,-2.32,421,297,261,467,317,24
255,0.01,-0.99,0.15,-0.85,-3.05,-2.62,422,301,246,471,321,24
256,0.01,-0.99,0.13,-0.49,-1.95,-0.61,424,304,249,468,319,24
257,-0.01,-0.99,0.15,0.24,-3.3,-1.59,440,298,246,471,315,24
258,-0.01,-0.99,0.14,-0.37,-2.87,-2.26,427,298,246,473,323,24
259,-0.01,-0.99,0.13,0.18,-3.23,-2.99,422,300,250,468,319,24
260,-0.01,-0.99,0.14,1.65,-2.56,-2.44,426,298,246,471,317,24
261,-0.01,-0.99,0.14,0.24,-3.17,-1.95,421,295,247,472,319,24
262,-0.01,-0.98,0.14,0.24,-3.54,-1.71,424,297,247,463,319,24
263,-0.02,-0.99,0.14,0.31,-3.11,-2.75,426,295,248,471,322,24
264,-0.02,-0.99,0.14,0.49,-3.23,-2.26,425,298,246,469,319,24
265,-0.02,-0.99,0.14,-0.49,-2.62,-2.32,423,298,250,464,317,24
266,-0.01,-0.99,0.14,1.04,-3.05,-2.26,424,299,247,467,317,24
267,-0.02,-0.99,0.15,-0.79,-2.32,-3.48,424,301,247,470,322,24
268,-0.02,-0.99,0.14,0.49,-3.23,-2.56,424,299,246,464,320,24
269,-0.02,-0.98,0.15,0.79,-3.17,-2.14,424,298,246,467,320,24
270,-0.02,-0.99,0.14,0.06,-3.54,-2.01,426,300,246,462,316,24
271,-0.02,-0.99,0.14,0.31,-3.66,-2.2,424,297,248,465,315,24
272,-0.03,-0.99,0.14,0.73,-2.87,-2.26,424,298,250,464,317,24
273,-0.02,-0.99,0.14,-0.49,-2.62,-3.23,426,299,250,466,321,24
274,-0.03,-0.99,0.14,-0.06,-3.11,-2.69,425,301,250,472,320,24
275,-0.02,-0.99,0.13,-0.37,-2.99,-2.87,422,300,243,468,319,24
276,-0.02,-0.99,0.13,0.12,-2.62,-2.69,425,298,251,469,325,24
277,-0.03,-0.99,0.13,0.06,-2.44,-1.71,423,300,248,471,316,24
278,-0.03,-0.99,0.13,0.06,-2.75,-2.81,426,298,249,464,325,24
279,-0.04,-0.99,0.12,0.18,-3.36,-2.81,425,299,253,465,315,24
280,-0.03,-0.99,0.12,0.98,-3.05,-2.75,425,299,250,472,317,24
281,-0.04,-0.99,0.12,0.73,-3.23,-2.26,426,301,247,462,317,24
282,-0.03,-0.99,0.13,0.49,-3.6,-2.38,424,299,247,471,317,24
283,-0.04,-0.99,0.13,0.12,-2.44,-2.26,424,298,248,467,321,24
284,-0.04,-0.99,0.13,0.79,-2.75,-2.99,426,302,245,468,319,24
285,-0.04,-0.99,0.13,-0.55,-3.6,-2.81,422,297,251,467,321,24
286,-0.04,-0.99,0.13,0.43,-2.26,-2.56,426,298,248,469,318,24
287,-0.04,-0.99,0.12,0.61,-2.81,-2.87,423,295,255,471,319,24
288,-0.03,-0.99,0.12,0.31,-2.62,-2.99,420,297,245,468,321,24
289,-0.04,-0.99,0.12,0.31,-2.44,-3.23,422,298,247,469,316,24
290,-0.03,-0.99,0.13,0.24,-2.75,-2.32,424,299,246,471,320,24
291,-0.03,-0.99,0.13,0.18,-3.48,-3.3,426,300,248,462,317,24
292,-0.03,-0.99,0.12,0.18,-3.48,-2.5,425,298,247,462,324,24
293,-0.04,-0.99,0.12,0.67,-3.11,-2.32,424,295,248,467,320,24
294,-0.04,-0.99,0.12,0.31,-3.36,-2.14,426,298,249,467,320,24
295,-0.09,-0.98,0.15,7.87,-0.92,-1.4,424,298,263,462,321,24
296,0.06,-1.02,0.19,-13.37,-8.06,-15.93,419,298,246,467,319,24
297,-0.04,-0.96,0.24,-1.4,17.64,45.78,426,303,248,462,319,24
298,-0.22,-0.88,0.13,-8.79,-3.85,0.24,424,297,249,464,317,24
299,-0.25,-0.91,0.13,2.81,4.21,3.6,424,298,248,468,318,24
300,-0.26,-1.07,-0.02,-13.24,-10.8,-4.03,424,297,250,471,319,24
301,-0.23,-0.96,-0.07,-16.05,-3.36,-9.89,424,303,247,463,321,24
302,-0.22,-0.9,-0.18,1.53,-9.83,-15.38,424,300,248,462,317,24
303,-0.12,-0.96,-0.12,-8.36,4.82,-17.64,422,298,251,468,317,24
304,-0.13,-0.97,-0.13,-0.49,-5.19,-5.98,423,301,248,466,319,24
305,-0.16,-0.97,-0.09,1.53,-3.85,-4.21,425,300,250,468,319,24
306,-0.04,-0.99,-0.13,-0.31,1.34,-3.97,423,297,247,468,320,24
307,-0.11,-0.98,-0.09,-15.14,-9.28,-3.23,420,294,248,467,319,24
308,-0.1,-0.99,-0.09,1.34,0.24,-1.16,426,299,250,471,323,24
309,-0.09,-0.98,-0.11,2.93,-2.56,-1.65,426,298,248,469,317,24
310,-0.1,-0.98,-0.11,-1.59,-1.4,-3.11,424,298,249,464,320,24
311,-0.11,-0.98,-0.1,2.26,-3.42,-1.53,423,299,245,467,318,24
312,-0.12,-0.98,-0.09,0.79,-2.44,-1.77,421,301,248,462,317,24
313,-0.12,-0.99,-0.1,0.79,-3.54,-2.75,424,298,250,471,321,24
314,-0.1,-0.99,-0.11,-3.05,-0.85,-6.71,425,301,241,463,322,24
315,-0.11,-0.98,-0.11,0.73,-3.23,-2.14,423,300,251,467,316,24
316,-0.14,-0.99,-0.1,0.06,-4.21,-1.34,423,300,248,468,319,24
317,-0.13,-0.98,-0.09,1.1,-3.05,-2.5,422,298,248,465,320,24
318,-0.14,-0.96,-0.12,-0.55,-8.42,0.43,424,301,249,468,323,24
319,-0.19,-0.97,-0.08,-0.85,-4.46,-3.11,427,305,250,469,320,24
320,-0.16,-0.97,-0.1,1.65,-0.73,-3.36,425,297,249,468,320,24
321,-0.2,-0.97,-0.07,2.2,0.31,-3.3,423,299,246,467,316,24
322,-0.19,-0.98,-0.05,0.61,-4.88,-1.59,424,299,249,479,317,24
323,-0.2,-0.97,-0.01,4.33,-2.32,-1.71,424,298,249,468,320,24
324,-0.18,-0.97,-0.04,2.5,-4.7,-1.46,420,300,249,465,322,24
325,-0.21,-0.97,-0.01,3.85,-4.03,-0.98,426,301,249,467,320,24
326,-0.24,-0.98,0.02,-1.34,0.43,-4.52,424,298,247,463,321,24
327,-0.15,-0.96,-0.01,17.27,-7.26,-3.6,425,298,248,463,321,24
328,-0.22,-0.99,0.03,-7.14,-4.82,-18.68,420,298,247,468,319,24
329,-0.12,-0.98,-0.12,-3.72,-1.28,-0.49,424,301,250,467,319,24
330,-0.12,-0.99,-0.05,1.04,-2.56,-3.54,420,297,250,470,323,24
331,-0.1,-0.98,-0.06,-0.12,0.85,-6.59,426,299,247,468,315,24
332,-0.14,-1.0,-0.04,4.39,-5.19,-0.67,425,295,247,467,321,24
333,-0.15,-0.98,-0.06,-6.1,-4.52,-6.1,422,299,249,471,317,24
334,-0.09,-0.99,-0.09,0.98,-2.69,-1.65,424,298,251,477,320,24
335,-0.13,-0.99,-0.07,7.26,0.79,5.74,426,297,247,462,319,24
336,-0.2,-0.93,0.08,10.74,30.58,5.07,424,305,250,463,322,24
337,-0.39,-0.93,0.3,5.07,19.71,12.27,424,300,251,472,319,24
338,-0.25,-0.93,0.13,10.01,-7.14,8.54,425,298,248,469,318,24
339,-0.23,-0.95,0.12,2.56,-6.29,-4.15,421,298,247,467,319,24
340,-0.22,-0.97,0.11,-0.73,-5.8,-8.36,426,314,248,467,319,24
341,-0.24,-0.93,0.15,-5.68,1.65,-2.93,425,304,253,472,317,24
342,-0.28,-0.97,0.14,-5.31,-5.25,-4.33,424,309,249,471,321,24
343,-0.24,-0.95,0.13,-1.71,-2.81,-3.42,427,302,245,469,321,24
344,-0.18,-0.97,0.11,3.97,-9.77,-10.31,425,299,246,463,323,24
345,-0.21,-0.97,0.11,-7.57,-0.37,-8.54,424,299,246,472,317,24
346,-0.27,-1.01,0.11,2.56,-9.64,5.92,424,295,249,468,318,24
347,-0.18,-0.99,0.05,-0.98,-1.16,-3.3,427,299,248,469,318,24
348,-0.14,-0.99,0.09,-3.48,-9.4,-7.81,425,298,251,470,318,24
349,-0.25,-0.99,0.06,10.31,-1.28,6.47,422,302,247,471,320,24
350,-0.22,-0.96,0.07,9.28,-4.46,2.2,424,301,249,468,322,24
351,-0.2,-0.95,0.1,-8.24,-8.67,-15.2,425,297,249,468,320,24
352,-0.16,-0.92,0.03,-18.74,-11.54,-13.55,425,300,249,468,322,24
353,-0.08,-1.0,-0.0,16.97,-2.87,-13.61,427,302,251,471,321,24
354,-0.12,-0.99,0.03,-5.49,-7.51,5.74,424,300,248,471,315,24
355,-0.19,-0.99,-0.0,2.08,0.0,-6.23,423,306,248,464,320,24
356,-0.17,-0.98,-0.02,1.53,-8.54,-6.29,427,300,250,467,319,24
357,-0.16,-0.97,-0.07,-12.88,-2.62,0.06,426,296,249,468,321,24
358,-0.18,-0.97,-0.07,-1.34,-1.28,-1.28,423,299,246,469,316,24
359,-0.15,-0.97,-0.09,-3.97,-1.34,-8.97,436,298,247,471,318,24
360,-0.15,-0.98,-0.06,0.85,-1.65,0.49,423,300,245,462,318,24
361,-0.09,-0.99,-0.06,-1.53,-3.17,-7.51,425,289,245,469,318,24
362,-0.11,-0.98,-0.05,-2.81,-1.22,-2.93,421,295,244,469,319,24
363,-0.12,-0.99,-0.04,1.59,-4.52,-2.38,423,294,248,464,318,24
364,-0.09,-0.99,-0.04,-1.34,-6.65,-4.64,426,302,245,479,318,24
365,-0.08,-0.99,-0.03,-0.12,-2.38,-2.5,426,294,248,469,321,24
366,-0.09,-0.99,-0.06,-0.85,-3.05,-3.05,425,294,246,469,317,24
367,-0.11,-0.99,-0.05,-0.98,-2.26,-3.66,428,292,245,471,321,24
368,-0.1,-0.99,-0.05,-0.49,-2.14,-2.87,420,294,248,469,320,24
369,-0.11,-1.0,0.01,-0.31,-5.92,-0.55,432,295,246,472,321,24
370,-0.07,-0.99,-0.04,0.79,-1.95,-1.53,433,295,247,468,321,24
371,-0.08,-0.99,-0.02,-0.18,-2.5,-6.16,425,295,245,469,320,24
372,-0.11,-0.98,-0.09,-0.98,-4.09,-1.71,425,298,244,467,319,24
373,-0.09,-0.99,-0.02,1.04,-2.32,-2.14,422,296,246,472,321,24
374,-0.07,-0.99,-0.05,-0.06,-1.95,-5.13,426,297,248,468,320,24
375,-0.12,-0.99,-0.04,-0.31,-3.6,-1.95,425,295,248,471,323,24
376,-0.09,-0.99,-0.02,2.32,-3.54,-1.59,427,295,246,471,316,24
377,-0.1,-0.99,-0.02,1.4,-3.78,-1.04,424,298,246,471,316,24
378,-0.1,-0.99,-0.03,-0.61,-3.97,-2.01,426,297,248,467,327,24
379,-0.1,-0.99,-0.01,2.81,-5.92,-1.1,426,296,246,478,321,24
380,-0.08,-0.99,-0.01,2.56,1.95,-3.78,422,296,246,463,321,24
381,-0.11,-0.99,-0.03,3.36,-5.86,-2.87,425,293,244,468,322,24
382,-0.11,-0.98,-0.09,-9.7,-2.08,-9.95,425,295,247,462,320,24
383,-0.11,-1.0,0.1,2.87,-11.84,10.07,424,294,247,471,319,24
384,-0.11,-0.97,-0.04,-9.34,0.61,-13.18,425,295,248,471,321,24
385,-0.11,-1.0,0.04,-4.27,-0.67,-4.76,426,299,248,468,318,24
386,-0.01,-0.99,-0.05,-6.65,2.75,-8.61,426,297,246,467,320,24
387,-0.07,-0.99,-0.07,-0.12,-5.43,-1.28,422,295,248,466,319,24
388,-0.06,-0.99,-0.08,2.38,-4.58,-1.28,427,298,248,468,317,24
389,-0.06,-0.98,-0.1,1.46,-2.99,-3.66,426,296,248,464,328,24
390,-0.06,-0.99,-0.05,6.59,-2.93,-1.53,421,297,244,468,320,24
391,-0.06,-0.98,-0.08,-0.43,-1.77,-0.31,424,295,246,471,320,24
392,-0.1,-0.99,-0.1,-1.16,-3.11,-3.05,426,298,247,472,327,24
393,-0.09,-0.97,-0.09,7.75,-4.52,-4.27,433,296,244,468,316,24
394,-0.1,-0.99,-0.01,4.39,-3.3,-2.69,422,297,252,465,321,24
395,-0.07,-0.99,-0.02,-1.04,-1.95,-3.66,426,299,246,468,322,24
396,-0.06,-0.99,-0.03,-2.87,-0.73,-4.94,428,294,248,468,323,24
397,-0.03,-1.0,-0.0,1.89,1.77,-5.74,425,294,250,467,321,24
398,-0.06,-1.0,-0.03,0.12,-5.49,-3.11,422,297,247,467,317,24
399,-0.04,-1.0,0.02,-5.74,-1.4,-2.44,425,295,247,467,321,24
400,-0.07,-1.01,0.07,-4.39,-12.27,1.65,425,297,247,466,322,24
401,-0.03,-1.0,0.02,-3.36,-6.29,-0.31,424,292,249,462,319,24
402,-0.08,-0.99,-0.03,-4.39,-5.07,-2.56,426,297,249,463,321,24
403,-0.06,-0.98,-0.1,-4.88,-3.91,-5.55,423,296,247,467,321,24
404,-0.09,-0.99,-0.05,1.4,-8.0,1.22,428,297,248,464,319,24
405,-0.12,-0.99,-0.02,-2.69,-2.93,-3.23,431,296,254,469,317,24
406,-0.1,-0.99,-0.04,0.79,-3.17,-2.08,426,296,248,471,322,24
407,-0.11,-0.98,-0.05,-0.85,-4.15,-2.75,425,298,250,465,324,24
408,-0.13,-0.99,-0.02,-2.56,-4.15,-1.22,425,296,247,463,322,24
409,-0.11,-0.99,0.02,3.78,-5.37,-2.38,425,295,247,467,321,24
410,-0.11,-0.98,-0.04,2.08,-4.39,-3.97,424,293,245,468,319,24
411,-0.13,-0.98,-0.02,-0.12,-1.77,-2.44,421,296,248,470,319,24
412,-0.11,-0.99,-0.04,2.01,-0.37,-3.3,417,290,244,468,323,24
413,-0.11,-0.99,-0.01,1.65,-3.97,-0.37,427,290,244,472,320,24
414,-0.13,-0.98,-0.03,-1.1,-2.69,-3.17,420,286,244,467,323,24
415,-0.12,-0.98,-0.07,-2.5,-1.83,-3.23,420,287,243,468,322,24
416,-0.13,-0.99,-0.04,1.16,-3.54,-1.95,418,287,243,467,320,24
417,-0.11,-0.98,-0.06,2.5,-0.31,-3.66,416,288,249,464,321,24
418,-0.2,-0.99,-0.01,2.99,-3.72,8.42,419,289,244,468,324,24
419,-0.17,-0.98,-0.01,0.98,1.4,-3.91,417,289,245,469,322,24
420,-0.12,-0.99,-0.05,-7.57,4.64,-0.98,420,288,248,471,321,24
421,-0.18,-0.98,-0.06,-1.95,-6.71,-1.28,420,289,245,469,321,24
422,-0.19,-0.96,-0.02,0.85,-19.29,0.67,425,294,246,463,323,24
423,-0.14,-0.98,-0.03,8.79,-3.17,-3.05,421,294,248,463,325,24
424,-0.17,-0.98,-0.04,-0.24,-2.01,-2.75,422,294,246,468,320,24
425,-0.18,-0.97,-0.07,-4.21,-10.93,5.43,425,293,246,469,318,24
426,-0.29,-0.96,-0.08,1.34,-2.75,-2.2,422,295,248,472,323,24
427,-0.18,-0.97,-0.08,5.55,-7.26,-3.91,422,295,246,465,324,24
428,-0.19,-0.98,-0.05,-5.55,0.12,-8.3,424,294,245,468,321,24
429,-0.17,-0.98,-0.05,7.81,-8.36,3.23,422,293,247,470,318,24
430,-0.17,-0.97,-0.04,8.91,-7.87,-3.54,422,294,246,470,321,24
431,-0.22,-0.99,-0.01,1.28,-4.52,-3.48,425,294,248,471,322,24
432,-0.23,-0.97,-0.02,-1.04,0.43,-5.0,422,294,244,465,325,24
433,-0.21,-0.97,-0.02,2.32,1.95,-2.56,418,293,246,472,323,24
434,-0.17,-0.97,0.01,6.47,0.06,-2.62,423,296,249,472,324,24
435,-0.24,-0.97,0.06,0.12,-2.14,-3.97,417,296,247,471,322,24
436,-0.21,-0.97,0.02,4.76,-6.59,0.24,423,293,247,463,324,24
437,-0.18,-0.98,0.05,-0.49,-2.14,-3.17,423,299,245,468,325,24
438,-0.22,-0.97,0.03,-2.2,-0.43,-4.82,422,297,245,464,322,24
439,-0.19,-0.96,0.01,-0.06,-2.08,-1.65,422,292,248,468,324,24
440,-0.22,-0.97,0.06,3.85,-3.54,0.12,423,294,247,466,322,24
441,-0.16,-0.98,0.03,-1.95,-1.65,-1.1,420,294,246,468,320,24
442,-0.18,-0.98,0.07,5.55,-2.2,-4.15,419,294,246,468,322,24
443,-0.2,-0.98,0.05,3.3,-5.55,-1.83,425,296,248,468,323,24
444,-0.19,-0.97,0.04,0.31,-4.27,-1.71,423,296,247,468,323,24
445,-0.2,-0.98,0.05,-0.43,-2.44,-3.11,452,294,244,466,319,24
446,-0.17,-0.98,0.02,0.18,-1.28,-4.03,420,294,259,467,324,24
447,-0.18,-0.97,-0.01,0.24,-3.17,-2.14,422,292,247,464,322,24
448,-0.17,-0.98,0.03,2.44,-1.04,-3.54,420,293,249,468,322,24
449,-0.17,-0.97,0.05,9.4,-13.18,3.3,423,296,247,468,323,24
450,-0.23,-0.97,0.08,1.34,-0.67,-6.04,423,295,247,480,321,24
451,-0.25,-0.97,0.1,2.2,-5.13,-2.14,422,297,247,465,317,24
452,-0.26,-0.96,0.12,-4.7,-2.93,-1.77,424,293,247,472,320,24
453,-0.2,-0.97,0.07,-6.41,1.95,-6.9,424,294,248,468,318,24
454,-0.18,-0.98,0.05,0.43,-3.23,-1.95,422,293,249,466,322,24
455,-0.17,-0.98,0.04,2.99,-3.54,-2.62,423,298,248,467,321,24
456,-0.15,-0.98,0.04,-1.04,-3.66,-4.03,424,297,249,467,322,24
457,-0.16,-0.98,0.04,0.85,-1.71,-4.39,425,297,249,467,320,24
458,-0.16,-0.98,0.07,2.01,-4.88,-3.72,427,294,249,463,321,24
459,-0.17,-0.98,0.05,0.49,-3.91,-2.5,428,291,250,469,325,24
460,-0.16,-0.98,0.04,1.4,-3.97,-2.5,427,296,245,463,320,24
461,-0.15,-0.98,0.07,-0.06,-2.69,-3.97,422,298,247,473,323,24
462,-0.16,-0.98,0.07,3.97,-2.87,-5.31,425,296,247,468,323,24
463,-0.14,-0.99,0.07,-1.04,-3.3,-2.69,427,296,249,467,321,24
464,-0.16,-0.98,0.08,-0.92,-0.73,-3.91,427,302,250,469,318,24
465,-0.16,-0.98,0.1,0.92,-3.42,-2.08,425,292,247,468,322,24
466,-0.16,-0.98,0.08,-1.04,-3.78,-2.69,428,296,250,473,322,24
467,-0.15,-0.98,0.09,3.48,-2.75,-3.6,422,295,248,472,325,24
468,-0.15,-0.98,0.09,-0.55,-2.26,-2.75,427,294,248,465,322,24
469,-0.17,-0.98,0.08,0.31,-2.2,-2.75,426,297,247,468,321,24
470,-0.15,-0.98,0.09,4.09,-3.85,-1.16,437,292,248,470,322,24
471,-0.16,-0.97,0.08,-0.12,-1.83,-4.64,425,300,247,465,321,24
472,-0.17,-0.98,0.1,1.95,-2.56,-1.89,427,302,250,463,322,24
473,-0.17,-0.98,0.1,-1.1,-4.21,-5.49,428,301,249,471,322,24
474,-0.15,-0.98,0.05,-2.26,1.34,0.98,426,296,245,472,318,24
475,-0.19,-0.98,0.11,0.67,-6.71,0.43,428,293,246,473,322,24
476,-0.13,-0.99,0.08,1.22,-2.93,-2.5,427,296,251,467,322,24
477,-0.15,-0.97,0.03,0.06,-12.7,-6.23,425,291,247,468,322,24
478,-0.19,-0.99,0.18,-2.81,1.34,-7.93,430,298,250,469,320,24
479,-0.1,-1.0,0.12,-1.22,-1.34,-2.56,419,295,247,463,322,24
480,-0.1,-0.99,0.07,2.87,1.95,-3.78,423,296,250,470,321,24
481,-0.13,-0.98,0.11,6.29,-3.42,0.31,424,297,247,472,318,24
482,-0.14,-0.98,0.04,5.19,5.13,-1.04,428,295,244,464,322,24
483,-0.16,-0.98,0.09,-0.49,-1.95,-4.7,425,297,249,469,325,24
484,-0.16,-0.98,0.07,-3.11,-13.61,4.09,423,297,249,464,322,24
485,-0.19,-0.98,0.08,-5.13,-2.2,3.3,427,299,249,472,315,24
486,-0.16,-0.97,0.06,-0.18,-6.1,-1.1,425,296,251,477,322,24
487,-0.18,-0.98,0.09,-2.62,-0.24,-5.49,425,294,247,467,323,24
488,-0.16,-0.97,0.06,-6.04,-0.06,0.85,426,297,255,472,325,24
489,-0.18,-0.98,0.03,0.79,-4.09,-6.65,428,295,249,470,324,24
490,-0.14,-0.98,0.02,-1.04,-3.97,-4.33,423,295,246,465,329,24
491,-0.14,-0.98,0.03,1.65,-2.99,-2.62,425,299,247,468,324,24
492,-0.13,-0.99,0.03,1.95,0.31,-2.38,425,299,249,468,322,24
493,-0.11,-0.99,-0.02,0.0,-2.26,-3.54,424,295,245,467,323,24
494,-0.14,-0.98,0.0,0.0,-5.0,-3.97,426,295,249,473,323,24
495,-0.14,-0.98,0.02,0.49,-2.01,-3.17,425,295,247,463,333,24
496,-0.11,-0.98,-0.02,-1.83,-2.69,-3.54,432,294,250,471,323,24
497,-0.14,-0.98,0.01,2.14,-2.69,-3.3,425,299,245,462,323,24
498,-0.14,-0.99,0.02,1.46,-2.69,-1.95,425,298,247,469,326,24
499,-0.17,-0.99,0.05,3.42,3.42,3.05,426,298,246,472,325,24
500,-0.15,-0.98,0.02,2.75,-5.13,-2.81,426,297,247,467,320,24
501,-0.15,-0.98,0.01,-1.89,-1.16,-3.23,427,298,248,471,321,24
502,-0.15,-0.98,0.03,0.06,-1.22,-3.6,422,297,249,471,323,24
503,-0.28,-0.87,-0.35,18.01,-2.44,-7.26,408,233,183,449,287,24
504,-0.25,-0.91,-0.28,2.75,-4.7,-4.21,410,237,191,440,286,24
505,-0.29,-0.89,-0.31,-1.16,0.92,-5.43,408,235,192,451,290,24
506,-0.29,-0.9,-0.3,2.14,4.46,-5.25,408,237,190,446,286,24
507,-0.26,-0.91,-0.3,9.22,-4.09,3.05,413,240,191,450,290,24
508,-0.33,-0.91,-0.21,13.98,-6.16,-1.16,423,238,189,450,289,24
509,-0.32,-0.94,-0.19,0.61,-4.64,-0.49,423,249,193,448,292,24
510,-0.33,-0.92,-0.18,1.77,-2.81,-2.81,427,247,192,449,293,24
511,-0.31,-0.9,-0.2,-1.59,1.77,-5.25,422,242,194,443,286,24
512,-0.28,-0.91,-0.25,-0.79,-6.84,-2.99,423,248,190,446,286,24
513,-0.36,-0.91,-0.15,19.84,2.44,6.23,425,248,193,452,291,24
514,-0.35,-0.91,-0.05,10.5,-2.5,9.4,427,252,194,449,290,24
515,-0.45,-0.89,-0.06,-3.42,-0.12,-1.46,427,247,193,450,291,24
516,-0.43,-0.9,-0.05,0.12,-0.79,-9.95,425,261,197,447,293,24
517,-0.35,-0.93,-0.14,-21.3,-15.2,-8.91,426,248,192,449,294,24
518,-0.36,-0.88,-0.13,-1.34,-4.7,3.85,430,246,193,451,295,24
519,-0.4,-0.89,-0.12,7.26,8.42,8.79,427,246,195,453,296,24
520,-0.31,-0.9,-0.15,-0.92,-21.0,27.47,426,248,196,451,292,24
521,-0.33,-0.91,-0.1,12.21,10.13,8.06,423,249,194,451,294,24
522,-0.22,-0.92,-0.19,-0.37,0.67,11.29,430,248,195,448,293,24
523,-0.3,-0.9,-0.18,23.32,3.72,5.98,426,251,197,454,294,24
524,-0.2,-0.93,-0.2,-16.54,-3.97,24.17,422,247,193,450,296,24
525,-0.3,-0.92,-0.18,3.42,-1.1,10.44,423,251,194,452,294,24
526,-0.32,-0.93,-0.12,11.23,6.53,0.37,423,250,194,444,297,24
527,-0.3,-0.93,-0.19,-17.03,-9.64,5.31,421,246,204,454,295,24
528,-0.23,-0.96,-0.1,9.34,-3.23,-1.83,425,250,194,446,295,24
529,-0.29,-0.93,-0.18,2.93,-0.61,0.67,420,250,194,447,294,24
530,-0.32,-0.93,-0.1,3.48,-3.97,0.12,419,251,192,452,295,24
531,-0.33,-0.92,-0.12,2.26,-2.5,-1.77,431,252,194,454,294,24
532,-0.33,-0.93,-0.11,-0.43,-3.72,-2.32,418,251,197,449,294,24
533,-0.34,-0.93,-0.11,0.37,-3.36,-2.08,418,251,193,448,294,24
534,-0.33,-0.93,-0.11,-0.61,-3.48,-2.32,418,250,192,445,293,24
535,-0.34,-0.93,-0.11,-0.12,-3.91,-2.08,419,252,192,454,292,24
536,-0.34,-0.93,-0.12,0.06,-1.28,-2.93,416,250,194,449,297,24
537,-0.35,-0.93,-0.1,9.46,-5.74,-2.62,416,250,197,444,295,24
538,-0.36,-0.95,0.02,9.22,4.15,-12.88,418,251,193,453,296,24
539,-0.23,-0.95,-0.06,-20.39,-67.81,-22.09,421,250,194,454,295,24
540,-0.19,-0.96,-0.14,-14.4,-28.99,2.2,421,250,196,450,295,24
541,-0.14,-0.96,-0.19,13.98,85.63,6.65,420,254,195,450,291,24
542,-0.2,-0.92,-0.1,33.69,79.71,33.39,420,252,195,450,295,24
543,-0.43,-0.9,-0.09,-1.34,-13.0,2.5,424,256,198,444,297,24
544,-0.38,-0.9,-0.13,-0.49,-3.66,-2.38,424,254,199,451,295,24
545,-0.42,-0.9,-0.06,-0.61,-10.13,-2.38,423,255,196,449,293,24
546,-0.38,-0.9,-0.13,6.41,-7.32,-2.44,422,252,199,453,296,24
547,-0.4,-0.9,-0.08,-14.4,-1.53,3.91,421,252,195,450,296,24
548,-0.4,-0.91,-0.08,2.93,2.38,2.14,421,255,199,450,296,24
549,-0.39,-0.91,-0.05,-3.72,3.66,0.73,424,252,195,451,297,24
550,-0.36,-0.93,-0.08,0.18,-1.95,-2.5,424,252,200,450,297,24
551,-0.35,-0.91,-0.13,0.73,-6.84,-2.5,423,251,195,453,296,24
552,-0.39,-0.91,-0.09,2.2,-4.82,-0.73,411,252,196,449,295,24
553,-0.38,-0.91,-0.07,0.31,-4.52,-1.65,422,252,197,450,298,24
554,-0.35,-0.91,-0.08,0.0,-3.48,-2.01,424,248,196,446,297,24
555,-0.36,-0.91,-0.08,0.31,-3.48,-2.62,426,251,195,454,297,24
556,-0.38,-0.91,-0.07,0.12,-2.75,-2.44,423,252,193,450,299,24
557,-0.38,-0.91,-0.07,1.59,-3.66,-2.01,418,252,197,450,298,24
558,-0.38,-0.9,-0.07,1.04,-4.64,-2.32,420,254,197,451,299,24
559,-0.38,-0.91,-0.07,-0.43,-2.69,-2.44,422,253,196,449,295,24
560,-0.38,-0.91,-0.06,0.24,-3.72,-1.89,420,251,195,449,298,24
561,-0.38,-0.93,-0.07,1.34,-2.87,-1.77,420,251,198,449,300,24
562,-0.37,-0.92,-0.06,1.4,-2.56,-2.2,421,253,198,451,298,24
563,-0.38,-0.91,-0.07,1.16,-3.11,-2.01,422,265,197,446,299,24
564,-0.38,-0.91,-0.06,0.37,-2.93,-2.44,424,254,197,450,299,24
565,-0.38,-0.91,-0.06,-0.37,-4.64,-3.36,419,254,201,450,296,24
566,-0.38,-0.91,-0.07,2.01,-3.66,-1.77,417,257,199,449,297,24
567,-0.38,-0.91,-0.06,0.98,-3.11,-3.36,417,252,194,450,293,24
568,-0.38,-0.91,-0.06,0.79,-2.69,-3.05,420,255,197,453,296,24
569,-0.38,-0.9,-0.04,1.1,0.55,-4.09,445,254,196,450,297,24
570,-0.37,-0.91,-0.06,0.24,-2.75,-2.08,420,254,198,448,299,24
571,-0.38,-0.91,-0.06,1.89,0.67,-1.46,422,256,196,450,297,24
572,-0.41,-0.91,-0.04,7.39,-2.38,-3.91,423,257,204,447,294,24
573,-0.4,-0.91,0.05,11.29,0.31,6.29,422,251,195,449,301,24
574,-0.36,-0.92,0.02,-8.06,-10.38,4.33,421,256,200,444,303,24
575,-0.44,-0.89,-0.04,-4.58,2.14,-9.34,433,256,201,451,297,24
576,-0.42,-0.9,-0.04,-3.42,-1.34,-5.43,418,259,196,453,298,24
577,-0.42,-0.9,-0.05,-0.73,-3.54,-2.56,421,255,200,450,298,24
578,-0.43,-0.89,-0.06,2.44,5.43,-12.82,422,251,198,450,298,24
579,-0.39,-0.92,-0.03,-3.11,-4.21,-6.77,420,257,198,452,298,24
580,-0.31,-0.91,-0.2,-13.49,-14.04,-0.79,422,254,202,450,298,24
581,-0.34,-0.91,-0.17,3.3,-4.82,-6.1,418,267,198,450,301,24
582,-0.32,-0.92,-0.17,-6.16,-2.5,-6.53,417,253,198,450,302,24
583,-0.32,-0.92,-0.2,-2.69,-4.33,-4.58,421,257,202,453,297,24
584,-0.31,-0.92,-0.18,1.71,-6.47,-2.99,419,255,195,453,295,24
585,-0.33,-0.92,-0.21,-1.89,-5.43,-4.09,421,256,201,446,298,24
586,-0.3,-0.92,-0.21,-1.04,-5.19,-2.26,416,257,198,453,298,24
587,-0.29,-0.92,-0.18,3.36,-1.95,-1.71,415,258,198,453,295,24
588,-0.3,-0.93,-0.18,-6.47,1.04,-11.9,421,255,199,454,298,24
589,-0.3,-0.9,-0.13,-0.24,1.28,-4.21,418,253,201,450,298,24
590,-0.32,-0.94,-0.18,2.87,-8.24,1.71,418,259,198,450,299,24
591,-0.35,-0.93,-0.13,19.29,1.46,2.14,420,256,200,447,298,24
592,-0.39,-0.99,0.11,-0.43,8.85,-2.14,418,255,198,448,298,24
593,-0.34,-0.94,0.07,12.45,11.72,2.93,419,256,196,450,299,24
594,-0.43,-0.91,0.06,-0.43,-2.62,4.27,410,256,200,450,299,24
595,-0.41,-0.91,0.05,0.24,-2.2,-4.76,416,259,198,451,298,24
596,-0.41,-0.9,0.05,0.49,-2.01,-4.94,415,255,197,450,299,24
597,-0.4,-0.9,0.04,-11.11,-22.28,-6.23,417,257,203,452,300,24
598,-0.39,-0.91,0.07,9.7,-4.39,3.72,413,256,196,450,299,24
599,-0.32,-0.92,-0.07,-10.01,-4.46,-7.14,412,258,202,445,298,24
600,-0.4,-0.93,0.03,-6.41,-0.18,-9.22,417,259,199,451,298,24
601,-0.33,-0.93,-0.05,1.65,-2.75,-1.59,415,256,200,445,300,24
602,-0.25,-0.96,-0.09,5.13,-2.75,1.16,414,259,197,448,302,24
603,-0.34,-0.94,-0.06,-2.69,-7.39,-3.23,415,258,200,453,302,24
604,-0.34,-0.94,-0.02,4.82,-0.92,-1.59,416,258,195,455,299,24
605,-0.36,-0.95,-0.02,9.46,7.75,6.29,415,255,200,454,299,24
606,-0.36,-0.93,-0.01,3.85,-4.82,1.28,415,258,198,454,299,24
607,-0.29,-0.94,-0.05,1.22,-18.25,1.34,414,256,197,449,300,24
608,-0.29,-0.93,-0.04,-8.85,-0.18,-8.48,413,255,201,451,302,24
609,-0.32,-0.93,-0.09,-4.58,-3.54,-6.84,410,259,202,454,294,24
610,-0.26,-0.95,-0.08,4.58,-4.21,-8.48,413,257,199,454,300,24
611,-0.34,-0.93,-0.1,0.31,2.01,9.83,411,259,195,450,300,24
612,-0.26,-0.69,0.05,-6.53,-1.4,-4.52,410,259,198,452,298,24
613,-0.29,-0.87,-0.08,-0.37,-1.95,-2.56,413,257,198,454,302,24
614,-0.31,-0.95,-0.11,0.18,-1.34,-0.49,419,259,200,450,300,24
615,-0.34,-0.93,-0.06,-5.62,-3.23,-8.79,411,260,202,446,300,24
616,-0.31,-0.94,-0.15,-7.69,-23.25,2.56,438,259,198,450,302,24
617,-0.3,-0.95,-0.1,-5.37,1.1,-1.28,411,257,199,454,300,24
618,-0.38,-0.92,-0.04,3.42,0.37,-1.77,411,268,201,451,300,24
619,-0.29,-0.94,-0.13,-7.39,-8.18,-8.0,410,259,201,450,301,24
620,-0.33,-0.93,-0.13,-4.27,0.43,-4.46,408,257,197,450,302,24
621,-0.31,-0.92,-0.16,-2.08,-5.19,-0.61,407,256,200,456,301,24
622,-0.28,-0.93,-0.19,-6.41,-9.7,-5.31,413,258,202,450,299,24
623,-0.3,-0.94,-0.11,-0.61,-2.56,-7.81,411,261,201,453,301,24
624,-0.3,-0.93,-0.19,-1.34,-3.17,-4.39,409,259,199,445,301,24
625,-0.31,-0.93,-0.15,5.86,-2.75,-5.19,409,258,200,446,301,24
626,-0.26,-0.94,-0.15,16.54,6.1,5.49,409,257,202,451,305,24
627,-0.35,-0.93,-0.08,-11.05,3.36,-3.17,413,261,200,451,299,24
628,-0.28,-0.94,-0.13,8.36,0.73,-2.38,410,260,201,451,301,24
629,-0.3,-0.95,-0.14,-0.49,0.85,-4.03,409,260,200,444,301,24
630,-0.31,-0.93,-0.12,0.73,-3.36,-2.81,409,259,200,451,301,24
631,-0.29,-0.94,-0.12,-0.61,-2.99,-2.87,411,255,197,451,302,24
632,-0.3,-0.94,-0.13,0.31,-4.52,-3.11,409,259,198,448,301,24
633,-0.27,-0.95,-0.13,1.95,2.69,-3.91,410,262,200,452,298,24
634,-0.27,-0.95,-0.11,-2.32,-6.77,-0.06,411,259,202,449,298,24
635,-0.31,-0.93,-0.15,-0.55,-1.83,-4.94,408,258,196,453,303,24
636,-0.29,-0.94,-0.15,-2.93,-3.97,-3.17,410,256,201,453,304,24
637,-0.28,-0.93,-0.18,0.49,-5.49,-1.59,406,264,201,450,301,24
638,-0.29,-0.93,-0.11,-0.79,0.67,-1.22,405,256,199,449,301,24
639,-0.28,-0.93,-0.17,-5.55,1.28,-3.05,408,256,196,452,299,24
640,-0.28,-0.93,-0.19,0.18,-2.2,-3.6,411,260,199,454,303,24
641,-0.28,-0.93,-0.2,-1.53,-3.23,-3.36,417,258,198,452,299,24
642,-0.28,-0.93,-0.19,0.49,-2.62,-2.99,408,261,202,450,302,24
643,-0.27,-0.93,-0.21,-0.85,-4.09,-3.23,412,259,200,452,301,24
644,-0.27,-0.93,-0.21,-1.65,-4.46,-2.26,408,260,198,454,304,24
645,-0.27,-0.94,-0.2,2.26,-1.71,-4.52,406,260,203,450,302,24
646,-0.28,-0.92,-0.21,-0.85,-1.89,-2.93,406,259,199,453,301,24
647,-0.27,-0.93,-0.21,0.31,-2.87,-2.69,406,258,199,450,304,24
648,-0.27,-0.93,-0.19,1.34,-2.14,-2.99,405,259,201,451,302,24
649,-0.26,-0.93,-0.19,-0.06,-3.66,-3.23,398,260,203,453,302,24
650,-0.26,-0.93,-0.22,0.79,-4.21,-2.99,399,263,199,453,301,24
651,-0.26,-0.93,-0.21,1.28,-4.46,-1.59,396,260,202,455,303,24
652,-0.25,-0.94,-0.23,-7.87,-11.66,-5.55,394,259,198,455,300,24
653,-0.27,-0.93,-0.18,-3.48,-3.3,-2.26,392,260,199,451,302,24
654,-0.26,-0.93,-0.21,-1.46,-2.01,-3.36,391,263,199,455,300,24
655,-0.21,-0.94,-0.19,8.67,-5.31,-0.06,430,262,198,447,299,24
656,-0.31,-0.93,-0.22,-10.13,-3.66,-9.09,391,263,201,449,299,24
657,-0.21,-0.95,-0.19,-4.88,-3.78,-2.75,389,263,200,449,302,24
658,-0.26,-0.94,-0.21,1.46,-1.46,-2.38,388,260,201,445,302,24
659,-0.24,-0.93,-0.23,-2.5,-0.67,-2.87,388,262,200,455,302,24
660,-0.24,-0.94,-0.2,-0.73,-3.54,-3.42,387,261,198,453,301,24
661,-0.23,-0.93,-0.22,1.28,-3.97,-3.17,388,261,199,455,305,24
662,-0.25,-0.93,-0.22,-0.24,-2.14,-2.14,386,270,198,450,304,24
663,-0.25,-0.94,-0.21,2.26,-3.54,-0.98,384,260,203,454,302,24
664,-0.24,-0.94,-0.19,2.2,-3.42,-3.23,384,267,197,449,305,24
665,-0.23,-0.94,-0.23,-2.44,-1.28,-1.04,384,263,208,448,304,24
666,-0.23,-0.94,-0.19,2.08,-3.85,-3.17,385,263,203,450,303,24
667,-0.24,-0.94,-0.2,-2.69,-6.1,-2.99,384,263,203,452,303,24
668,-0.24,-0.93,-0.24,-5.19,-5.0,-4.39,382,263,203,444,303,24
669,-0.22,-0.94,-0.21,-1.53,-5.0,-1.95,383,262,196,445,302,24
670,-0.23,-0.88,-0.29,-2.62,-4.58,-1.53,384,259,203,451,303,24
671,-0.24,-0.93,-0.22,2.5,-5.19,-1.83,385,261,202,451,301,24
672,-0.27,-0.94,-0.22,4.7,-0.92,-4.21,382,260,198,451,304,24
673,-0.26,-0.94,-0.22,0.61,-2.44,-0.67,384,263,201,455,302,24
674,-0.25,-0.91,-0.21,0.31,0.92,-2.32,383,264,202,450,300,24
675,-0.25,-0.95,-0.19,3.23,-6.65,0.12,382,261,204,451,301,24
676,-0.25,-0.93,-0.19,2.38,-3.3,-3.42,382,264,201,455,304,24
677,-0.26,-0.93,-0.21,0.85,-3.36,-2.93,383,261,201,444,304,24
678,-0.26,-0.92,-0.21,0.24,-4.09,-3.23,378,260,202,447,301,24
679,-0.26,-0.93,-0.21,-0.37,-2.87,-3.6,380,263,204,450,304,24
680,-0.27,-0.94,-0.2,0.67,-2.75,-2.87,380,262,200,454,304,24
681,-0.26,-0.93,-0.19,0.49,-3.97,-2.38,376,260,200,450,302,24
682,-0.26,-0.94,-0.2,0.79,-3.6,-2.69,378,262,200,451,302,24
683,-0.26,-0.93,-0.21,0.37,-2.75,-2.32,379,267,204,454,297,24
684,-0.27,-0.93,-0.2,0.37,-1.89,-3.36,392,262,203,455,303,24
685,-0.26,-0.94,-0.2,0.18,-1.28,-2.99,402,264,203,453,302,24
686,-0.26,-0.94,-0.19,1.22,-2.44,-1.95,396,262,204,449,304,24
687,-0.27,-0.94,-0.2,0.92,-2.99,-3.11,398,273,202,453,304,24
688,-0.26,-0.93,-0.19,1.04,-3.42,-2.32,399,264,201,454,302,24
689,-0.26,-0.94,-0.2,-0.24,-3.54,-2.93,396,264,202,445,302,24
690,-0.26,-0.94,-0.19,0.06,-2.87,-2.81,417,263,202,450,303,24
691,-0.26,-0.93,-0.2,-0.18,-3.23,-2.5,396,265,204,451,302,24
692,-0.27,-0.93,-0.2,1.34,-2.93,-2.14,396,261,202,452,304,24
693,-0.26,-0.94,-0.2,-0.06,-2.93,-2.81,395,264,201,450,305,24
694,-0.26,-0.94,-0.2,0.43,-2.2,-2.56,397,258,201,458,304,24
695,-0.26,-0.94,-0.2,0.0,-3.78,-2.44,396,262,203,445,304,24
696,-0.27,-0.94,-0.2,0.73,-3.66,-2.14,395,261,206,453,304,24
697,-0.26,-0.93,-0.2,1.89,-1.71,-3.11,397,262,197,451,305,24
698,-0.26,-0.93,-0.19,-0.73,-3.23,-2.81,392,265,202,450,307,24
699,-0.27,-0.93,-0.22,0.85,-2.62,-3.11,395,267,201,445,305,24
700,-0.27,-0.93,-0.21,1.22,-3.54,-2.26,393,263,202,454,303,24
701,-0.26,-0.93,-0.2,2.99,-2.44,-2.87,393,263,202,451,303,24
702,-0.26,-0.93,-0.21,0.92,-2.62,-2.93,395,266,201,453,305,24
703,-0.26,-0.93,-0.21,0.79,-2.32,-2.81,395,268,203,455,305,24
704,-0.27,-0.94,-0.2,0.31,-3.36,-2.01,392,262,202,454,305,24
705,-0.27,-0.93,-0.2,0.31,-2.08,-2.62,395,264,205,452,305,24
706,-0.27,-0.93,-0.2,0.06,-2.87,-3.11,394,261,205,445,305,24
707,-0.26,-0.94,-0.19,0.12,-2.93,-2.56,394,262,202,454,304,24
708,-0.26,-0.93,-0.2,0.12,-3.3,-1.77,392,259,202,445,304,24
709,-0.26,-0.93,-0.21,0.98,-2.62,-2.93,402,265,203,449,305,24
710,-0.27,-0.93,-0.19,-0.06,-3.85,-2.69,392,265,202,450,302,24
711,-0.27,-0.93,-0.19,0.24,-2.14,-2.5,389,260,205,451,305,24
712,-0.27,-0.94,-0.19,0.55,-3.6,-2.75,388,263,201,445,303,24
713,-0.27,-0.93,-0.2,0.24,-3.23,-2.32,388,263,202,446,305,24
714,-0.27,-0.93,-0.19,0.24,-2.87,-2.56,391,265,202,450,301,24
715,-0.28,-0.93,-0.2,-1.89,-2.38,-3.48,386,263,202,450,300,24
716,-0.28,-0.93,-0.18,-0.18,-4.33,-2.32,386,263,205,446,304,24
717,-0.27,-0.93,-0.17,0.92,-3.17,-1.53,387,266,205,453,305,24
718,-0.26,-0.95,-0.17,1.16,-2.5,-1.77,385,264,206,447,303,24
719,-0.26,-0.93,-0.2,-0.49,-3.91,-4.52,386,264,200,451,303,24
720,-0.25,-0.93,-0.21,1.16,0.92,-2.2,385,260,202,451,305,24
721,-0.26,-0.93,-0.21,-0.92,-1.28,-2.87,385,264,204,451,302,24
722,-0.27,-0.93,-0.2,0.31,-2.14,-3.05,387,265,204,454,304,24
723,-0.27,-0.93,-0.2,2.01,-3.11,-2.5,385,265,202,445,304,24
724,-0.26,-0.93,-0.21,3.11,-4.03,-1.28,386,263,205,450,303,24
725,-0.27,-0.93,-0.22,0.55,-3.85,-3.85,385,264,200,454,303,24
726,-0.27,-0.93,-0.21,1.89,-3.05,-1.95,383,266,200,450,301,24
727,-0.28,-0.93,-0.18,-0.37,-2.81,-2.69,383,265,203,450,305,24
728,-0.27,-0.93,-0.2,1.65,-3.66,-2.62,384,268,202,453,304,24
729,-0.27,-0.93,-0.21,2.69,-3.17,-2.32,380,263,203,447,300,24
730,-0.27,-0.93,-0.2,1.65,-3.36,-2.38,380,264,204,450,307,24
731,-0.27,-0.93,-0.21,0.37,-3.66,-2.62,383,263,205,454,303,24
732,-0.27,-0.93,-0.22,0.18,-4.21,-3.17,388,264,200,450,304,24
733,-0.27,-0.93,-0.22,-0.55,-2.32,-1.89,383,261,206,450,304,24
734,-0.26,-0.93,-0.22,-2.01,-2.38,-2.93,384,266,204,447,305,24
735,-0.27,-0.93,-0.21,0.24,-3.05,-1.95,386,265,205,446,302,24
736,-0.27,-0.93,-0.21,1.34,-3.78,-2.56,381,263,202,454,301,24
737,-0.26,-0.93,-0.2,2.69,-3.36,-2.01,381,268,200,450,304,24
738,-0.26,-0.93,-0.2,-1.04,-2.99,-2.2,383,264,205,450,305,24
739,-0.27,-0.93,-0.21,-0.79,-2.56,-1.89,385,264,201,450,308,24
740,-0.27,-0.93,-0.2,-0.67,-3.05,-2.38,386,264,205,447,300,24
741,-0.27,-0.93,-0.2,-1.16,-2.32,-3.17,386,266,201,450,304,24
742,-0.28,-0.93,-0.2,0.37,-3.17,-2.32,385,263,204,445,303,24
743,-0.28,-0.93,-0.18,1.71,-2.5,-2.87,383,264,205,447,305,24
744,-0.27,-0.93,-0.19,1.4,-2.14,-2.38,386,266,201,454,305,24
745,-0.27,-0.93,-0.18,-0.24,-3.17,-2.38,384,264,205,451,299,24
746,-0.27,-0.93,-0.19,-0.31,-3.72,-2.5,376,265,203,455,302,24
747,-0.28,-0.93,-0.18,-0.37,-3.66,-2.26,384,266,206,446,302,24
748,-0.28,-0.93,-0.2,0.43,-3.3,-2.5,387,266,205,449,303,24
749,-0.27,-0.93,-0.19,0.67,-2.87,-2.56,385,266,203,452,305,24
750,-0.28,-0.93,-0.19,2.01,-3.48,-2.5,386,267,203,454,306,24
751,-0.27,-0.93,-0.2,1.34,-2.93,-3.17,383,260,204,455,300,24
752,-0.27,-0.93,-0.21,-0.49,-2.69,-2.93,383,261,202,454,301,24
753,-0.27,-0.93,-0.18,0.43,-2.99,-2.56,385,263,203,449,305,24
754,-0.27,-0.93,-0.19,0.43,-2.69,-3.23,381,266,204,446,300,24
755,-0.28,-0.93,-0.19,1.89,-2.99,-2.44,383,266,206,451,303,24
756,-0.27,-0.93,-0.2,-1.89,-2.5,-2.93,384,263,203,450,305,24
757,-0.28,-0.93,-0.2,2.32,-2.93,-3.66,383,264,206,453,303,24
758,-0.27,-0.94,-0.19,2.93,-2.56,-3.54,383,263,207,466,309,24
759,-0.27,-0.93,-0.2,2.62,-3.11,-2.99,383,266,205,449,303,24
760,-0.27,-0.94,-0.18,0.18,-2.2,-2.87,383,265,205,450,304,24
761,-0.28,-0.95,-0.19,2.38,-3.54,-3.05,386,266,205,451,302,24
762,-0.27,-0.94,-0.2,1.95,-4.21,-2.2,385,263,203,454,302,24
763,-0.27,-0.93,-0.19,0.43,-2.2,-1.46,380,265,202,454,301,24
764,-0.26,-0.94,-0.16,0.55,-3.6,-2.14,385,266,205,450,303,24
765,-0.27,-0.93,-0.19,2.38,-4.52,-1.89,383,263,202,450,305,24
766,-0.27,-0.93,-0.21,0.31,-2.75,-2.69,385,269,203,450,306,24
767,-0.27,-0.94,-0.19,0.79,-2.44,-2.38,384,268,206,450,303,24
768,-0.27,-0.93,-0.18,0.24,-2.93,-2.08,380,266,206,450,303,24
769,-0.28,-0.93,-0.19,1.34,-3.05,-2.26,384,261,202,455,301,24
770,-0.27,-0.94,-0.19,1.71,-3.42,-2.26,385,268,206,449,301,24
771,-0.27,-0.93,-0.19,-0.37,-3.05,-2.26,382,265,203,449,301,24
772,-0.28,-0.93,-0.19,0.67,-2.14,-1.95,382,264,207,452,306,24
773,-0.27,-0.94,-0.19,0.85,-3.42,-2.38,384,264,205,453,304,24
774,-0.27,-0.93,-0.2,0.55,-3.54,-2.62,381,267,202,451,303,24
775,-0.27,-0.93,-0.2,1.28,-2.69,-3.05,384,265,202,453,303,24
776,-0.27,-0.93,-0.2,-0.67,-3.72,-3.42,404,263,206,453,300,24
777,-0.26,-0.93,-0.21,-0.31,-2.75,-3.36,384,267,206,451,303,24
778,-0.27,-0.93,-0.2,0.37,-2.69,-2.93,379,266,202,450,301,24
779,-0.28,-0.93,-0.2,0.06,-3.17,-2.56,386,266,203,453,302,24
780,-0.28,-0.93,-0.18,0.06,-3.6,-2.5,385,264,203,451,304,24
781,-0.28,-0.93,-0.19,0.85,-3.6,-2.14,383,267,203,445,304,24
782,-0.27,-0.93,-0.2,0.73,-3.66,-2.08,384,268,207,446,313,24
783,-0.27,-0.93,-0.2,0.0,-2.62,-1.95,384,265,206,450,305,24
784,-0.27,-0.94,-0.2,-0.37,-2.69,-2.87,385,267,206,446,301,24
785,-0.26,-0.93,-0.21,0.18,-2.62,-2.81,385,265,201,454,304,24
786,-0.26,-0.93,-0.21,0.31,-2.69,-2.81,384,265,201,445,301,24
787,-0.26,-0.93,-0.19,0.85,-2.56,-2.01,380,262,206,450,304,24
788,-0.27,-0.93,-0.21,1.04,-2.62,-2.38,383,264,203,450,304,24
789,-0.27,-0.93,-0.21,1.16,-3.48,-3.36,385,268,208,450,301,24
790,-0.27,-0.93,-0.19,0.61,-2.93,-2.69,385,265,205,454,306,24
791,-0.27,-0.93,-0.19,-0.06,-2.81,-2.62,384,268,204,454,302,24
792,-0.27,-0.92,-0.19,0.43,-3.23,-2.62,386,268,204,447,304,24
793,-0.27,-0.94,-0.19,0.98,-2.81,-2.08,385,267,203,450,306,24
794,-0.28,-0.93,-0.2,-0.79,-3.11,-2.99,390,264,205,452,305,24
795,-0.28,-0.94,-0.21,1.16,-2.26,-3.05,386,267,206,451,304,24
796,-0.27,-0.94,-0.19,0.43,-3.23,-2.75,390,267,203,452,304,24
797,-0.27,-0.93,-0.2,0.92,-4.03,-2.93,386,264,207,444,301,24
798,-0.28,-0.94,-0.2,-0.98,-2.2,-3.6,387,268,204,454,304,24
799,-0.29,-0.93,-0.2,-0.55,-2.26,-3.78,382,265,203,451,306,24
800,-0.29,-0.93,-0.19,0.18,-2.44,-2.44,382,264,206,454,304,24
801,-0.28,-0.93,-0.19,-0.24,-2.56,-2.44,383,264,206,452,303,24
802,-0.28,-0.93,-0.19,0.24,-2.56,-2.56,386,264,208,450,304,24
803,-0.28,-0.94,-0.18,1.22,-3.78,-1.83,383,265,204,455,301,24
804,-0.29,-0.92,-0.19,-0.92,-4.21,-1.53,386,267,205,445,303,24
805,-0.28,-0.94,-0.2,0.92,-3.54,-2.44,386,264,206,451,304,24
806,-0.28,-0.94,-0.19,0.79,-3.42,-2.56,384,265,204,447,306,24
807,-0.28,-0.93,-0.2,0.12,-3.36,-2.5,386,263,204,450,303,24
808,-0.28,-0.93,-0.19,0.31,-2.87,-2.75,385,266,203,455,304,24
809,-0.28,-0.93,-0.19,-0.06,-2.81,-2.81,381,267,205,454,305,24
810,-0.27,-0.93,-0.19,0.43,-4.09,-2.93,383,267,203,445,300,24
811,-0.28,-0.93,-0.19,0.49,-3.36,-2.14,383,267,203,450,302,24
812,-0.28,-0.93,-0.2,-0.18,-3.3,-2.62,405,269,205,451,300,24
813,-0.28,-0.93,-0.18,1.22,-2.32,-2.5,386,272,208,452,306,24
814,-0.25,-0.92,-0.19,-0.31,-2.87,-2.69,383,261,203,444,306,24
815,-0.28,-0.93,-0.19,-0.31,-2.56,-2.56,383,265,208,441,304,24
816,-0.28,-0.94,-0.19,0.79,-3.11,-2.38,371,268,206,445,303,24
817,-0.28,-0.93,-0.19,0.0,-3.05,-2.87,381,265,207,451,304,24
818,-0.27,-0.93,-0.19,1.77,-2.81,-2.87,384,266,202,455,302,24
819,-0.28,-0.94,-0.18,0.67,-2.69,-2.56,385,269,207,447,304,24
820,-0.28,-0.93,-0.19,-0.55,-3.48,-2.2,383,265,205,447,301,24
821,-0.28,-0.92,-0.18,0.24,-3.17,-2.32,383,264,208,451,304,24
822,-0.27,-0.93,-0.19,0.92,-2.32,-3.42,383,266,207,449,302,24
823,-0.29,-0.93,-0.18,0.55,-2.69,-2.69,382,263,207,455,306,24
824,-0.27,-0.94,-0.15,-1.22,-3.42,-1.59,383,262,203,450,302,24
825,-0.25,-0.94,-0.15,1.1,-3.97,-1.53,382,266,201,450,302,24
826,-0.27,-0.93,-0.2,0.92,-1.1,-2.87,383,265,205,448,301,24
827,-0.29,-0.94,-0.14,1.46,-2.38,-3.3,383,268,207,454,302,24
828,-0.28,-0.93,-0.16,-0.92,-1.46,-3.42,382,268,206,452,304,24
829,-0.27,-0.93,-0.18,-0.79,-3.05,-2.32,385,266,206,448,303,24
830,-0.27,-0.93,-0.18,1.16,-3.42,-2.32,380,267,205,452,308,24
831,-0.28,-0.93,-0.18,0.18,-2.5,-2.5,379,265,205,454,307,24
832,-0.28,-0.93,-0.2,0.06,-3.54,-1.95,386,265,213,448,307,24
833,-0.28,-0.93,-0.2,0.37,-2.32,-2.93,385,265,206,451,304,24
834,-0.27,-0.93,-0.18,0.85,-2.56,-2.87,381,267,204,455,304,24
835,-0.28,-0.94,-0.18,0.18,-3.23,-2.2,384,269,204,450,305,24
836,-0.27,-0.94,-0.19,1.46,-2.01,-2.75,385,267,202,450,302,24
837,-0.27,-0.94,-0.18,0.55,-2.5,-3.11,385,267,207,450,305,24
838,-0.27,-0.94,-0.18,-0.06,-2.75,-2.5,383,264,206,450,302,24
839,-0.28,-0.94,-0.18,0.31,-3.11,-2.5,384,262,207,453,301,24
840,-0.28,-0.94,-0.18,-0.24,-0.55,-3.85,383,269,207,453,306,24
841,-0.28,-0.93,-0.18,1.1,-2.75,-3.11,388,265,205,448,307,24
842,-0.27,-0.94,-0.18,0.06,-2.44,-3.11,388,267,204,452,303,24
843,-0.27,-0.93,-0.18,0.61,-3.23,-2.38,388,263,203,455,304,24
844,-0.28,-0.93,-0.18,0.24,-3.11,-2.62,389,267,203,451,308,24
845,-0.28,-0.94,-0.18,0.85,-3.36,-2.62,389,264,210,452,306,24
846,-0.27,-0.94,-0.17,0.98,-3.54,-2.32,389,268,203,455,305,24
847,-0.28,-0.93,-0.18,0.31,-2.93,-2.32,388,267,205,450,302,24
848,-0.27,-0.93,-0.18,0.12,-3.11,-2.81,388,267,206,451,304,24
849,-0.28,-0.93,-0.18,-0.31,-2.75,-2.5,388,270,208,451,303,24
850,-0.28,-0.93,-0.18,0.37,-2.93,-2.99,387,267,206,450,305,24
851,-0.28,-0.94,-0.17,1.22,-2.38,-2.32,390,269,206,455,304,24
852,-0.28,-0.93,-0.19,-0.61,-2.38,-3.78,389,267,203,454,306,24
853,-0.27,-0.94,-0.19,0.61,-3.05,-3.05,385,268,207,447,306,24
854,-0.28,-0.94,-0.18,1.4,-2.44,-2.01,385,267,205,455,308,24
855,-0.28,-0.94,-0.18,0.12,-3.3,-2.38,384,267,204,448,301,24
856,-0.27,-0.94,-0.19,1.16,-2.87,-2.26,387,270,207,450,305,24
857,-0.28,-0.94,-0.18,0.49,-2.99,-2.44,383,270,207,450,307,24
858,-0.28,-0.93,-0.19,-0.31,-2.38,-2.44,384,267,208,449,305,24
859,-0.28,-0.93,-0.19,-0.06,-2.44,-3.05,385,266,204,449,305,24
860,-0.27,-0.92,-0.19,0.37,-3.11,-2.56,385,270,201,451,303,24
861,-0.27,-0.93,-0.18,-0.18,-2.56,-2.56,385,267,206,453,304,24
862,-0.28,-0.93,-0.19,0.37,-3.05,-2.87,380,267,208,451,307,24
863,-0.27,-0.94,-0.18,0.61,-2.99,-2.87,392,271,205,448,305,24
864,-0.28,-0.95,-0.18,1.04,-3.85,-2.08,386,271,208,451,306,24
865,-0.28,-0.92,-0.18,0.61,-3.48,-2.26,384,266,205,451,304,24
866,-0.28,-0.93,-0.19,0.12,-3.6,-2.56,388,275,201,455,308,24
867,-0.28,-0.93,-0.19,0.06,-3.05,-2.75,391,266,208,454,306,24
868,-0.28,-0.94,-0.19,-0.06,-2.87,-2.87,382,267,204,453,307,24
869,-0.28,-0.93,-0.19,0.67,-3.17,-2.69,397,267,205,451,304,24
870,-0.27,-0.93,-0.18,0.85,-3.36,-2.75,374,270,207,452,305,24
871,-0.28,-0.93,-0.19,0.0,-2.93,-2.69,386,271,206,450,308,24
872,-0.27,-0.93,-0.19,0.49,-2.38,-2.56,388,266,208,451,302,24
873,-0.28,-0.93,-0.2,-0.73,-3.36,-2.75,386,268,207,451,306,24
874,-0.28,-0.93,-0.2,1.16,-3.05,-2.69,384,267,204,450,307,24
875,-0.27,-0.94,-0.2,0.61,-2.38,-3.11,382,267,202,450,305,24
876,-0.27,-0.93,-0.2,-0.06,-2.08,-3.3,385,270,207,444,307,24
877,-0.27,-0.93,-0.19,-0.18,-2.93,-2.93,385,265,205,454,306,24
878,-0.28,-0.93,-0.19,-0.61,-2.99,-2.44,387,270,205,445,303,24
879,-0.28,-0.93,-0.2,0.43,-2.5,-2.99,384,266,205,454,305,24
880,-0.28,-0.94,-0.2,0.43,-2.93,-3.17,383,269,201,452,306,24
881,-0.28,-0.93,-0.18,0.31,-2.62,-2.69,381,268,210,454,303,24
882,-0.27,-0.93,-0.2,0.49,-3.05,-2.32,385,269,204,449,307,24
883,-0.27,-0.93,-0.2,0.31,-3.6,-2.62,390,268,207,451,306,24
884,-0.26,-0.93,-0.2,1.16,-3.48,-2.32,383,270,212,445,306,24
885,-0.29,-0.93,-0.2,-1.28,-2.87,-3.48,384,265,205,454,305,24
886,-0.27,-0.93,-0.21,0.55,-2.01,-3.17,384,266,207,451,307,24
887,-0.27,-0.93,-0.19,1.53,-3.72,-2.32,383,272,207,451,308,24
888,-0.27,-0.93,-0.21,-0.55,-2.26,-3.6,380,268,205,445,302,24
889,-0.27,-0.93,-0.2,0.55,-1.95,-3.54,382,265,206,454,304,24
890,-0.27,-0.93,-0.19,-0.55,-2.56,-3.91,385,264,206,451,306,24
891,-0.28,-0.93,-0.2,-0.24,-2.38,-2.62,378,266,205,446,303,24
892,-0.28,-0.93,-0.2,0.61,-2.38,-2.93,380,266,204,451,305,24
893,-0.28,-0.93,-0.18,0.79,-2.87,-2.87,381,267,205,454,308,24
894,-0.28,-0.93,-0.19,-0.37,-2.14,-3.11,380,268,209,453,305,24
895,-0.29,-0.93,-0.18,0.43,-3.05,-2.14,382,267,205,450,302,24
896,-0.29,-0.93,-0.18,0.43,-3.05,-2.44,402,269,203,451,305,24
897,-0.28,-0.93,-0.19,1.4,-3.6,-2.62,380,267,205,451,304,24
898,-0.27,-0.93,-0.18,1.83,-2.69,-2.62,380,270,203,446,304,24
899,-0.27,-0.93,-0.22,-1.53,-2.26,-3.48,379,270,207,451,306,24
900,-0.28,-0.93,-0.19,1.59,-2.32,-2.44,383,268,208,455,304,24
901,-0.28,-0.94,-0.19,0.55,-1.83,-3.36,382,267,205,455,308,24
902,-0.28,-0.93,-0.19,0.85,-2.87,-2.08,383,267,205,450,306,24
903,-0.29,-0.93,-0.18,0.67,-2.75,-2.38,383,270,208,456,305,24
904,-0.28,-0.93,-0.19,1.22,-3.17,-2.81,368,268,207,457,305,24
905,-0.27,-0.94,-0.17,1.1,-2.87,-3.3,382,269,207,456,305,24
906,-0.28,-0.94,-0.18,0.37,-2.62,-2.5,381,269,205,454,302,24
907,-0.28,-0.93,-0.19,0.06,-2.99,-2.56,382,265,206,450,306,24
908,-0.29,-0.93,-0.17,-1.28,-2.2,-4.21,380,283,204,452,303,24
909,-0.27,-0.94,-0.17,1.83,-4.46,-1.71,380,269,206,445,305,24
910,-0.26,-0.86,-0.12,1.95,-3.11,-2.14,389,268,207,455,306,24
911,-0.27,-0.92,-0.14,1.4,-5.49,-1.22,382,264,204,451,304,24
912,-0.25,-0.94,-0.18,-2.26,-3.72,-5.98,381,268,205,451,307,24
913,-0.25,-0.95,-0.17,0.37,-0.43,-3.91,381,268,202,450,305,24
914,-0.26,-0.95,-0.14,3.85,-1.53,-2.38,378,268,207,451,307,24
915,-0.25,-0.95,-0.13,5.43,-0.37,-3.66,375,267,207,455,308,24
916,-0.27,-0.94,-0.18,1.1,-3.36,-2.75,382,269,208,452,308,24
917,-0.25,-0.95,-0.16,2.38,-0.37,-3.85,383,272,205,450,308,24
918,-0.24,-0.95,-0.16,4.7,-0.24,-2.75,381,270,204,449,304,24
919,-0.26,-0.95,-0.17,1.28,-2.75,-1.16,380,267,209,450,309,24
920,-0.22,-0.95,-0.19,-1.28,-2.93,-4.58,375,270,208,447,303,24
921,-0.27,-0.94,-0.16,4.15,-8.06,0.61,380,269,207,451,307,24
922,-0.27,-0.95,-0.18,0.61,-3.6,-5.86,382,268,203,452,303,24
923,-0.26,-0.95,-0.16,1.77,-3.11,-2.62,383,268,209,449,306,24
924,-0.24,-0.94,-0.22,-3.42,-8.73,-6.29,379,269,206,450,302,24
925,-0.26,-0.94,-0.18,2.08,-1.59,-2.69,378,268,205,450,303,24
926,-0.25,-0.94,-0.22,-3.3,-4.76,-1.22,381,271,207,453,305,24
927,-0.25,-0.94,-0.21,-6.77,-2.69,-5.98,380,271,200,450,306,24
928,-0.26,-0.94,-0.18,1.95,-2.62,-3.11,382,271,209,446,303,24
929,-0.25,-0.95,-0.17,7.14,-3.48,-1.28,375,270,204,450,303,24
930,-0.26,-0.94,-0.16,-2.56,-0.98,-5.19,380,270,207,450,305,24
931,-0.24,-0.95,-0.19,0.92,-3.17,-2.93,384,272,211,450,306,24
932,-0.23,-0.95,-0.17,2.14,-5.31,-1.34,385,272,210,449,307,24
933,-0.23,-0.95,-0.2,-0.55,-0.37,-4.82,387,274,206,452,306,24
934,-0.24,-0.96,-0.15,0.98,-2.87,-2.93,382,270,208,451,304,24
935,-0.25,-0.94,-0.18,-1.16,-3.72,-2.87,385,275,208,464,304,24
936,-0.24,-0.94,-0.18,-1.22,-2.14,-3.3,383,275,201,452,308,24
937,-0.25,-0.94,-0.18,-0.98,-2.75,-2.44,381,273,203,446,308,24
938,-0.25,-0.95,-0.18,0.98,-2.44,-2.14,385,271,207,454,308,24
939,-0.24,-0.95,-0.18,0.85,-2.01,-2.5,384,274,203,451,307,24
940,-0.25,-0.95,-0.18,0.37,-2.69,-2.69,386,276,208,450,307,24
941,-0.25,-0.93,-0.21,-2.56,-1.22,-3.05,387,274,209,449,307,24
942,-0.22,-0.94,-0.21,2.93,-3.17,-1.53,379,270,206,453,306,24
943,-0.23,-0.94,-0.2,-0.49,-2.56,-3.48,381,274,205,444,308,24
944,-0.23,-0.93,-0.23,0.67,-4.21,-0.61,384,275,203,451,306,24
945,-0.2,-0.95,-0.22,-7.87,-10.74,-10.74,384,273,221,445,306,24
946,-0.25,-0.94,-0.22,-0.24,-1.65,2.14,384,271,205,450,308,24
947,-0.23,-0.95,-0.18,1.46,-5.74,0.43,384,273,206,450,307,24
948,-0.25,-0.94,-0.19,1.46,-4.46,-0.73,388,274,207,450,302,24
949,-0.26,-0.93,-0.17,1.4,-5.55,-0.06,395,272,208,449,308,24
950,-0.24,-0.94,-0.19,-3.3,-4.88,-2.2,386,272,207,445,301,24
951,-0.23,-0.93,-0.21,-1.04,2.62,-5.49,385,272,204,451,302,24
952,-0.26,-0.94,-0.19,3.48,-14.16,-3.85,385,273,207,455,307,24
953,-0.26,-0.94,-0.19,-4.39,9.34,-2.81,383,274,207,452,303,24
954,-0.25,-0.94,-0.2,7.87,-8.0,-3.42,383,272,208,453,307,24
955,-0.24,-0.94,-0.17,-0.49,-8.06,-0.85,383,271,210,449,308,24
956,-0.23,-0.94,-0.21,3.3,-2.56,-1.16,381,273,209,451,307,24
957,-0.26,-0.93,-0.19,-2.93,-2.38,-2.32,387,272,206,445,308,24
958,-0.23,-0.95,-0.18,2.87,-4.7,-2.99,385,274,209,451,305,24
959,-0.24,-0.95,-0.22,-1.77,-0.79,-2.99,386,273,209,448,308,24
960,-0.24,-0.95,-0.13,-0.49,-4.33,-0.92,383,271,209,449,306,24
961,-0.26,-0.94,-0.19,-0.43,-4.94,-2.69,391,272,206,445,303,24
962,-0.27,-0.94,-0.2,-4.15,-0.67,-2.32,386,272,212,451,307,24
963,-0.23,-0.95,-0.14,-0.06,-1.4,-2.32,383,274,206,446,306,24
964,-0.26,-0.94,-0.17,-3.23,5.25,-12.82,381,272,210,451,314,24
965,-0.23,-0.93,-0.22,-2.93,-3.48,3.36,381,272,207,453,302,24
966,-0.22,-0.94,-0.17,3.48,-5.86,-1.53,383,271,210,466,305,24
967,-0.25,-0.95,-0.17,1.34,-5.19,-1.16,382,271,208,456,307,24
968,-0.25,-0.94,-0.2,-3.85,-1.28,-2.44,383,273,209,451,307,24
969,-0.25,-0.95,-0.16,2.56,-2.69,-2.38,385,276,210,450,307,24
970,-0.24,-0.94,-0.2,1.83,-3.36,-2.93,384,272,209,454,307,24
971,-0.26,-0.94,-0.17,-1.53,-2.32,-1.34,381,270,209,453,308,24
972,-0.24,-0.94,-0.18,-0.79,-3.72,-2.44,380,270,208,454,307,24
973,-0.25,-0.94,-0.2,2.26,-3.97,-2.62,379,276,206,450,303,24
974,-0.24,-0.94,-0.17,0.12,-2.01,-0.92,383,273,206,454,308,24
975,-0.24,-0.94,-0.17,2.01,-4.33,-2.01,380,272,206,453,308,24
976,-0.25,-0.94,-0.2,2.99,-4.88,-3.11,379,273,207,444,305,24
977,-0.24,-0.95,-0.17,0.31,-1.34,-2.87,378,274,206,454,307,24
978,-0.23,-0.95,-0.15,0.24,-3.05,-1.83,380,275,210,447,309,24
979,-0.24,-0.94,-0.2,5.49,-5.74,-4.09,378,271,208,450,309,24
980,-0.26,-0.95,-0.12,2.01,-3.36,1.28,380,275,207,445,306,24
981,-0.28,-0.94,-0.15,-0.43,0.55,-5.62,378,273,206,451,307,24
982,-0.25,-0.95,-0.12,3.42,-4.94,-1.46,378,272,206,455,307,24
983,-0.25,-0.95,-0.12,-2.08,-0.98,-4.58,379,272,209,451,308,24
984,-0.26,-0.95,-0.12,1.28,-2.87,-1.53,381,272,209,453,306,24
985,-0.25,-0.95,-0.14,0.06,-2.56,-3.11,378,273,205,446,308,24
986,-0.24,-0.95,-0.15,-1.53,-1.59,-3.54,381,286,207,450,307,24
987,-0.24,-0.95,-0.15,1.16,-3.54,-2.75,381,272,206,451,307,24
988,-0.25,-0.95,-0.14,1.95,-4.03,-2.38,380,273,209,445,308,24
989,-0.25,-0.95,-0.13,2.99,-3.66,-2.14,380,272,205,451,310,24
990,-0.24,-0.96,-0.12,0.61,-2.5,-2.93,382,276,207,450,308,24
991,-0.24,-0.95,-0.11,0.79,-3.78,-2.44,373,275,210,446,309,24
992,-0.25,-0.96,-0.11,-0.49,-2.81,-2.38,382,273,208,449,308,24
993,-0.24,-0.95,-0.13,-0.61,-2.99,-2.5,380,273,211,450,306,24
994,-0.24,-0.96,-0.13,0.79,-2.93,-2.26,376,273,206,450,307,24
995,-0.24,-0.95,-0.12,0.92,-2.2,-2.62,375,275,209,447,306,24
996,-0.24,-0.95,-0.13,0.0,-3.05,-3.17,377,269,207,449,306,24
997,-0.23,-0.96,-0.14,-1.04,-2.5,-3.36,378,273,207,450,306,24
998,-0.23,-0.96,-0.14,-0.18,-3.17,-2.62,377,275,207,448,309,24
999,-0.23,-0.95,-0.15,1.46,-2.99,-2.81,380,273,211,450,310,24
1000,-0.23,-0.96,-0.13,0.37,-3.17,-2.75,381,274,207,449,307,24
1001,-0.23,-0.96,-0.14,0.24,-2.93,-2.81,384,272,213,450,308,24
1002,-0.23,-0.95,-0.15,0.31,-2.93,-2.75,383,272,206,453,310,24
1003,-0.23,-0.96,-0.14,-1.04,-2.44,-2.87,381,276,204,448,306,24
1004,-0.23,-0.95,-0.14,0.06,-2.75,-2.44,380,271,209,450,308,24
1005,-0.23,-0.96,-0.14,1.53,-3.23,-1.77,381,281,207,450,306,24
1006,-0.23,-0.95,-0.14,0.85,-3.23,-2.14,382,270,207,449,306,24
1007,-0.23,-0.96,-0.15,0.0,-2.38,-2.26,382,273,206,453,304,24
1008,-0.23,-0.95,-0.16,-1.04,-2.93,-2.93,377,273,207,449,307,24
1009,-0.23,-0.95,-0.15,0.55,-2.56,-2.93,377,273,209,451,307,24
1010,-0.23,-0.95,-0.15,-0.37,-2.5,-3.42,378,273,210,448,309,24
1011,-0.23,-0.96,-0.15,-1.16,-3.05,-3.17,379,276,207,453,308,24
1012,-0.23,-0.95,-0.15,-0.43,-2.5,-2.75,374,272,210,450,305,24
1013,-0.23,-0.95,-0.15,-0.61,-3.11,-2.93,374,277,209,450,304,24
1014,-0.23,-0.95,-0.16,0.43,-3.23,-2.44,373,273,204,450,307,24
1015,-0.23,-0.95,-0.15,0.37,-2.93,-2.87,390,277,212,449,303,24
1016,-0.23,-0.95,-0.15,-1.34,-2.87,-3.11,374,274,209,449,308,24
1017,-0.23,-0.95,-0.16,-0.06,-3.11,-2.32,371,274,210,444,305,24
1018,-0.23,-0.95,-0.15,0.55,-3.42,-2.26,372,273,205,452,307,24
1019,-0.24,-0.95,-0.15,0.61,-2.99,-2.69,370,272,206,450,309,24
1020,-0.23,-0.95,-0.14,0.92,-3.05,-2.44,372,271,206,447,311,24
1021,-0.24,-0.95,-0.15,1.34,-3.36,-2.08,370,271,205,451,308,24
1022,-0.24,-0.96,-0.15,0.49,-2.75,-2.56,369,275,209,449,307,24
1023,-0.24,-0.95,-0.14,-0.24,-1.89,-3.05,372,275,208,449,308,24
1024,-0.23,-0.95,-0.15,0.73,-3.48,-2.69,381,273,206,449,306,24
1025,-0.23,-0.95,-0.15,-0.43,-2.69,-2.75,381,275,205,454,306,24
1026,-0.22,-0.96,-0.15,0.92,-2.38,-3.66,381,274,207,449,310,24
1027,-0.22,-0.96,-0.15,0.12,-3.05,-2.62,384,275,206,450,304,24
1028,-0.22,-0.95,-0.15,-0.85,-2.2,-2.99,382,273,208,452,302,24
1029,-0.21,-0.95,-0.15,0.85,-2.62,-2.56,402,270,208,450,308,24
1030,-0.21,-0.96,-0.15,-0.85,-3.36,-2.38,383,274,209,452,309,24
1031,-0.22,-0.96,-0.15,-0.43,-3.91,-1.77,382,272,210,452,310,24
1032,-0.23,-0.95,-0.16,0.24,-2.81,-2.32,379,273,210,449,305,24
1033,-0.22,-0.95,-0.15,0.18,-3.05,-3.11,377,276,207,446,309,24
1034,-0.22,-0.96,-0.12,5.0,-3.17,-2.26,376,273,207,448,308,24
1035,-0.23,-0.96,-0.15,-2.44,-1.83,-2.69,380,273,206,448,307,24
1036,-0.22,-0.96,-0.15,0.43,-2.44,-3.23,380,276,208,445,307,24
1037,-0.22,-0.96,-0.14,2.56,-3.6,-1.89,376,277,207,454,307,24
1038,-0.23,-0.96,-0.12,0.92,-3.3,-2.32,382,275,205,450,307,24
1039,-0.23,-0.96,-0.14,-0.73,-2.81,-2.69,380,273,204,448,310,24
1040,-0.23,-0.96,-0.14,-0.55,-2.56,-2.99,378,273,207,451,307,24
1041,-0.23,-0.96,-0.14,0.98,-2.44,-2.69,379,274,209,462,308,24
1042,-0.23,-0.96,-0.13,2.2,-3.36,-2.44,378,274,211,454,307,24
1043,-0.23,-0.96,-0.12,0.79,-3.36,-2.32,417,277,208,451,305,24
1044,-0.23,-0.95,-0.13,0.55,-2.87,-2.56,376,276,211,451,306,24
1045,-0.24,-0.96,-0.12,0.12,-2.5,-2.87,377,274,208,446,307,24
1046,-0.24,-0.96,-0.11,0.73,-2.93,-2.99,377,273,208,449,307,24
1047,-0.23,-0.96,-0.13,2.62,-3.42,-2.32,377,274,210,451,306,24
1048,-0.23,-0.96,-0.11,1.89,-2.99,-2.62,371,272,207,452,304,24
1049,-0.23,-0.96,-0.12,-1.1,-2.38,-3.17,376,274,208,452,308,24
1050,-0.23,-0.96,-0.12,-0.49,-2.87,-2.56,376,275,205,452,308,24
1051,-0.24,-0.96,-0.13,-0.79,-2.69,-2.87,374,271,207,453,309,24
1052,-0.23,-0.96,-0.13,0.18,-2.56,-2.87,377,273,208,445,308,24
1053,-0.23,-0.96,-0.12,-0.06,-2.69,-2.75,376,274,207,445,308,24
1054,-0.24,-0.96,-0.12,0.37,-3.36,-2.38,376,276,208,444,310,24
1055,-0.24,-0.96,-0.11,0.43,-4.15,-2.5,376,276,211,444,303,24
1056,-0.23,-0.95,-0.12,-1.28,-4.39,-3.17,377,274,208,452,309,24
1057,-0.23,-0.96,-0.11,-1.89,-3.23,-3.91,378,274,208,449,307,24
1058,-0.25,-0.96,-0.11,-2.14,-1.1,-3.48,377,275,208,447,307,24
1059,-0.22,-0.96,-0.13,-1.1,-3.3,-2.26,373,273,209,449,307,24
1060,-0.2,-0.96,-0.13,-1.1,-4.21,-2.2,378,274,212,453,309,24
1061,-0.22,-0.96,-0.13,-15.32,-2.93,-1.71,376,273,207,452,306,24
1062,-0.22,-0.96,-0.16,0.43,-2.87,-2.44,377,271,211,443,305,24
1063,-0.23,-0.96,-0.14,-1.89,-2.93,-3.3,373,278,210,449,308,24
1064,-0.22,-0.96,-0.14,2.75,-3.05,-2.01,373,272,207,447,304,24
1065,-0.23,-0.96,-0.13,-1.71,-2.38,-2.75,376,276,204,449,309,24
1066,-0.2,-0.96,-0.16,3.36,-6.1,-1.65,376,276,208,443,304,24
1067,-0.22,-0.96,-0.12,1.59,-4.64,-2.14,377,276,206,453,308,24
1068,-0.26,-0.96,-0.09,3.78,-2.26,0.43,379,273,204,448,308,24
1069,-0.22,-0.97,-0.09,1.95,-4.21,-2.75,376,274,203,452,306,24
1070,-0.22,-0.96,-0.12,-3.42,-1.83,-5.07,376,273,208,450,305,24
1071,-0.23,-0.96,-0.11,-0.85,-2.26,-2.87,377,274,208,453,309,24
1072,-0.2,-0.96,-0.12,-0.12,-0.67,-4.58,380,274,210,449,307,24
1073,-0.22,-0.96,-0.1,-0.12,-0.31,-4.46,382,277,208,449,310,24
1074,-0.16,-0.97,-0.16,1.1,-3.6,-3.23,385,274,205,452,308,24
1075,-0.18,-0.97,-0.13,0.92,-3.42,-2.32,386,273,211,449,308,24
1076,-0.19,-0.96,-0.11,1.77,-5.0,-1.53,382,273,208,450,310,24
1077,-0.2,-0.96,-0.12,-0.92,-2.87,-2.93,382,272,210,450,306,24
1078,-0.2,-0.97,-0.12,0.06,-3.42,-2.5,381,275,212,453,310,24
1079,-0.19,-0.97,-0.13,-0.79,-2.56,-3.3,383,275,206,449,308,24
1080,-0.19,-0.96,-0.13,-0.49,-2.99,-2.81,379,274,209,449,307,24
1081,-0.2,-0.96,-0.13,0.24,-3.36,-2.56,380,277,210,445,308,24
1082,-0.2,-0.96,-0.13,-0.61,-2.93,-3.17,382,274,210,446,310,24
1083,-0.19,-0.96,0.21,1.16,-3.54,-2.38,424,220,181,438,357,24
1084,-0.16,-0.95,0.2,-1.22,-4.7,-3.3,424,221,184,440,359,24
1085,-0.16,-0.95,0.26,0.98,-2.5,-3.91,422,220,185,436,361,24
1086,-0.16,-0.96,0.19,-2.14,-2.14,-4.21,418,221,185,436,359,24
1087,-0.18,-0.96,0.19,0.37,-1.22,-4.27,421,219,183,435,363,24
1088,-0.17,-0.98,0.21,-1.95,-0.37,-3.17,422,222,184,437,358,24
1089,-0.19,-0.96,0.22,2.38,-2.5,-0.43,418,221,186,435,358,24
1090,-0.22,-0.96,0.22,-5.19,-4.7,3.91,417,222,187,440,360,24
1091,-0.18,-0.96,0.21,0.18,-3.17,0.12,422,223,182,441,360,24
1092,-0.18,-0.96,0.19,-1.16,-0.73,-1.34,419,228,184,436,356,24
1093,-0.22,-0.95,0.2,1.04,-1.95,-2.69,423,223,184,439,359,24
1094,-0.2,-0.95,0.2,1.53,-4.58,-5.37,421,222,183,435,361,24
1095,-0.21,-0.95,0.15,-3.6,-8.73,0.49,421,220,187,444,360,24
1096,-0.24,-0.95,0.22,0.73,-0.12,-0.31,421,224,188,440,358,24
1097,-0.2,-0.94,0.14,-5.37,-4.46,-3.6,423,223,185,441,363,24
1098,-0.15,-0.96,0.24,0.85,-2.93,-1.4,420,224,188,436,359,24
1099,-0.21,-0.95,0.2,-2.69,-7.2,0.24,421,225,188,446,359,24
1100,-0.19,-0.95,0.21,3.36,-4.15,-1.28,421,229,189,443,361,24
1101,-0.22,-0.93,0.21,5.62,5.43,-14.28,419,225,191,438,364,24
1102,-0.2,-0.95,0.21,2.44,-0.98,-0.79,420,224,189,439,359,24
1103,-0.2,-0.95,0.2,3.3,-2.81,-0.61,418,226,187,437,365,24
1104,-0.2,-0.94,0.2,-1.04,-3.91,-3.66,416,227,190,436,361,24
1105,-0.22,-0.94,0.24,-0.61,-1.83,-1.46,424,228,190,441,360,24
1106,-0.18,-0.95,0.24,2.56,-3.17,-3.48,417,231,189,446,361,24
1107,-0.2,-0.94,0.22,1.4,-2.08,-2.5,421,230,189,445,363,24
1108,-0.19,-0.95,0.25,0.18,-2.2,-2.5,422,231,189,439,357,24
1109,-0.21,-0.93,0.23,-1.77,-2.62,-2.14,424,229,192,444,359,24
1110,-0.21,-0.94,0.24,0.12,-2.62,-2.08,424,234,188,447,359,24
1111,-0.22,-0.94,0.25,0.85,-2.81,-2.01,422,231,189,444,361,24
1112,-0.2,-0.93,0.26,7.14,-0.73,-2.32,422,229,190,444,363,24
1113,-0.19,-0.91,0.28,0.24,-1.1,-5.86,421,228,195,440,364,24
1114,-0.16,-0.95,0.24,-2.26,0.85,-3.66,425,228,190,449,363,24
1115,-0.19,-0.96,0.19,-4.82,1.1,-2.2,418,231,192,444,361,24
1116,-0.19,-0.96,0.2,-3.66,-0.67,-5.55,423,232,189,449,362,24
1117,-0.16,-0.96,0.21,-2.99,-2.44,-3.05,420,230,189,445,362,24
1118,-0.17,-0.97,0.2,3.05,-3.78,-3.05,420,232,189,444,359,24
1119,-0.2,-0.96,0.21,0.67,2.69,-2.26,421,231,190,446,361,24
1120,-0.2,-0.96,0.22,-1.04,-6.29,-3.05,418,231,191,451,363,24
1121,-0.18,-0.95,0.25,-0.06,-3.78,-1.65,417,230,191,446,362,24
1122,-0.22,-0.95,0.28,6.47,-7.02,-5.49,421,229,190,448,361,24
1123,-0.23,-0.94,0.22,2.14,-9.28,-3.36,424,233,190,446,361,24
1124,-0.13,-0.94,0.24,-3.42,-3.17,-4.39,423,232,203,447,360,24
1125,-0.17,-0.94,0.27,3.42,-2.75,-5.55,423,228,193,448,359,24
1126,-0.18,-0.93,0.3,3.42,-6.84,-5.25,422,228,191,447,357,24
1127,-0.19,-0.92,0.31,1.1,-0.18,-2.26,424,234,191,450,355,24
1128,-0.19,-0.92,0.31,-0.67,-1.65,-3.42,422,226,190,450,359,24
1129,-0.19,-0.93,0.31,0.43,-1.83,-3.42,418,233,193,448,364,24
1130,-0.18,-0.92,0.3,-1.59,-1.34,-3.11,433,228,194,443,361,24
1131,-0.23,-0.93,0.35,0.61,-2.87,-1.83,424,234,193,446,361,24
1132,-0.18,-0.94,0.28,-0.55,-3.6,-3.97,422,233,195,441,365,24
1133,-0.17,-0.94,0.24,-4.46,-5.98,-7.32,420,232,192,445,358,24
1134,-0.15,-0.95,0.22,1.46,-4.82,-3.54,420,231,189,447,357,24
1135,-0.18,-0.93,0.25,2.14,-4.15,-5.62,422,231,190,451,365,24
1136,-0.19,-0.94,0.28,1.89,-1.59,-1.65,427,230,195,451,358,24
1137,-0.18,-0.94,0.29,1.65,-2.93,-1.77,413,228,194,448,361,24
1138,-0.17,-0.94,0.3,1.59,-2.75,-1.89,436,231,194,451,364,24
1139,-0.19,-0.93,0.29,1.34,-3.66,-2.5,422,233,194,444,359,24
1140,-0.21,-0.94,0.3,-0.85,-2.81,-2.38,421,235,196,447,358,24
1141,-0.19,-0.94,0.3,0.06,-3.23,-2.81,421,231,194,443,363,24
1142,-0.19,-0.93,0.29,-0.98,-3.91,-2.75,423,233,196,447,361,24
1143,-0.2,-0.93,0.3,0.49,-1.46,-2.38,421,238,191,449,363,24
1144,-0.19,-0.93,0.29,0.61,-2.01,-2.26,420,233,195,443,362,24
1145,-0.19,-0.95,0.28,0.67,-3.91,-2.08,422,232,204,442,358,24
1146,-0.2,-0.94,0.28,0.31,-3.36,-1.83,421,235,196,456,362,24
1147,-0.19,-0.93,0.29,0.49,-3.11,-2.56,420,235,195,445,360,24
1148,-0.19,-0.94,0.28,1.46,-1.83,-2.62,418,234,195,448,363,24
1149,-0.2,-0.94,0.28,0.73,-3.05,-2.56,420,232,196,453,362,24
1150,-0.21,-0.94,0.29,1.1,-3.36,-4.64,422,235,195,443,362,24
1151,-0.18,-0.94,0.29,1.4,-5.25,-3.3,419,238,193,448,359,24
1152,-0.18,-0.94,0.28,-0.92,-3.23,-2.69,416,235,196,448,361,24
1153,-0.17,-0.94,0.27,-1.04,-3.11,-2.93,419,234,196,448,362,24
1154,-0.18,-0.94,0.28,-0.43,-3.72,-2.75,419,237,195,445,363,24
1155,-0.17,-0.94,0.28,0.06,-2.5,-1.95,420,237,194,454,361,24
1156,-0.19,-0.93,0.32,-0.92,-4.27,-2.62,421,233,201,453,362,24
1157,-0.17,-0.94,0.31,-0.06,-2.2,-3.05,419,239,196,449,361,24
1158,-0.19,-0.94,0.33,-0.61,-2.5,-3.23,420,234,193,448,365,24
1159,-0.18,-0.93,0.3,-2.08,-1.95,-2.69,421,233,196,454,362,24
1160,-0.17,-0.94,0.3,-1.71,-1.95,-2.81,420,237,196,447,362,24
1161,-0.19,-0.94,0.29,-0.18,-2.5,-2.69,420,237,195,450,363,24
1162,-0.17,-0.94,0.28,-1.1,-2.5,-3.42,419,234,197,448,361,24
1163,-0.18,-0.94,0.29,-0.79,-1.59,-2.26,422,233,197,448,362,24
1164,-0.18,-0.94,0.28,1.16,-2.93,-2.5,420,235,198,448,362,24
1165,-0.18,-0.95,0.3,3.11,-3.3,-3.36,418,237,195,450,358,24
1166,-0.18,-0.94,0.3,1.4,-3.17,-1.53,419,235,195,451,363,24
1167,-0.18,-0.94,0.3,0.92,-3.42,-2.01,419,238,193,452,362,24
1168,-0.18,-0.94,0.3,-1.28,-2.62,-1.53,419,235,198,449,362,24
1169,-0.19,-0.94,0.29,-0.37,-1.1,-1.4,421,238,200,444,360,24
1170,-0.2,-0.93,0.27,2.2,-2.87,-2.5,420,240,196,451,360,24
1171,-0.18,-0.94,0.31,-14.28,-27.16,2.87,422,235,199,450,360,24
1172,0.0,-0.98,0.3,3.97,-33.33,-1.95,420,237,195,453,361,24
1173,-0.17,-0.93,0.42,11.05,-5.07,8.3,422,239,197,454,360,24
1174,-0.05,-0.97,0.19,3.72,-2.5,-6.04,421,233,198,452,363,24
1175,-0.08,-0.98,0.15,-11.29,-8.06,-1.89,428,239,194,445,362,24
1176,-0.17,-0.97,0.16,2.99,0.85,-4.88,417,238,201,450,361,24
1177,-0.13,-0.96,0.2,-3.05,-1.16,-4.39,415,233,198,450,365,24
1178,-0.06,-0.96,0.23,9.7,2.14,-1.83,415,238,203,441,362,24
1179,-0.1,-0.98,0.3,19.9,23.38,-10.44,418,237,197,451,364,24
1180,-0.19,-0.91,0.27,-3.72,5.62,5.25,419,238,195,450,364,24
1181,-0.18,-0.94,0.27,-3.36,-3.17,-3.97,417,242,197,454,361,24
1182,-0.16,-0.94,0.29,-1.16,-4.39,-2.87,425,238,197,454,362,24
1183,-0.2,-0.94,0.23,0.31,5.49,-3.66,417,238,192,454,362,24
1184,-0.19,-0.95,0.24,-1.77,-2.81,-1.77,419,240,199,450,361,24
1185,-0.19,-0.95,0.24,-1.77,-1.95,-4.52,418,236,196,451,361,24
1186,-0.18,-0.95,0.22,0.55,-2.69,-1.77,418,237,194,447,362,24
1187,-0.15,-0.93,0.21,0.49,0.12,-3.66,412,234,200,455,360,24
1188,-0.08,-0.96,0.16,-3.91,1.89,-9.09,412,236,196,451,364,24
1189,-0.15,-0.96,0.17,20.08,-1.53,2.99,415,235,193,450,360,24
1190,-0.14,-1.02,0.2,9.4,-2.81,4.58,415,240,196,450,357,24
1191,-0.16,-0.94,0.35,7.57,-6.77,-17.58,423,242,197,450,359,24
1192,-0.05,-0.92,0.34,0.0,1.22,8.06,416,240,194,445,362,24
1193,-0.1,-0.95,0.3,9.16,-14.1,6.35,418,238,199,452,361,24
1194,-0.06,-0.95,0.33,-4.03,-2.56,-1.04,416,235,200,448,359,24
1195,-0.11,-0.95,0.3,-2.75,-2.99,-0.24,417,238,195,450,361,24
1196,-0.16,-0.98,0.21,-20.94,-6.47,6.71,420,237,200,450,359,24
1197,-0.16,-0.97,0.21,0.98,-5.37,1.53,418,237,198,452,364,24
1198,-0.21,-0.96,0.21,1.46,-5.0,-2.81,424,238,197,443,361,24
1199,-0.17,-0.96,0.27,-4.58,-1.83,-0.37,422,241,198,460,362,24
1200,-0.17,-0.96,0.22,1.22,-5.25,-0.49,423,240,198,451,363,24
1201,-0.16,-0.97,0.2,2.81,-4.76,-1.65,422,238,211,453,360,24
1202,-0.17,-0.96,0.2,2.2,-2.87,-1.59,424,242,197,456,360,24
1203,-0.16,-0.96,0.2,-1.22,-1.53,-5.98,425,241,197,451,357,24
1204,-0.13,-0.96,0.22,3.3,-5.43,-1.4,421,239,200,453,359,24
1205,-0.16,-0.96,0.24,2.2,-3.05,-2.5,420,240,199,450,362,24
1206,-0.15,-0.96,0.21,-1.16,-2.69,-3.85,421,239,201,449,361,24
1207,-0.16,-0.96,0.19,2.01,-2.14,-3.23,422,240,198,449,361,24
1208,-0.17,-0.95,0.18,2.14,-1.04,-3.78,417,239,198,454,363,24
1209,-0.17,-0.96,0.21,-1.28,-2.26,-6.84,424,242,196,446,363,24
1210,-0.17,-0.96,0.19,-1.83,-2.26,-1.4,422,242,200,448,362,24
1211,-0.16,-0.96,0.22,-0.61,-2.2,-3.97,419,241,199,449,359,24
1212,-0.15,-0.97,0.21,-2.69,-1.16,-2.26,423,237,200,451,361,24
1213,-0.16,-0.96,0.21,-0.61,-2.93,-1.83,421,238,200,449,359,24
1214,-0.16,-0.96,0.19,0.55,-2.56,-2.81,422,239,196,453,362,24
1215,-0.15,-0.96,0.19,0.37,-1.59,-2.26,428,240,198,449,361,24
1216,-0.16,-0.97,0.2,-0.12,-3.54,-3.42,422,241,198,450,358,24
1217,-0.14,-0.96,0.19,3.42,-2.93,-0.98,421,238,201,453,361,24
1218,-0.18,-0.97,0.19,-0.31,-2.87,-2.01,418,239,198,449,358,24
1219,-0.18,-0.95,0.21,-0.31,-4.46,-2.5,419,242,198,453,362,24
1220,-0.14,-0.96,0.21,2.93,-1.95,-4.09,420,240,201,451,359,24
1221,-0.16,-0.96,0.22,-2.69,-2.75,-2.38,422,240,195,453,361,24
1222,-0.16,-0.96,0.19,-2.75,-2.5,-3.72,424,242,199,452,355,24
1223,-0.15,-0.95,0.29,11.41,0.0,-7.63,421,240,201,449,357,24
1224,-0.1,-0.96,0.2,-3.97,4.76,-6.47,421,242,200,447,359,24
1225,-0.13,-0.95,0.23,5.43,2.69,-0.18,420,241,200,448,356,24
1226,-0.14,-0.96,0.24,-4.88,-3.42,-2.62,422,240,204,451,361,24
1227,-0.12,-0.96,0.19,0.37,-2.75,-3.54,422,238,201,453,360,24
1228,-0.13,-0.95,0.19,0.98,-5.25,-2.26,424,240,199,450,356,24
1229,-0.12,-0.97,0.23,-2.69,-2.01,-3.3,421,238,199,450,355,24
1230,-0.13,-0.98,0.23,-3.48,-0.31,-3.05,418,239,201,445,355,24
1231,-0.1,-0.96,0.17,0.55,-11.54,-2.87,417,242,201,453,361,24
1232,-0.14,-0.96,0.2,0.55,0.61,-3.85,419,242,200,453,361,24
1233,-0.13,-0.95,0.19,0.49,-2.56,-2.5,419,241,202,450,369,24
1234,-0.13,-1.0,0.18,2.5,0.18,-3.11,419,243,199,449,362,24
1235,-0.14,-0.96,0.21,2.87,-4.39,-1.59,420,243,199,453,362,24
1236,-0.12,-0.97,0.19,0.98,-4.03,-3.78,419,241,198,450,363,24
1237,-0.14,-0.96,0.21,0.49,-1.65,-3.05,426,238,200,454,362,24
1238,-0.15,-0.96,0.2,1.16,-2.2,-0.98,419,242,201,449,362,24
1239,-0.14,-0.96,0.19,1.46,-2.5,-2.2,421,250,201,453,363,24
1240,-0.17,-0.97,0.22,-0.61,-5.49,-0.55,421,244,201,451,362,24
1241,-0.16,-0.97,0.19,0.24,-3.66,-2.01,424,244,203,453,354,24
1242,-0.14,-0.97,0.18,-0.67,-4.27,-3.3,421,245,201,450,357,24
1243,-0.13,-0.97,0.2,-0.43,-3.72,-0.67,419,244,208,447,360,24
1244,-0.14,-0.97,0.19,1.77,-3.3,-1.28,423,243,199,454,359,24
1245,-0.14,-0.97,0.2,-0.61,-2.32,-2.01,420,244,199,454,361,24
1246,-0.16,-0.96,0.19,0.24,-3.91,-2.2,421,246,206,451,361,24
1247,-0.15,-0.96,0.25,0.24,-5.92,-3.85,417,244,201,451,358,24
1248,-0.15,-0.97,0.19,-6.04,-12.39,-3.11,421,247,201,452,360,24
1249,-0.13,-0.98,0.15,-4.7,-5.62,-0.43,422,247,202,455,358,24
1250,-0.13,-0.97,0.16,0.43,-4.7,2.14,420,244,201,452,357,24
1251,-0.14,-0.97,0.16,-0.61,-1.53,-1.59,421,242,200,457,363,24
1252,-0.16,-0.97,0.21,-3.36,-4.21,-2.93,419,246,201,450,359,24
1253,-0.13,-0.98,0.19,-3.85,-1.65,-3.72,420,243,204,446,366,24
1254,-0.09,-0.97,0.09,3.97,-6.47,-4.76,422,245,203,450,360,24
1255,0.05,-0.91,0.17,39.43,2.38,-26.18,419,243,200,455,360,24
1256,0.07,-0.93,0.38,6.59,-12.63,-15.08,419,244,201,451,360,24
1257,0.11,-1.1,0.31,-12.33,6.77,-4.88,417,244,204,455,358,24
1258,0.25,-0.92,0.4,0.31,4.94,-18.25,418,244,201,445,359,24
1259,0.14,-0.92,0.43,3.36,-1.1,-1.34,418,243,201,448,357,24
1260,0.12,-0.86,0.33,-12.08,2.69,2.75,444,243,201,446,361,24
1261,0.26,-0.87,0.47,0.85,-4.88,5.31,417,246,205,452,363,24
1262,0.19,-0.88,0.45,-3.91,-1.89,2.93,416,246,203,452,360,24
1263,0.13,-0.92,0.46,-7.45,-13.18,0.73,416,247,205,450,361,24
1264,0.17,-0.9,0.47,5.8,-0.37,-6.04,418,245,205,449,357,24
1265,0.18,-0.88,0.42,-0.61,-8.18,-2.81,427,246,202,446,361,24
1266,0.18,-0.87,0.47,8.73,0.85,-4.15,413,246,204,451,358,24
1267,0.14,-0.84,0.56,8.54,12.02,4.27,412,245,203,452,360,24
1268,0.07,-0.86,0.48,-3.54,1.28,3.91,413,242,205,453,359,24
1269,0.01,-0.86,0.49,5.43,-2.01,-4.58,415,246,199,456,361,24
1270,0.01,-0.85,0.47,2.93,-8.54,-4.76,416,249,203,452,358,24
1271,0.04,-0.84,0.48,1.77,-8.97,-5.68,417,245,203,451,362,24
1272,0.07,-0.86,0.51,-1.59,-2.69,-2.32,417,249,202,455,361,24
1273,0.03,-0.87,0.54,-5.19,-3.72,-7.63,415,248,204,447,360,24
1274,0.1,-0.88,0.45,-10.25,3.36,-11.96,420,249,205,451,361,24
1275,0.1,-0.9,0.41,-2.56,-4.46,-1.89,414,247,204,449,361,24
1276,0.09,-0.91,0.41,3.05,-1.71,-1.53,414,246,205,452,361,24
1277,0.07,-0.9,0.41,0.67,-3.6,-0.73,417,246,204,451,361,24
1278,0.1,-0.9,0.41,0.92,-4.64,-5.19,415,247,201,451,361,24
1279,0.07,-0.9,0.43,0.24,-0.31,-0.85,416,248,202,455,361,24
1280,0.04,-0.91,0.42,-8.0,-2.32,3.54,417,246,205,454,361,24
1281,-0.02,-0.94,0.35,-10.01,-4.09,4.33,420,245,203,453,363,24
1282,-0.02,-0.95,0.28,-5.43,-5.0,-0.12,417,247,206,450,373,24
1283,-0.01,-0.95,0.3,1.46,-6.41,-0.37,419,249,202,451,361,24
1284,0.0,-0.95,0.29,2.81,4.46,-4.03,420,247,204,452,359,24
1285,-0.01,-0.95,0.27,-2.32,-0.79,-3.05,418,246,205,450,357,24
1286,-0.01,-0.95,0.31,-0.85,-7.87,-3.91,417,249,200,454,361,24
1287,0.07,-0.96,0.3,-3.97,-6.29,-1.83,418,247,200,453,361,24
1288,0.01,-0.95,0.28,-2.5,-4.94,-0.31,417,245,204,446,361,24
1289,0.02,-0.96,0.29,-1.95,1.89,-3.42,418,250,205,456,360,24
1290,-0.01,-0.96,0.26,-3.11,-0.18,-4.88,414,248,200,455,360,24
1291,-0.01,-0.96,0.27,-1.71,-1.16,-3.17,418,257,210,449,360,24
1292,0.02,-0.96,0.28,-0.31,-0.49,-1.34,418,250,203,454,358,24
1293,-0.0,-0.96,0.27,-1.46,-2.08,-0.55,417,250,201,450,359,24
1294,-0.05,-0.97,0.3,-3.3,9.83,7.2,421,249,203,451,358,24
1295,-0.14,-0.96,0.24,-6.29,0.24,5.55,418,247,200,454,360,24
1296,-0.17,-0.96,0.18,0.18,-0.85,3.6,421,247,201,457,361,24
1297,-0.22,-0.97,0.23,-0.12,-6.53,-6.59,420,260,203,454,363,24
1298,-0.15,-0.95,0.2,-0.37,-7.2,-1.28,446,249,205,452,357,24
1299,-0.19,-0.97,0.22,1.4,-12.7,-2.75,421,250,202,449,360,24
1300,-0.11,-0.97,0.19,3.97,0.31,-8.42,418,250,200,454,363,24
1301,-0.13,-0.97,0.2,-0.67,-5.07,-5.49,419,249,200,451,360,24
1302,-0.08,-0.98,0.18,-4.09,-5.13,-4.15,419,249,203,455,358,24
1303,-0.1,-0.98,0.15,-4.7,-3.17,-2.44,418,247,203,450,361,24
1304,-0.09,-0.98,0.15,-0.55,-2.75,-2.62,414,248,206,452,362,24
1305,-0.11,-0.97,0.18,7.63,-1.16,6.77,418,250,201,447,362,24
1306,-0.15,-0.95,0.22,-1.77,-4.82,5.62,414,249,205,460,360,24
1307,-0.16,-0.95,0.2,5.37,-2.62,9.16,418,250,204,455,361,24
1308,-0.27,-0.94,0.21,10.01,-1.95,-3.72,419,246,202,447,358,24
1309,-0.18,-0.95,0.24,1.46,-1.89,-4.7,429,249,201,451,363,24
1310,-0.19,-0.95,0.23,-1.16,-4.21,-1.89,416,248,205,454,365,24
1311,-0.2,-0.96,0.22,-4.15,-1.1,-1.53,419,247,202,450,357,24
1312,-0.2,-0.95,0.19,-1.1,-2.2,-2.08,418,248,203,446,362,24
1313,-0.21,-0.97,0.15,-23.8,2.32,1.16,419,246,216,451,360,24
1314,-0.22,-0.94,0.07,1.77,-6.65,-0.24,418,248,201,455,359,24
1315,-0.25,-0.96,0.05,3.11,-6.29,-1.34,418,247,203,454,362,24
1316,-0.25,-0.96,0.07,-1.22,-2.01,-3.17,419,247,202,463,361,24
1317,-0.25,-0.96,0.09,1.34,-2.87,-3.17,419,249,204,450,358,24
1318,-0.25,-0.96,0.07,-4.09,-0.85,-4.94,418,250,203,445,358,24
1319,-0.23,-0.96,0.07,0.61,-2.93,-2.93,420,245,206,453,358,24
1320,-0.21,-0.97,0.08,0.12,-3.66,-5.43,422,248,201,452,360,24
1321,-0.21,-0.98,0.1,-0.79,1.22,-3.85,419,248,202,449,359,24
1322,-0.22,-0.97,0.1,0.61,0.0,-1.46,419,249,202,448,360,24
1323,-0.2,-0.97,0.07,-0.92,-3.05,-3.91,417,251,206,455,359,24
1324,-0.2,-0.97,0.08,1.4,-2.44,-3.05,422,249,202,449,358,24
1325,-0.17,-0.97,0.1,3.6,-3.91,-4.09,421,248,204,455,359,24
1326,-0.2,-0.97,0.1,-0.73,-2.93,-2.32,421,245,206,456,357,24
1327,-0.19,-0.97,0.07,-4.46,-1.89,-5.55,418,250,201,454,360,24
1328,-0.19,-0.97,0.08,1.83,-5.07,-2.44,418,251,203,448,359,24
1329,-0.19,-0.97,0.1,2.81,-3.05,-2.26,420,248,205,450,356,24
1330,-0.19,-0.97,0.09,-0.06,-3.05,-2.14,418,247,203,450,359,24
1331,-0.2,-0.97,0.12,2.32,-3.72,-1.89,417,247,203,452,359,24
1332,-0.18,-0.98,0.11,0.73,-1.83,-2.56,419,248,207,452,357,24
1333,-0.19,-0.97,0.09,-0.37,-2.81,-2.2,418,248,204,455,359,24
1334,-0.17,-0.98,0.13,2.81,-0.37,-3.97,420,248,204,455,359,24
1335,-0.18,-0.98,0.13,0.79,-2.5,-1.34,429,249,203,455,359,24
1336,-0.17,-0.96,0.08,0.67,-1.34,-3.3,417,245,211,450,357,24
1337,-0.18,-0.97,0.11,0.55,-1.95,-2.99,420,251,204,446,358,24
1338,-0.19,-0.97,0.12,0.92,-3.23,-2.32,420,251,207,451,360,24
1339,-0.19,-0.97,0.13,-0.06,-2.38,-2.32,422,254,199,447,360,24
1340,-0.19,-0.97,0.13,1.65,-3.72,-3.72,420,249,201,447,363,24
1341,-0.2,-0.98,0.13,-2.62,-1.46,-2.81,418,246,203,447,361,24
1342,-0.17,-0.97,0.14,1.1,-0.37,-3.72,419,249,203,451,361,24
1343,-0.19,-0.94,0.15,1.22,-3.23,-0.55,420,248,202,447,361,24
1344,-0.21,-0.97,0.12,-3.78,-4.15,-2.38,419,250,204,450,360,24
1345,-0.18,-0.97,0.13,1.95,-4.15,-1.71,418,251,204,455,357,24
1346,-0.18,-0.97,0.12,1.89,-4.27,-2.38,419,246,207,450,360,24
1347,-0.18,-0.97,0.1,3.3,-4.09,-1.83,419,252,207,451,360,24
1348,-0.19,-0.97,0.1,3.54,-4.33,-1.46,420,247,201,452,358,24
1349,-0.17,-0.97,0.1,2.99,-2.93,-3.91,419,248,203,451,360,24
1350,-0.17,-0.98,0.12,-2.38,-2.99,-1.4,419,248,205,451,356,24
1351,-0.18,-0.97,0.1,1.89,-3.78,-2.44,420,250,202,451,357,24
1352,-0.18,-0.97,0.1,1.95,-4.09,-2.81,417,251,207,445,359,24
1353,-0.18,-0.98,0.1,-0.24,-6.29,-2.69,420,248,210,455,357,24
1354,-0.17,-0.97,0.11,1.65,-2.99,-1.71,417,252,203,451,362,24
1355,-0.18,-0.97,0.1,0.37,-2.99,-2.2,419,252,204,452,362,24
1356,-0.18,-0.97,0.09,0.67,-2.56,-2.5,420,255,215,454,360,24
1357,-0.17,-0.97,0.12,0.24,-1.89,-2.93,419,250,206,445,357,24
1358,-0.17,-0.96,0.09,0.85,-3.05,-2.87,419,247,205,450,361,24
1359,-0.16,-0.99,0.11,2.01,-3.72,-1.83,417,251,206,455,360,24
1360,-0.18,-0.97,0.12,0.43,-4.03,-3.11,416,253,202,450,360,24
1361,-0.18,-0.96,0.11,0.73,-3.3,-2.01,419,248,205,447,357,24
1362,-0.17,-0.98,0.11,-0.37,-2.08,-2.38,418,247,208,453,356,24
1363,-0.17,-0.97,0.12,0.06,-2.14,-2.14,419,248,209,454,359,24
1364,-0.2,-0.98,0.12,8.85,-1.65,-4.03,417,249,212,454,360,24
1365,-0.17,-0.97,0.14,20.57,-2.99,-5.8,420,250,217,455,361,24
1366,-0.16,-0.97,0.19,2.01,-2.69,-2.62,425,249,207,449,363,24
1367,-0.15,-0.99,0.22,-1.28,-1.89,-2.26,419,249,216,454,363,24
1368,-0.18,-1.13,0.09,1.16,-0.49,-1.89,413,250,205,451,359,24
1369,-0.17,-0.94,0.15,1.83,-3.91,-1.77,415,250,204,452,362,24
1370,-0.17,-0.97,0.16,-2.99,-2.32,-3.6,421,252,207,453,363,24
1371,-0.17,-0.97,0.17,-0.37,-2.69,-3.91,418,254,206,448,365,24
1372,-0.15,-0.97,0.17,1.65,-3.3,-2.87,418,248,208,451,361,24
1373,-0.16,-0.96,0.17,-0.79,-2.93,-2.62,415,251,206,455,362,24
1374,-0.15,-0.97,0.17,2.01,-3.91,-2.2,417,250,206,453,363,24
1375,-0.16,-0.97,0.16,-1.77,-2.81,-3.17,417,268,205,451,365,24
1376,-0.18,-0.96,0.18,-1.22,-2.62,-3.72,418,253,206,454,360,24
1377,-0.17,-0.97,0.17,1.65,-2.62,-3.11,414,252,207,452,361,24
1378,-0.17,-0.96,0.18,2.2,-2.93,-3.23,417,247,203,451,363,24
1379,-0.16,-0.96,0.19,1.28,-3.23,-2.44,420,254,203,453,365,24
1380,-0.17,-0.97,0.18,2.26,-2.01,-3.36,417,252,208,452,365,24
1381,-0.17,-0.96,0.19,-0.06,-2.2,-2.5,417,251,208,448,365,24
1382,-0.16,-0.95,0.19,1.28,-3.85,-2.87,419,254,202,450,360,24
1383,-0.15,-0.97,0.17,-0.18,-5.0,-1.83,423,251,204,452,363,24
1384,-0.16,-0.97,0.17,1.71,-3.54,-1.04,419,252,204,447,363,24
1385,-0.16,-0.97,0.17,0.61,-2.99,-2.2,417,253,208,457,364,24
1386,-0.16,-0.97,0.18,0.61,-3.97,-2.01,416,251,207,453,363,24
1387,-0.16,-0.97,0.18,0.24,-3.85,-3.36,416,250,208,456,363,24
1388,-0.15,-0.96,0.18,2.62,-3.48,-3.72,421,253,206,449,366,24
1389,-0.15,-0.97,0.21,0.92,-2.44,-2.69,415,254,205,453,363,24
1390,-0.15,-0.96,0.19,-0.61,-2.2,-3.23,456,255,208,453,360,24
1391,-0.17,-0.97,0.2,-0.43,-3.66,-2.2,415,251,208,453,363,24
1392,-0.17,-0.96,0.19,-1.16,-2.2,-2.5,418,252,205,452,364,24
1393,-0.16,-0.96,0.19,-0.24,-1.4,-2.69,419,254,203,449,359,24
1394,-0.17,-0.96,0.19,-0.55,-2.69,-2.93,420,252,205,453,363,24
1395,-0.16,-0.96,0.19,0.73,-3.3,-3.85,416,251,218,449,365,24
1396,-0.16,-0.97,0.2,0.12,-3.72,-2.69,416,251,209,448,361,24
1397,-0.17,-0.97,0.2,0.49,-4.39,-3.48,418,249,208,450,362,24
1398,-0.16,-0.97,0.2,-0.06,-1.77,-2.75,418,249,207,453,365,24
1399,-0.14,-0.94,0.18,-1.28,-4.27,-2.56,419,253,207,457,359,24
1400,-0.15,-0.95,0.19,-3.48,-3.48,-2.5,413,253,206,454,363,24
1401,-0.16,-0.97,0.19,1.77,-2.75,-2.26,412,254,206,457,366,24
1402,-0.17,-0.97,0.18,0.79,-1.71,-1.83,418,253,209,452,364,24
1403,-0.16,-0.96,0.17,1.53,-4.15,-3.36,418,253,210,451,366,24
1404,-0.15,-0.96,0.18,1.59,-4.27,-3.3,416,254,206,453,361,24
1405,-0.15,-0.97,0.18,1.46,-3.11,-3.23,414,251,207,453,363,24
1406,-0.16,-0.97,0.2,-0.67,-2.2,-2.75,416,252,208,456,365,24
1407,-0.16,-0.97,0.18,0.79,-1.89,-1.71,422,252,207,457,365,24
1408,-0.17,-0.97,0.18,0.31,-2.62,-2.44,415,255,206,469,362,24
1409,-0.16,-0.96,0.17,0.12,-2.87,-2.75,412,252,209,452,363,24
1410,-0.16,-0.97,0.17,0.79,-3.97,-2.2,416,251,206,452,364,24
1411,-0.16,-0.97,0.18,0.85,-3.23,-3.97,414,255,206,453,365,24
1412,-0.15,-0.97,0.19,2.14,-3.42,-2.56,420,252,206,452,361,24
1413,-0.15,-0.98,0.19,2.26,-3.78,-2.44,409,248,206,452,367,24
1414,-0.15,-0.97,0.19,0.61,-2.32,-2.5,453,254,207,456,360,24
1415,-0.16,-0.96,0.19,0.49,-2.56,-2.44,416,253,209,452,364,24
1416,-0.16,-0.97,0.18,-0.98,-2.62,-2.2,416,254,205,451,365,24
1417,-0.16,-0.97,0.18,0.31,-2.01,-2.69,414,251,205,453,360,24
1418,-0.16,-0.97,0.17,0.24,-2.32,-2.5,418,253,206,455,365,24
1419,-0.17,-0.97,0.17,0.0,-2.69,-2.87,417,254,207,448,363,24
1420,-0.16,-0.97,0.18,1.71,-4.33,-2.93,420,251,209,456,366,24
1421,-0.15,-0.97,0.18,0.79,-3.78,-2.75,416,251,214,449,364,24
1422,-0.16,-0.97,0.19,1.22,-3.72,-2.75,413,252,205,456,364,24
1423,-0.15,-0.97,0.19,-0.31,-1.89,-2.81,418,250,206,451,362,24
1424,-0.15,-0.97,0.18,0.0,-2.56,-2.26,416,249,206,455,359,24
1425,-0.17,-0.96,0.19,-0.24,-1.77,-2.44,418,251,208,454,372,24
1426,-0.15,-0.97,0.18,2.01,-2.26,-3.23,417,250,206,456,363,24
1427,-0.16,-0.97,0.17,-0.24,-2.81,-2.5,416,249,208,453,365,24
1428,-0.16,-0.96,0.17,-1.1,-2.5,-2.75,416,251,204,448,366,24
1429,-0.17,-0.97,0.17,2.81,-3.78,-2.56,418,255,206,450,362,24
1430,-0.15,-0.97,0.17,1.16,-3.6,-3.42,415,252,209,453,363,24
1431,-0.15,-0.97,0.19,0.85,-3.17,-2.99,417,253,212,448,364,24
1432,-0.16,-0.97,0.18,0.98,-2.87,-2.75,424,255,206,453,361,24
1433,-0.16,-0.96,0.18,-1.16,-2.44,-2.08,418,254,206,449,360,24
1434,-0.17,-0.99,0.17,-0.67,-2.32,-1.34,416,251,205,450,361,24
1435,-0.16,-0.96,0.18,-0.37,-2.5,-3.17,416,255,208,453,364,24
1436,-0.17,-0.97,0.18,0.0,-2.75,-2.56,418,251,206,452,364,24
1437,-0.16,-0.97,0.17,0.73,-3.72,-2.75,417,252,208,451,364,24
1438,-0.16,-0.96,0.18,1.04,-3.85,-3.36,416,251,210,451,361,24
1439,-0.16,-0.98,0.18,1.16,-2.81,-2.81,416,253,209,446,364,24
1440,-0.14,-0.97,0.18,0.12,-3.11,-2.69,419,252,208,453,364,24
1441,-0.15,-0.96,0.18,-1.4,-2.2,-2.75,415,254,207,453,371,24
1442,-0.16,-0.97,0.18,1.1,-3.11,-2.38,417,251,209,454,364,24
1443,-0.16,-0.97,0.18,-0.06,-3.42,-2.32,414,252,209,451,363,24
1444,-0.16,-0.97,0.17,0.12,-3.23,-2.14,409,254,209,455,364,24
1445,-0.16,-0.96,0.16,0.49,-2.93,-2.5,417,254,207,452,364,24
1446,-0.16,-0.96,0.17,0.67,-3.05,-3.05,416,252,210,456,364,24
1447,-0.15,-0.98,0.18,0.92,-2.99,-3.3,415,254,209,453,364,24
1448,-0.14,-0.97,0.18,0.85,-1.71,-3.48,416,254,207,453,363,24
1449,-0.15,-0.99,0.15,1.28,-1.89,-3.3,416,252,206,446,362,24
1450,-0.16,-0.96,0.17,-0.31,-3.17,-1.53,416,253,207,451,368,24
1451,-0.15,-0.97,0.17,0.55,-3.42,-2.14,413,253,207,453,361,24
1452,-0.16,-0.97,0.17,0.55,-3.17,-2.32,416,250,211,456,363,24
1453,-0.15,-0.97,0.16,0.61,-2.26,-2.08,418,254,204,455,364,24
1454,-0.16,-0.97,0.16,1.46,-3.6,-2.93,417,255,207,453,367,24
1455,-0.16,-0.97,0.17,0.79,-3.36,-3.23,422,254,207,456,360,24
1456,-0.15,-0.97,0.17,0.61,-3.36,-2.99,415,255,210,450,364,24
1457,-0.15,-0.97,0.18,0.24,-2.2,-2.38,417,254,209,449,364,24
1458,-0.15,-0.97,0.16,-0.24,-2.44,-2.81,420,251,206,447,364,24
1459,-0.16,-0.96,0.16,-0.12,-3.11,-2.81,416,252,207,452,355,24
1460,-0.16,-0.98,0.16,-0.24,-3.05,-1.83,416,258,206,455,365,24
1461,-0.16,-0.97,0.16,0.98,-3.05,-2.32,416,258,208,452,365,24
1462,-0.16,-0.96,0.16,0.55,-2.87,-2.62,416,252,209,452,363,24
1463,-0.16,-0.97,0.17,0.67,-2.08,-1.95,416,255,207,455,364,24
1464,-0.15,-0.97,0.18,0.06,-3.54,-3.23,416,253,207,451,364,24
1465,-0.15,-0.97,0.18,0.61,-2.38,-3.11,412,252,208,454,362,24
1466,-0.15,-0.98,0.17,0.73,-2.99,-2.5,419,255,209,449,362,24
1467,-0.15,-0.97,0.18,-0.49,-2.69,-2.44,417,251,210,453,364,24
1468,-0.16,-0.99,0.17,1.1,-3.11,-2.26,415,257,208,456,363,24
1469,-0.15,-0.96,0.18,0.67,-4.15,-2.01,418,251,207,452,364,24
1470,-0.16,-0.96,0.17,0.85,-2.87,-2.08,415,253,203,452,363,24
1471,-0.15,-0.99,0.15,-1.04,-2.32,-2.93,415,255,206,456,363,24
1472,-0.14,-0.97,0.19,0.49,-2.14,-2.99,415,251,210,453,366,24
1473,-0.16,-0.96,0.18,-0.49,-2.44,-2.62,417,253,209,448,370,24
1474,-0.16,-0.97,0.17,-2.32,-2.44,-1.71,414,255,204,454,363,24
1475,-0.16,-0.97,0.17,-2.01,-0.18,-1.95,408,260,204,453,363,24
1476,-0.17,-0.98,0.15,-0.43,-2.87,-2.56,428,256,209,455,365,24
1477,-0.17,-0.97,0.14,0.12,-3.11,-2.75,415,253,206,449,360,24
1478,-0.15,-0.97,0.14,0.67,-3.6,-3.23,416,257,209,450,363,24
1479,-0.15,-0.97,0.16,-0.18,-2.62,-3.36,417,256,208,455,361,24
1480,-0.12,-1.0,0.19,5.37,-0.73,-0.79,413,254,206,452,363,24
1481,-0.14,-0.97,0.18,-1.95,-2.62,-2.69,415,257,209,455,367,24
1482,-0.15,-0.96,0.17,-0.73,-2.75,-4.21,415,254,209,446,364,24
1483,-0.17,-0.97,0.18,1.04,-3.36,-2.26,416,254,208,453,363,24
1484,-0.15,-0.97,0.18,4.7,-4.15,-2.2,416,257,207,446,361,24
1485,-0.12,-0.97,0.26,6.96,-2.56,-0.06,417,255,206,450,363,24
1486,-0.14,-0.96,0.24,0.31,-1.95,-2.14,417,254,207,463,363,24
1487,-0.17,-0.97,0.25,0.67,-2.5,-1.65,416,257,208,456,361,24
1488,-0.13,-0.98,0.23,-5.55,-2.69,-5.07,418,255,204,453,361,24
1489,-0.15,-0.95,0.19,-0.12,-3.42,-1.46,434,255,208,456,359,24
1490,-0.15,-0.97,0.23,-0.98,-4.09,-3.11,418,256,205,449,364,24
1491,-0.14,-0.97,0.22,0.37,-4.64,-4.09,417,256,207,453,364,24
1492,-0.15,-0.97,0.19,-5.43,-6.1,-0.12,417,255,208,453,365,24
1493,-0.15,-0.97,0.21,2.08,-2.32,-3.11,421,254,209,448,363,24
1494,-0.16,-0.97,0.2,0.31,-4.21,-2.81,415,257,203,458,364,24
1495,-0.13,-0.97,0.17,-0.06,-3.78,-2.93,417,259,204,457,359,24
1496,-0.13,-0.96,0.18,-0.49,-3.05,-1.22,423,259,205,453,360,24
1497,-0.15,-0.97,0.17,-1.65,-2.5,-2.56,414,259,207,458,363,24
1498,-0.15,-0.97,0.16,-1.28,-3.3,-2.38,414,257,205,450,361,24
1499,-0.17,-0.97,0.15,0.61,-3.11,-2.75,411,254,208,456,363,24
1500,-0.16,-0.97,0.16,0.73,-3.05,-2.5,414,259,207,453,359,24
1501,-0.15,-0.97,0.15,0.49,-2.75,-3.11,417,255,204,453,360,24
1502,-0.15,-0.97,0.16,1.65,-3.6,-2.81,417,258,210,454,363,24
1503,-0.15,-0.98,0.17,0.55,-3.17,-4.03,414,255,206,457,363,24
1504,-0.15,-0.97,0.18,-0.24,-1.95,-2.32,413,253,209,453,365,24
1505,-0.15,-0.96,0.17,0.18,-2.32,-1.71,415,256,207,456,363,24
1506,-0.16,-0.96,0.17,-0.18,-2.32,-2.56,416,255,206,455,363,24
1507,-0.16,-0.98,0.17,-0.06,-2.81,-2.5,414,258,207,453,363,24
1508,-0.17,-0.96,0.17,-0.92,-1.71,-2.62,414,259,205,453,363,24
1509,-0.15,-0.97,0.15,-1.22,-4.58,-1.04,415,258,208,453,363,24
1510,-0.16,-0.97,0.15,0.0,-3.36,-2.44,417,257,207,449,364,24
1511,-0.15,-0.97,0.17,2.81,-3.91,-3.05,417,258,207,453,361,24
1512,-0.15,-0.97,0.17,0.43,-3.48,-3.97,412,253,208,454,356,24
1513,-0.14,-0.98,0.17,-1.28,-2.26,-2.14,416,254,206,457,366,24
1514,-0.15,-0.97,0.16,15.56,-3.23,-2.38,413,257,208,457,366,24
1515,-0.15,-0.97,0.16,-1.34,-1.46,-3.36,414,254,210,457,362,24
1516,-0.16,-0.97,0.16,-0.12,-1.34,-2.69,424,256,208,465,363,24
1517,-0.14,-0.97,0.15,-0.73,-2.08,-2.69,412,260,204,454,363,24
1518,-0.17,-0.97,0.15,-0.18,-1.65,-2.69,413,258,209,454,365,24
1519,-0.16,-0.97,0.13,1.46,-3.72,-2.69,412,255,210,453,364,24
1520,-0.15,-0.97,0.15,1.65,-3.48,-3.11,415,256,209,449,361,24
1521,-0.14,-0.97,0.17,0.55,-3.48,-2.75,410,256,206,452,364,24
1522,-0.14,-0.97,0.16,-0.31,-2.08,-2.01,415,255,209,456,365,24
1523,-0.15,-0.97,0.15,0.06,-2.69,-2.14,414,255,207,449,363,24
1524,-0.15,-0.97,0.16,-2.62,-3.3,-2.01,412,259,208,454,362,24
1525,-0.15,-0.97,0.14,-0.18,-3.85,-2.38,412,257,209,456,363,24
1526,-0.15,-0.97,0.15,0.37,-3.36,-3.11,413,259,210,458,363,24
1527,-0.15,-0.97,0.15,2.26,-1.71,-5.07,413,257,207,454,363,24
1528,-0.15,-0.97,0.16,1.04,-4.76,-2.99,411,257,206,454,364,24
1529,-0.15,-0.97,0.17,-0.12,-2.38,-2.44,414,257,206,458,363,24
1530,-0.14,-0.97,0.18,0.24,-2.87,-1.77,414,259,210,454,366,24
1531,-0.16,-0.97,0.17,0.18,-2.5,-1.95,413,258,210,457,365,24
1532,-0.15,-0.97,0.17,-0.37,-2.93,-2.56,416,256,209,456,365,24
1533,-0.16,-0.97,0.16,-0.43,-2.56,-2.81,414,260,210,455,366,24
1534,-0.16,-0.97,0.16,0.55,-2.93,-2.69,413,259,207,453,362,24
1535,-0.16,-0.97,0.17,0.67,-2.99,-3.3,413,256,205,457,364,24
1536,-0.15,-0.97,0.18,1.83,-4.03,-2.93,414,256,210,458,363,24
1537,-0.15,-0.97,0.18,0.92,-2.5,-1.71,414,258,205,452,364,24
1538,-0.15,-0.97,0.17,0.43,-2.62,-1.77,410,256,209,451,365,24
1539,-0.14,-0.97,0.16,-0.55,-2.56,-2.62,410,256,203,454,361,24
1540,-0.15,-0.97,0.15,-0.31,-3.17,-2.08,416,260,207,458,375,24
1541,-0.15,-0.96,0.14,0.0,-2.62,-3.36,413,257,207,453,362,24
1542,-0.16,-0.97,0.16,0.31,-3.3,-2.99,415,259,211,461,364,24
1543,-0.16,-0.97,0.18,1.4,-3.54,-2.38,414,255,211,457,362,24
1544,-0.15,-0.97,0.18,0.85,-2.93,-3.48,413,259,209,465,365,24
1545,-0.15,-0.97,0.17,0.73,-3.17,-2.26,413,260,210,453,366,24
1546,-0.16,-0.97,0.16,0.18,-2.87,-1.59,421,254,207,453,360,24
1547,-0.16,-0.97,0.16,0.73,-3.48,-2.14,414,258,210,449,366,24
1548,-0.17,-0.97,0.16,0.06,-3.05,-1.89,414,256,211,451,363,24
1549,-0.16,-0.97,0.15,0.37,-2.69,-2.44,415,255,210,450,366,24
1550,-0.16,-0.97,0.16,0.61,-3.23,-2.5,410,257,210,452,365,24
1551,-0.16,-0.97,0.16,0.92,-3.36,-2.69,415,259,207,450,365,24
1552,-0.16,-0.97,0.17,1.04,-3.3,-3.42,412,255,210,449,365,24
1553,-0.15,-0.97,0.17,-0.49,-3.42,-2.56,413,257,212,452,365,24
1554,-0.16,-0.97,0.18,0.31,-2.26,-2.62,413,259,206,454,366,24
1555,-0.15,-0.97,0.16,2.26,-2.56,-2.87,413,259,211,452,367,24
1556,-0.16,-0.97,0.17,1.4,-2.81,-2.26,413,260,210,450,362,24
1557,-0.15,-0.97,0.18,2.87,-4.09,-1.1,411,258,207,454,362,24
1558,-0.17,-0.97,0.17,1.77,-2.44,-1.53,412,257,205,458,364,24
1559,-0.15,-0.98,0.15,-0.18,-2.62,-4.21,413,255,208,455,364,24
1560,-0.15,-0.98,0.18,-0.79,-2.62,-3.97,417,257,210,455,365,24
1561,-0.16,-0.97,0.19,-1.53,-1.1,-3.23,414,259,210,454,368,24
1562,-0.17,-0.96,0.16,-0.18,-3.11,-2.5,436,257,207,457,360,24
1563,-0.16,-0.98,0.16,0.92,-3.78,-2.01,412,257,205,455,366,24
1564,-0.14,-0.96,0.15,1.1,-2.01,-2.99,413,260,206,455,365,24
1565,-0.14,-0.97,0.16,1.95,-2.62,-2.56,413,253,206,456,366,24
1566,-0.17,-0.97,0.19,1.83,-2.87,-1.65,414,260,210,456,363,24
1567,-0.16,-0.97,0.16,0.31,-2.56,-2.26,425,257,209,455,361,24
1568,-0.16,-0.97,0.17,0.98,-2.5,-2.81,412,259,210,450,360,24
1569,-0.16,-0.97,0.18,1.46,-4.64,-2.32,411,257,211,453,366,24
1570,-0.16,-0.97,0.17,2.44,-4.09,-2.93,414,258,210,458,364,24
1571,-0.16,-0.97,0.17,1.16,-3.3,-2.62,408,258,206,460,366,24
1572,-0.15,-0.97,0.17,-0.43,-1.83,-2.62,412,257,211,454,364,24
1573,-0.14,-0.97,0.15,-4.88,-2.5,-2.62,412,261,205,454,362,24
1574,-0.17,-0.97,0.17,-1.22,-3.17,-1.34,410,260,209,454,365,24
1575,-0.18,-0.97,0.15,1.71,-2.38,-3.11,413,257,212,453,365,24
1576,-0.15,-0.97,0.15,-2.69,-2.75,-2.38,410,257,209,454,363,24
1577,-0.15,-0.97,0.14,1.16,-2.56,-2.01,413,260,207,459,365,24
1578,-0.16,-0.97,0.16,0.92,-3.11,-2.38,412,256,207,458,360,24
1579,-0.16,-0.97,0.17,1.16,-3.42,-3.3,409,257,206,449,361,24
1580,-0.15,-0.96,0.16,0.49,-1.71,-3.17,412,259,207,453,364,24
1581,-0.16,-0.97,0.16,2.69,-2.32,-1.95,408,259,207,453,366,24
1582,-0.18,-0.98,0.21,2.2,8.24,-4.82,412,260,210,454,363,24
1583,-0.12,-0.98,0.14,-8.48,-1.4,-3.17,411,258,209,458,362,24
1584,-0.19,-0.96,0.12,6.35,1.71,-4.82,413,261,207,446,363,24
1585,-0.14,-0.98,0.14,3.72,0.37,-3.72,416,257,204,456,361,24
1586,-0.15,-0.97,0.14,-2.38,-4.46,-2.32,415,258,210,457,363,24
1587,-0.15,-0.98,0.12,0.67,-3.78,-3.54,413,262,207,457,363,24
1588,-0.14,-0.98,0.12,0.49,-3.05,-1.83,413,257,206,456,361,24
1589,-0.15,-0.98,0.13,-0.61,-3.3,-2.62,415,260,209,457,370,24
1590,-0.15,-0.98,0.12,1.34,-3.17,-2.38,413,264,211,457,362,24
1591,-0.13,-0.99,0.1,-0.67,-3.23,-3.17,413,260,211,454,361,24
1592,-0.14,-0.97,0.11,-0.18,-3.91,-1.89,415,259,205,451,361,24
1593,-0.16,-0.97,0.13,0.98,-2.32,-2.08,414,260,207,458,364,24
1594,-0.15,-0.99,0.12,1.1,-2.81,-1.46,411,258,208,454,363,24
1595,-0.15,-0.99,0.12,0.79,-3.11,-3.3,413,259,209,458,362,24
1596,-0.15,-0.98,0.13,1.16,-2.44,-2.93,412,258,208,457,364,24
1597,-0.29,-0.89,0.12,-3.36,-22.03,-9.22,439,295,233,473,333,24
1598,-0.29,-1.01,0.09,-0.31,0.0,-7.39,439,293,233,464,332,24
1599,-0.2,-1.01,0.08,14.71,-15.01,-2.99,441,295,235,459,333,24
1600,-0.23,-0.97,0.07,-22.34,-3.3,1.46,440,300,232,461,335,24
1601,-0.11,-0.99,0.17,11.54,0.55,0.18,451,360,257,464,360,24
1602,-0.66,-1.06,0.09,-128.54,80.87,20.75,457,355,244,458,345,24
1603,-0.38,-0.9,-0.04,49.68,27.4,-3.11,453,346,242,460,351,24
1604,-0.3,-0.95,0.12,-17.46,17.33,-23.38,454,348,245,463,352,24
1605,-0.28,-1.08,-0.02,-50.17,12.7,-18.19,452,342,241,450,334,24
1606,-0.29,-0.96,0.01,7.87,-7.26,-14.34,448,317,234,452,347,24
1607,-0.3,-1.01,0.04,14.89,19.59,3.85,445,306,238,451,343,24
1608,-0.29,-0.92,-0.04,2.44,6.04,-10.01,445,312,241,452,346,24
1609,-0.25,-0.84,-0.1,-12.82,-20.69,0.79,448,312,241,457,351,24
1610,-0.45,-0.91,-0.03,10.01,-27.77,16.3,444,314,241,456,353,24
1611,-0.38,-0.93,0.1,11.35,1.65,-8.79,444,315,240,461,354,24
1612,-0.26,-0.93,0.04,12.08,-7.57,-13.61,447,314,241,461,355,24
1613,-0.3,-0.94,0.09,-3.85,-1.46,-3.72,442,317,239,459,353,24
1614,-0.29,-0.97,0.12,0.43,1.4,-4.82,446,316,238,460,352,24
1615,-0.28,-0.94,0.07,0.43,-2.26,-2.81,446,318,237,461,354,24
1616,-0.3,-0.96,0.12,7.57,-3.85,-2.14,443,318,238,465,357,24
1617,-0.28,-0.93,0.09,-0.31,-1.65,-2.62,442,322,236,463,355,24
1618,-0.26,-0.94,0.04,3.54,-0.31,-1.28,450,319,239,457,355,24
1619,-0.29,-0.93,0.05,-0.49,-0.67,-3.97,447,319,235,460,352,24
1620,-0.3,-0.96,0.06,0.0,-3.17,-3.23,449,322,240,460,356,24
1621,-0.29,-0.95,0.09,0.79,-1.1,-1.53,446,316,239,463,360,24
1622,-0.3,-0.94,0.08,-0.43,-1.28,-2.08,448,320,241,457,358,24
1623,-0.3,-0.95,0.09,1.53,-2.99,-1.95,445,319,241,455,359,24
1624,-0.3,-0.94,0.09,0.43,-3.42,-2.75,445,320,241,462,358,24
1625,-0.3,-0.96,0.13,3.66,-4.52,-1.77,449,323,240,460,357,24
1626,-0.3,-0.94,0.11,2.01,-2.62,-3.05,446,321,238,462,358,24
1627,-0.3,-0.94,0.11,-0.43,-2.2,-2.5,444,321,238,460,360,24
1628,-0.29,-0.95,0.08,-3.48,-1.95,-2.69,449,323,242,464,360,24
1629,-0.33,-0.95,0.13,-3.72,-3.3,-6.41,445,323,242,464,359,24
1630,-0.3,-1.0,0.11,3.36,-0.55,-1.83,442,330,236,460,364,24
1631,-0.27,-0.99,0.15,-1.46,-6.04,-7.69,444,328,242,455,382,24
1632,-0.23,-0.95,0.04,-1.34,1.04,-1.1,438,306,234,456,357,24
1633,-0.32,-0.97,0.02,-2.75,4.27,39.06,442,311,238,458,354,24
1634,-0.39,-0.88,0.07,3.97,0.79,0.92,444,308,235,454,360,24
1635,-0.45,-0.89,0.01,6.65,5.25,-10.31,443,312,234,456,359,24
1636,-0.31,-1.01,0.21,22.34,3.36,-17.15,445,312,236,459,359,24
1637,-0.31,-0.94,0.16,4.39,-7.57,-0.73,444,314,237,457,362,24
1638,-0.31,-0.93,0.11,-1.71,-2.26,-3.11,442,313,231,461,354,24
1639,-0.29,-0.94,0.12,-4.7,-0.73,-2.81,440,314,230,463,356,24
1640,-0.28,-0.95,0.08,4.27,-7.45,-3.17,442,314,232,459,357,24
1641,-0.29,-0.96,0.11,-2.14,-5.07,-2.14,444,314,232,460,356,24
1642,-0.28,-0.95,0.08,2.69,-5.62,-3.17,439,314,235,456,358,24
1643,-0.28,-0.94,0.11,-10.19,4.39,-4.58,461,315,233,454,356,24
1644,-0.28,-0.95,0.08,1.4,-2.44,-2.38,441,321,235,458,361,24
1645,-0.27,-0.96,0.12,-3.23,-4.82,-4.88,441,320,232,456,360,24
1646,-0.28,-0.96,0.13,-4.94,0.37,-3.78,443,317,233,460,358,24
1647,-0.27,-0.96,0.13,0.98,-3.36,-2.32,443,318,234,460,355,24
1648,-0.28,-0.96,0.11,-0.18,-2.5,-2.75,442,318,233,460,359,24
1649,-0.26,-0.95,0.09,-2.87,2.5,-4.27,453,322,235,459,358,24
1650,-0.28,-0.96,0.09,-0.43,-3.17,-3.72,441,320,232,460,361,24
1651,-0.27,-0.96,0.08,2.01,-1.77,-2.44,441,319,235,459,360,24
1652,-0.27,-0.96,0.06,-2.44,0.0,-2.75,443,322,234,464,361,24
1653,-0.27,-0.96,0.04,-0.18,-3.72,-3.11,443,320,236,459,358,24
1654,-0.26,-0.96,0.04,2.69,-4.27,-2.44,476,319,235,459,360,24
1655,-0.27,-0.95,0.05,1.28,-2.38,-2.44,439,318,237,455,359,24
1656,-0.26,-0.94,0.02,0.49,-3.05,-3.17,443,330,237,459,356,24
1657,-0.27,-0.95,0.04,-0.31,-3.42,-2.81,445,322,236,462,359,24
1658,-0.26,-0.96,0.07,-3.97,-1.89,-3.6,443,323,236,462,358,24
1659,-0.28,-0.93,-0.09,-3.36,-3.36,-1.65,441,321,234,458,357,24
1660,-0.27,-0.95,-0.02,0.61,-3.48,-2.69,441,321,237,458,357,24
1661,-0.27,-0.96,-0.03,1.34,-2.99,-2.99,441,320,234,457,360,24
1662,-0.27,-0.95,-0.02,0.73,-3.23,-2.81,441,318,235,461,357,24
1663,-0.27,-0.96,-0.01,1.04,-4.09,-2.14,440,320,235,458,362,24
1664,-0.27,-0.95,-0.03,-1.28,-2.26,-1.77,439,324,234,460,357,24
1665,-0.27,-0.94,-0.03,0.37,-1.95,-2.69,448,320,235,460,361,24
1666,-0.27,-0.94,-0.04,2.99,-3.17,-1.89,437,321,234,461,360,24
1667,-0.27,-0.96,-0.01,1.59,-3.17,-2.81,434,323,232,460,360,24
1668,-0.31,-0.94,-0.03,-0.85,-12.21,-5.74,440,317,236,461,358,24
1669,-0.25,-0.95,-0.03,1.95,-11.96,-8.3,437,321,233,461,360,24
1670,-0.24,-0.95,-0.03,-3.97,-16.24,-3.72,439,322,238,454,353,24
1671,-0.24,-0.95,0.01,-0.24,-3.6,-4.58,440,321,237,455,357,24
1672,-0.23,-0.96,-0.06,-2.38,3.36,-16.42,441,324,235,458,358,24
1673,-0.2,-0.97,0.04,-0.61,-0.43,-3.17,440,325,234,460,356,24
1674,-0.16,-0.93,-0.03,-0.55,4.15,-6.04,439,321,234,456,360,24
1675,-0.22,-1.0,0.03,1.4,2.44,-2.87,445,329,237,464,359,24
1676,-0.14,-0.98,0.0,5.25,1.95,-5.25,441,321,234,464,361,24
1677,-0.24,-0.99,0.08,0.37,4.52,-1.59,440,322,233,460,356,24
1678,-0.19,-0.97,-0.0,3.97,-0.79,-1.71,440,321,235,461,359,24
1679,-0.23,-0.96,0.07,-0.55,-3.54,-0.67,441,322,238,465,358,24
1680,-0.22,-0.97,0.05,0.61,-2.75,-2.26,442,324,235,463,361,24
1681,-0.21,-0.96,0.06,1.95,-1.77,-2.32,441,322,238,462,358,24
1682,-0.21,-0.97,0.07,1.89,-1.71,-2.99,440,326,238,460,360,24
1683,-0.2,-0.97,0.07,2.5,-2.81,-2.69,441,318,234,457,355,24
1684,-0.21,-0.97,0.07,0.49,-3.17,-2.75,457,324,233,465,359,24
1685,-0.2,-0.97,0.08,1.65,-2.56,-2.62,439,323,236,461,361,24
1686,-0.19,-0.97,0.07,-0.18,-2.32,-2.75,441,324,236,461,360,24
1687,-0.2,-0.98,0.09,-0.06,-3.48,-2.01,440,321,237,460,360,24
1688,-0.18,-0.97,0.06,-5.37,-3.42,1.65,443,325,235,462,358,24
1689,-0.23,-0.97,0.07,1.22,-7.14,0.24,441,322,234,462,362,24
1690,-0.22,-0.96,0.12,-8.85,-8.18,-2.99,440,322,233,463,359,24
1691,-0.2,-0.97,0.1,5.25,-7.81,1.59,439,325,236,455,358,24
1692,-0.19,-0.97,0.09,1.65,-3.11,1.22,442,322,234,456,361,24
1693,-0.19,-0.97,0.11,1.77,-2.32,-3.36,442,324,234,460,361,24
1694,-0.22,-0.97,0.11,-2.93,0.73,-6.96,442,322,234,462,360,24
1695,-0.19,-0.98,0.1,0.06,-2.5,-1.65,439,325,236,458,358,24
1696,-0.2,-0.97,0.09,2.14,-3.97,-2.44,443,322,241,466,356,24
1697,-0.18,-0.98,0.1,2.26,-4.09,-2.32,444,322,237,462,357,24
1698,-0.2,-0.97,0.1,0.67,-4.15,-1.83,440,323,238,463,358,24
1699,-0.2,-0.96,0.11,1.34,-3.11,-2.62,439,323,238,461,356,24
1700,-0.19,-0.97,0.1,0.67,-5.13,-4.21,438,322,247,464,355,24
1701,-0.2,-0.97,0.12,-0.67,-2.01,-3.05,437,324,238,464,358,24
1702,-0.17,-0.98,0.08,-0.43,-5.07,-3.05,439,322,239,460,358,24
1703,-0.21,-0.96,0.11,0.79,-2.69,-3.54,440,322,237,462,358,24
1704,-0.19,-0.97,0.11,-0.49,-3.48,-3.48,442,322,236,461,354,24
1705,-0.21,-0.96,0.12,-1.59,-0.55,-7.2,452,323,235,460,353,24
1706,-0.16,-0.96,0.06,-2.69,-2.99,-1.65,440,323,237,458,355,24
1707,-0.17,-0.99,0.08,0.06,-1.89,-2.81,441,325,237,463,358,24
1708,-0.18,-0.99,0.08,0.31,-3.54,-2.69,439,324,232,463,355,24
1709,-0.19,-0.96,0.09,-0.79,-2.01,-2.01,439,324,238,462,356,24
1710,-0.19,-0.97,0.1,0.43,-4.39,-0.12,437,322,235,457,358,24
1711,-0.2,-0.98,0.09,0.67,-3.11,-3.11,442,323,233,464,358,24
1712,-0.19,-0.98,0.11,0.0,-3.11,-2.38,439,323,236,461,356,24
1713,-0.21,-0.98,0.1,-3.36,-2.38,-3.42,439,325,234,461,357,24
1714,-0.21,-0.98,0.09,0.18,-6.16,-3.72,439,324,234,463,351,24
1715,-0.12,-0.97,0.05,0.79,-0.43,-9.46,440,324,236,472,356,24
1716,-0.15,-1.0,0.12,-1.89,-6.35,-1.53,439,327,232,465,353,24
1717,-0.19,-0.99,0.15,6.04,-4.15,-1.89,441,330,236,465,354,24
1718,-0.15,-0.98,0.12,2.75,0.37,-3.05,442,326,237,465,354,24
1719,-0.15,-0.99,0.14,-0.61,-1.89,-0.67,442,322,234,462,354,24
1720,-0.19,-0.98,0.14,-1.95,-5.74,-2.44,441,326,237,466,354,24
1721,-0.18,-0.97,0.14,-1.4,-1.89,-3.36,443,325,233,466,354,24
1722,-0.16,-0.98,0.12,1.59,-3.66,-2.93,440,328,236,464,358,24
1723,-0.12,-0.98,0.1,3.23,-3.6,0.85,441,329,236,467,353,24
1724,-0.11,-0.87,0.04,4.76,-7.81,-3.42,439,326,237,466,354,24
1725,-0.18,-0.95,0.08,-3.6,14.28,-10.31,442,326,238,458,354,24
1726,-0.2,-0.97,0.13,3.78,4.64,-3.85,440,329,236,465,351,24
1727,-0.21,-0.97,0.12,0.0,-1.28,-2.87,437,326,240,461,354,24
1728,-0.21,-0.97,0.12,2.38,-0.61,-2.99,440,327,238,466,353,24
1729,-0.22,-0.96,0.12,0.12,-3.66,-2.08,439,331,236,459,355,24
1730,-0.21,-0.96,0.13,0.67,-2.26,-3.48,442,330,238,471,355,24
1731,-0.18,-0.96,0.1,0.06,-1.77,-3.05,440,329,237,465,357,24
1732,-0.2,-0.96,0.11,-4.76,1.04,-5.07,440,324,238,462,355,24
1733,-0.19,-0.98,0.12,3.6,-2.38,-2.75,438,329,244,462,356,24
1734,-0.19,-0.96,0.13,-0.24,0.12,-6.04,442,327,239,462,355,24
1735,-0.21,-0.96,0.12,-1.77,-9.09,3.48,429,326,238,465,353,24
1736,-0.22,-0.97,0.16,2.44,-1.46,-1.59,441,329,238,461,357,24
1737,-0.21,-0.97,0.13,4.27,-2.5,-3.05,440,327,238,462,350,24
1738,-0.19,-0.97,0.14,0.24,0.0,-4.58,462,328,236,460,356,24
1739,-0.2,-0.97,0.15,-0.18,-3.36,-2.38,438,328,236,460,355,24
1740,-0.2,-0.96,0.13,0.12,-2.32,-2.81,440,329,236,461,358,24
1741,-0.19,-0.97,0.14,0.06,-2.62,-2.56,440,331,236,464,355,24
1742,-0.2,-0.98,0.17,-3.85,-0.37,-3.72,436,329,233,462,356,24
1743,-0.19,-0.99,0.12,0.24,2.87,-4.64,441,328,234,463,350,24
1744,-0.23,-0.98,0.09,-7.32,-0.37,5.19,439,292,231,459,327,24
1745,-0.21,-0.96,0.04,-3.05,0.85,-4.58,445,298,232,455,325,24
1746,-0.22,-0.97,0.06,0.61,-1.95,-2.62,441,299,237,457,334,24
1747,-0.21,-0.97,0.06,0.61,-2.01,-2.56,440,306,240,451,336,24
1748,-0.21,-0.98,0.08,0.06,-4.03,-3.3,439,305,233,456,333,24
1749,-0.2,-0.98,0.05,1.53,-1.46,-2.87,439,307,234,454,347,24
1750,-0.2,-0.97,0.05,3.91,-4.21,-2.44,439,308,236,464,340,24
1751,-0.21,-0.97,0.07,0.0,-4.09,-2.32,439,308,232,460,339,24
1752,-0.21,-0.97,0.06,2.08,-3.3,-2.32,440,309,237,460,339,24
1753,-0.22,-0.97,0.06,-1.4,-1.59,-1.65,437,313,238,460,340,24
1754,-0.22,-0.96,0.05,0.67,-2.75,-3.54,440,310,237,460,337,24
1755,-0.21,-0.97,0.05,0.12,-3.91,-1.46,440,310,238,461,339,24
1756,-0.21,-0.95,0.02,-1.83,-7.63,-2.5,440,325,237,460,338,24
1757,-0.23,-0.97,0.04,-0.79,-2.26,-2.75,442,308,237,454,340,24
1758,-0.21,-0.97,0.03,0.43,-6.29,-2.08,440,311,238,460,339,24
1759,-0.18,-1.0,0.01,-12.51,-51.64,-4.58,439,313,240,457,340,24
1760,-0.19,-0.97,-0.04,-6.59,-18.19,-1.59,443,315,243,457,330,24
1761,-0.22,-0.99,-0.1,3.85,6.35,-5.92,440,313,236,458,337,24
1762,-0.24,-0.95,-0.07,8.85,-6.04,-2.5,440,314,237,460,341,24
1763,-0.24,-0.97,-0.04,4.76,-0.67,-4.58,439,311,239,460,343,24
1764,-0.25,-0.97,0.0,-0.24,-3.97,-1.95,435,315,236,462,344,24
1765,-0.24,-0.96,-0.02,-3.36,-0.85,-5.31,435,318,234,464,341,24
1766,-0.22,-0.98,-0.03,-0.49,-6.23,-2.56,436,316,239,459,342,24
1767,-0.23,-0.97,-0.03,-4.94,-2.2,-4.15,436,318,241,459,344,24
1768,-0.22,-0.98,-0.04,0.79,-1.65,-3.6,435,316,238,459,344,24
1769,-0.23,-0.97,-0.03,-3.05,-0.49,-4.27,433,314,237,457,345,24
1770,-0.21,-0.97,-0.07,0.55,-4.88,-3.72,436,318,237,459,343,24
1771,-0.22,-0.98,-0.05,-1.1,-6.84,-1.71,438,320,238,464,345,24
1772,-0.22,-0.97,-0.07,0.24,-2.44,-1.77,431,315,235,459,345,24
1773,-0.23,-0.96,-0.09,-6.16,0.49,-2.01,432,318,236,460,342,24
1774,-0.25,-0.95,-0.08,1.65,-6.1,-3.42,439,315,237,462,344,24
1775,-0.23,-0.96,-0.08,-0.43,-3.85,-5.13,436,317,235,463,346,24
1776,-0.22,-0.99,-0.06,4.03,-0.55,-5.37,434,316,238,460,339,24
1777,-0.18,-0.97,-0.09,-2.56,3.05,-3.97,437,314,238,461,340,24
1778,-0.19,-0.96,-0.1,0.18,-1.83,-3.05,435,315,237,465,338,24
1779,-0.19,-0.97,-0.09,0.49,-3.36,-2.69,439,314,235,463,338,24
1780,-0.19,-0.97,-0.09,3.66,-4.82,-2.14,437,321,238,460,341,24
1781,-0.2,-0.99,-0.07,-21.0,0.24,-6.53,437,315,236,456,341,24
1782,-0.19,-0.97,-0.12,-1.95,-2.81,-2.44,439,316,239,461,342,24
1783,-0.18,-0.96,-0.14,1.89,-3.05,-2.93,437,316,238,459,340,24
1784,-0.18,-0.96,-0.13,1.22,-2.32,-2.5,438,318,235,458,341,24
1785,-0.18,-0.97,-0.13,3.48,-4.64,-1.53,437,316,240,459,341,24
1786,-0.18,-0.97,-0.12,-0.73,-4.09,-1.95,434,317,238,472,341,24
1787,-0.19,-0.97,-0.14,1.28,-3.48,-1.34,436,313,239,460,341,24
1788,-0.17,-0.97,-0.11,0.98,-2.99,-2.62,440,318,238,460,340,24
1789,-0.21,-0.99,-0.09,0.18,-5.74,-2.75,437,320,238,460,343,24
1790,-0.19,-0.97,-0.1,-1.16,-3.42,-2.87,454,316,241,455,341,24
1791,-0.19,-0.97,-0.11,0.31,-2.87,-3.17,441,317,237,461,342,24
1792,-0.19,-0.97,-0.1,0.49,-2.01,-2.81,440,317,237,460,338,24
1793,-0.19,-0.98,-0.08,-0.92,-1.4,-3.48,439,316,238,460,343,24
1794,-0.19,-0.97,-0.08,-0.31,-1.59,-3.11,439,317,240,460,340,24
1795,-0.2,-0.97,-0.1,2.08,-2.56,-2.56,440,317,240,460,343,24
1796,-0.17,-0.99,-0.1,1.46,-2.75,0.73,438,316,240,468,348,24
1797,-0.17,-0.99,-0.12,0.43,1.77,-1.89,438,319,236,465,341,24
1798,-0.21,-1.01,-0.06,1.89,-10.19,1.83,437,318,240,459,340,24
1799,-0.21,-0.97,-0.08,3.91,-1.65,-3.11,438,319,237,463,341,24
1800,-0.17,-0.97,-0.09,7.57,-8.18,0.67,452,318,235,459,341,24
1801,-0.22,-0.97,-0.06,1.77,-2.14,-4.88,437,320,248,461,344,24
1802,-0.19,-0.99,-0.06,1.1,-2.99,-2.44,436,324,238,465,343,24
1803,-0.2,-0.96,-0.1,0.24,-1.53,-2.01,437,322,238,465,340,24
1804,-0.2,-0.96,-0.08,0.18,-3.3,-1.28,436,318,235,457,344,24
1805,-0.21,-0.96,-0.09,-0.24,-2.99,-1.71,441,322,241,465,342,24
1806,-0.22,-0.96,-0.09,1.59,-2.38,-1.46,439,320,238,460,341,24
1807,-0.21,-0.97,-0.09,1.34,-3.54,-2.5,441,328,239,462,344,24
1808,-0.21,-0.97,-0.08,-1.28,-2.56,-1.95,438,319,238,456,346,24
1809,-0.21,-0.97,-0.09,2.14,-2.01,-2.75,455,320,239,462,343,24
1810,-0.21,-0.96,-0.09,1.04,-2.87,-2.81,433,322,236,461,342,24
1811,-0.21,-0.96,-0.09,1.34,-3.78,-2.26,439,321,238,461,343,24
1812,-0.2,-0.97,-0.07,0.98,-3.23,-2.87,441,322,236,461,345,24
1813,-0.21,-0.97,-0.08,0.24,-3.66,-2.69,439,323,240,463,346,24
1814,-0.2,-0.97,-0.08,1.34,-2.87,-2.69,439,322,239,466,344,24
1815,-0.2,-0.97,-0.07,0.79,-2.87,-2.75,438,323,237,466,345,24
1816,-0.21,-0.97,-0.07,0.55,-2.32,-2.38,436,322,241,465,340,24
1817,-0.21,-0.97,-0.07,-0.06,-2.69,-2.44,439,320,239,462,345,24
1818,-0.2,-0.97,-0.06,0.61,-2.56,-2.5,439,320,238,462,347,24
1819,-0.2,-0.97,-0.07,0.49,-2.69,-2.75,438,321,236,466,344,24
1820,-0.21,-0.98,-0.06,-0.67,-3.23,-2.87,438,320,236,462,348,24
1821,-0.2,-0.97,-0.07,-0.12,-2.62,-2.5,438,321,240,462,344,24
1822,-0.2,-0.97,-0.07,-0.18,-2.44,-3.36,439,320,240,462,342,24
1823,-0.2,-0.97,-0.07,0.18,-2.69,-2.44,439,321,240,463,344,24
1824,-0.2,-0.98,-0.07,0.67,-3.23,-2.69,435,317,241,463,345,24
1825,-0.21,-0.97,-0.07,-1.4,-2.81,-1.65,438,322,238,466,344,24
1826,-0.21,-0.97,-0.07,-1.04,-2.69,-2.2,438,322,241,461,342,24
1827,-0.21,-0.97,-0.08,0.43,-2.56,-2.75,438,322,240,458,343,24
1828,-0.21,-0.97,-0.07,0.37,-3.05,-3.17,437,323,240,467,345,24
1829,-0.21,-0.97,-0.07,0.61,-2.62,-2.69,444,323,237,462,345,24
1830,-0.2,-0.96,-0.08,-0.06,-3.3,-2.56,438,322,239,466,345,24
1831,-0.21,-0.97,-0.08,2.2,-2.5,-2.93,441,323,237,465,345,24
1832,-0.21,-0.97,-0.07,1.4,-3.11,-3.11,435,324,238,461,344,24
1833,-0.21,-0.97,-0.07,0.61,-3.11,-2.93,437,323,237,465,345,24
1834,-0.2,-0.97,-0.07,-0.67,-2.56,-3.17,439,321,240,458,346,24
1835,-0.2,-0.97,-0.07,0.61,-2.38,-2.75,438,321,237,464,345,24
1836,-0.2,-0.97,-0.06,-0.18,-1.4,-2.87,439,322,241,466,345,24
1837,-0.2,-0.97,-0.08,0.67,-2.69,-3.17,441,325,241,466,347,24
1838,-0.19,-0.97,-0.07,0.31,-3.48,-2.62,437,323,237,458,347,24
1839,-0.2,-0.98,-0.07,-0.67,-2.69,-2.69,437,324,239,465,346,24
1840,-0.19,-0.98,-0.07,-0.55,-3.54,-2.5,440,322,240,461,346,24
1841,-0.19,-0.97,-0.08,0.85,-2.69,-1.46,439,322,238,463,346,24
1842,-0.21,-0.96,-0.08,-0.31,-3.48,-1.4,439,323,241,462,346,24
1843,-0.22,-0.97,-0.07,-0.85,-2.69,-3.11,440,321,252,465,347,24
1844,-0.2,-0.97,-0.06,0.98,-3.48,-2.75,438,323,244,460,345,24
1845,-0.2,-0.97,-0.08,0.55,-2.99,-2.87,438,321,239,457,346,24
1846,-0.19,-0.96,-0.08,0.92,-2.62,-2.56,435,318,238,462,345,24
1847,-0.2,-0.97,-0.08,0.0,-1.53,-2.56,438,322,239,464,346,24
1848,-0.21,-0.98,-0.08,0.79,1.65,-3.78,453,323,239,467,343,24
1849,-0.18,-0.98,-0.09,1.95,-1.89,-1.77,453,319,240,465,343,24
1850,-0.21,-0.97,-0.06,2.5,-5.37,-1.34,437,323,242,456,344,24
1851,-0.22,-0.92,-0.03,-6.1,-14.1,-0.31,469,323,238,464,345,24
1852,-0.23,-0.94,-0.04,-3.36,7.39,-5.62,438,322,239,459,345,24
1853,-0.22,-0.99,-0.08,0.79,-3.36,-3.42,438,319,237,476,344,24
1854,-0.23,-0.97,-0.04,-0.85,-0.85,-2.99,438,322,240,462,344,24
1855,-0.23,-0.96,-0.02,-0.12,-2.87,-2.5,438,323,239,462,344,24
1856,-0.21,-0.97,-0.04,1.46,-3.48,-1.22,437,329,239,457,343,24
1857,-0.22,-0.97,-0.04,-1.83,-3.11,-2.38,437,323,244,463,346,24
1858,-0.22,-0.97,-0.03,-1.28,-4.27,-2.26,438,321,239,462,347,24
1859,-0.23,-0.99,-0.02,-5.25,-3.78,-3.48,439,331,243,462,347,24
1860,-0.23,-0.96,-0.04,0.79,-4.27,-0.98,440,322,242,466,345,24
1861,-0.25,-0.96,-0.05,-0.73,-2.81,-2.2,438,323,242,466,344,24
1862,-0.22,-0.96,-0.05,-0.12,-3.42,-2.87,438,323,240,463,345,24
1863,-0.23,-0.97,-0.04,1.1,-3.3,-2.93,434,324,240,461,345,24
1864,-0.24,-0.98,-0.03,1.53,-4.46,0.12,438,326,239,465,344,24
1865,-0.23,-0.96,-0.06,1.16,-2.38,-2.93,440,321,241,461,345,24
1866,-0.23,-0.97,-0.05,-0.61,-2.01,-3.17,438,323,236,462,345,24
1867,-0.23,-0.96,-0.06,0.92,-2.81,-2.81,439,322,239,461,346,24
1868,-0.22,-0.97,-0.05,-0.18,-2.44,-2.99,441,323,237,462,342,24
1869,-0.22,-0.97,-0.05,-1.4,-1.95,-3.23,439,322,239,461,343,24
1870,-0.25,-0.97,-0.06,1.34,-2.01,-2.38,436,320,242,461,345,24
1871,-0.22,-0.97,-0.06,-1.89,-2.56,-1.89,437,322,240,462,347,24
1872,-0.23,-0.96,-0.08,-0.18,-4.46,-1.53,439,322,241,462,344,24
1873,-0.23,-0.96,-0.07,0.37,-2.14,-3.17,437,325,239,465,346,24
1874,-0.21,-0.96,-0.05,0.0,-1.83,-2.56,441,321,239,472,348,24
1875,-0.22,-0.98,-0.05,0.24,-3.05,-2.75,445,322,239,464,347,24
1876,-0.22,-0.97,-0.07,1.65,-1.71,-2.62,445,325,239,462,344,24
1877,-0.22,-0.97,-0.06,-0.55,-2.69,-2.62,439,324,239,458,347,24
1878,-0.21,-0.97,-0.06,-0.67,-2.87,-2.87,442,321,241,465,343,24
1879,-0.21,-0.97,-0.07,-0.98,-2.93,-3.23,439,321,240,458,345,24
1880,-0.21,-0.97,-0.07,0.67,-2.93,-2.26,439,322,238,466,346,24
1881,-0.21,-0.96,-0.09,1.16,-2.32,-2.5,437,328,241,462,345,24
1882,-0.22,-0.97,-0.07,0.12,-2.2,-3.11,440,322,241,457,343,24
1883,-0.22,-0.96,-0.08,1.04,-3.3,-2.26,439,324,239,462,343,24
1884,-0.21,-0.98,-0.07,-1.71,-2.56,-2.93,439,328,242,465,347,24
1885,-0.22,-0.97,-0.09,-0.98,-3.42,-2.26,439,324,239,458,347,24
1886,-0.22,-0.96,-0.09,0.61,-3.6,-1.77,439,323,245,465,344,24
1887,-0.23,-0.96,-0.09,0.0,-3.05,-1.16,440,326,241,462,348,24
1888,-0.23,-0.97,-0.08,-0.61,-3.85,-2.44,438,330,243,475,348,24
1889,-0.23,-0.96,-0.1,1.04,-2.38,-2.87,440,323,241,463,345,24
1890,-0.23,-0.97,-0.07,-0.12,-2.62,-2.93,438,324,242,465,347,24
1891,-0.23,-0.96,-0.08,1.34,-2.69,-2.81,437,323,240,462,346,24
1892,-0.22,-0.96,-0.08,0.67,-2.5,-2.75,441,327,237,456,346,24
1893,-0.22,-0.97,-0.08,0.0,-3.05,-2.93,439,323,241,461,348,24
1894,-0.22,-0.97,-0.08,1.22,-3.23,-2.38,438,324,241,465,347,24
1895,-0.22,-0.97,-0.08,0.49,-3.11,-2.75,439,323,240,462,346,24
1896,-0.22,-0.97,-0.08,-0.43,-2.81,-2.38,439,327,238,464,350,24
1897,-0.22,-0.97,-0.07,-0.31,-3.11,-2.56,440,320,243,463,348,24
1898,-0.22,-0.97,-0.08,-0.55,-3.66,-2.75,437,323,243,458,344,24
1899,-0.25,-0.97,-0.08,-1.04,-3.17,-2.01,437,325,240,462,349,24
1900,-0.23,-0.97,-0.09,-0.24,-3.05,-2.62,442,325,239,461,350,24
1901,-0.21,-0.97,-0.09,2.01,-5.31,-4.15,439,323,243,461,347,24
1902,-0.23,-0.96,-0.09,1.28,-2.26,-2.56,440,324,243,465,346,24
1903,-0.22,-0.97,-0.09,2.26,-3.11,-3.3,438,325,242,462,348,24
1904,-0.22,-0.97,-0.09,0.73,-2.01,-2.5,439,324,242,461,348,24
1905,-0.22,-0.96,-0.1,0.61,-2.2,-2.69,437,326,242,462,345,24
1906,-0.21,-0.96,-0.1,0.98,-2.81,-2.62,439,324,240,461,352,24
1907,-0.22,-0.97,-0.1,-1.4,-2.44,-2.44,436,324,243,463,344,24
1908,-0.22,-0.96,-0.1,0.18,-2.75,-2.99,439,326,241,461,347,24
1909,-0.22,-0.97,-0.1,0.31,-2.93,-2.62,435,324,241,462,344,24
1910,-0.22,-0.96,-0.11,0.49,-2.93,-2.69,445,327,243,462,348,24
1911,-0.23,-0.96,-0.12,1.04,-3.05,-2.56,438,325,241,462,348,24
1912,-0.22,-0.95,-0.11,0.06,-3.97,-2.62,445,325,240,461,345,24
1913,-0.23,-0.96,-0.11,-0.37,-3.97,-2.2,439,323,238,458,346,24
1914,-0.23,-0.94,-0.13,-1.16,0.73,-1.46,439,326,241,461,345,24
1915,-0.23,-0.95,-0.13,-0.67,-5.13,-2.5,432,324,242,462,347,24
1916,-0.22,-0.95,-0.13,0.85,-2.38,-3.17,435,323,238,458,347,24
1917,-0.2,-0.95,-0.13,-0.49,-1.53,-2.56,439,323,241,461,346,24
1918,-0.22,-0.96,-0.13,0.0,-3.17,-2.44,439,326,242,460,345,24
1919,-0.22,-0.96,-0.13,1.4,-3.17,-2.62,436,325,242,463,346,24
1920,-0.22,-0.96,-0.12,0.24,-3.11,-2.62,441,319,244,461,346,24
1921,-0.22,-0.96,-0.12,-0.12,-3.54,-3.11,437,325,242,466,348,24
1922,-0.22,-0.96,-0.12,0.24,-3.11,-2.32,438,325,241,457,347,24
1923,-0.22,-0.97,-0.11,0.06,-3.17,-3.42,435,323,241,461,348,24
1924,-0.22,-0.96,-0.12,0.37,-3.05,-2.44,436,327,243,458,345,24
1925,-0.22,-0.97,-0.12,-0.79,-2.87,-3.42,438,323,239,457,347,24
1926,-0.22,-0.96,-0.12,0.98,-2.75,-2.81,437,322,241,463,346,24
1927,-0.22,-0.96,-0.13,2.26,-3.6,-1.46,445,324,241,458,346,24
1928,-0.23,-0.96,-0.13,-0.24,-3.48,-2.2,439,323,241,459,349,24
1929,-0.22,-0.96,-0.12,1.89,-3.54,-2.26,443,324,241,463,342,24
1930,-0.23,-0.95,-0.12,-0.18,-2.2,-2.69,440,325,241,461,345,24
1931,-0.22,-0.96,-0.14,0.43,-3.11,-3.11,437,323,240,461,343,24
1932,-0.22,-0.96,-0.12,0.61,-3.11,-2.62,441,324,241,463,348,24
1933,-0.22,-0.96,-0.12,0.85,-2.26,-3.3,439,321,240,463,347,24
1934,-0.22,-0.96,-0.13,0.24,-3.23,-2.2,437,325,241,462,344,24
1935,-0.22,-0.97,-0.12,-0.43,-3.97,-1.46,441,322,241,466,345,24
1936,-0.23,-0.97,-0.12,-1.59,-2.75,-3.3,439,321,241,457,347,24
1937,-0.22,-0.96,-0.12,0.18,-2.99,-2.81,440,323,241,462,343,24
1938,-0.22,-0.96,-0.13,0.12,-2.2,-3.11,438,323,240,464,347,24
1939,-0.21,-0.96,-0.12,0.85,-2.56,-2.26,439,324,243,461,344,24
1940,-0.21,-0.96,-0.12,0.92,-2.75,-2.81,437,330,239,463,345,24
1941,-0.22,-0.95,-0.13,6.77,-4.82,-1.34,435,324,240,463,346,24
