,aX,aY,aZ,gX,gY,gZ,little,ring,middle,index,thumb,number
0,-0.04,-0.95,-0.22,-7.63,17.03,-11.96,228,307,440,468,286,15
1,-0.0,-0.99,-0.12,-12.88,2.32,-19.53,230,304,439,470,286,15
2,0.02,-0.98,-0.16,12.57,-3.48,8.54,230,306,438,466,287,15
3,-0.07,-0.97,-0.2,-9.52,-3.36,1.77,227,304,439,473,285,15
4,0.03,-0.98,-0.15,4.15,-8.0,-5.19,230,304,435,466,280,15
5,-0.02,-0.97,-0.18,-0.24,-5.0,-1.89,231,305,435,475,285,15
6,-0.01,-0.97,-0.19,2.87,-2.87,-5.0,231,307,441,471,286,15
7,-0.02,-0.98,-0.18,-1.89,-1.89,-1.83,233,307,439,474,287,15
8,-0.0,-0.98,-0.13,17.64,-5.86,6.53,233,306,438,469,284,15
9,0.04,-0.98,-0.21,-11.47,4.27,-11.29,230,306,440,472,287,15
10,-0.11,-0.98,-0.12,12.45,-7.32,15.93,228,306,440,469,287,15
11,0.03,-0.97,-0.18,-6.29,10.01,-16.97,231,303,437,469,284,15
12,0.02,-0.97,-0.21,2.44,-16.97,1.22,256,305,439,472,287,15
13,-0.13,-1.02,0.01,23.32,-1.59,-1.65,230,303,437,471,284,15
14,-0.07,-1.0,0.06,41.32,11.47,14.34,229,304,437,469,284,15
15,-0.2,-0.99,0.25,1.4,-2.75,1.34,232,304,438,470,283,15
16,-0.27,-0.98,0.23,-37.41,-49.01,-31.25,231,307,438,466,283,15
17,0.23,-0.9,-0.4,-29.17,0.0,-6.9,237,307,434,470,286,15
18,-0.0,-0.97,-0.19,10.62,-14.47,2.26,229,309,438,473,288,15
19,0.06,-0.98,-0.19,13.98,-2.44,-12.21,233,307,437,471,286,15
20,0.04,-0.98,-0.14,5.07,-3.85,-2.69,231,308,437,475,285,15
21,0.07,-0.98,-0.13,-0.98,-1.89,0.12,230,301,435,474,286,15
22,0.03,-0.98,-0.17,1.95,-5.49,-1.1,230,305,441,466,287,15
23,0.02,-0.98,-0.14,-1.28,-3.42,-3.36,230,308,436,481,290,15
24,0.02,-0.99,-0.14,-2.99,-1.59,-3.11,228,310,435,470,287,15
25,0.03,-0.98,-0.16,-0.31,-8.12,-4.39,231,306,438,471,286,15
26,0.03,-0.99,-0.15,2.87,-2.5,-2.2,230,306,437,472,284,15
27,0.02,-0.98,-0.15,0.49,-2.14,-1.95,232,306,436,472,286,15
28,0.03,-0.99,-0.17,5.13,-3.42,-2.5,233,306,436,467,286,15
29,0.02,-0.98,-0.17,2.44,-3.48,-2.69,235,307,436,467,287,15
30,0.02,-0.98,-0.15,1.22,-0.61,-2.01,234,307,438,478,288,15
31,0.01,-0.99,-0.14,3.6,-1.16,-2.62,232,305,435,481,288,15
32,0.02,-0.99,-0.12,1.71,-3.42,-2.08,229,308,434,471,288,15
33,0.02,-0.98,-0.15,-1.22,-3.23,-2.93,231,310,431,471,290,15
34,0.02,-1.0,-0.15,1.1,-3.17,-3.36,238,309,434,473,289,15
35,0.05,-0.96,-0.13,2.81,-2.2,0.06,230,310,436,473,288,15
36,0.0,-0.99,-0.13,0.73,-6.59,-0.55,227,308,431,466,281,15
37,0.02,-0.99,-0.15,4.46,-4.94,-2.87,233,309,435,471,285,15
38,-0.02,-1.0,-0.12,1.65,-3.42,-0.85,231,309,431,471,290,15
39,-0.02,-0.99,-0.09,-1.77,-5.0,-2.69,232,310,434,471,288,15
40,-0.01,-0.99,-0.12,-2.01,-2.08,-2.99,231,310,433,471,291,15
41,-0.06,-0.97,-0.09,-3.23,-18.55,0.0,230,304,434,470,289,15
42,-0.04,-0.99,-0.12,-6.59,-1.04,-6.23,234,309,435,475,288,15
43,0.02,-0.98,-0.19,-1.59,-1.77,-4.33,233,305,434,475,287,15
44,-0.0,-0.98,-0.15,2.62,-2.5,-1.95,231,309,434,475,287,15
45,-0.0,-0.98,-0.13,3.05,-3.72,-1.83,236,308,433,476,284,15
46,0.03,-0.98,-0.13,0.0,-2.81,-3.23,234,311,432,471,285,15
47,-0.01,-0.98,-0.16,0.79,-2.87,-2.56,234,311,435,468,284,15
48,0.0,-0.99,-0.12,-0.18,-2.69,-2.08,234,312,434,470,289,15
49,-0.0,-0.98,-0.16,0.79,-3.11,-2.81,230,311,429,467,289,15
50,0.01,-0.99,-0.12,0.18,-2.01,-2.08,233,311,433,476,291,15
51,-0.02,-0.98,-0.16,-0.79,-3.91,-2.62,237,310,432,472,289,15
52,-0.0,-0.99,-0.13,-0.92,-1.1,-2.62,230,308,432,475,290,15
53,0.01,-0.99,-0.14,4.64,-3.23,-1.46,249,309,430,471,287,15
54,-0.02,-1.0,-0.06,5.98,-1.59,-2.56,233,311,431,472,288,15
55,-0.02,-0.99,-0.13,-0.73,-3.91,-2.87,236,309,432,466,289,15
56,-0.0,-0.99,-0.09,5.25,-1.83,-2.69,234,311,431,470,296,15
57,-0.03,-0.99,-0.1,-3.23,-3.36,-0.61,232,310,432,473,289,15
58,-0.02,-0.99,-0.1,2.56,-1.34,-2.87,237,310,431,473,291,15
59,-0.04,-0.98,-0.13,-0.55,-3.85,-1.95,236,308,434,472,289,15
60,-0.04,-0.99,-0.09,0.18,-1.83,-4.58,236,310,431,466,290,15
61,-0.0,-0.98,-0.14,-4.21,-2.75,-3.48,234,308,431,473,291,15
62,-0.03,-0.98,-0.18,-1.95,-1.16,-5.92,235,310,429,471,290,15
63,0.0,-0.98,-0.16,-1.83,-2.44,-3.91,234,310,431,477,288,15
64,-0.03,-0.98,-0.18,0.79,-3.05,-2.14,234,310,432,466,288,15
65,-0.0,-0.98,-0.19,2.08,-2.99,-2.81,234,310,428,471,290,15
66,-0.0,-0.98,-0.19,1.4,-2.38,-1.83,232,311,427,471,289,15
67,-0.0,-0.99,-0.16,8.3,-1.71,-5.13,237,311,431,470,289,15
68,-0.0,-0.98,-0.14,-1.04,-1.28,-2.62,233,308,430,469,288,15
69,0.01,-0.99,-0.14,3.97,-2.75,-2.93,234,308,430,474,287,15
70,-0.04,-0.99,-0.16,1.59,-2.26,-1.53,232,309,434,475,288,15
71,0.01,-1.0,-0.13,0.43,-2.26,-3.66,236,309,431,470,291,15
72,-0.0,-0.98,-0.14,0.12,-2.69,-1.22,252,308,430,473,288,15
73,0.0,-0.98,-0.14,1.71,-2.14,-2.5,237,309,431,471,288,15
74,0.0,-0.99,-0.13,-0.37,-2.93,-2.01,234,310,432,471,289,15
75,0.02,-1.0,-0.09,8.85,-2.81,-0.73,224,310,432,467,285,15
76,0.02,-0.99,-0.13,-2.62,-3.11,-4.82,235,310,427,471,289,15
77,0.01,-0.97,-0.17,6.23,-7.69,-9.83,237,309,431,467,286,15
78,0.1,-0.98,-0.1,-3.6,-10.93,-6.29,235,308,434,472,290,15
79,0.07,-0.99,-0.13,2.87,-4.21,0.06,236,311,429,471,289,15
80,0.05,-0.99,-0.07,10.56,-1.95,4.76,231,308,427,474,291,15
81,0.01,-0.99,0.01,9.4,-1.71,2.14,239,316,426,477,290,15
82,-0.04,-0.99,0.03,6.41,-7.93,-0.85,235,312,428,471,289,15
83,-0.02,-0.99,0.04,-12.33,3.66,-14.16,237,311,426,468,289,15
84,0.12,-0.99,-0.06,-4.7,4.15,-6.16,236,308,433,473,290,15
85,0.03,-0.99,0.02,-0.49,-1.34,-0.79,234,310,430,470,291,15
86,0.05,-0.99,0.01,1.53,-1.83,-0.43,230,311,429,475,291,15
87,0.06,-0.99,0.08,3.36,6.53,0.31,237,307,427,466,287,15
88,0.07,-0.99,-0.03,-2.38,-4.15,-0.61,236,311,432,466,287,15
89,0.04,-1.0,0.02,-0.67,-3.3,-2.87,234,309,429,468,288,15
90,0.04,-1.01,-0.03,-0.12,-2.2,-3.85,232,309,429,474,290,15
91,0.04,-1.0,-0.01,-0.18,-3.11,-3.05,234,310,430,471,291,15
92,0.05,-0.99,-0.01,1.1,-4.21,-1.83,235,321,426,473,289,15
93,0.05,-1.0,-0.01,-0.12,-3.05,-2.93,234,312,428,470,289,15
94,0.05,-1.0,-0.02,0.85,-2.56,-2.93,233,308,429,474,289,15
95,0.05,-1.0,-0.01,0.06,-2.56,-2.62,235,312,427,474,292,15
96,0.04,-1.0,-0.02,0.37,-3.05,-2.2,234,308,429,466,289,15
97,0.05,-0.98,-0.01,-0.06,-3.11,-2.44,235,312,430,471,291,15
98,0.04,-0.99,-0.02,0.73,-2.56,-2.01,236,309,428,471,293,15
99,0.04,-0.99,-0.02,0.24,-3.85,-2.01,233,309,427,476,298,15
100,0.03,-1.0,-0.01,0.98,-3.54,-2.2,234,311,428,472,289,15
101,0.04,-0.99,-0.01,0.24,-3.91,-2.14,235,311,435,470,289,15
102,0.04,-1.0,-0.02,0.37,-3.05,-2.44,237,309,428,470,285,15
103,0.03,-0.99,-0.01,-0.12,-2.93,-3.23,235,309,428,477,287,15
104,0.04,-1.0,-0.01,0.43,-2.69,-2.99,237,309,430,471,291,15
105,0.04,-0.99,-0.01,0.85,-3.97,-1.83,235,307,429,471,286,15
106,0.04,-1.0,-0.01,0.85,-2.75,-2.5,235,310,429,471,285,15
107,0.04,-1.0,-0.01,-0.49,-2.38,-2.56,236,309,424,474,290,15
108,0.04,-0.99,-0.01,-0.67,-3.36,-3.66,234,311,430,477,290,15
109,0.04,-0.99,-0.02,0.79,-2.56,-2.32,234,308,427,475,290,15
110,0.04,-1.0,-0.01,-0.12,-3.36,-2.99,237,312,427,477,291,15
111,0.03,-1.0,-0.01,0.67,-2.56,-2.87,236,309,428,473,292,15
112,0.04,-0.99,-0.01,0.24,-3.05,-2.87,229,309,427,472,288,15
113,0.03,-0.99,-0.01,0.37,-2.99,-2.81,233,309,427,471,289,15
114,0.04,-0.99,-0.02,-0.12,-3.6,-2.56,231,311,429,468,289,15
115,0.03,-1.0,-0.01,-1.04,-3.36,-3.36,233,311,428,471,290,15
116,0.04,-0.99,-0.01,0.92,-3.05,-3.3,234,312,425,475,287,15
117,0.04,-1.0,-0.02,0.92,-2.99,-3.23,235,310,432,475,288,15
118,0.03,-0.99,-0.01,0.37,-3.3,-2.81,234,312,424,471,290,15
119,0.03,-1.0,-0.01,-0.49,-2.26,-3.05,234,306,427,474,291,15
120,0.03,-0.99,-0.01,1.1,-2.56,-2.32,236,309,428,472,286,15
121,0.03,-0.99,-0.01,1.04,-2.87,-2.14,236,309,425,473,289,15
122,0.05,-1.0,-0.02,0.43,-2.93,-3.72,232,312,424,475,289,15
123,0.04,-1.0,-0.01,0.06,-2.81,-2.75,237,312,428,468,291,15
124,0.04,-1.0,-0.01,-0.49,-3.17,-3.23,234,312,427,473,290,15
125,0.04,-0.99,-0.02,0.31,-2.38,-2.38,235,314,426,467,290,15
126,0.03,-0.99,-0.02,1.22,-3.11,-2.99,234,311,427,474,293,15
127,0.04,-0.99,-0.02,1.28,0.67,-0.85,237,311,431,475,289,15
128,-0.02,-1.0,-0.01,-0.67,0.12,0.79,235,309,426,471,290,15
129,-0.0,-1.0,-0.0,0.06,-3.6,-2.56,232,312,426,470,288,15
130,-0.01,-1.0,-0.01,1.22,-3.36,-1.95,254,309,429,466,288,15
131,-0.02,-0.99,-0.02,1.71,-4.88,-3.11,235,307,426,472,290,15
132,-0.03,-0.99,-0.02,0.31,-3.05,-0.79,234,309,425,471,291,15
133,-0.01,-0.99,-0.0,4.21,-3.6,-0.55,234,311,424,468,289,15
134,-0.04,-1.0,0.04,-0.79,-3.97,-2.56,236,310,424,466,287,15
135,-0.03,-0.99,0.0,-4.15,-2.87,-5.0,236,308,428,477,290,15
136,-0.05,-0.99,0.03,0.18,-4.21,-0.98,236,309,426,469,289,15
137,-0.04,-0.99,0.0,-0.12,-3.48,-3.42,236,313,426,469,285,15
138,-0.03,-1.0,0.01,-1.34,-3.17,-3.11,236,312,427,475,290,15
139,-0.05,-1.0,0.01,-1.04,-3.91,-2.01,245,313,426,470,290,15
140,-0.05,-0.99,0.02,0.18,-3.42,-3.3,235,309,427,472,290,15
141,-0.05,-1.0,0.02,0.55,-3.3,-3.11,231,309,426,471,289,15
142,-0.05,-1.0,0.03,0.67,-2.01,-2.62,234,308,428,473,291,15
143,-0.05,-1.0,0.02,0.24,-2.08,-3.17,234,311,427,473,291,15
144,-0.05,-1.0,0.01,1.16,-2.44,-2.38,233,310,426,472,290,15
145,-0.04,-0.99,-0.01,0.31,-3.78,-2.99,236,316,425,472,289,15
146,-0.05,-0.99,0.0,0.12,-3.72,-1.83,236,310,425,470,289,15
147,-0.03,-1.0,0.0,1.16,-2.69,-2.69,235,311,425,474,289,15
148,-0.03,-0.99,-0.01,-1.83,-2.93,-3.23,234,311,424,473,290,15
149,-0.04,-0.99,0.01,0.61,-2.99,-2.81,235,310,425,472,289,15
150,-0.04,-0.99,0.01,-0.18,-3.42,-2.62,235,316,428,473,290,15
151,-0.04,-0.99,0.01,1.28,-3.85,-2.38,234,310,422,473,288,15
152,-0.05,-1.0,0.01,1.22,-3.3,-3.17,242,309,421,475,292,15
153,-0.04,-0.99,0.02,0.98,-1.65,-3.54,238,308,422,471,289,15
154,-0.04,-1.0,0.02,-1.34,-2.56,-3.42,237,310,428,468,288,15
155,-0.05,-0.99,0.01,0.24,-2.87,-2.81,238,310,425,472,292,15
156,-0.05,-0.99,-0.0,-0.06,-1.77,-3.54,236,313,424,475,288,15
157,-0.05,-1.0,0.02,0.18,-2.01,-3.3,235,309,424,467,288,15
158,-0.05,-0.99,0.02,0.43,-2.08,-3.23,237,310,428,472,291,15
159,-0.06,-0.99,0.01,0.73,-2.93,-3.11,237,309,425,467,292,15
160,-0.05,-1.0,0.03,0.49,-3.72,-2.2,238,310,424,472,292,15
161,-0.06,-0.99,0.02,-0.18,-3.23,-2.69,235,305,425,467,290,15
162,-0.05,-0.99,0.01,-2.44,-9.46,-5.25,237,309,426,474,287,15
163,-0.04,-0.99,0.01,1.22,-2.2,-2.56,238,310,424,471,292,15
164,-0.04,-0.99,0.01,0.49,-2.62,-2.32,237,317,425,487,292,15
165,-0.03,-1.0,0.01,0.0,-3.17,-2.14,231,310,425,471,289,15
166,-0.04,-0.99,0.01,0.55,-2.81,-3.17,242,311,425,473,292,15
167,-0.05,-1.0,0.02,-0.55,-2.81,-3.17,236,310,424,471,290,15
168,-0.04,-1.0,0.02,-0.98,-3.54,-3.11,237,306,424,474,289,15
169,-0.05,-0.99,0.01,0.43,-3.85,-3.05,234,308,422,473,290,15
170,-0.04,-1.0,0.01,1.16,-2.93,-2.81,236,312,425,468,287,15
171,-0.04,-0.99,0.01,-0.85,-3.05,-2.99,234,311,427,467,287,15
172,-0.05,-1.0,0.02,1.65,-3.3,-1.71,237,310,424,475,292,15
173,-0.05,-0.99,0.02,-0.67,-1.89,-3.54,237,318,424,471,293,15
174,-0.05,-0.97,0.03,1.1,-2.14,-1.59,237,311,422,474,288,15
175,-0.01,-1.0,-0.02,-5.92,-4.52,-1.59,237,317,422,471,291,15
176,-0.12,-0.99,0.06,3.6,-9.95,2.62,234,311,427,472,292,15
177,-0.05,-0.98,0.01,-0.18,-5.31,-5.43,235,310,424,472,294,15
178,-0.13,-1.0,0.11,7.08,-9.09,7.57,234,310,420,471,290,15
179,-0.13,-0.98,0.06,-7.02,-1.59,-7.02,234,310,426,473,295,15
180,-0.06,-1.0,0.02,1.46,-3.97,-3.23,236,311,423,471,291,15
181,-0.08,-1.0,0.03,1.22,-5.8,-1.22,234,310,425,476,291,15
182,-0.11,-0.98,0.08,-3.23,0.67,-9.83,235,312,424,479,287,15
183,-0.0,-1.02,0.03,4.58,3.11,-7.32,234,310,426,475,290,15
184,-0.01,-0.99,0.06,3.05,-3.17,-0.67,235,312,426,473,290,15
185,-0.05,-0.99,0.09,-4.46,-7.45,-13.67,235,310,428,473,290,15
186,0.16,-0.99,0.01,-6.29,-28.14,-14.47,233,309,427,472,292,15
187,0.07,-0.98,0.01,14.71,-16.05,3.66,232,311,424,467,288,15
188,0.11,-0.99,0.15,5.49,-4.64,-8.54,236,311,423,471,287,15
189,0.14,-0.98,0.08,1.4,0.79,-6.35,235,311,425,471,291,15
190,0.19,-0.97,0.11,1.53,1.59,-1.65,235,310,425,467,291,15
191,0.15,-1.0,0.14,6.23,-5.0,6.53,236,310,425,474,290,15
192,0.0,-0.98,0.13,-1.46,1.28,-8.0,234,312,423,472,289,15
193,0.18,-0.97,0.09,-0.43,-6.04,-8.97,238,310,425,475,287,15
194,0.11,-0.97,0.12,7.26,-6.04,-0.98,238,307,423,472,291,15
195,0.15,-0.98,0.06,-4.76,-8.3,-6.77,236,310,422,471,296,15
196,0.13,-0.98,0.11,3.05,-1.4,-0.61,236,310,424,471,288,15
197,0.11,-0.99,0.18,2.75,-4.76,6.29,232,314,425,475,292,15
198,0.08,-0.98,0.17,-2.56,-2.2,-4.27,234,309,425,472,291,15
199,0.11,-0.98,0.15,1.16,-2.93,-3.66,235,313,425,466,294,15
200,0.09,-0.99,0.14,0.37,-3.72,1.4,236,313,425,471,292,15
201,0.12,-0.97,0.1,-1.28,0.06,-8.48,234,313,424,471,294,15
202,0.07,-0.98,0.24,8.12,-9.77,1.65,236,311,424,469,291,15
203,0.08,-0.96,0.22,7.81,-3.66,-5.55,234,311,423,475,290,15
204,0.1,-0.96,0.29,-3.36,-5.98,-3.05,236,308,423,475,291,15
205,0.12,-0.97,0.25,4.7,-0.92,-4.39,236,309,423,472,289,15
206,0.1,-1.01,0.23,3.3,1.77,0.37,236,312,424,474,291,15
207,0.05,-0.96,0.31,-0.73,-3.66,6.77,234,310,422,472,290,15
208,0.02,-0.96,0.26,15.44,-1.46,0.18,233,309,422,475,290,15
209,-0.02,-0.96,0.3,-1.16,-4.58,-4.82,236,311,423,473,291,15
210,0.05,-0.96,0.29,-2.62,-0.43,-9.89,234,308,424,472,289,15
211,0.07,-0.96,0.28,2.2,-2.75,-2.69,239,312,426,472,292,15
212,0.06,-0.96,0.28,2.01,-2.62,-2.32,233,308,425,472,287,15
213,0.09,-0.95,0.28,6.71,-5.43,1.59,233,309,420,475,288,15
214,0.01,-0.9,0.24,-9.89,-23.25,-8.06,236,305,423,471,290,15
215,0.09,-0.96,0.26,-0.12,-1.1,-13.79,234,307,424,472,293,15
216,0.04,-0.97,0.28,-0.18,-5.19,-3.05,238,311,424,466,290,15
217,0.05,-0.97,0.26,-5.86,-5.68,4.33,235,311,421,472,292,15
218,0.01,-0.98,0.27,2.56,-1.46,-3.97,235,306,421,474,292,15
219,0.09,-0.97,0.22,-10.38,0.85,-17.46,237,305,424,471,289,15
220,0.22,-0.97,-0.09,-13.55,-14.04,-14.89,235,309,423,471,292,15
221,0.21,-0.97,-0.02,-1.89,1.95,-3.78,241,309,423,476,290,15
222,0.39,-0.98,0.19,17.58,5.92,-6.84,231,309,421,471,287,15
223,0.16,-1.04,-0.05,2.75,33.14,-7.39,238,309,428,468,289,15
224,0.26,-0.93,0.17,6.1,3.05,-4.58,237,308,419,475,289,15
225,0.14,-1.01,0.31,17.27,-1.83,4.21,238,316,423,471,294,15
226,0.4,-0.87,0.24,4.09,-2.62,-10.56,234,308,425,471,289,15
227,0.49,-0.91,0.42,4.39,2.14,-1.4,233,311,422,471,288,15
228,0.27,-0.87,0.18,-12.15,-14.65,9.4,238,310,423,472,285,15
229,0.27,-0.88,0.46,14.77,3.97,3.48,239,311,423,472,292,15
230,0.08,-0.89,0.45,2.93,0.49,0.61,235,309,422,475,287,15
231,0.21,-0.9,0.52,-14.59,-1.89,-2.5,236,309,426,475,292,15
232,0.17,-0.9,0.3,-33.94,5.49,5.49,236,311,419,475,291,15
233,0.04,-1.03,0.13,3.17,2.69,6.71,234,309,422,474,288,15
234,-0.01,-0.88,0.22,-8.3,4.7,16.3,239,305,422,471,291,15
235,0.02,-1.02,0.14,-8.85,-4.58,1.04,236,310,419,467,292,15
236,-0.07,-0.96,0.05,8.97,1.4,-8.0,236,307,425,472,288,15
237,-0.03,-0.97,0.07,-3.66,3.54,-14.65,273,309,424,471,295,15
238,0.1,-0.99,0.01,1.1,-10.44,-5.07,239,309,424,473,293,15
239,0.04,-1.0,0.08,3.11,-4.64,1.16,236,312,424,470,288,15
240,0.09,-1.0,0.09,-0.85,1.16,-5.31,236,312,423,471,293,15
241,0.03,-1.0,0.07,-2.5,-2.26,4.39,248,309,422,470,292,15
242,0.03,-0.98,0.1,0.98,-3.05,-0.61,237,309,418,472,292,15
243,0.0,-0.99,0.06,-2.5,-1.71,-2.93,236,310,422,467,293,15
244,0.03,-0.99,0.11,0.24,-4.7,0.0,234,310,421,474,289,15
245,-0.0,-1.0,0.12,-1.34,5.74,-2.81,239,312,425,466,293,15
246,0.01,-0.99,0.07,6.96,-9.22,0.49,236,306,422,472,298,15
247,0.01,-0.98,0.08,-2.5,-0.92,-4.46,236,315,421,471,291,15
248,0.04,-0.98,0.05,-1.71,2.01,-2.81,235,312,423,479,289,15
249,0.04,-0.99,0.07,-1.34,-12.88,-5.43,236,309,418,472,294,15
250,0.04,-0.99,0.06,1.65,-4.09,-1.83,238,308,422,466,291,15
251,0.05,-0.99,0.07,0.43,-2.08,-2.99,238,309,431,474,290,15
252,0.05,-1.0,0.07,-0.43,-3.6,-2.93,239,308,418,472,292,15
253,0.04,-0.99,0.06,0.37,-2.87,-2.5,238,311,422,465,292,15
254,0.05,-0.99,0.07,0.24,-2.44,-2.87,235,314,427,472,293,15
255,0.04,-0.99,0.07,0.31,-2.5,-2.93,236,310,421,469,295,15
256,0.05,-1.0,0.07,-0.24,-2.75,-3.11,239,309,418,474,293,15
257,0.05,-1.0,0.07,0.31,-3.17,-2.44,236,310,423,471,294,15
258,0.04,-0.99,0.07,0.55,-3.6,-1.89,236,310,420,471,292,15
259,-0.1,-1.01,0.12,2.5,-8.18,0.0,236,310,426,475,292,15
260,0.18,-0.98,-0.03,-4.39,-7.2,-7.57,238,308,423,468,292,15
261,0.03,-1.0,0.11,4.15,-9.83,-5.62,234,309,420,471,292,15
262,0.03,-0.99,0.09,5.37,-4.03,0.67,238,312,422,474,291,15
263,-0.01,-0.99,0.11,-0.31,11.17,0.92,236,312,432,474,291,15
264,-0.05,-0.99,0.11,1.59,-1.16,-1.65,238,314,420,466,292,15
265,-0.05,-1.0,0.09,1.1,-1.77,-0.98,234,310,419,470,292,15
266,-0.01,-0.99,0.1,6.23,-6.47,0.55,237,309,424,468,293,15
267,-0.09,-0.98,0.15,1.1,-3.42,0.31,239,309,420,466,292,15
268,-0.17,-0.98,0.16,3.91,0.79,7.32,240,312,419,475,292,15
269,-0.11,-0.98,0.12,0.61,0.43,-5.37,238,311,423,469,292,15
270,-0.11,-0.98,0.13,-1.22,-3.48,-2.99,235,309,422,474,294,15
271,-0.12,-0.97,0.1,-3.6,-0.24,-1.46,238,310,421,467,295,15
272,-0.12,-0.98,0.08,-0.67,-3.91,-2.81,236,308,420,472,292,15
273,-0.13,-0.99,0.1,0.18,-1.77,-2.32,235,309,423,470,294,15
274,-0.11,-0.99,0.1,0.73,-2.14,-2.93,236,307,416,472,295,15
275,-0.11,-0.98,0.1,0.79,-2.99,-2.81,235,310,421,481,292,15
276,-0.12,-0.98,0.1,0.31,-3.48,-2.26,237,312,418,472,293,15
277,-0.12,-0.98,0.09,0.24,-2.44,-2.38,238,310,420,470,290,15
278,-0.11,-0.99,0.1,0.79,-3.48,-2.32,237,316,420,470,292,15
279,-0.12,-0.98,0.1,1.53,-3.3,-2.5,239,310,420,476,292,15
280,-0.12,-0.99,0.1,0.67,-3.23,-2.56,239,316,420,471,291,15
281,-0.12,-0.98,0.11,1.34,-2.69,-2.38,236,310,422,469,290,15
282,-0.11,-0.99,0.11,-0.12,-1.22,-3.91,236,307,420,470,293,15
283,-0.13,-0.98,0.07,-2.75,-3.42,-3.05,239,306,417,469,289,15
284,-0.09,-0.99,0.07,-4.58,-1.04,-4.33,236,309,421,470,291,15
285,-0.17,-0.96,0.11,11.17,-17.15,15.99,235,309,418,472,290,15
286,-0.1,-0.98,0.12,-5.31,-5.31,-11.17,238,309,422,472,304,15
287,-0.08,-0.99,0.18,-0.67,-0.85,-6.84,237,310,422,467,291,15
288,-0.05,-0.99,0.13,-0.37,-6.71,-3.97,238,311,417,469,292,15
289,-0.05,-0.99,0.14,-2.81,-2.99,-2.75,236,310,420,475,293,15
290,-0.03,-1.0,0.12,-3.66,7.87,-1.16,237,309,416,476,293,15
291,-0.05,-0.99,0.1,7.26,-3.91,-0.73,238,310,419,473,292,15
292,-0.09,-0.98,0.11,-3.6,3.17,-0.67,239,313,420,471,289,15
293,-0.09,-0.99,0.09,-2.81,-3.78,-2.08,239,311,420,466,291,15
294,-0.08,-0.99,0.11,1.53,-11.11,-3.17,236,309,416,475,292,15
295,-0.05,-0.99,0.1,-1.95,-2.93,-4.64,239,309,422,468,295,15
296,-0.06,-0.99,0.12,1.28,8.42,2.75,236,312,422,467,293,15
297,-0.12,-0.98,0.09,-0.31,-3.11,-4.82,234,313,419,471,294,15
298,-0.07,-0.98,0.08,-2.93,2.81,-8.85,235,308,420,471,295,15
299,-0.09,-0.99,0.07,-0.73,-6.65,0.73,238,311,419,475,295,15
300,-0.06,-0.98,0.07,-1.95,-2.38,-4.21,235,311,424,471,294,15
301,-0.08,-0.99,0.08,0.79,-4.94,-3.23,238,313,416,469,292,15
302,-0.03,-1.0,0.07,1.22,-2.81,-2.14,236,317,420,470,293,15
303,-0.04,-0.99,0.07,1.34,-2.01,-3.36,238,310,420,474,295,15
304,-0.05,-0.99,0.08,-0.43,8.06,-9.77,243,308,417,466,290,15
305,0.04,-0.99,0.08,-3.54,-1.77,-3.85,237,310,415,474,294,15
306,-0.03,-0.99,0.09,-0.06,-8.54,1.34,237,310,419,467,290,15
307,-0.04,-0.98,0.06,3.78,-7.75,-0.18,237,312,420,475,300,15
308,-0.05,-0.99,0.11,-2.38,-3.11,-2.87,233,308,418,471,293,15
309,-0.04,-0.99,0.09,0.49,-2.14,-2.32,237,314,421,467,292,15
310,-0.05,-0.99,0.11,1.59,-4.15,-0.73,238,310,422,487,293,15
311,-0.01,-0.98,0.09,1.53,-6.1,0.37,236,311,420,470,294,15
312,-0.11,-0.99,0.13,0.85,-2.75,0.49,235,306,419,474,295,15
313,-0.09,-0.98,0.14,-0.79,-1.53,-4.21,238,310,418,471,292,15
314,-0.08,-0.99,0.11,1.46,-2.38,-2.26,234,313,421,475,294,15
315,-0.08,-0.99,0.1,-1.77,1.34,-5.62,236,310,422,471,292,15
316,-0.09,-0.99,0.1,-2.5,-3.72,-2.38,234,313,415,471,296,15
317,-0.07,-0.98,0.09,-1.1,-3.42,-2.75,237,312,419,470,289,15
318,-0.08,-0.99,0.1,1.22,-3.23,-2.26,239,306,420,473,294,15
319,-0.05,-0.99,0.1,-0.18,-4.52,-3.23,236,310,418,471,293,15
320,-0.09,-0.99,0.13,-0.73,-2.2,-4.39,233,312,420,471,292,15
321,-0.09,-0.99,0.09,3.11,-10.25,4.21,240,311,418,473,294,15
322,-0.08,-0.99,0.12,-3.36,0.12,-5.74,239,311,424,471,293,15
323,-0.1,-0.99,0.1,3.48,-4.39,-0.92,236,312,416,471,294,15
324,-0.09,-0.97,0.12,-2.44,-6.23,-3.36,239,311,419,468,293,15
325,-0.1,-0.99,0.15,2.87,-1.28,-2.99,236,311,421,466,293,15
326,-0.1,-0.98,0.11,2.99,-2.75,-1.1,236,309,415,472,294,15
327,-0.09,-0.99,0.14,-2.08,-0.43,-5.86,237,311,419,471,292,15
328,-0.1,-0.98,0.12,2.08,-2.2,-2.01,235,308,418,469,292,15
329,-0.1,-0.99,0.14,-1.53,-1.71,-3.72,234,312,420,477,292,15
330,-0.08,-0.99,0.11,-0.67,1.77,-7.45,237,312,415,472,293,15
331,-0.08,-0.99,0.11,1.22,-3.23,-2.32,236,309,421,474,296,15
332,-0.07,-0.99,0.11,-0.85,-3.05,-2.75,239,316,419,472,291,15
333,-0.06,-0.99,0.11,0.67,-3.11,-2.01,237,313,419,472,293,15
334,-0.08,-0.99,0.12,-0.06,-2.5,-2.93,236,312,419,469,293,15
335,-0.06,-0.99,0.1,1.22,-1.65,-4.03,238,311,421,473,292,15
336,-0.06,-0.98,0.08,0.43,-3.3,-0.79,238,310,419,468,292,15
337,-0.06,-0.99,0.1,-0.12,-3.05,-1.59,236,316,421,466,295,15
338,-0.06,-0.99,0.11,-3.05,-2.14,-1.22,239,312,419,471,295,15
339,-0.06,-1.05,0.13,-5.19,4.94,12.45,238,310,420,474,293,15
340,-0.17,-0.94,0.05,6.23,2.01,3.23,235,312,420,473,293,15
341,-0.13,-0.99,0.08,-2.69,1.4,-4.64,240,313,421,471,295,15
342,-0.15,-0.97,0.1,2.99,-3.17,-2.32,237,313,416,468,293,15
343,-0.15,-1.0,0.09,-10.25,-13.92,-12.21,237,310,420,472,294,15
344,0.01,-1.04,0.09,7.2,-10.44,1.34,235,312,425,470,290,15
345,-0.17,-0.96,0.08,1.04,-3.05,4.39,239,313,415,471,293,15
346,-0.22,-0.95,0.19,3.3,-6.53,5.92,239,311,419,472,291,15
347,-0.27,-0.92,0.14,-1.53,3.48,2.99,239,311,419,472,294,15
348,-0.21,-0.97,0.09,-0.18,-3.05,-5.86,239,308,418,474,295,15
349,-0.18,-0.98,0.07,-0.49,-4.58,-9.46,238,313,417,475,291,15
350,-0.16,-0.97,0.08,-2.87,-2.32,-5.43,237,312,415,471,293,15
351,-0.2,-0.98,0.1,-3.97,-0.73,-2.75,236,310,419,473,296,15
352,-0.2,-0.98,0.12,2.75,-2.81,-2.44,235,309,425,481,295,15
353,-0.19,-0.98,0.12,2.75,-4.33,0.12,238,311,421,472,294,15
354,-0.16,-0.99,0.13,2.62,-7.81,-0.12,237,311,421,467,293,15
355,-0.15,-0.98,0.11,-0.49,-1.83,-1.46,236,310,418,469,292,15
356,-0.14,-0.99,0.12,1.83,-5.0,-3.23,237,313,420,472,295,15
357,-0.14,-0.97,0.11,1.53,-4.64,-2.93,237,311,422,474,290,15
358,-0.15,-0.97,0.11,0.67,-2.62,-3.3,237,309,419,477,293,15
359,-0.15,-0.97,0.12,0.98,-4.15,-3.48,236,310,418,475,293,15
360,-0.15,-1.0,0.12,0.0,-3.23,-1.22,239,307,417,471,295,15
361,-0.17,-0.98,0.13,2.08,-4.27,-0.73,235,312,419,469,290,15
362,-0.15,-0.96,0.12,0.06,-2.69,-2.81,237,312,421,471,297,15
363,-0.22,-0.95,0.17,-3.78,-1.28,-0.67,240,311,418,471,293,15
364,-0.22,-0.97,0.24,3.23,-1.04,4.15,238,318,420,472,295,15
365,-0.17,-1.01,0.16,2.93,-2.08,-2.14,234,313,418,471,293,15
366,-0.18,-0.98,0.16,8.3,-8.24,4.94,237,310,420,468,294,15
367,-0.17,-0.97,0.19,3.23,-1.4,5.13,239,311,417,471,296,15
368,-0.23,-1.01,0.17,7.45,-0.55,1.71,237,307,417,466,295,15
369,-0.23,-0.94,0.11,-7.75,1.4,-13.92,238,311,418,471,293,15
370,-0.22,-0.98,0.11,-3.17,-9.52,-7.45,236,319,418,468,295,15
371,-0.15,-0.94,0.18,-14.4,-9.28,-12.39,248,307,420,474,291,15
372,-0.13,-0.98,-0.1,-24.17,12.02,-20.2,237,309,419,470,291,15
373,-0.06,-1.01,-0.07,4.52,-9.22,5.55,234,311,417,472,296,15
374,-0.03,-1.01,-0.02,-3.48,13.24,-12.82,237,311,429,470,296,15
375,-0.02,-1.0,-0.04,3.36,-12.63,1.95,235,311,420,471,291,15
376,-0.04,-1.0,-0.03,-0.12,-7.32,-10.13,239,311,416,472,294,15
377,-0.0,-0.99,-0.06,-0.18,-8.48,-8.0,239,308,417,472,291,15
378,-0.03,-0.99,-0.05,0.73,-6.29,-3.85,239,311,417,474,295,15
379,-0.01,-1.0,-0.06,-0.43,-4.76,-3.05,237,310,421,474,294,15
380,0.02,-0.99,-0.08,-1.83,-3.42,-4.46,239,311,417,467,292,15
381,0.06,-0.99,-0.1,-3.6,-2.56,-6.23,236,312,415,469,294,15
382,0.03,-0.99,-0.07,4.15,-4.03,-3.05,239,310,417,469,296,15
383,0.04,-1.0,-0.06,0.98,2.08,-4.82,237,309,417,474,292,15
384,-0.01,-1.0,-0.05,2.5,-2.87,2.56,237,309,416,471,295,15
385,0.01,-1.0,-0.03,5.8,-7.57,0.67,237,309,413,470,295,15
386,0.02,-0.99,-0.05,2.99,-0.18,-0.79,238,310,417,480,294,15
387,-0.02,-1.0,-0.01,3.6,-3.42,-1.65,233,312,416,471,296,15
388,-0.01,-1.0,0.0,1.1,-3.36,-3.54,244,310,420,468,294,15
389,-0.01,-1.0,0.01,0.49,-6.23,-2.44,237,310,416,471,296,15
390,-0.01,-0.99,-0.0,0.0,-2.93,-2.44,236,312,419,466,294,15
391,-0.02,-0.99,0.0,0.24,-2.75,-2.81,238,310,419,465,296,15
392,-0.03,-0.99,0.01,1.89,-3.36,-2.62,238,307,417,469,293,15
393,-0.02,-0.99,-0.01,4.82,-4.39,-1.1,237,313,417,472,294,15
394,-0.03,-1.0,0.02,-1.34,-1.77,-4.52,238,308,420,470,295,15
395,-0.02,-0.99,0.01,0.37,-1.59,-2.62,238,313,418,472,294,15
396,-0.03,-0.99,0.03,-0.12,-2.87,-2.93,235,311,419,471,294,15
397,-0.03,-0.99,0.02,-0.37,-3.23,-3.23,234,309,413,470,295,15
398,-0.03,-1.0,0.01,2.08,-2.81,-3.97,238,310,418,466,292,15
399,-0.03,-1.0,0.02,2.08,-3.48,-2.32,240,313,414,470,294,15
400,-0.02,-0.99,0.02,-0.43,-2.32,-2.81,236,313,417,470,294,15
401,-0.02,-1.0,0.02,-0.43,-3.6,-2.2,238,312,420,482,296,15
402,-0.03,-1.01,0.01,-0.06,-3.54,-4.7,237,311,417,472,292,15
403,-0.02,-0.99,0.02,0.67,-2.75,-3.36,237,309,415,474,293,15
404,-0.03,-1.0,0.03,-2.38,-0.12,-6.47,238,307,414,467,292,15
405,0.01,-1.0,0.0,2.44,-3.54,-1.46,236,309,417,470,293,15
406,-0.0,-1.0,-0.0,0.92,-2.75,-2.5,237,307,417,472,292,15
407,-0.0,-0.99,0.01,1.4,-3.05,-1.89,237,309,414,484,293,15
408,-0.01,-1.0,0.02,1.46,-3.54,-2.32,241,312,412,470,294,15
409,-0.01,-1.0,0.01,0.61,-2.62,-2.69,239,318,413,474,294,15
410,-0.01,-0.99,0.01,-0.49,-3.17,-2.87,237,315,416,473,291,15
411,-0.01,-0.99,0.01,0.31,-2.87,-2.56,236,310,418,469,296,15
412,0.01,-0.99,-0.0,-0.12,-2.81,-2.87,231,309,416,470,291,15
413,0.01,-1.0,-0.0,0.18,-2.87,-2.99,239,307,417,474,296,15
414,0.0,-1.0,0.01,0.37,-2.75,-2.5,239,309,416,465,294,15
415,-0.0,-1.0,-0.0,1.22,-3.23,-3.36,237,312,416,469,292,15
416,-0.0,-0.99,0.0,1.16,-2.81,-3.11,239,312,419,470,294,15
417,-0.0,-1.0,0.0,0.24,-3.05,-2.81,236,310,419,471,294,15
418,-0.01,-0.99,0.01,0.24,-2.08,-2.87,239,311,414,471,292,15
419,-0.0,-0.99,0.01,0.85,-2.93,-2.69,240,310,415,474,290,15
420,-0.0,-1.0,0.01,0.31,-3.11,-2.5,236,309,415,470,293,15
421,-0.01,-1.01,0.01,-0.98,-3.05,-2.87,237,310,416,477,295,15
422,-0.01,-1.0,0.02,1.1,-2.93,-2.32,240,310,418,468,295,15
423,-0.01,-0.99,0.02,1.77,-3.36,-1.83,238,311,427,474,295,15
424,-0.01,-1.0,0.03,0.49,-3.3,-2.5,236,312,416,476,297,15
425,-0.01,-0.99,0.01,0.43,-3.42,-2.69,239,311,412,470,294,15
426,-0.01,-1.0,0.01,-0.31,-2.99,-2.62,237,313,416,471,294,15
427,-0.01,-1.0,0.03,0.18,-1.77,-3.42,235,310,412,474,292,15
428,-0.01,-0.99,0.01,1.16,-2.81,-2.01,237,312,416,474,294,15
429,-0.02,-1.0,0.04,1.04,-3.23,-3.17,238,310,415,469,296,15
430,-0.02,-1.0,0.02,0.73,-3.23,-2.5,241,310,416,465,291,15
431,-0.0,-1.0,0.03,-0.31,-2.62,-2.81,239,312,417,472,293,15
432,0.01,-0.99,0.01,0.43,-2.62,-2.44,234,311,415,468,292,15
433,-0.02,-0.99,0.01,0.49,-0.49,-2.81,237,310,417,470,296,15
434,-0.01,-1.0,0.02,0.37,-2.56,-2.87,237,326,416,475,294,15
435,-0.01,-1.0,0.01,0.37,-2.75,-2.87,237,310,419,470,293,15
436,-0.01,-1.0,0.02,1.4,-3.6,-2.14,239,311,418,474,292,15
437,-0.03,-1.0,0.02,1.22,-3.11,-1.4,237,311,417,471,296,15
438,-0.02,-1.0,0.03,0.67,-2.44,-2.99,236,311,416,474,294,15
439,-0.02,-1.0,0.03,1.46,-3.11,-2.26,236,312,415,471,292,15
440,-0.02,-0.99,0.03,-0.55,-2.99,-2.93,238,313,415,473,294,15
441,-0.02,-1.0,0.02,-3.66,-0.85,-3.85,237,309,415,466,295,15
442,-0.01,-1.0,0.02,4.94,-3.17,-0.43,238,311,416,471,292,15
443,-0.02,-1.0,0.03,1.71,-1.65,-2.2,238,312,415,470,294,15
444,-0.02,-1.0,0.03,-0.92,-2.81,-3.23,237,313,418,465,294,15
445,-0.02,-0.99,0.02,0.92,-1.71,-2.75,237,309,418,466,294,15
446,-0.03,-1.0,0.03,-0.92,-1.89,-2.5,237,312,415,465,294,15
447,-0.03,-1.0,0.03,0.67,-3.6,-2.75,266,314,412,472,294,15
448,-0.03,-0.99,0.03,1.4,-3.36,-2.38,247,311,416,472,295,15
449,-0.03,-1.0,0.04,0.24,-3.17,-2.93,237,308,415,470,295,15
450,-0.03,-1.0,0.03,0.43,-2.75,-2.69,244,311,417,465,293,15
451,-0.03,-1.0,0.03,0.18,-2.75,-2.99,239,313,416,466,296,15
452,-0.03,-0.99,0.03,1.22,-2.69,-2.69,236,311,417,469,294,15
453,-0.03,-0.99,0.03,-0.12,-2.81,-2.5,236,313,415,474,292,15
454,-0.03,-1.0,0.03,0.98,-2.93,-2.2,237,308,416,473,294,15
455,-0.03,-0.99,0.03,0.98,-2.26,-2.62,235,313,416,474,294,15
456,-0.03,-1.0,0.03,0.49,-3.23,-2.75,236,311,417,470,294,15
457,-0.0,-1.0,0.01,-1.83,-1.83,-3.3,236,317,417,475,289,15
458,-0.02,-0.99,-0.0,-2.38,-2.87,-3.85,258,311,415,473,293,15
459,-0.02,-1.0,0.01,-1.04,-1.89,-4.09,240,313,415,470,293,15
460,-0.03,-0.99,0.01,1.34,-1.46,-2.08,239,311,418,471,293,15
461,-0.02,-0.99,0.02,0.49,-3.48,-2.75,237,312,413,476,293,15
462,-0.02,-0.99,0.02,0.67,-2.87,-2.38,236,312,415,472,291,15
463,-0.02,-1.0,0.04,0.49,-2.81,-2.69,239,312,415,475,293,15
464,-0.03,-0.99,0.03,0.67,-2.56,-2.26,244,319,414,465,294,15
465,-0.02,-1.0,0.03,0.43,-2.81,-2.99,238,309,415,473,293,15
466,-0.03,-1.0,0.03,0.85,-2.75,-2.5,234,312,415,467,296,15
467,-0.02,-1.0,0.02,-1.65,-2.38,-2.81,236,311,414,469,292,15
468,-0.02,-1.0,0.03,-0.49,-2.44,-2.99,238,310,413,474,296,15
469,-0.03,-0.99,0.01,0.67,-2.5,-2.81,234,312,411,470,293,15
470,-0.03,-0.99,0.03,-0.12,-2.62,-2.32,236,312,415,471,294,15
471,-0.02,-1.0,0.03,-0.06,-2.38,-3.05,238,310,413,474,294,15
472,-0.03,-1.0,0.02,0.85,-3.85,-2.32,237,314,415,477,295,15
473,-0.02,-0.99,-0.01,-5.8,-3.48,-4.39,234,310,416,475,296,15
474,-0.04,-0.99,0.0,-1.65,-6.65,1.77,234,310,414,470,294,15
475,-0.02,-0.99,-0.01,-1.46,-3.42,-0.43,236,310,417,470,296,15
476,-0.05,-1.0,0.02,0.37,-5.07,-0.37,236,310,415,472,296,15
477,-0.01,-0.99,-0.01,0.43,-0.79,-1.95,235,312,415,465,295,15
478,-0.03,-0.99,0.02,-0.61,-3.23,-2.14,235,313,415,469,289,15
479,-0.03,-1.0,0.01,-7.08,6.41,6.65,235,313,412,470,294,15
480,-0.08,-1.0,0.01,-1.16,-2.75,-3.17,239,311,420,475,295,15
481,-0.14,-0.97,-0.08,-3.36,1.16,12.15,236,308,415,474,293,15
482,-0.16,-0.92,-0.17,21.48,-23.19,33.51,237,309,418,470,292,15
483,-0.31,-0.96,0.29,12.27,-0.92,-4.27,236,313,414,469,289,15
484,-0.32,-0.92,0.24,-2.5,-3.97,-2.44,235,308,418,470,296,15
485,-0.28,-0.92,0.21,0.43,-3.6,-3.05,238,307,418,474,293,15
486,-0.29,-0.92,0.22,-0.43,-4.09,-3.97,237,312,422,471,296,15
487,-0.2,-0.95,0.18,-10.19,-62.07,-44.43,237,312,417,470,294,15
488,0.04,-0.99,0.24,-4.64,-23.25,-9.95,237,310,415,465,292,15
489,0.12,-0.98,0.17,-24.96,6.77,6.1,235,314,416,472,291,15
490,0.02,-0.97,-0.13,1.77,-12.15,7.32,237,307,415,471,293,15
491,0.06,-0.99,-0.03,2.75,6.29,0.49,235,315,416,471,295,15
492,0.04,-0.99,-0.03,-0.24,3.23,-2.44,238,312,415,469,293,15
493,0.05,-0.99,-0.04,6.77,48.4,11.84,238,318,416,468,297,15
494,-0.05,-0.98,0.03,14.83,-4.58,-1.59,239,312,415,473,294,15
495,-0.2,-0.96,0.24,33.63,7.93,-7.87,247,309,417,468,290,15
496,-0.25,-0.94,0.23,-2.26,-10.38,2.38,235,311,419,474,292,15
497,-0.18,-0.97,0.21,2.26,-2.75,-5.86,235,310,413,467,292,15
498,-0.21,-0.96,0.19,-1.1,-6.9,-2.69,254,311,415,472,289,15
499,-0.17,-0.95,0.17,-2.5,-4.58,-6.65,236,313,415,466,295,15
500,-0.16,-0.97,0.16,0.73,-2.81,-3.6,236,317,421,467,292,15
501,-0.16,-0.98,0.17,-0.12,-2.69,-2.44,238,313,415,468,293,15
502,-0.16,-0.98,0.18,-3.48,-2.5,-0.85,232,309,414,469,295,15
503,-0.16,-0.98,0.16,-1.34,-2.38,-3.91,236,311,416,478,291,15
504,-0.15,-0.98,0.14,-5.19,-2.69,0.0,234,321,425,472,295,15
505,-0.16,-0.97,0.12,6.04,-1.83,-2.14,236,309,416,469,292,15
506,-0.16,-0.97,0.14,0.98,-4.88,-3.11,238,314,418,472,292,15
507,-0.2,-0.97,0.14,3.91,-7.2,2.08,237,311,418,470,295,15
508,-0.15,-0.97,0.14,0.18,-4.64,-2.38,236,311,416,469,295,15
509,-0.16,-0.97,0.13,-0.18,-3.11,-1.89,236,311,412,469,292,15
510,-0.18,-0.98,0.14,0.85,-2.32,-2.38,237,311,412,471,293,15
511,-0.17,-0.97,0.14,0.67,-0.43,-6.59,236,308,415,470,295,15
512,-0.15,-0.97,0.14,-0.73,-3.48,-2.69,239,313,416,470,292,15
513,-0.15,-0.98,0.14,0.24,-2.87,-3.17,237,311,416,470,294,15
514,-0.15,-0.98,0.13,0.79,-3.42,-2.69,236,310,418,472,292,15
515,-0.15,-0.97,0.14,0.37,-3.85,-2.75,236,311,412,470,292,15
516,-0.16,-0.97,0.13,1.1,-3.72,-2.62,236,312,416,467,293,15
517,-0.16,-0.97,0.14,3.05,-2.75,-2.26,235,310,412,470,292,15
518,-0.17,-0.98,0.16,-0.43,-4.21,-3.36,237,313,414,465,296,15
519,-0.16,-0.97,0.14,-0.06,-3.23,-3.05,237,312,413,475,294,15
520,-0.12,-0.97,0.12,-3.6,-1.59,-10.19,237,310,416,469,294,15
521,-0.04,-0.99,0.15,1.46,-12.39,-11.96,236,311,421,472,294,15
522,-0.03,-0.99,0.12,-6.59,-6.77,-9.09,239,310,416,468,290,15
523,-0.03,-0.98,0.12,1.28,-2.87,-1.46,239,312,418,467,294,15
524,-0.02,-1.0,0.14,-1.34,-2.56,-3.66,240,311,413,471,294,15
525,0.05,-0.99,0.09,-8.54,2.5,-11.6,235,313,416,486,294,15
526,0.02,-1.0,0.1,1.22,-5.43,-3.66,237,307,412,471,292,15
527,0.03,-1.0,0.09,-0.79,-2.81,-3.97,238,315,417,471,291,15
528,0.01,-0.99,0.08,0.0,-2.62,-3.72,239,312,411,470,293,15
529,0.02,-0.99,0.09,1.1,-0.67,-1.1,240,310,413,470,294,15
530,-0.02,-0.99,0.07,-4.76,-13.06,-3.66,237,312,414,474,292,15
531,0.02,-1.0,0.1,4.09,-3.17,-2.08,238,313,417,470,293,15
532,-0.01,-0.99,0.08,3.05,-3.42,-2.93,237,313,410,469,293,15
533,0.01,-1.0,0.09,-3.3,-2.93,-2.99,236,312,414,475,296,15
534,-0.01,-1.0,0.09,1.04,-2.99,-3.11,237,309,416,470,295,15
535,-0.01,-0.99,0.1,0.49,-3.23,-2.56,234,314,418,473,294,15
536,-0.01,-0.99,0.09,1.04,-2.75,-3.23,237,313,418,473,294,15
537,-0.01,-0.99,0.09,0.79,-2.93,-2.14,237,309,410,470,295,15
538,-0.01,-0.99,0.09,0.61,-2.56,-2.81,235,311,413,467,294,15
539,0.01,-0.99,0.09,0.06,-3.23,-2.87,239,312,415,473,292,15
540,-0.0,-0.99,0.08,0.85,-2.81,-2.26,238,310,417,470,295,15
541,-0.0,-0.99,0.09,0.37,-2.99,-2.81,236,311,412,470,291,15
542,0.01,-0.98,0.08,1.04,-3.05,-2.32,237,307,415,474,294,15
543,-0.02,-0.98,0.04,-5.31,0.37,-1.1,240,313,416,475,295,15
544,-0.05,-0.99,0.09,0.92,-3.48,-4.33,237,312,410,469,293,15
545,-0.02,-0.99,0.09,0.85,-4.94,-3.23,239,314,410,473,293,15
546,-0.01,-0.99,0.09,-0.06,-0.18,-1.04,237,311,413,471,295,15
547,-0.07,-0.99,0.11,-1.1,-8.18,-5.13,239,312,417,472,294,15
548,-0.03,-0.99,0.1,1.83,-2.14,-2.69,240,313,410,471,293,15
549,-0.09,-0.99,0.09,1.46,7.63,14.4,237,311,414,468,294,15
550,-0.01,-0.99,0.1,-0.31,0.24,-6.59,237,312,414,473,293,15
551,-0.09,-0.99,0.11,1.1,-1.77,-6.47,236,314,415,470,296,15
552,-0.16,-0.98,0.13,4.09,-8.24,-3.36,240,311,414,470,295,15
553,-0.06,-0.97,0.09,0.73,-3.3,-2.81,241,313,415,471,294,15
554,-0.06,-0.99,0.11,0.24,-2.08,-2.26,238,310,413,470,294,15
555,-0.05,-0.98,0.09,-1.1,-2.01,-2.99,237,311,414,473,293,15
556,-0.06,-0.99,0.11,0.92,-1.1,-2.56,238,311,413,474,294,15
557,-0.07,-0.99,0.11,0.18,-2.26,-2.44,240,314,419,474,294,15
558,-0.08,-0.99,0.1,1.28,-2.14,-2.38,238,317,414,466,294,15
559,-0.08,-0.98,0.11,1.28,-2.81,-2.2,238,310,414,470,295,15
560,-0.09,-0.99,0.11,0.79,-2.5,-2.56,240,308,414,473,292,15
561,-0.08,-0.99,0.12,0.06,-2.75,-3.17,235,312,416,473,295,15
562,-0.09,-0.99,0.11,-0.37,-1.83,-3.91,240,314,414,468,295,15
563,-0.08,-0.98,0.12,1.04,-2.44,-3.11,236,312,413,474,295,15
564,-0.09,-0.98,0.11,0.31,-1.59,-2.26,237,311,414,468,294,15
565,-0.09,-1.03,0.09,0.0,-2.01,-1.83,240,317,416,470,295,15
566,-0.09,-0.99,0.11,-0.06,-2.62,-3.66,240,306,413,466,293,15
567,-0.09,-0.99,0.11,1.16,-1.83,-1.89,239,313,416,472,295,15
568,-0.08,-0.99,0.11,-0.06,-1.77,-3.91,238,314,415,470,298,15
569,-0.09,-0.99,0.11,-0.61,-0.79,-3.72,241,312,411,470,296,15
570,-0.1,-0.99,0.12,1.1,1.71,-0.43,238,311,415,466,293,15
571,-0.11,-0.98,0.11,-0.92,-3.66,-2.44,240,313,414,466,295,15
572,-0.11,-0.98,0.12,0.31,-2.87,-2.14,238,311,414,470,292,15
573,-0.11,-0.99,0.11,-0.18,-3.42,-1.83,238,312,410,470,295,15
574,-0.12,-0.98,0.11,0.43,-3.23,-2.44,239,314,413,468,294,15
575,-0.11,-0.98,0.11,-0.24,-3.48,-3.05,237,313,416,469,292,15
576,-0.12,-0.98,0.11,1.1,-3.05,-2.56,239,314,412,468,294,15
577,-0.12,-0.98,0.11,-0.98,-4.46,-3.42,237,314,413,470,296,15
578,-0.12,-0.99,0.13,0.61,-3.05,-3.54,235,311,414,470,293,15
579,-0.09,-0.97,0.12,3.66,-3.72,0.61,235,310,413,475,294,15
580,-0.09,-1.0,0.15,-4.82,-2.87,-4.76,238,316,412,473,292,15
581,-0.11,-0.99,0.12,-0.85,-5.13,-0.55,239,311,411,472,294,15
582,-0.11,-1.0,0.16,2.01,-1.4,-4.58,237,314,413,469,293,15
583,-0.07,-0.99,0.08,0.98,-3.3,-2.75,238,312,414,465,291,15
584,-0.11,-0.98,0.12,1.1,-1.71,-2.26,239,312,415,475,295,15
585,-0.11,-0.98,0.11,0.49,-2.32,-2.44,238,310,414,466,294,15
586,-0.09,-0.98,0.13,-0.06,-4.52,-2.75,240,311,414,468,294,15
587,-0.09,-0.99,0.12,-1.65,-2.26,-3.17,240,311,415,474,295,15
588,-0.13,-1.0,0.15,5.49,-5.74,1.4,238,310,415,468,292,15
589,-0.12,-0.96,0.12,0.79,-8.97,10.56,240,313,428,473,293,15
590,-0.11,-0.99,0.2,-3.17,-3.05,-5.68,239,312,412,471,295,15
591,-0.11,-0.99,0.12,4.03,1.83,-6.53,234,312,416,474,297,15
592,-0.09,-0.97,0.11,1.46,-0.98,-4.64,236,311,414,473,294,15
593,-0.06,-0.98,0.12,4.76,-9.16,-4.88,237,311,412,465,293,15
594,-0.09,-0.99,0.14,-9.22,-4.33,-3.72,240,311,416,471,295,15
595,-0.09,-0.99,0.09,-7.45,-2.75,-4.94,238,312,414,470,294,15
596,-0.06,-0.99,0.07,-0.12,-2.62,-4.09,239,313,414,470,293,15
597,0.02,-0.99,0.03,0.12,-6.16,-2.87,241,313,414,470,293,15
598,-0.04,-1.0,0.16,12.7,-4.82,5.25,240,313,414,470,294,15
599,0.08,-0.97,0.14,3.36,3.11,-5.37,241,313,414,471,293,15
600,-0.07,-0.98,0.17,-0.31,1.77,-6.59,238,312,415,470,296,15
601,-0.01,-0.98,0.14,0.43,-5.86,-0.18,237,313,414,470,296,15
602,-0.03,-0.98,0.16,-1.1,-0.24,-3.54,236,311,415,466,294,15
603,0.02,-0.97,0.13,0.18,-2.08,-4.33,237,311,414,466,298,15
604,-0.03,-0.99,0.15,2.81,-2.93,-2.38,236,312,413,472,293,15
605,0.03,-1.02,0.17,-4.7,13.12,-6.84,246,314,413,470,294,15
606,0.02,-0.99,0.15,3.85,-13.43,1.65,238,312,415,474,297,15
607,0.02,-1.0,0.12,2.5,-0.92,-4.58,239,310,412,468,295,15
608,0.0,-0.99,0.12,3.66,-4.46,-0.37,239,310,415,470,292,15
609,-0.01,-1.0,0.13,-1.4,-2.99,-3.05,239,316,416,470,295,15
610,0.0,-0.99,0.13,0.37,-3.66,-1.28,237,311,416,470,295,15
611,-0.01,-0.99,0.13,0.61,-1.65,-2.56,238,314,413,470,294,15
612,-0.01,-0.99,0.14,1.22,-3.48,-0.98,241,313,416,471,294,15
613,-0.01,-0.99,0.15,0.43,-2.5,-3.42,241,311,413,469,296,15
614,-0.02,-0.99,0.14,0.73,-3.3,-2.32,241,308,413,471,298,15
615,-0.01,-0.98,0.14,0.85,-2.69,-2.75,240,315,413,471,297,15
616,-0.0,-0.98,0.14,-0.92,1.16,-1.1,238,314,417,473,294,15
617,-0.0,-1.0,0.15,0.06,-2.69,-2.38,236,312,412,467,294,15
618,-0.01,-1.0,0.15,0.92,-1.65,-2.26,240,312,422,472,294,15
619,-0.04,-0.99,0.14,2.26,-1.59,-1.53,239,312,412,465,292,15
620,-0.03,-0.99,0.13,0.0,-4.58,-2.93,238,312,415,466,293,15
621,-0.01,-0.99,0.14,2.62,-0.73,-2.26,239,311,415,470,294,15
622,-0.04,-0.99,0.15,-0.61,-3.48,-2.2,238,308,415,470,295,15
623,-0.04,-0.99,0.15,-1.22,-3.17,-3.54,238,311,412,466,294,15
624,-0.04,-0.98,0.12,-2.14,-2.32,-2.75,234,313,412,471,296,15
625,-0.05,-0.98,0.14,0.37,-1.59,-4.33,239,322,414,470,294,15
626,-0.03,-0.98,0.15,-0.98,-3.66,-2.2,238,312,410,470,296,15
627,-0.03,-0.99,0.13,1.1,-2.75,-1.53,238,311,413,471,297,15
628,-0.04,-0.99,0.14,-1.28,-2.99,-2.87,239,314,412,469,294,15
629,-0.02,-0.98,0.13,-0.37,-2.26,-3.91,238,309,415,474,296,15
630,-0.03,-0.99,0.13,0.55,-2.5,-2.87,239,312,415,469,294,15
631,-0.03,-0.98,0.13,1.59,-3.3,-2.01,239,311,409,471,298,15
632,-0.04,-0.98,0.13,-0.06,-2.87,-2.38,241,315,411,470,294,15
633,-0.03,-0.99,0.13,0.0,-2.69,-2.26,236,313,417,473,294,15
634,-0.03,-1.0,0.13,0.18,-3.72,-2.56,237,314,412,474,291,15
635,-0.05,-0.98,0.15,0.12,-1.53,-3.91,238,312,417,476,293,15
636,-0.02,-0.99,0.12,-0.37,-4.46,-3.97,239,312,412,474,296,15
637,-0.02,-0.99,0.12,0.79,-2.75,-1.65,237,312,415,473,296,15
638,-0.03,-0.99,0.13,-1.28,-4.46,-2.44,237,313,412,471,290,15
639,-0.03,-0.99,0.12,-0.55,-3.54,-2.44,238,310,413,474,293,15
640,-0.04,-0.98,0.12,1.53,-3.85,-2.14,236,310,413,473,290,15
641,-0.03,-0.98,0.11,1.1,-2.26,-2.14,234,314,412,470,294,15
642,-0.04,-0.97,0.13,-0.06,-3.36,-2.56,236,311,410,465,301,15
643,-0.04,-1.01,0.13,0.43,-3.85,-3.11,234,310,413,466,289,15
644,-0.05,-0.99,0.12,0.31,-2.44,-1.83,236,310,412,470,289,15
645,-0.04,-0.99,0.14,-0.43,-2.01,-3.48,240,312,410,470,295,15
646,-0.04,-0.99,0.13,-0.18,-2.99,-2.81,236,313,413,466,294,15
647,-0.04,-0.99,0.13,-0.37,-2.93,-2.62,240,312,414,468,292,15
648,-0.04,-0.99,0.13,-0.18,-3.23,-2.87,239,313,412,465,292,15
649,-0.04,-0.99,0.12,0.43,-3.3,-1.95,238,315,414,469,294,15
650,-0.05,-0.99,0.13,0.31,-3.78,-2.5,236,313,420,473,296,15
651,-0.05,-0.99,0.13,0.06,-2.2,-3.42,235,311,409,470,293,15
652,-0.05,-0.99,0.13,0.37,-3.54,-2.14,237,311,415,470,289,15
653,-0.05,-0.99,0.13,0.43,-3.23,-2.2,237,312,414,469,291,15
654,-0.05,-0.99,0.13,0.06,-2.81,-2.75,231,311,410,464,293,15
655,-0.05,-0.99,0.12,0.12,-3.11,-2.62,239,315,413,471,293,15
656,-0.04,-0.99,0.13,-0.61,-3.48,-2.32,238,312,415,465,290,15
657,-0.05,-0.99,0.12,0.85,-3.72,-2.26,236,311,414,474,294,15
658,-0.05,-0.99,0.13,0.49,-3.05,-2.87,236,313,415,466,294,15
659,-0.05,-0.99,0.13,-0.85,-2.93,-2.69,238,312,413,470,294,15
660,-0.04,-0.99,0.12,0.49,-2.81,-2.81,237,314,413,476,293,15
661,-0.05,-0.99,0.12,0.0,-2.2,-2.62,236,309,418,471,293,15
662,-0.04,-0.99,0.13,0.06,-2.75,-1.89,235,312,413,474,295,15
663,-0.05,-0.99,0.18,-5.98,-1.89,-4.52,237,313,412,470,291,15
664,-0.03,-0.99,0.08,-3.6,-2.38,-4.03,236,313,412,469,294,15
665,-0.05,-0.99,0.15,2.99,-3.42,0.55,237,312,412,471,294,15
666,-0.09,-0.99,0.11,-10.99,-12.88,-4.88,236,313,414,472,290,15
667,-0.07,-0.97,0.02,-7.63,-2.75,-6.47,238,318,414,469,296,15
668,-0.03,-0.98,0.02,-4.46,-8.0,1.4,237,312,414,470,292,15
669,-0.03,-0.99,0.1,0.61,-7.2,-3.66,237,309,409,470,295,15
670,-0.05,-0.99,0.06,3.36,-4.21,-1.89,238,311,408,470,290,15
671,-0.07,-0.98,0.07,-0.06,0.67,-0.73,237,312,412,471,292,15
672,-0.08,-0.97,0.19,3.36,13.61,0.31,236,310,411,472,295,15
673,-0.13,-1.0,0.18,3.42,2.26,-0.73,236,312,413,471,294,15
674,-0.12,-0.97,0.08,1.59,-18.49,-5.49,238,318,411,474,294,15
675,-0.08,-0.97,0.16,-11.05,-4.21,-15.26,238,310,412,468,295,15
676,-0.09,-0.99,0.14,-4.33,0.0,-4.39,244,313,412,465,294,15
677,-0.04,-0.99,0.09,7.45,-1.89,-5.43,239,312,412,470,294,15
678,-0.1,-0.98,0.12,-1.22,0.61,3.78,238,311,412,474,297,15
679,-0.09,-0.99,0.14,3.54,-0.98,0.61,239,318,412,472,295,15
680,-0.07,-0.98,0.09,-3.17,-3.66,-7.69,239,312,413,472,292,15
681,-0.05,-0.98,0.12,1.65,0.98,-3.36,238,311,408,468,292,15
682,-0.12,-0.97,0.13,-5.31,-2.26,-2.69,237,314,413,466,291,15
683,-0.12,-0.98,0.13,-2.81,-4.88,-1.59,240,309,411,465,295,15
684,-0.08,-0.98,0.14,-1.4,-0.06,-3.66,244,314,414,470,294,15
685,-0.09,-0.99,0.13,2.75,-5.55,-0.24,239,312,416,469,294,15
686,-0.1,-0.98,0.13,0.73,-1.04,-3.23,237,309,411,474,294,15
687,-0.11,-0.99,0.13,-0.85,-2.81,-4.03,237,311,412,470,291,15
688,-0.09,-0.97,0.22,9.46,5.98,-2.32,236,312,413,473,294,15
689,-0.09,-0.98,0.17,2.08,3.91,-7.51,240,313,413,470,294,15
690,-0.07,-0.98,0.16,3.91,-3.42,-0.79,234,312,412,470,298,15
691,-0.12,-0.99,0.16,-1.1,-5.43,-0.43,235,313,413,470,293,15
692,-0.09,-0.98,0.11,-1.16,-3.66,-3.48,237,314,409,469,294,15
693,-0.07,-0.99,0.13,-2.93,-2.44,-4.39,237,314,411,470,295,15
694,-0.07,-0.99,0.13,-0.98,-2.56,-2.75,235,312,411,469,293,15
695,-0.06,-1.0,0.18,4.15,-3.3,0.18,267,311,414,465,297,15
696,-0.04,-0.98,0.12,2.2,-1.4,-4.33,237,315,412,474,293,15
697,-0.05,-0.99,0.13,-0.92,-1.77,-3.54,266,320,411,474,295,15
698,-0.07,-0.98,0.13,0.06,-2.38,-2.75,238,312,410,474,297,15
699,-0.07,-0.98,0.11,0.98,-1.77,-2.62,235,317,412,473,291,15
700,-0.14,-0.98,0.14,-3.54,-1.71,-4.21,241,310,411,474,295,15
701,-0.06,-0.98,0.09,-0.61,-3.72,-0.55,240,315,410,465,292,15
702,-0.07,-0.99,0.12,0.31,-4.15,-2.14,239,312,409,474,295,15
703,-0.1,-0.99,0.13,1.28,-3.6,-2.5,238,311,413,465,293,15
704,-0.09,-0.99,0.12,0.12,-4.33,-1.83,237,318,413,465,293,15
705,-0.1,-0.99,0.12,0.55,-6.47,-1.4,240,310,412,465,292,15
706,-0.05,-0.99,0.12,-0.24,-3.78,-4.15,236,312,414,470,297,15
707,-0.07,-0.99,0.12,1.28,-2.14,-0.92,236,313,423,467,294,15
708,-0.06,-0.99,0.13,-1.22,-3.36,-3.6,239,315,413,467,297,15
709,-0.07,-0.99,0.12,0.37,-3.42,-2.38,235,312,411,471,290,15
710,-0.09,-0.99,0.14,-0.92,-2.56,-3.66,237,315,412,470,293,15
711,-0.13,-0.97,0.14,11.72,-11.66,10.07,238,314,412,469,295,15
712,-0.13,-0.97,0.16,0.24,-5.0,-1.04,238,312,410,475,296,15
713,-0.14,-0.97,0.15,-0.18,-4.64,-3.3,237,312,407,471,295,15
714,-0.1,-0.99,0.17,-1.83,2.87,-3.3,240,312,413,470,294,15
715,-0.12,-0.98,0.15,0.43,2.5,0.92,234,311,413,469,294,15
716,-0.14,-0.98,0.14,1.1,-7.14,-1.16,238,312,408,465,295,15
717,-0.08,-0.98,0.15,-1.77,-1.16,-5.68,235,321,408,470,294,15
718,-0.12,-0.98,0.15,0.85,-2.44,-1.77,237,310,413,469,293,15
719,-0.11,-0.99,0.15,-1.22,-2.75,-3.3,239,313,410,471,295,15
720,-0.11,-0.97,0.14,0.06,-2.01,-1.65,237,312,410,465,295,15
721,-0.11,-0.98,0.14,1.65,-2.32,-1.95,237,311,411,465,296,15
722,-0.11,-0.99,0.14,0.85,-2.26,-2.69,238,312,412,474,295,15
723,-0.13,-0.96,0.13,0.61,-3.6,-2.01,239,312,413,469,294,15
724,-0.12,-0.98,0.13,-3.66,-2.38,-5.74,237,312,423,469,294,15
725,-0.15,-0.97,0.14,-0.18,-2.01,-3.11,237,313,413,472,291,15
726,-0.11,-0.97,0.13,0.79,-0.85,-3.54,239,312,413,466,295,15
727,-0.12,-0.98,0.14,-0.18,-4.64,-2.08,235,309,411,470,295,15
728,-0.13,-0.98,0.15,3.97,-2.38,-2.01,239,314,414,470,296,15
729,-0.11,-0.98,0.15,7.32,-2.62,-2.56,237,312,411,470,295,15
730,-0.11,-0.98,0.16,0.92,-3.66,-3.48,237,313,411,474,300,15
731,-0.11,-0.99,0.17,2.08,-0.85,-2.5,236,314,412,473,296,15
732,-0.12,-0.98,0.14,-1.22,-2.87,-2.26,239,313,411,471,296,15
733,-0.13,-0.98,0.13,0.67,-2.81,-2.62,262,312,410,466,294,15
734,-0.12,-0.99,0.14,-0.12,-2.26,-2.75,237,313,409,470,297,15
735,-0.12,-0.98,0.13,-0.18,-3.36,-2.2,239,312,407,474,295,15
736,-0.12,-0.98,0.14,0.85,-2.87,-2.5,239,312,413,470,296,15
737,-0.12,-0.98,0.13,0.79,-3.17,-2.87,237,313,415,467,295,15
738,-0.12,-0.98,0.13,1.04,-3.3,-2.08,234,315,412,469,296,15
739,-0.13,-0.98,0.14,0.12,-3.36,-2.62,246,315,412,470,295,15
740,-0.13,-0.98,0.14,-0.06,-2.69,-2.81,239,314,408,470,295,15
741,-0.12,-0.98,0.14,-0.18,-3.11,-2.69,237,312,409,470,296,15
742,-0.12,-0.98,0.13,-0.12,-2.32,-2.75,241,314,408,470,296,15
743,-0.12,-0.98,0.14,0.24,-2.75,-2.69,237,312,410,469,297,15
744,-0.12,-0.98,0.13,1.22,-2.56,-2.93,258,314,409,472,294,15
745,-0.13,-0.98,0.13,0.79,-2.81,-2.62,239,309,410,474,295,15
746,-0.12,-0.98,0.14,0.92,-3.3,-2.2,237,312,413,464,293,15
747,-0.12,-0.98,0.13,0.67,-4.09,-2.2,238,313,410,474,302,15
748,-0.09,-0.97,0.1,2.44,-1.89,-2.69,240,309,411,471,296,15
749,-0.16,-0.96,0.18,-21.73,-10.86,2.2,239,311,411,473,297,15
750,-0.1,-0.98,0.03,5.43,3.05,-19.1,240,313,413,466,292,15
751,-0.11,-0.99,0.02,4.94,-5.74,-0.55,240,315,410,467,293,15
752,-0.09,-0.99,0.01,2.69,-7.81,0.12,239,310,408,469,299,15
753,-0.03,-0.99,0.0,-4.03,1.95,-13.61,239,313,410,472,296,15
754,0.03,-0.99,-0.03,2.5,-5.19,1.59,236,318,411,471,296,15
755,0.0,-0.99,0.0,-2.93,0.55,-8.12,238,309,411,468,297,15
756,0.05,-0.99,-0.04,-2.01,5.98,-2.81,240,311,409,474,298,15
757,-0.13,-1.02,0.16,8.3,-0.37,-13.92,237,312,411,469,299,15
758,0.07,-0.99,-0.0,0.24,-3.17,-1.34,261,316,407,468,294,15
759,-0.01,-1.0,0.03,-0.55,-2.75,-4.15,235,313,410,471,296,15
760,-0.0,-1.0,0.02,1.4,-3.36,-1.65,239,314,413,473,296,15
761,0.01,-1.0,0.02,0.0,-2.56,-2.69,238,314,411,468,297,15
762,0.01,-0.99,0.03,0.31,-2.5,-3.05,238,313,407,473,297,15
763,0.01,-1.0,0.01,0.79,-2.99,-2.32,241,314,410,469,296,15
764,0.02,-1.0,0.01,1.83,-3.23,-1.77,239,314,412,473,294,15
765,0.01,-1.0,0.02,1.22,-3.23,-2.69,238,313,410,468,295,15
766,0.01,-0.99,0.02,1.04,-2.5,-2.81,240,314,410,463,295,15
767,0.01,-1.0,0.02,0.85,-2.99,-2.08,240,315,409,475,295,15
768,0.01,-1.0,0.03,-0.49,-0.43,-1.4,237,315,412,464,294,15
769,0.0,-1.0,0.02,0.85,-1.77,-1.59,238,314,408,468,296,15
770,-0.02,-1.0,0.03,0.73,-5.74,-3.91,237,313,410,465,296,15
771,0.01,-0.99,0.02,0.98,-4.27,-4.09,238,310,410,473,296,15
772,-0.0,-1.0,0.01,0.24,-3.42,-2.75,232,312,408,470,294,15
773,0.01,-0.99,0.01,1.22,-3.23,-1.95,239,310,413,470,297,15
774,-0.03,-1.0,0.04,1.28,-2.26,-1.34,230,310,406,474,295,15
775,-0.02,-0.99,0.03,0.61,-3.48,-2.32,237,312,409,472,293,15
776,-0.03,-1.0,0.03,1.89,-1.65,-1.59,235,313,407,464,295,15
777,-0.03,-1.0,0.03,0.55,-2.38,-1.95,238,311,406,469,296,15
778,-0.02,-1.0,0.03,1.04,-2.08,-2.38,237,312,410,473,297,15
779,-0.04,-1.0,0.04,1.16,-1.1,-2.14,238,313,414,469,297,15
780,-0.04,-1.0,0.04,-2.01,-2.32,-2.38,238,314,408,469,294,15
781,-0.05,-0.99,0.03,2.62,12.02,5.31,238,314,410,469,298,15
782,-0.12,-0.99,0.03,-1.65,-2.87,-2.99,239,314,411,470,295,15
783,-0.11,-0.98,0.02,0.73,-3.36,-2.38,238,310,411,466,298,15
784,-0.07,-1.0,0.02,0.31,-5.07,-4.76,237,315,407,468,297,15
785,-0.09,-0.99,0.03,-1.04,-2.81,-2.26,236,314,413,469,295,15
786,-0.07,-0.98,0.01,0.55,-2.69,-2.93,237,312,411,468,296,15
787,-0.08,-0.99,0.01,-1.22,-2.56,-3.3,237,312,409,471,294,15
788,-0.07,-0.99,-0.01,-0.98,-3.6,-4.46,238,313,412,470,287,15
789,-0.07,-0.99,0.02,1.46,-3.36,-1.34,266,313,407,469,293,15
790,-0.08,-0.99,0.01,-0.12,-2.75,-3.54,240,311,410,472,292,15
791,-0.07,-0.99,0.03,0.37,-3.11,-1.28,242,311,406,475,294,15
792,-0.09,-1.0,0.02,0.43,-4.27,-2.08,240,314,410,469,288,15
793,-0.08,-0.99,0.01,0.24,-2.56,-2.62,236,310,412,467,295,15
794,-0.09,-0.99,0.04,0.61,-3.42,-1.71,240,310,406,468,295,15
795,-0.1,-0.98,0.04,2.2,-3.78,1.95,237,312,410,467,296,15
796,-0.14,-0.98,0.03,2.32,-5.8,-0.43,244,314,413,469,294,15
797,-0.12,-0.98,0.05,0.12,-0.98,-5.31,255,311,411,468,294,15
798,-0.12,-0.99,0.04,-0.55,-2.56,-2.75,239,310,406,469,298,15
799,-0.12,-0.98,0.02,0.18,-1.95,-1.46,239,315,412,467,292,15
800,-0.13,-0.97,0.04,3.48,-0.85,-0.43,235,315,408,469,295,15
801,-0.17,-0.98,0.03,1.65,-3.3,-0.37,237,314,407,467,294,15
802,-0.06,-0.99,-0.01,-6.04,4.09,-11.47,238,313,413,467,298,15
803,-0.1,-1.0,0.01,1.71,-4.27,-0.43,238,314,407,470,296,15
804,-0.12,-0.99,0.01,0.49,-5.98,-0.79,237,312,409,470,294,15
805,-0.11,-0.99,0.03,1.53,-3.42,-2.5,237,312,411,463,298,15
806,-0.12,-0.99,0.04,1.46,-3.3,-3.23,236,311,414,472,297,15
807,-0.11,-0.99,0.05,1.34,-2.26,-1.28,238,314,410,466,298,15
808,-0.12,-0.98,0.03,0.12,-3.72,-1.89,239,312,409,467,297,15
809,-0.11,-0.97,0.01,5.25,-8.54,4.7,236,314,409,468,294,15
810,-0.18,-0.98,0.07,0.06,-1.77,-3.42,238,313,409,472,295,15
811,-0.16,-0.97,0.07,-0.06,-3.6,-3.91,239,313,410,469,295,15
812,-0.09,-1.02,0.04,-6.41,-1.4,-11.96,239,314,411,472,297,15
813,-0.1,-0.98,0.0,-1.59,-4.39,-4.82,238,314,408,472,297,15
814,-0.1,-0.98,0.03,1.83,-3.72,-0.24,236,314,409,468,292,15
815,-0.12,-1.0,0.07,3.11,-4.33,-2.87,237,313,409,472,297,15
816,-0.06,-0.99,0.01,5.13,-4.09,-2.56,236,315,410,470,296,15
817,-0.1,-0.99,0.05,-2.2,-3.17,-7.32,239,311,411,470,296,15
818,-0.09,-0.99,0.04,-0.55,-5.68,0.79,237,313,407,473,303,15
819,-0.05,-0.98,0.04,-3.85,-3.6,-6.84,240,314,409,468,295,15
820,-0.06,-0.99,0.02,-4.82,-3.48,-2.26,234,311,410,473,294,15
821,-0.03,-1.01,-0.0,-1.71,-0.24,-7.32,235,310,407,473,294,15
822,-0.05,-0.98,-0.0,2.99,-1.34,-3.3,236,313,409,468,295,15
823,-0.05,-1.0,0.02,1.89,-3.54,-1.22,235,312,410,469,294,15
824,-0.06,-0.99,0.02,-0.18,-2.08,-3.6,237,315,421,469,292,15
825,-0.06,-0.99,-0.02,0.55,-2.75,-2.2,239,314,410,471,298,15
826,-0.06,-0.99,0.01,2.87,-2.69,-1.77,238,312,407,469,294,15
827,-0.05,-1.0,0.0,-1.04,-4.58,-5.68,233,312,411,468,296,15
828,-0.07,-1.0,0.03,3.23,-7.63,-0.67,236,313,410,472,294,15
829,-0.05,-0.99,0.03,-0.06,-2.69,-1.83,235,312,409,469,294,15
830,-0.1,-0.99,0.04,2.87,-6.47,1.22,239,314,409,470,292,15
831,-0.11,-0.98,0.04,1.59,3.05,-1.28,239,312,410,470,294,15
832,-0.08,-1.02,0.17,-3.36,1.53,-0.49,235,311,410,467,295,15
833,-0.06,-0.96,-0.07,-23.86,-18.07,-29.42,236,312,408,469,292,15
834,-0.01,-0.98,0.01,9.4,-4.52,8.61,238,313,411,467,297,15
835,0.06,-1.01,0.02,0.61,-5.13,-3.85,240,314,409,466,294,15
836,0.0,-1.02,0.09,0.67,-4.7,-13.49,236,313,408,470,296,15
837,0.01,-0.99,0.06,3.23,-8.24,-0.73,237,314,410,468,295,15
838,0.02,-1.01,0.1,5.43,-1.65,-3.97,236,315,409,469,297,15
839,-0.0,-1.0,0.09,2.56,-2.93,-3.42,236,312,407,474,295,15
840,-0.02,-0.99,0.08,-0.73,-0.49,-6.53,237,314,413,469,295,15
841,-0.0,-0.98,0.1,5.37,-2.99,-0.85,236,311,410,472,291,15
842,0.0,-1.0,0.1,1.53,-3.3,0.37,239,314,410,469,297,15
843,0.02,-0.99,0.07,-1.22,-4.52,-2.32,237,312,409,478,295,15
844,-0.03,-1.0,0.12,5.92,-12.63,18.01,238,312,410,466,295,15
845,-0.03,-0.99,0.13,-2.81,-10.93,-16.05,237,313,412,475,293,15
846,0.02,-0.99,0.1,0.06,-3.48,-4.27,239,313,411,468,298,15
847,0.03,-0.99,0.1,-0.12,-2.2,-4.03,238,314,408,469,295,15
848,0.03,-0.99,0.1,0.67,-2.87,-2.99,240,311,410,470,296,15
849,0.03,-1.01,0.16,-4.46,2.81,-2.32,232,311,418,469,297,15
850,0.07,-0.99,0.03,-4.39,-1.59,-6.23,261,314,407,477,295,15
851,0.05,-1.0,0.06,2.01,-5.49,-4.52,237,312,409,474,297,15
852,0.04,-1.0,0.06,1.89,-1.59,-2.08,234,312,411,471,293,15
853,0.05,-0.99,0.06,-0.06,-1.59,-4.39,236,312,410,472,298,15
854,0.02,-1.0,0.06,2.32,-4.46,1.59,236,315,412,469,295,15
855,0.03,-1.0,0.07,-1.77,-2.32,-3.48,237,313,411,465,296,15
856,0.02,-0.99,0.06,1.22,-4.39,-1.65,240,314,413,466,296,15
857,0.02,-0.99,0.07,1.77,-4.7,-0.06,246,311,408,466,299,15
858,0.02,-0.99,0.06,0.67,-4.39,-0.98,240,312,409,469,297,15
859,-0.01,-1.0,0.09,-0.73,-2.62,-3.3,239,312,409,465,296,15
860,-0.0,-1.0,0.1,-0.61,-2.99,-2.99,237,311,408,469,291,15
861,-0.0,-1.0,0.08,-0.06,-3.54,-2.75,234,315,408,470,294,15
862,0.0,-1.0,0.07,1.34,-3.6,-1.89,238,313,406,468,298,15
863,-0.0,-0.99,0.08,1.83,-2.44,-2.69,235,311,408,472,296,15
864,-0.0,-0.99,0.09,1.16,-3.36,-2.56,237,311,405,469,296,15
865,-0.0,-1.0,0.09,-1.34,-3.05,-3.72,239,314,408,469,297,15
866,-0.01,-0.99,0.08,0.73,-2.32,-2.75,238,316,409,466,296,15
867,-0.01,-0.99,0.08,0.55,-2.81,-3.17,236,312,410,470,296,15
868,-0.01,-0.99,0.09,0.92,-2.56,-2.69,239,315,405,469,296,15
869,-0.01,-0.99,0.07,0.61,-2.87,-3.54,237,313,406,469,296,15
870,0.01,-0.99,0.08,-0.18,-2.44,-2.38,239,313,411,469,296,15
871,0.01,-0.99,0.07,0.67,-4.39,-3.3,245,312,407,473,297,15
872,0.01,-0.99,0.08,1.53,-4.27,-1.28,240,314,411,468,297,15
873,-0.01,-1.0,0.1,1.77,-6.71,-1.71,237,313,411,468,296,15
874,0.09,-0.96,-0.15,-10.74,-93.93,14.1,235,314,409,463,306,15
875,-0.3,-0.97,0.04,-34.0,-55.85,-21.42,240,315,410,468,297,15
876,-0.02,-1.05,0.06,23.8,32.04,-12.33,237,314,408,470,296,15
877,-0.26,-0.94,0.02,-17.09,4.94,-40.65,240,312,412,469,296,15
878,-0.24,-0.95,-0.13,-44.13,-12.51,-21.18,238,313,404,468,300,15
879,-0.17,-0.96,-0.19,-12.45,-23.07,1.83,238,313,411,472,294,15
880,-0.16,-0.96,-0.13,2.08,5.19,-7.69,238,310,407,467,295,15
881,-0.15,-0.97,-0.14,8.85,-4.64,-0.61,239,311,410,470,292,15
882,-0.11,-0.97,-0.15,1.71,1.65,-6.23,239,315,410,469,298,15
883,-0.13,-0.97,-0.08,0.55,15.69,-11.9,238,310,403,469,296,15
884,-0.02,-1.01,-0.06,5.49,5.92,0.98,240,311,408,472,298,15
885,-0.04,-0.98,-0.1,8.12,-11.41,0.31,238,308,405,473,297,15
886,-0.04,-0.99,-0.08,-1.77,-1.46,-5.13,236,314,406,468,299,15
887,-0.09,-1.0,0.03,5.25,-3.6,2.87,238,312,407,468,299,15
888,0.01,-0.99,-0.1,1.77,-1.34,-2.56,240,310,406,470,295,15
889,-0.08,-0.99,0.01,6.29,-3.97,-1.28,239,311,405,466,296,15
890,-0.07,-0.99,-0.01,-1.22,-6.16,-4.09,246,305,404,469,300,15
891,0.04,-1.02,0.07,37.05,22.46,-5.37,262,305,402,474,306,15
892,-0.01,-0.99,-0.07,-40.53,-13.18,-21.55,264,306,408,472,302,15
893,-0.19,-0.97,0.09,-0.49,-3.42,-1.22,175,266,425,446,292,15
894,-0.18,-0.97,0.11,1.46,-5.31,-2.75,168,264,423,452,298,15
895,-0.19,-0.98,0.1,-0.24,-4.58,-2.2,176,267,425,451,293,15
896,-0.19,-0.97,0.1,-0.24,-2.5,-2.14,173,263,422,453,293,15
897,-0.21,-0.97,0.08,1.22,-6.29,-3.3,175,263,422,454,295,15
898,-0.21,-0.97,0.09,0.0,-6.23,-2.99,172,266,424,452,298,15
899,-0.19,-0.97,0.07,-0.12,-5.13,-1.16,176,265,425,457,300,15
900,-0.18,-0.98,0.08,-0.85,-1.65,-2.62,176,259,423,450,294,15
901,-0.18,-0.98,0.08,-0.92,-3.05,-3.85,187,265,421,458,294,15
902,-0.19,-0.97,0.09,2.26,-2.93,-3.72,177,262,419,452,299,15
903,-0.19,-0.98,0.09,1.95,-3.78,-2.81,178,262,421,457,298,15
904,-0.19,-0.98,0.1,2.26,-5.13,-1.95,179,262,421,449,297,15
905,-0.19,-0.97,0.09,0.92,-3.11,-1.77,181,261,421,460,296,15
906,-0.2,-0.97,0.11,0.49,-1.34,-2.56,177,264,418,460,298,15
907,-0.2,-0.97,0.1,1.4,-3.48,-2.81,176,260,418,455,293,15
908,-0.19,-0.97,0.09,-1.34,-2.2,-3.17,178,262,419,459,298,15
909,-0.19,-0.97,0.11,3.11,-3.6,-1.71,179,262,417,460,299,15
910,-0.2,-0.97,0.1,-0.31,-3.48,-2.38,182,259,420,457,305,15
911,-0.2,-0.97,0.09,0.61,-2.99,-1.77,182,263,417,454,298,15
912,-0.21,-0.96,0.1,0.79,-2.99,-1.22,183,263,417,454,302,15
913,-0.22,-0.96,0.11,1.16,-2.87,-2.08,179,269,415,460,300,15
914,-0.22,-0.96,0.12,2.2,-4.21,-1.83,182,268,412,452,300,15
915,-0.21,-0.96,0.1,0.43,-3.11,-1.89,183,262,415,455,300,15
916,-0.21,-0.97,0.09,-2.56,-1.46,-3.3,184,262,416,458,297,15
917,-0.21,-0.97,0.09,-2.69,-2.69,-2.69,181,259,409,454,303,15
918,-0.21,-0.97,0.11,0.18,-1.34,-1.28,183,264,411,450,301,15
919,-0.23,-0.96,0.1,-2.08,-2.99,-2.32,187,265,413,457,301,15
920,-0.22,-0.96,0.1,0.98,-2.69,-2.01,181,265,414,455,297,15
921,-0.2,-0.97,0.09,-0.18,-2.75,-3.17,184,261,418,452,299,15
922,-0.2,-0.96,0.11,-3.97,-3.3,-5.68,184,263,412,451,304,15
923,-0.22,-0.97,0.06,-0.31,-2.2,-3.54,182,266,408,460,298,15
924,-0.17,-0.98,0.03,2.38,-6.29,-0.18,182,263,412,450,300,15
925,-0.14,-0.98,0.09,-6.29,4.15,-13.55,181,266,414,450,298,15
926,-0.22,-0.98,0.02,-0.31,-2.56,-7.14,184,263,412,459,297,15
927,-0.16,-0.98,-0.01,-0.67,-4.52,0.98,187,262,408,456,302,15
928,-0.17,-0.98,-0.0,7.75,-8.91,-0.31,185,264,412,455,301,15
929,-0.2,-0.97,0.06,3.72,-4.82,-2.38,182,260,413,457,298,15
930,-0.18,-0.98,0.0,-10.74,-3.97,-4.52,181,262,410,455,298,15
931,-0.14,-0.98,0.01,-2.69,-7.81,-2.69,187,266,412,460,301,15
932,-0.16,-0.98,0.0,0.06,-2.38,-3.85,183,263,412,450,305,15
933,-0.17,-0.98,-0.0,-0.12,-1.28,-3.42,183,265,410,453,300,15
934,-0.17,-0.98,-0.0,1.04,-3.3,-2.5,184,267,415,455,299,15
935,-0.17,-0.98,-0.01,0.49,-4.09,-2.62,184,261,413,457,302,15
936,-0.16,-0.98,-0.03,3.54,-5.68,-3.48,184,267,412,456,300,15
937,-0.16,-1.0,0.01,-7.63,1.16,1.77,185,265,414,455,299,15
938,-0.17,-0.98,-0.02,1.22,-1.16,-2.75,184,264,415,453,297,15
939,-0.17,-0.98,-0.02,-2.69,-5.37,-2.69,187,266,416,456,300,15
940,-0.17,-0.99,-0.01,2.26,-3.42,-2.81,185,265,414,454,298,15
941,-0.18,-0.98,-0.0,0.55,-4.58,-1.65,187,266,415,457,298,15
942,-0.18,-0.98,-0.0,0.06,-3.78,-3.05,186,266,413,454,302,15
943,-0.18,-0.98,-0.0,-1.04,-4.7,-3.11,185,264,413,455,303,15
944,-0.18,-0.97,-0.0,-1.71,-2.81,-2.93,186,263,414,455,300,15
945,-0.16,-0.98,0.0,3.17,-4.46,-0.43,184,266,412,451,299,15
946,-0.17,-0.97,-0.05,-8.54,-3.48,-3.66,192,260,411,455,300,15
947,-0.17,-0.99,0.03,1.89,-1.4,-1.16,187,269,411,456,299,15
948,-0.16,-1.0,-0.02,-1.1,-2.75,-2.75,187,265,412,461,302,15
949,-0.16,-0.98,-0.01,-0.43,-1.95,-0.55,187,263,412,456,301,15
950,-0.17,-0.98,-0.01,1.95,-5.19,-2.08,188,260,412,461,302,15
951,-0.16,-0.98,-0.02,-2.32,-2.44,-3.42,185,261,420,455,297,15
952,-0.17,-0.98,0.01,0.85,-2.08,-1.04,186,264,409,461,299,15
953,-0.19,-0.98,0.0,-0.61,-3.78,-7.14,189,264,416,458,302,15
954,-0.14,-0.98,-0.04,0.06,-4.88,-1.46,189,267,409,457,298,15
955,-0.15,-0.98,0.01,0.98,-9.83,1.22,185,264,407,461,297,15
956,-0.18,-0.97,-0.03,-3.42,-6.04,-5.43,188,264,408,457,300,15
957,-0.17,-0.99,0.01,-1.22,-7.08,0.67,187,262,409,461,299,15
958,-0.16,-0.97,0.0,-3.17,-7.57,-2.93,187,261,410,459,298,15
959,-0.12,-0.98,0.01,-1.77,-1.53,-1.16,188,265,407,460,296,15
960,-0.14,-0.98,0.0,3.72,-6.29,-4.39,192,266,406,461,299,15
961,-0.12,-0.99,0.0,-2.14,12.7,-6.9,187,264,407,456,301,15
962,-0.18,-0.98,-0.04,0.85,-13.24,8.61,187,263,405,457,299,15
963,-0.13,-0.98,0.1,8.06,-9.34,-2.56,186,263,405,457,304,15
964,-0.12,-0.99,0.02,-0.18,8.48,-6.96,190,262,418,458,301,15
965,-0.12,-0.98,-0.01,-2.44,-0.24,-6.47,189,264,411,458,300,15
966,-0.16,-0.98,0.01,-0.24,-3.91,-2.87,188,263,406,453,300,15
967,-0.12,-0.98,0.02,-4.03,-0.67,-3.36,190,264,407,462,296,15
968,-0.14,-0.99,-0.05,-3.97,-4.64,-3.54,184,264,407,457,300,15
969,-0.13,-0.99,-0.0,0.0,-8.97,-0.73,189,265,402,457,299,15
970,-0.13,-0.99,-0.06,-0.37,-2.38,-3.6,191,261,410,458,299,15
971,-0.15,-0.98,-0.02,1.1,-6.59,-4.76,190,265,403,457,303,15
972,-0.13,-0.99,-0.05,-1.71,-4.21,-1.1,188,271,401,457,304,15
973,-0.11,-0.98,-0.06,-0.37,-3.48,-2.87,190,271,402,457,300,15
974,-0.12,-0.99,-0.04,1.77,-3.66,-1.83,188,264,404,462,301,15
975,-0.12,-1.0,-0.04,-1.65,-3.05,-3.78,190,265,404,462,300,15
976,-0.12,-1.0,-0.07,0.37,-0.79,-2.69,189,265,402,458,299,15
977,-0.12,-0.99,-0.05,1.1,-1.83,-3.23,193,265,403,460,302,15
978,-0.13,-0.99,-0.03,-2.62,-0.24,-4.33,189,267,403,462,298,15
979,-0.13,-0.99,-0.08,1.89,-5.55,4.94,192,267,402,456,301,15
980,-0.13,-0.98,-0.06,5.74,-3.48,-0.92,190,267,402,462,302,15
981,-0.15,-0.98,-0.01,1.16,-4.76,-2.14,193,266,402,461,297,15
982,-0.18,-0.98,-0.0,2.14,0.98,-2.08,191,263,406,457,301,15
983,-0.16,-0.96,0.03,2.99,0.31,-7.87,200,266,405,462,301,15
984,-0.17,-0.97,-0.02,-0.31,-5.86,0.73,190,266,406,461,300,15
985,-0.24,-0.99,0.04,-2.56,15.5,-17.21,190,267,404,458,299,15
986,-0.11,-0.98,-0.05,0.31,-8.54,-0.79,190,266,409,459,302,15
987,-0.17,-0.98,-0.03,6.9,-11.05,-12.15,193,264,408,460,302,15
988,-0.11,-0.98,0.04,-1.4,-8.3,-4.33,191,266,406,458,302,15
989,-0.12,-0.98,-0.01,-8.61,6.71,-2.32,193,268,408,460,300,15
990,-0.14,-1.0,-0.06,5.98,0.67,-2.08,193,267,405,465,302,15
991,-0.13,-1.0,-0.03,6.77,-1.95,-5.98,195,264,407,460,302,15
992,-0.08,-0.98,-0.08,-4.58,-4.21,0.31,192,264,404,460,302,15
993,-0.14,-0.98,-0.02,3.6,-13.67,2.5,192,264,408,461,301,15
994,-0.12,-1.01,-0.03,-2.2,-5.74,-10.44,204,263,401,455,299,15
995,-0.11,-0.99,-0.08,-2.75,-10.68,-4.82,195,265,405,460,301,15
996,-0.12,-0.98,-0.03,6.77,-2.14,0.55,192,266,407,461,302,15
997,-0.16,-0.98,0.01,-0.43,-2.69,-0.98,192,266,404,460,302,15
998,-0.17,-0.98,-0.0,3.54,-10.13,3.97,194,266,404,462,302,15
999,-0.14,-0.99,0.01,4.39,5.43,-12.88,195,265,406,454,300,15
1000,-0.16,-0.99,0.08,0.18,-1.1,0.24,194,264,402,462,301,15
1001,-0.18,-0.96,0.1,2.56,-0.24,-5.62,194,264,406,463,302,15
1002,-0.18,-0.98,0.08,2.38,-2.87,-0.24,195,266,402,460,298,15
1003,-0.16,-0.98,0.05,-2.26,-4.46,-4.15,194,265,402,469,302,15
1004,-0.17,-0.98,0.06,-0.79,-2.44,-1.89,196,262,402,463,298,15
1005,-0.18,-0.98,0.09,-1.59,-3.97,-2.62,194,265,411,460,302,15
1006,-0.16,-0.98,0.07,-1.71,-2.69,-3.3,196,267,403,460,305,15
1007,-0.16,-0.98,0.06,-0.24,-2.62,-2.87,195,268,400,454,304,15
1008,-0.16,-0.98,0.05,-1.53,-2.56,-3.11,191,265,401,460,301,15
1009,-0.15,-0.99,0.03,-0.98,-2.81,-2.62,197,265,404,455,303,15
1010,-0.14,-0.98,0.05,2.75,-1.83,-0.67,195,267,401,459,304,15
1011,-0.16,-0.96,0.05,-2.56,5.86,-5.25,196,268,400,455,299,15
1012,-0.13,-0.99,0.0,-1.71,8.54,-6.59,195,264,400,463,304,15
1013,-0.13,-0.99,0.02,1.83,0.43,-1.22,195,267,402,460,304,15
1014,-0.16,-0.98,0.05,3.36,-5.68,-0.12,197,264,406,460,301,15
1015,-0.14,-0.98,0.08,4.39,-4.15,-1.4,191,261,398,457,306,15
1016,-0.15,-0.98,0.13,1.95,-1.53,-4.7,195,266,395,460,303,15
1017,-0.16,-0.98,0.14,2.81,-2.81,-1.83,195,265,394,460,304,15
1018,-0.15,-0.98,0.1,-0.98,-1.71,-2.56,197,267,404,464,306,15
1019,-0.15,-0.98,0.1,4.7,-5.8,-1.89,195,265,398,459,303,15
1020,-0.15,-0.98,0.09,0.31,-4.76,-2.38,194,268,397,463,303,15
1021,-0.16,-0.99,0.14,-0.24,-3.48,-2.99,195,269,398,465,301,15
1022,-0.14,-0.99,0.1,-2.32,-3.05,-1.65,196,268,398,463,304,15
1023,-0.16,-0.98,0.11,-2.32,-6.41,-2.69,196,268,398,459,304,15
1024,-0.15,-0.98,0.09,-1.22,-7.45,-1.34,196,268,397,460,303,15
1025,-0.16,-0.98,0.09,-1.53,-3.97,-2.32,195,265,400,460,302,15
1026,-0.15,-0.98,0.09,1.16,-2.56,-3.72,193,266,398,465,306,15
1027,-0.15,-0.98,0.07,-0.73,-2.32,-1.95,197,263,398,459,305,15
1028,-0.15,-0.98,0.09,0.18,-4.27,-1.65,196,269,395,463,304,15
1029,-0.15,-0.98,0.07,-0.61,-2.69,-3.11,196,272,400,463,304,15
1030,-0.15,-0.98,0.07,3.85,-1.77,-0.92,196,269,395,460,298,15
1031,-0.18,-0.99,0.1,-2.32,-1.16,1.53,196,268,399,464,301,15
1032,-0.13,-0.98,0.02,-11.78,5.92,-6.35,197,265,404,459,304,15
1033,-0.16,-1.02,0.04,2.93,-4.64,-0.24,196,264,405,462,303,15
1034,-0.18,-0.98,0.02,1.4,-5.68,-0.73,197,267,404,461,305,15
1035,-0.17,-0.96,0.03,0.92,-2.75,-3.36,198,266,406,460,301,15
1036,-0.19,-0.98,0.05,4.03,-5.19,0.18,185,264,402,461,306,15
1037,-0.2,-0.98,0.06,3.54,-1.77,-3.36,196,268,402,461,305,15
1038,-0.22,-0.97,0.07,6.59,-1.22,-3.17,196,274,403,463,304,15
1039,-0.23,-0.96,0.09,0.67,-2.93,0.98,195,267,404,455,307,15
1040,-0.21,-0.97,0.13,-0.12,-4.39,-1.34,206,269,402,463,307,15
1041,-0.22,-0.97,0.11,0.37,-2.62,-2.38,198,272,402,461,305,15
1042,-0.22,-0.96,0.11,1.77,-2.87,-2.75,198,267,400,464,304,15
1043,-0.22,-0.96,0.1,0.79,-2.81,-2.75,196,269,406,458,302,15
1044,-0.23,-0.96,0.12,0.55,-2.93,-2.14,197,264,398,464,303,15
1045,-0.23,-0.96,0.11,0.67,-2.99,-2.2,196,271,401,460,304,15
1046,-0.22,-0.97,0.12,0.92,-2.62,-1.95,197,269,403,461,304,15
1047,-0.23,-0.96,0.11,0.37,-3.3,-2.56,197,263,398,462,306,15
1048,-0.23,-0.96,0.12,-1.4,-4.52,-5.0,196,262,399,463,304,15
1049,-0.19,-0.97,0.11,0.67,-6.9,-8.12,203,268,401,462,304,15
1050,-0.17,-1.0,0.05,-9.34,-3.17,-3.78,197,264,398,460,305,15
1051,-0.17,-0.97,0.06,-0.24,-8.79,-2.01,196,267,399,460,304,15
1052,-0.16,-0.98,-0.0,-7.93,-7.93,-6.84,199,268,400,466,302,15
1053,-0.11,-0.97,0.02,-0.12,-7.2,1.04,197,265,401,460,305,15
1054,-0.17,-0.99,0.06,-1.65,1.1,-13.0,198,266,400,460,305,15
1055,-0.12,-0.98,-0.03,1.04,-3.66,1.46,198,266,398,460,305,15
1056,-0.16,-0.98,-0.01,4.52,0.24,0.31,200,266,396,460,307,15
1057,-0.16,-0.98,0.05,9.58,-3.6,1.16,197,265,396,462,303,15
1058,-0.17,-0.98,0.05,3.42,5.13,-6.53,200,265,398,458,305,15
1059,-0.17,-0.98,0.01,0.06,-2.26,-0.43,232,267,394,460,303,15
1060,-0.16,-0.98,0.07,-2.56,-5.62,-2.01,194,263,401,459,305,15
1061,-0.16,-0.98,0.06,-2.38,-9.77,-1.34,197,263,400,461,302,15
1062,-0.1,-0.98,0.03,2.44,1.95,-6.41,197,264,399,454,300,15
1063,-0.14,-0.98,0.05,-0.24,-3.42,-1.22,198,266,398,461,302,15
1064,-0.18,-0.98,0.08,3.05,-3.36,-0.06,200,265,396,464,302,15
1065,-0.15,-1.0,0.06,-1.4,-3.42,-2.01,195,264,400,464,304,15
1066,-0.15,-0.97,0.06,-3.48,-2.2,-2.26,200,266,400,460,303,15
1067,-0.16,-0.98,0.06,1.04,-3.54,-2.62,199,265,397,456,304,15
1068,-0.14,-0.99,0.06,3.3,-3.11,-2.5,200,265,398,464,305,15
1069,-0.15,-0.98,0.06,1.83,-3.91,-3.72,194,265,397,466,303,15
1070,-0.16,-0.98,0.04,-2.56,-2.5,-3.54,197,268,400,464,305,15
1071,-0.17,-0.98,0.05,0.24,-2.38,-2.56,196,264,398,456,305,15
1072,-0.16,-0.98,0.06,-0.06,-1.71,-2.44,198,266,393,460,305,15
1073,-0.17,-0.98,0.06,0.98,-3.54,-1.83,197,267,402,460,305,15
1074,-0.17,-0.98,0.05,1.65,-4.03,-2.01,196,264,397,465,307,15
1075,-0.17,-0.98,0.04,-1.1,-2.75,-1.71,197,268,394,460,306,15
1076,-0.17,-0.98,0.07,-1.16,-3.17,-2.5,198,268,396,456,304,15
1077,-0.17,-0.98,0.07,1.22,-1.83,-3.6,197,264,395,461,305,15
1078,-0.17,-0.98,0.08,2.14,-4.09,-2.87,200,263,401,461,306,15
1079,-0.17,-0.98,0.07,1.89,-3.23,-3.78,199,263,394,462,305,15
1080,-0.16,-0.98,0.07,-0.98,-2.26,-2.75,198,267,396,461,301,15
1081,-0.17,-0.98,0.06,-1.04,-2.01,-3.3,201,264,396,463,304,15
1082,-0.17,-0.97,0.08,-1.46,-1.83,-2.14,200,265,399,456,301,15
1083,-0.17,-0.97,0.07,-0.18,-2.69,-3.17,198,265,396,463,307,15
1084,-0.18,-0.98,0.06,0.73,-4.03,-1.22,202,265,395,461,306,15
1085,-0.18,-0.99,0.05,1.34,-4.33,-1.65,198,264,399,461,303,15
1086,-0.17,-0.98,0.06,1.16,-3.36,-2.81,198,265,394,465,307,15
1087,-0.18,-0.97,0.08,-0.61,-2.62,-4.09,199,266,396,464,302,15
1088,-0.17,-0.97,0.06,-0.61,-2.26,-4.46,199,268,395,461,305,15
1089,-0.17,-0.98,0.03,-0.98,-3.17,-3.17,201,268,396,465,304,15
1090,-0.16,-0.98,0.05,-0.31,-1.65,-3.05,202,267,395,459,306,15
1091,-0.16,-0.98,0.05,1.04,-3.6,-2.93,197,264,396,460,305,15
1092,-0.16,-0.98,0.05,0.61,-3.66,-2.14,196,265,397,460,305,15
1093,-0.17,-0.98,0.04,2.01,-3.11,-1.89,199,265,409,465,306,15
1094,-0.16,-0.99,0.05,0.06,-2.99,-3.17,197,268,405,474,309,15
1095,-0.16,-0.98,0.04,0.12,-3.6,-2.62,202,264,391,464,308,15
1096,-0.16,-0.98,0.04,0.61,-2.81,-2.62,198,266,395,464,311,15
1097,-0.17,-0.98,0.04,0.18,-2.32,-2.99,198,266,397,460,308,15
1098,-0.16,-0.98,0.05,0.24,-3.23,-3.05,199,265,394,471,303,15
1099,-0.16,-0.99,0.05,0.49,-3.05,-2.44,203,264,395,464,305,15
1100,-0.16,-0.98,0.05,0.79,-3.78,-2.26,200,267,395,464,307,15
1101,-0.16,-0.98,0.04,-0.06,-2.81,-2.32,199,265,395,462,301,15
1102,-0.16,-0.98,0.04,-0.61,-2.87,-2.99,197,269,393,464,304,15
1103,-0.16,-0.98,0.04,-0.31,-2.5,-2.93,203,266,397,461,303,15
1104,-0.16,-0.99,0.04,-0.61,-2.56,-3.11,203,265,398,460,305,15
1105,-0.16,-0.98,0.04,0.31,-2.32,-3.3,200,269,395,461,303,15
1106,-0.16,-0.98,0.05,-0.24,-1.1,-3.6,198,267,391,460,305,15
1107,-0.16,-0.98,0.04,-3.72,-0.92,-3.11,193,266,396,460,304,15
1108,-0.15,-0.98,0.02,1.95,-0.24,-2.14,202,266,396,456,306,15
1109,-0.16,-0.99,0.03,1.59,-2.14,-3.17,203,265,396,462,306,15
1110,-0.17,-0.98,0.01,1.71,-5.92,-1.22,200,270,395,463,305,15
1111,-0.17,-0.98,0.02,2.26,-1.16,-2.2,202,265,407,463,311,15
1112,-0.17,-0.98,0.02,0.06,-1.28,-2.99,203,265,394,461,305,15
1113,-0.19,-0.98,0.03,-1.22,-2.93,-3.23,200,266,393,463,303,15
1114,-0.18,-0.98,-0.01,-1.59,-3.72,-1.1,200,266,391,461,306,15
1115,-0.18,-0.97,0.01,1.34,-3.23,-1.22,200,263,394,460,309,15
1116,-0.18,-0.98,0.01,0.0,-0.67,-1.89,201,269,394,460,306,15
1117,-0.2,-0.98,0.04,3.17,-0.92,-6.04,199,269,395,462,304,15
1118,-0.18,-0.98,0.03,5.43,-4.88,-0.37,201,273,394,460,305,15
1119,-0.19,-0.96,0.07,0.61,-1.71,-3.66,204,268,390,460,307,15
1120,-0.19,-0.98,-0.02,-7.14,-3.78,0.73,202,266,397,461,300,15
1121,-0.2,-0.98,-0.01,5.74,-10.93,-4.7,202,267,395,459,303,15
1122,-0.11,-0.98,0.11,8.0,-4.82,-13.79,204,266,392,457,305,15
1123,-0.12,-0.99,-0.02,-10.74,-2.81,-1.59,201,268,395,464,306,15
1124,-0.13,-0.98,0.01,0.37,-2.32,-2.26,203,270,393,461,306,15
1125,-0.13,-0.99,0.02,0.92,0.61,-2.81,201,269,392,463,301,15
1126,-0.13,-0.99,0.02,4.03,-1.4,-0.37,203,269,389,461,309,15
1127,-0.15,-0.98,0.05,3.6,-1.22,-3.54,204,270,392,464,306,15
1128,-0.16,-0.98,0.06,1.53,-2.56,-1.95,205,270,389,461,309,15
1129,-0.15,-0.98,0.05,0.06,-2.75,-3.11,206,276,395,459,306,15
1130,-0.15,-0.98,0.04,0.79,-3.36,-2.08,204,265,390,457,305,15
1131,-0.16,-0.98,0.07,0.0,-3.17,-3.23,205,270,383,461,307,15
1132,-0.15,-0.98,0.05,0.92,-2.44,-2.38,207,283,389,457,307,15
1133,-0.14,-0.97,0.04,1.46,-2.87,-2.5,205,268,392,458,307,15
1134,-0.15,-0.98,0.03,-1.53,-2.14,-2.81,207,269,391,461,304,15
1135,-0.16,-0.98,0.03,-0.06,-2.14,-2.32,206,270,392,466,305,15
1136,-0.16,-0.99,0.05,1.16,-2.2,-2.26,239,279,390,461,305,15
1137,-0.14,-0.99,0.02,4.39,-10.07,-4.88,203,268,390,464,306,15
1138,-0.16,-0.98,0.08,-0.24,-5.37,-2.69,205,269,390,461,307,15
1139,-0.16,-0.98,-0.01,-0.43,-3.3,-1.46,205,266,387,456,305,15
1140,-0.17,-0.98,0.04,3.11,-2.56,-2.38,206,272,391,461,307,15
1141,-0.16,-0.98,0.04,2.32,-2.62,-2.26,207,265,387,456,307,15
1142,-0.17,-0.98,0.04,-0.98,-2.14,-2.5,206,269,391,461,307,15
1143,-0.15,-0.98,0.03,-0.98,-0.98,-4.58,205,268,388,462,304,15
1144,-0.16,-0.98,0.0,-3.17,-2.81,-3.05,208,268,390,464,304,15
1145,-0.17,-0.99,0.03,2.14,-7.69,-0.92,208,271,390,460,306,15
1146,-0.14,-0.98,0.03,-0.18,-4.39,-2.26,206,266,389,459,305,15
1147,-0.14,-1.01,-0.02,-3.85,-5.43,-4.09,203,265,390,464,307,15
1148,-0.14,-0.99,0.0,-2.81,-9.22,-5.92,206,269,389,461,310,15
1149,-0.11,-0.99,0.02,-5.68,-0.55,-5.25,206,268,393,458,307,15
1150,-0.15,-0.98,0.02,-2.93,-0.67,-0.98,208,271,390,465,307,15
1151,-0.16,-0.99,-0.02,1.34,-5.55,-0.06,206,272,393,467,306,15
1152,-0.15,-0.98,-0.02,-0.12,-4.94,-0.43,208,268,392,462,306,15
1153,-0.17,-0.99,0.02,3.42,-7.87,-0.85,208,270,387,462,307,15
1154,-0.14,-0.98,0.01,-6.29,0.24,-5.49,206,272,391,461,306,15
1155,-0.1,-0.99,-0.03,-5.49,10.74,-1.77,208,270,388,467,309,15
1156,-0.09,-0.99,-0.07,-0.31,2.93,-5.07,209,270,390,467,307,15
1157,-0.13,-0.99,-0.04,3.54,-7.57,0.55,208,273,389,458,308,15
1158,-0.11,-0.98,-0.06,-4.7,-5.43,-3.54,216,271,389,466,309,15
1159,-0.11,-0.98,-0.06,-2.2,0.79,-3.36,208,268,389,465,310,15
1160,-0.11,-0.98,-0.07,-2.44,-3.97,-1.71,220,270,390,465,309,15
1161,-0.12,-0.99,-0.05,-0.67,-2.44,-2.75,208,273,394,461,309,15
1162,-0.14,-0.99,-0.08,-9.46,-4.03,1.4,208,267,389,465,310,15
1163,-0.15,-0.99,-0.04,-0.79,-5.8,-1.04,209,270,390,466,311,15
1164,-0.12,-1.0,-0.06,1.83,5.13,-5.0,209,270,390,466,310,15
1165,-0.1,-0.99,-0.07,-1.4,-10.01,-7.87,209,269,392,463,307,15
1166,-0.16,-0.99,-0.04,7.63,-0.85,3.48,202,267,389,465,308,15
1167,-0.12,-0.99,-0.03,-2.62,-7.39,-3.48,208,269,390,462,308,15
1168,-0.15,-0.99,-0.05,4.03,-0.37,-2.93,211,272,387,460,308,15
1169,-0.14,-0.99,-0.02,1.83,-4.76,-0.85,210,270,386,456,305,15
1170,-0.13,-0.98,-0.0,3.85,-2.32,-6.41,211,271,388,456,308,15
1171,-0.15,-0.98,-0.02,4.64,-1.53,-3.11,208,270,388,458,308,15
1172,-0.17,-0.98,-0.05,-1.95,-0.37,0.85,207,271,390,461,308,15
1173,-0.12,-0.98,-0.01,-2.93,-5.62,-1.1,208,271,391,464,305,15
1174,-0.16,-0.98,-0.03,7.32,-0.12,-0.67,211,267,388,464,307,15
1175,-0.14,-0.99,0.03,-1.83,-6.16,-2.38,212,272,389,461,308,15
1176,-0.13,-1.0,-0.06,-0.12,-0.79,-6.84,212,271,397,459,309,15
1177,-0.15,-0.98,-0.01,-2.81,-2.01,-1.71,209,268,386,461,310,15
1178,-0.11,-0.99,-0.04,1.95,-0.85,-0.55,209,270,389,462,311,15
1179,-0.14,-0.99,-0.0,3.42,-0.92,-3.54,234,268,388,461,309,15
1180,-0.13,-0.98,-0.01,0.67,-4.76,-2.87,212,272,386,461,309,15
1181,-0.14,-0.98,0.03,4.15,-4.76,-3.85,207,272,388,465,311,15
1182,-0.16,-0.97,-0.02,0.37,-4.33,3.97,207,273,386,466,308,15
1183,-0.11,-0.98,-0.01,7.93,-1.4,-3.17,208,270,388,472,308,15
1184,-0.22,-0.99,0.02,-1.83,2.99,-7.51,211,271,387,466,311,15
1185,-0.11,-0.99,-0.06,5.31,-6.59,4.21,209,271,388,477,309,15
1186,-0.11,-0.98,-0.02,3.54,-1.95,-3.36,212,271,387,464,311,15
1187,-0.15,-0.98,-0.01,4.27,-2.75,-1.83,209,273,388,457,311,15
1188,-0.17,-0.98,-0.02,0.73,-0.85,-2.01,209,271,386,462,311,15
1189,-0.14,-0.99,-0.0,1.77,-2.87,-1.34,213,274,387,457,311,15
1190,-0.15,-0.98,0.01,8.06,-2.69,-1.1,210,270,388,462,310,15
1191,-0.16,-0.99,0.04,0.67,-3.48,-2.14,209,271,384,462,309,15
1192,-0.14,-0.99,-0.01,-6.47,-6.1,-4.82,210,270,387,463,303,15
1193,-0.15,-0.98,-0.03,2.44,-5.37,-3.66,212,272,388,458,310,15
1194,-0.13,-0.99,-0.02,0.73,-4.39,1.71,210,270,386,464,310,15
1195,-0.13,-0.98,0.02,3.91,-1.89,-4.52,213,275,388,462,310,15
1196,-0.16,-0.99,0.03,-0.12,-2.93,-3.54,213,273,388,462,310,15
1197,-0.15,-0.99,-0.01,-2.69,-5.43,-0.61,210,274,387,458,309,15
1198,-0.13,-0.98,-0.0,-0.43,-1.95,-1.53,212,271,393,461,311,15
1199,-0.14,-0.99,0.01,0.98,-2.2,-5.07,207,274,389,466,309,15
1200,-0.16,-0.99,-0.01,-1.77,-2.56,-3.42,211,274,385,462,311,15
1201,-0.15,-0.98,-0.01,0.37,-3.72,-1.65,212,273,389,462,306,15
1202,-0.13,-0.98,-0.01,-2.44,-3.48,-3.23,214,274,392,465,305,15
1203,-0.13,-0.99,-0.03,2.5,-3.72,-2.38,227,273,389,466,310,15
1204,-0.14,-0.98,-0.03,2.62,-2.75,-2.69,214,268,388,462,309,15
1205,-0.14,-0.99,-0.02,0.24,-1.95,-2.32,212,274,390,465,305,15
1206,-0.14,-0.98,-0.01,-1.34,-2.87,-2.62,211,275,389,464,309,15
1207,-0.14,-0.98,0.0,1.34,-3.3,-2.26,211,271,390,461,308,15
1208,-0.14,-0.98,-0.01,2.5,-3.97,-2.38,210,272,392,462,310,15
1209,-0.14,-0.98,-0.02,0.67,-3.48,-2.08,211,274,393,462,309,15
1210,-0.14,-0.98,-0.01,0.73,-1.83,-2.93,213,274,389,462,309,15
1211,-0.15,-0.98,-0.01,-1.28,-2.69,-2.44,212,269,390,462,310,15
1212,-0.15,-0.99,0.0,-0.18,-3.91,-1.65,211,267,390,461,311,15
1213,-0.14,-0.99,0.01,2.69,-3.72,-2.69,211,274,391,465,312,15
1214,-0.14,-0.99,-0.0,1.53,-3.54,-3.11,211,273,386,467,309,15
1215,-0.15,-0.99,0.0,0.79,-3.42,-2.93,210,268,390,463,309,15
1216,-0.15,-0.98,0.02,-5.19,-1.04,-1.28,213,275,392,462,310,15
1217,-0.13,-0.98,0.02,0.37,-2.44,-2.81,207,274,391,466,310,15
1218,-0.15,-0.98,0.02,2.38,-2.87,-3.05,211,274,386,457,310,15
1219,-0.14,-0.99,0.0,2.38,-3.72,-3.23,212,274,388,467,310,15
1220,-0.15,-0.99,-0.01,0.43,-3.23,-3.05,213,274,391,457,307,15
1221,-0.15,-0.99,-0.02,-2.26,-2.38,-1.83,212,273,390,457,311,15
1222,-0.14,-0.98,0.01,-1.95,-2.44,-1.95,213,274,389,458,308,15
1223,-0.14,-0.98,0.03,1.59,-2.56,-3.42,211,268,389,462,311,15
1224,-0.15,-0.99,0.01,2.99,-3.42,-2.81,214,274,389,466,309,15
1225,-0.15,-0.98,-0.01,1.65,-3.6,-2.5,207,275,395,462,308,15
1226,-0.15,-0.99,-0.02,-1.71,-2.62,-1.71,211,273,390,462,308,15
1227,-0.15,-0.98,-0.0,-1.22,-1.95,-2.56,210,272,390,460,308,15
1228,-0.15,-0.98,0.02,0.24,-2.26,-2.99,213,272,385,463,310,15
1229,-0.14,-0.98,0.02,1.89,-3.97,-2.69,211,272,387,462,310,15
1230,-0.14,-0.98,0.01,1.28,-3.17,-2.44,212,276,392,464,310,15
1231,-0.15,-0.99,-0.0,0.67,-3.54,-1.89,211,276,389,462,312,15
1232,-0.15,-0.98,-0.02,-1.28,-3.11,-1.89,214,272,387,466,310,15
1233,-0.15,-0.98,0.01,-1.46,-1.59,-2.08,212,274,390,462,311,15
1234,-0.14,-0.99,0.02,1.65,-3.11,-2.44,212,283,386,461,312,15
1235,-0.14,-0.99,0.01,2.2,-3.6,-2.62,214,273,392,462,309,15
1236,-0.15,-0.98,-0.01,1.77,-3.11,-2.44,214,272,389,460,309,15
1237,-0.15,-0.98,-0.01,-1.34,-2.14,-2.08,214,271,384,461,310,15
1238,-0.15,-0.99,0.01,-1.16,-2.01,-2.26,211,277,391,462,312,15
1239,-0.14,-0.98,0.02,-0.43,-3.23,-2.75,212,270,388,467,311,15
1240,-0.14,-0.98,0.01,1.16,-3.72,-2.2,212,270,392,467,310,15
1241,-0.14,-0.98,0.01,0.92,-3.23,-2.62,212,272,390,466,311,15
1242,-0.15,-0.98,-0.0,1.89,-2.99,-2.62,211,271,392,463,308,15
1243,-0.15,-0.99,-0.01,-0.55,-2.69,-2.5,213,274,390,461,312,15
1244,-0.15,-0.98,0.01,-1.1,-2.62,-2.62,219,272,396,463,306,15
1245,-0.14,-0.99,0.01,0.55,-2.81,-2.87,220,274,388,463,312,15
1246,-0.14,-0.99,0.0,1.53,-3.23,-2.87,228,275,387,463,308,15
1247,-0.15,-0.98,-0.01,0.55,-3.11,-2.56,215,274,391,457,307,15
1248,-0.15,-0.98,-0.0,-0.61,-2.56,-2.32,213,272,391,466,310,15
1249,-0.14,-0.99,0.01,-0.79,-2.32,-2.81,204,275,393,462,315,15
1250,-0.14,-0.99,0.01,0.12,-2.44,-3.42,214,273,388,464,312,15
1251,-0.14,-0.98,0.02,0.98,-3.11,-2.99,211,274,389,465,311,15
1252,-0.15,-0.98,0.02,-0.24,-2.44,-3.23,215,274,389,463,310,15
1253,-0.14,-0.98,0.01,0.31,-3.23,-1.4,212,274,388,463,307,15
1254,-0.15,-0.99,-0.01,0.92,-3.54,-2.26,212,274,399,464,308,15
1255,-0.14,-0.98,0.0,-0.37,-2.75,-3.48,212,274,390,466,309,15
1256,-0.14,-0.98,0.0,0.31,-3.42,-2.5,215,273,386,461,312,15
1257,-0.14,-0.99,0.01,0.12,-3.05,-2.38,214,272,393,464,311,15
1258,-0.15,-0.99,-0.0,0.18,-3.48,-2.14,213,272,390,461,311,15
1259,-0.14,-0.99,-0.01,0.43,-2.2,-2.5,207,273,389,465,312,15
1260,-0.14,-0.99,0.01,0.67,-2.93,-2.69,213,272,385,464,308,15
1261,-0.14,-0.99,-0.0,1.1,-3.78,-2.44,215,273,388,466,307,15
1262,-0.14,-0.99,0.0,1.34,-2.26,-2.81,214,273,385,458,313,15
1263,-0.14,-0.98,0.01,-0.12,-2.99,-2.75,209,272,388,462,313,15
1264,-0.14,-0.99,0.01,0.37,-2.69,-2.44,213,275,389,465,312,15
1265,-0.15,-0.98,0.0,0.31,-3.17,-2.44,209,271,387,462,313,15
1266,-0.15,-0.99,0.01,0.31,-3.54,-2.93,212,273,386,467,310,15
1267,-0.14,-0.99,0.0,1.22,-2.81,-2.87,213,272,385,466,310,15
1268,-0.15,-0.96,0.01,-1.28,-1.71,-2.32,213,271,388,465,307,15
1269,-0.14,-0.99,-0.02,-4.88,-1.16,-3.78,212,272,387,462,312,15
1270,-0.13,-0.99,-0.02,-7.51,-2.38,-7.63,215,273,389,463,313,15
1271,-0.12,-0.99,-0.06,1.22,-8.54,2.87,213,277,388,464,312,15
1272,-0.13,-0.98,-0.06,-2.5,-2.08,-3.42,215,274,390,459,312,15
1273,-0.15,-0.98,-0.05,5.25,-8.48,-1.16,217,273,391,464,311,15
1274,-0.15,-0.98,-0.04,4.15,-5.74,-2.38,217,273,388,462,313,15
1275,-0.17,-0.98,-0.07,-3.72,6.04,-2.38,212,271,390,462,315,15
1276,-0.11,-0.98,-0.06,13.37,-1.83,-1.16,216,274,387,462,311,15
1277,-0.14,-0.99,-0.04,-3.17,-1.04,-4.21,213,268,388,462,320,15
1278,-0.15,-0.99,-0.02,0.12,-2.32,-2.87,210,273,386,467,311,15
1279,-0.14,-0.99,-0.03,0.06,-2.81,-2.26,214,272,387,464,310,15
1280,-0.14,-0.98,-0.02,0.55,-1.89,-3.3,213,287,387,466,310,15
1281,-0.14,-0.98,-0.03,-1.34,-3.05,-3.17,213,272,384,464,309,15
1282,-0.15,-0.98,-0.03,-1.34,-3.05,-2.5,211,274,389,461,311,15
1283,-0.15,-0.99,-0.02,-0.61,-2.5,-2.62,216,272,387,463,312,15
1284,-0.14,-0.99,-0.03,0.55,-2.87,-3.6,214,271,388,466,310,15
1285,-0.14,-0.98,-0.02,0.43,-2.81,-3.3,213,269,386,466,312,15
1286,-0.14,-0.98,-0.03,0.55,-2.56,-2.62,213,272,387,467,311,15
1287,-0.14,-0.98,-0.03,0.31,-2.5,-1.89,212,274,388,467,314,15
1288,-0.15,-0.98,-0.02,0.12,-3.05,-2.75,217,272,386,471,311,15
1289,-0.15,-0.99,-0.03,0.79,-3.66,-2.93,211,272,383,457,311,15
1290,-0.15,-0.98,-0.02,0.92,-2.81,-3.11,213,275,388,465,311,15
1291,-0.14,-0.98,-0.02,0.31,-2.87,-2.69,215,271,386,462,311,15
1292,-0.14,-0.98,-0.02,-0.37,-3.23,-2.5,217,271,386,458,311,15
1293,-0.15,-0.98,-0.03,0.24,-2.62,-2.62,210,283,390,463,307,15
1294,-0.15,-0.99,-0.02,1.16,-3.17,-2.99,215,275,389,463,310,15
1295,-0.14,-0.98,-0.02,0.24,-2.56,-2.75,215,270,388,459,311,15
1296,-0.15,-0.98,-0.01,0.79,-3.36,-2.01,222,277,388,463,310,15
1297,-0.15,-0.98,-0.01,1.46,-2.87,-2.32,216,270,398,464,311,15
1298,-0.16,-0.96,0.02,3.6,-0.79,-2.14,215,271,392,462,311,15
1299,-0.16,-1.0,-0.02,2.2,-1.77,-2.08,213,271,385,467,308,15
1300,-0.15,-1.0,0.01,3.72,-2.5,-1.46,216,274,387,458,310,15
1301,-0.15,-0.98,0.01,-0.55,-3.17,-3.3,216,272,386,466,310,15
1302,-0.14,-0.99,0.01,0.43,-3.3,-2.56,213,272,387,464,313,15
1303,-0.15,-0.98,0.0,-0.79,-2.44,-2.69,215,269,385,461,310,15
1304,-0.15,-0.99,0.0,-0.24,-2.56,-2.56,214,274,385,466,310,15
1305,-0.14,-0.99,-0.0,0.24,-3.11,-2.32,215,273,383,466,309,15
1306,-0.14,-0.98,-0.01,-0.37,-2.56,-2.81,213,273,392,467,311,15
1307,-0.14,-0.99,-0.01,1.46,-3.78,-2.38,217,274,384,461,313,15
1308,-0.14,-0.98,-0.01,-0.85,-2.56,-2.44,214,273,383,465,311,15
1309,-0.15,-0.98,-0.01,0.49,-2.38,-2.81,214,271,385,462,313,15
1310,-0.14,-0.98,0.0,0.67,-2.93,-2.5,222,274,386,467,309,15
1311,-0.14,-0.98,0.01,0.06,-3.05,-2.81,217,272,384,469,311,15
1312,-0.14,-0.99,-0.01,0.24,-2.32,-2.75,216,274,386,464,311,15
1313,-0.15,-0.99,-0.01,0.06,-3.42,-2.26,214,273,387,462,314,15
1314,-0.14,-0.99,-0.01,-0.18,-3.05,-2.56,217,276,386,464,310,15
1315,-0.15,-0.99,-0.01,1.34,-3.05,-1.89,215,275,386,462,312,15
1316,-0.14,-0.99,-0.0,0.24,-3.05,-2.56,217,276,390,462,313,15
1317,-0.14,-0.99,-0.01,0.31,-2.2,-2.99,212,275,389,457,311,15
1318,-0.14,-0.99,-0.0,0.43,-2.69,-4.03,215,275,382,466,310,15
1319,-0.14,-0.99,-0.01,1.71,-1.77,-4.58,214,270,383,458,312,15
1320,-0.13,-0.98,-0.02,-0.85,-2.75,-1.95,216,273,384,460,308,15
1321,-0.14,-0.98,0.0,-1.04,-2.38,-2.32,216,271,386,461,311,15
1322,-0.12,-0.98,-0.04,-2.56,-9.16,-2.62,215,276,382,462,311,15
1323,-0.12,-1.0,-0.04,-0.37,0.55,-4.7,216,275,381,466,311,15
1324,-0.12,-0.99,-0.01,-2.62,5.49,-8.73,214,275,381,458,312,15
1325,-0.12,-0.99,-0.01,4.7,-2.81,-2.56,214,280,385,462,311,15
1326,-0.11,-0.99,-0.06,-2.69,0.43,-0.55,217,280,384,462,310,15
1327,-0.13,-0.99,-0.01,0.12,-2.56,-1.04,214,275,384,461,310,15
1328,-0.12,-0.98,-0.02,1.34,-2.32,-0.73,217,273,385,468,309,15
1329,-0.15,-0.98,-0.03,0.67,-2.62,-3.91,214,274,392,457,315,15
1330,-0.13,-0.99,-0.03,0.43,-3.17,-3.36,214,272,386,465,311,15
1331,-0.14,-0.99,-0.03,-1.65,-2.75,-0.73,221,269,387,465,308,15
1332,-0.12,-0.99,-0.04,0.92,-2.5,-2.69,216,271,385,466,311,15
1333,-0.13,-0.98,-0.03,1.65,-3.48,-1.71,222,275,385,461,310,15
1334,-0.13,-0.99,-0.03,-0.85,-2.99,-2.5,217,284,384,458,309,15
1335,-0.13,-0.98,-0.03,0.0,-2.26,-2.75,214,271,385,457,311,15
1336,-0.13,-0.98,-0.03,-0.85,-2.44,-2.87,215,270,381,466,313,15
1337,-0.13,-0.98,-0.04,1.34,-3.05,-2.38,217,268,384,462,312,15
1338,-0.13,-0.98,-0.04,-0.55,-2.2,-3.3,215,274,384,462,313,15
1339,-0.14,-0.99,-0.04,-0.18,-3.23,-2.56,217,272,385,462,312,15
1340,-0.12,-0.98,-0.04,0.31,-2.69,-2.56,214,270,384,463,317,15
1341,-0.12,-0.99,-0.04,1.16,-2.87,-2.2,216,273,385,462,313,15
1342,-0.13,-0.99,-0.04,0.85,-3.42,-1.83,217,268,384,457,309,15
1343,-0.13,-0.99,-0.03,0.67,-3.48,-2.26,214,275,391,466,311,15
1344,-0.13,-0.99,-0.03,0.12,-3.05,-2.75,215,276,385,461,310,15
1345,-0.13,-0.98,-0.03,-0.12,-3.11,-2.08,215,271,385,462,314,15
1346,-0.13,-0.99,-0.03,0.37,-2.5,-2.26,214,273,394,457,312,15
1347,-0.13,-0.99,-0.03,1.1,-2.2,-2.44,213,273,384,457,313,15
1348,-0.13,-0.99,-0.03,0.85,-2.75,-3.23,213,274,383,465,315,15
1349,-0.13,-0.99,-0.04,0.18,-2.08,-2.87,219,272,384,472,322,15
1350,-0.13,-0.98,-0.04,-0.31,-2.87,-2.32,217,272,384,462,310,15
1351,-0.13,-0.99,-0.03,0.85,-2.5,-2.56,217,275,384,458,313,15
1352,-0.13,-0.98,-0.03,0.43,-3.36,-2.26,209,273,386,459,310,15
1353,-0.14,-0.99,-0.03,0.0,-2.93,-2.14,216,276,381,462,313,15
1354,-0.14,-0.98,-0.04,0.92,-3.17,-2.26,215,274,384,456,308,15
1355,-0.14,-0.98,-0.04,0.73,-3.05,-2.38,216,273,382,466,314,15
1356,-0.13,-0.99,-0.03,0.12,-2.87,-2.56,215,273,379,467,314,15
1357,-0.14,-0.99,-0.03,-0.12,-3.17,-2.69,217,272,383,457,307,15
1358,-0.14,-0.98,-0.03,0.18,-3.42,-2.44,217,273,384,462,311,15
1359,-0.13,-0.99,-0.04,-3.42,-5.25,-1.59,211,272,384,463,313,15
1360,-0.11,-0.98,-0.04,3.6,-2.99,-8.06,217,273,384,460,313,15
1361,-0.11,-0.99,-0.02,5.43,-4.27,-4.33,217,274,384,464,311,15
1362,-0.05,-0.99,0.06,7.81,-2.2,-8.24,215,275,382,462,313,15
1363,-0.06,-1.0,0.06,3.48,-5.68,-4.39,215,272,379,465,310,15
1364,-0.04,-0.99,0.08,0.0,-2.87,-1.46,214,272,385,461,313,15
1365,-0.04,-0.99,0.1,1.04,-1.16,-6.65,216,275,387,465,313,15
1366,-0.06,-0.99,0.09,3.72,-4.09,-1.1,216,272,383,466,314,15
1367,-0.04,-0.99,0.14,0.24,-3.85,-1.95,217,272,383,463,315,15
1368,-0.03,-0.99,0.12,-0.43,-3.78,-4.7,217,273,386,466,313,15
1369,-0.04,-0.99,0.11,-0.12,-4.03,-2.93,217,274,385,477,314,15
1370,-0.04,-0.99,0.12,0.85,-3.54,-4.15,215,272,380,464,312,15
1371,-0.06,-0.99,0.13,1.89,-4.46,0.37,215,272,383,463,314,15
1372,-0.02,-0.99,0.11,0.49,-3.23,-1.89,217,276,383,462,309,15
1373,-0.03,-0.99,0.12,0.67,-2.01,-3.23,218,273,385,462,313,15
1374,-0.04,-0.99,0.14,1.1,-2.08,-2.38,218,276,384,463,311,15
1375,-0.01,-0.99,0.12,0.55,-11.78,-2.62,220,275,381,462,312,15
1376,-0.06,-1.0,0.11,-2.69,-1.95,-7.08,244,272,382,465,308,15
1377,0.0,-0.99,0.15,8.18,2.69,-5.13,213,278,381,460,311,15
1378,-0.07,-0.99,0.17,5.31,-2.32,-1.65,218,273,388,462,311,15
1379,-0.04,-0.99,0.16,-2.99,-5.92,0.73,216,277,383,462,312,15
1380,-0.03,-0.99,0.15,3.91,-1.89,-4.52,217,273,382,460,313,15
1381,-0.04,-0.99,0.12,-0.79,0.37,-3.36,212,271,383,461,312,15
1382,-0.04,-0.99,0.16,-1.95,-2.69,-3.17,214,276,383,461,315,15
1383,-0.04,-0.99,0.13,1.77,-3.78,0.12,217,276,380,466,316,15
1384,-0.04,-0.98,0.13,-2.69,-2.56,-2.26,217,273,380,464,313,15
1385,-0.04,-0.99,0.15,-1.53,-2.26,-3.6,216,275,383,462,312,15
1386,-0.02,-0.99,0.14,1.04,-3.42,-2.26,217,273,384,466,311,15
1387,-0.02,-0.99,0.11,-0.67,-2.2,-3.17,219,269,382,462,308,15
1388,-0.02,-0.99,0.13,2.32,-3.3,-2.08,217,274,380,460,315,15
1389,-0.02,-0.99,0.13,0.85,-2.87,-2.2,218,277,380,463,315,15
1390,-0.03,-0.99,0.14,-0.49,-2.44,-3.23,215,273,386,460,314,15
1391,-0.02,-0.99,0.12,2.62,-1.22,-1.4,216,273,380,457,314,15
1392,-0.06,-0.98,0.18,3.85,-3.6,-1.28,215,273,383,463,311,15
1393,-0.01,-0.99,0.16,0.85,-2.62,-4.7,220,275,384,464,313,15
1394,-0.07,-0.99,0.15,-1.59,-5.55,-4.09,164,246,420,447,338,15
1395,-0.07,-0.98,0.12,1.1,-8.42,-4.33,173,251,419,446,335,15
1396,-0.07,-0.98,0.11,-3.17,-1.22,-3.17,171,248,418,439,337,15
1397,-0.07,-0.98,0.22,13.85,9.28,-2.14,177,252,420,448,330,15
1398,-0.1,-0.99,0.16,-0.61,17.58,2.38,170,253,419,445,340,15
1399,-0.1,-0.98,0.14,-0.06,-7.57,-3.48,174,255,418,447,337,15
1400,-0.11,-0.99,0.16,3.36,-5.0,-2.32,170,255,411,442,339,15
1401,-0.09,-0.99,0.15,-1.46,-8.54,-3.97,173,257,415,449,340,15
1402,-0.09,-0.99,0.17,0.06,-4.21,-0.73,174,254,415,447,336,15
1403,-0.08,-0.98,0.16,1.65,-3.78,-1.46,177,248,414,452,336,15
1404,-0.07,-0.97,0.23,10.19,-4.09,-3.97,176,260,419,445,337,15
1405,-0.07,-0.98,0.22,1.59,-2.87,-1.53,174,247,420,466,336,15
1406,-0.08,-0.97,0.22,-0.67,-3.11,-3.11,175,254,423,449,339,15
1407,-0.09,-0.97,0.21,-1.46,-0.55,-2.01,183,261,418,447,336,15
1408,-0.06,-0.97,0.23,1.95,-7.57,-2.2,183,257,418,452,339,15
1409,-0.1,-0.98,0.21,-2.87,-6.84,-2.14,168,258,420,452,340,15
1410,-0.07,-0.96,0.22,29.97,-7.75,-5.86,212,258,415,449,341,15
1411,-0.11,-0.97,0.27,-5.49,-5.0,-3.36,177,258,422,450,339,15
1412,-0.05,-0.97,0.22,4.76,-7.02,-1.34,176,260,419,447,337,15
1413,-0.08,-0.96,0.24,-1.46,-2.14,-3.91,179,260,418,450,338,15
1414,-0.07,-0.96,0.24,2.44,-0.92,-3.17,178,260,411,448,341,15
1415,-0.07,-0.97,0.26,0.43,-1.53,-3.78,171,254,416,441,338,15
1416,-0.06,-0.96,0.25,-0.18,-2.56,-2.38,181,262,413,450,339,15
1417,-0.06,-0.96,0.25,1.46,-3.36,-2.56,177,256,409,451,338,15
1418,-0.07,-0.96,0.26,-1.28,-1.28,-3.36,177,257,413,449,340,15
1419,-0.08,-0.96,0.25,0.0,-2.62,-3.54,179,261,413,455,339,15
1420,-0.06,-0.96,0.26,0.12,-2.08,-3.97,178,251,415,455,342,15
1421,-0.05,-0.96,0.25,-0.31,-3.91,-2.69,172,258,416,452,339,15
1422,-0.05,-0.97,0.24,0.55,-4.88,-2.26,196,262,415,450,342,15
1423,-0.05,-0.97,0.25,-1.1,-0.43,-2.87,176,252,409,449,338,15
1424,-0.06,-0.97,0.23,0.24,-4.39,-1.59,171,259,413,464,338,15
1425,-0.04,-0.96,0.23,-0.98,-1.53,-3.54,179,262,413,451,342,15
1426,-0.06,-0.97,0.25,0.79,-3.6,-2.5,177,258,413,448,338,15
1427,-0.05,-0.96,0.32,-2.62,1.16,-8.91,184,260,415,450,341,15
1428,-0.05,-0.97,0.21,3.36,-6.53,0.43,179,262,411,451,338,15
1429,-0.04,-0.97,0.24,5.19,-6.35,-2.81,180,260,412,444,337,15
1430,-0.01,-0.97,0.23,2.93,-4.27,-2.01,181,254,413,448,341,15
1431,-0.02,-0.97,0.27,5.74,-3.11,-2.56,180,262,408,453,339,15
1432,-0.0,-0.96,0.28,5.49,-3.78,0.24,185,259,410,457,335,15
1433,-0.04,-0.97,0.28,-0.79,0.12,-3.17,174,262,404,450,340,15
1434,-0.07,-0.97,0.25,0.55,-2.56,-3.6,173,262,412,450,340,15
1435,-0.05,-0.96,0.24,0.92,-2.38,-8.0,176,259,411,443,339,15
1436,-0.04,-1.0,0.27,1.4,1.95,-1.28,181,261,413,444,341,15
1437,-0.06,-0.96,0.22,1.53,-0.61,-2.32,181,264,421,452,338,15
1438,-0.06,-0.94,0.23,3.11,0.61,-3.05,178,263,419,454,338,15
1439,-0.09,-0.97,0.28,-1.34,7.32,3.05,180,262,418,448,345,15
1440,-0.05,-0.96,0.25,-3.72,-10.13,-2.38,179,264,416,449,346,15
1441,-0.09,-0.98,0.18,-9.46,-3.11,-7.51,177,264,417,451,348,15
1442,-0.06,-0.98,0.18,-2.32,-6.71,-1.28,184,258,414,452,342,15
1443,-0.05,-0.98,0.15,-2.75,-0.73,-1.65,185,261,412,452,346,15
1444,-0.13,-0.99,0.15,4.33,-18.25,6.71,183,260,414,451,348,15
1445,0.01,-0.97,0.19,-5.37,2.38,-3.36,187,265,417,451,363,15
1446,-0.02,-1.0,0.15,-24.05,-5.13,-13.61,212,275,385,445,371,15
1447,0.03,-0.98,0.03,-5.62,5.98,-4.94,170,239,246,427,329,15
1448,0.03,-0.98,0.17,17.88,6.16,7.2,166,255,392,443,323,15
1449,-0.0,-0.95,0.24,4.76,-4.58,0.37,171,256,407,439,326,15
1450,-0.05,-0.94,0.26,3.85,7.2,3.42,217,257,406,446,323,15
1451,-0.1,-0.96,0.28,-3.6,-14.22,5.13,173,256,414,438,329,15
1452,-0.03,-0.96,0.23,-9.64,2.38,-12.88,179,254,413,448,334,15
1453,-0.09,-0.97,0.26,0.31,2.62,-14.34,182,251,411,452,332,15
1454,-0.05,-0.98,0.16,4.7,-6.84,0.85,179,256,412,445,332,15
1455,-0.03,-0.98,0.18,-0.06,-10.93,-3.11,177,260,410,446,332,15
1456,-0.04,-0.98,0.16,-8.06,-4.09,-2.69,177,257,412,452,333,15
1457,-0.08,-1.01,0.11,-6.96,-0.43,-4.52,178,261,414,447,333,15
1458,-0.03,-0.99,0.14,4.88,0.67,-7.2,176,258,413,453,333,15
1459,-0.07,-0.97,0.22,11.05,-3.36,0.55,179,260,413,445,335,15
1460,-0.1,-0.98,0.27,-4.15,0.24,0.79,178,257,415,452,339,15
1461,-0.05,-0.97,0.2,2.38,0.73,-8.97,177,252,418,450,333,15
1462,-0.06,-0.98,0.2,-5.13,0.12,0.55,179,259,412,453,337,15
1463,-0.01,-0.95,0.29,0.24,-0.24,-13.61,177,256,412,450,338,15
1464,-0.09,-0.97,0.29,8.24,-10.62,2.93,180,259,413,446,335,15
1465,0.01,-0.98,0.16,-0.43,-7.39,-7.87,179,258,410,451,335,15
1466,0.03,-1.0,0.16,0.55,-4.15,-4.21,180,257,410,454,337,15
1467,0.02,-0.98,0.13,2.93,-2.01,-1.16,181,261,404,452,337,15
1468,0.03,-0.98,0.15,10.68,-1.04,-1.83,180,259,408,449,336,15
1469,0.02,-0.97,0.22,5.0,2.69,-6.59,181,264,414,457,338,15
1470,0.01,-0.96,0.19,-3.78,1.59,-2.5,183,257,414,450,341,15
1471,-0.03,-0.98,0.27,-10.99,9.22,-1.34,180,258,419,454,334,15
1472,-0.05,-0.98,0.22,-5.98,8.91,4.39,201,259,419,456,340,15
1473,0.01,-0.97,0.18,6.71,-3.05,-4.33,184,257,420,454,336,15
1474,-0.02,-0.97,0.2,-0.06,-4.39,-0.73,186,257,421,455,339,15
1475,-0.04,-0.98,0.23,5.25,-7.63,0.43,187,259,423,452,338,15
1476,-0.06,-0.97,0.26,-0.06,-10.8,0.0,183,259,423,455,332,15
1477,-0.08,-0.97,0.29,0.0,-7.32,-2.75,180,262,418,456,329,15
1478,-0.04,-0.96,0.27,-1.16,-17.27,-7.08,182,259,420,450,340,15
1479,-0.02,-0.97,0.26,1.59,-7.26,-0.92,184,261,417,449,341,15
1480,-0.02,-0.95,0.3,1.4,-4.21,-5.07,183,256,420,453,346,15
1481,-0.0,-0.96,0.25,4.46,-3.97,-1.22,181,261,420,445,341,15
1482,-0.02,-0.96,0.3,-1.46,-1.04,-2.81,211,259,418,449,342,15
1483,-0.01,-0.96,0.27,0.12,-3.36,-4.76,183,261,420,457,337,15
1484,-0.02,-0.96,0.31,1.77,-3.85,-2.81,185,261,419,448,347,15
1485,-0.02,-0.96,0.28,-0.98,-3.72,-2.81,175,265,415,455,335,15
1486,-0.0,-0.95,0.27,1.28,-4.03,-2.62,185,261,418,445,340,15
1487,-0.02,-0.95,0.28,2.5,-1.65,-2.32,187,260,423,454,341,15
1488,-0.02,-0.94,0.28,2.99,-3.97,-2.62,187,260,421,459,342,15
1489,-0.03,-0.95,0.3,1.04,-3.17,-2.5,182,257,414,456,339,15
1490,-0.03,-0.96,0.31,-0.31,-3.6,-2.08,185,259,418,457,339,15
1491,-0.02,-0.95,0.3,3.72,-7.51,-3.3,182,257,414,452,344,15
1492,-0.02,-0.95,0.31,1.34,-3.66,-2.32,184,266,420,456,342,15
1493,-0.01,-0.96,0.3,1.1,-2.5,-2.2,184,268,419,455,340,15
1494,-0.01,-0.95,0.3,-1.16,-2.81,-2.62,175,260,419,457,342,15
1495,-0.01,-0.95,0.3,-0.49,-2.01,-3.17,184,262,418,454,345,15
1496,-0.02,-0.96,0.3,-0.37,-2.69,-2.62,181,262,417,455,341,15
1497,0.0,-0.95,0.3,-0.55,-1.53,-3.72,222,258,420,454,340,15
1498,-0.0,-0.95,0.29,-1.53,-1.34,-4.33,182,262,420,460,343,15
1499,-0.02,-0.96,0.31,0.85,-3.23,-2.81,182,262,416,457,344,15
1500,-0.01,-0.95,0.31,0.06,-2.69,-2.81,184,260,412,454,343,15
1501,-0.02,-0.95,0.32,2.2,-3.3,-2.44,188,262,415,459,341,15
1502,-0.02,-0.94,0.3,5.25,-2.08,-1.65,181,263,419,459,342,15
1503,-0.02,-0.94,0.31,2.69,-2.32,-1.46,182,261,422,459,336,15
1504,-0.03,-0.94,0.32,0.73,-2.5,-2.38,189,263,417,464,341,15
1505,-0.03,-0.94,0.3,-2.01,2.44,-1.4,182,265,417,456,343,15
1506,-0.05,-0.94,0.3,0.31,-3.72,-3.42,183,257,415,450,341,15
1507,-0.04,-0.94,0.32,0.73,-2.99,-2.44,173,259,418,457,337,15
1508,-0.06,-0.94,0.32,0.79,-2.87,-2.08,182,262,418,456,340,15
1509,-0.05,-0.95,0.3,-1.65,-1.65,-1.71,180,257,412,456,341,15
1510,-0.06,-0.95,0.31,-0.18,-2.62,-2.69,186,260,419,459,341,15
1511,-0.05,-0.95,0.31,0.79,-3.48,-2.26,181,262,420,460,339,15
1512,-0.06,-0.95,0.31,0.55,-3.05,-2.62,183,264,414,458,340,15
1513,-0.06,-0.95,0.31,0.73,-3.48,-2.69,185,264,413,453,337,15
1514,-0.05,-0.95,0.31,0.0,-2.26,-2.56,181,269,417,458,341,15
1515,-0.05,-0.94,0.3,0.79,-3.54,-2.2,186,258,416,456,337,15
1516,-0.06,-0.94,0.31,0.37,-3.42,-2.99,185,257,417,457,339,15
1517,-0.06,-0.95,0.31,0.73,-2.99,-2.69,186,261,417,453,342,15
1518,-0.06,-0.95,0.33,-2.69,-6.29,-2.38,181,259,415,455,340,15
1519,-0.05,-0.96,0.31,-0.43,-5.62,-1.65,184,262,419,451,340,15
1520,-0.05,-0.95,0.29,-0.67,-0.92,-3.36,186,263,417,455,344,15
1521,-0.05,-0.95,0.3,1.4,-4.52,-3.11,179,269,416,456,347,15
1522,-0.06,-0.95,0.3,0.73,-2.62,-1.4,187,261,415,453,338,15
1523,-0.07,-0.95,0.31,2.01,-2.87,-2.08,187,259,415,456,350,15
1524,-0.05,-0.95,0.3,-0.12,-2.14,-2.08,188,263,419,457,346,15
1525,-0.06,-0.95,0.3,1.04,-3.54,-2.08,181,264,418,452,343,15
1526,-0.06,-0.95,0.31,1.34,-2.32,-2.26,182,261,412,458,342,15
1527,-0.06,-0.96,0.3,0.18,-3.97,-1.71,187,256,411,462,339,15
1528,-0.11,-0.95,0.33,0.61,-3.48,-2.2,186,261,417,451,349,15
1529,-0.11,-0.94,0.36,1.1,-0.98,-3.3,182,260,415,462,344,15
1530,-0.09,-0.93,0.35,0.18,-2.26,-2.87,187,264,417,461,346,15
1531,-0.1,-0.94,0.35,1.89,-2.62,-2.5,206,263,411,456,340,15
1532,-0.09,-0.94,0.34,0.12,-3.23,-3.17,193,259,415,456,343,15
1533,-0.09,-0.94,0.34,0.18,-2.14,-3.11,184,258,415,458,341,15
1534,-0.09,-0.94,0.34,1.53,-3.05,-2.26,186,258,415,454,340,15
1535,-0.08,-0.93,0.34,2.08,-2.69,-1.89,183,267,414,458,335,15
1536,-0.1,-0.94,0.34,-0.43,-2.14,-3.97,183,263,416,454,345,15
1537,-0.08,-0.94,0.34,0.0,-3.3,-2.81,188,273,417,458,339,15
1538,-0.09,-0.94,0.35,0.12,-2.32,-2.56,187,265,415,454,343,15
1539,-0.08,-0.93,0.34,0.67,-3.36,-2.87,185,263,413,460,340,15
1540,-0.09,-0.94,0.34,-0.31,-2.75,-2.44,180,265,414,461,340,15
1541,-0.1,-0.94,0.35,-0.18,-2.38,-2.75,188,261,418,458,341,15
1542,-0.08,-0.94,0.34,0.18,-2.56,-2.93,183,265,415,457,334,15
1543,-0.08,-0.94,0.35,0.12,-2.81,-2.38,185,263,417,460,339,15
1544,-0.08,-0.93,0.34,1.4,-3.3,-2.56,188,263,416,456,345,15
1545,-0.1,-0.94,0.34,-0.37,-2.56,-2.99,184,260,414,455,344,15
1546,-0.09,-0.94,0.34,0.61,-2.62,-2.62,186,262,414,456,346,15
1547,-0.08,-0.94,0.34,0.18,-3.23,-2.5,190,261,408,456,340,15
1548,-0.09,-0.94,0.34,0.0,-3.17,-2.32,183,260,413,456,343,15
1549,-0.09,-0.94,0.34,0.31,-3.17,-2.56,184,261,415,458,341,15
1550,-0.09,-0.94,0.34,0.18,-2.56,-2.93,188,266,415,458,344,15
1551,-0.09,-0.94,0.34,-0.24,-3.17,-2.93,186,258,413,456,344,15
1552,-0.09,-0.94,0.32,0.85,-2.01,-2.5,187,259,412,453,347,15
1553,-0.09,-0.94,0.33,0.24,-2.81,-2.87,189,263,413,457,342,15
1554,-0.08,-0.95,0.34,0.67,-3.3,-2.69,182,261,417,474,339,15
1555,-0.08,-0.94,0.33,0.98,-3.78,-2.01,215,258,414,458,343,15
1556,-0.1,-0.93,0.35,1.89,-3.78,-1.22,183,267,411,461,342,15
1557,-0.08,-0.93,0.36,2.99,-4.94,-1.04,184,261,416,461,339,15
1558,-0.08,-0.93,0.35,-2.81,-1.71,-3.72,187,264,412,458,344,15
1559,-0.1,-0.94,0.35,-0.79,-1.89,-3.54,180,254,410,452,342,15
1560,-0.09,-0.94,0.35,-0.61,-2.2,-3.66,186,263,410,459,344,15
1561,-0.1,-0.94,0.34,-0.92,-2.14,-3.23,184,259,414,454,340,15
1562,-0.08,-0.94,0.35,-0.06,-2.32,-2.56,188,258,412,455,341,15
1563,-0.09,-0.94,0.34,-0.24,-3.3,-2.87,208,260,412,463,344,15
1564,-0.09,-0.94,0.34,0.55,-2.81,-2.62,187,264,415,453,344,15
1565,-0.08,-0.93,0.34,1.83,-4.7,-1.34,179,257,413,456,345,15
1566,-0.08,-0.93,0.36,3.91,-3.78,-1.65,186,263,413,456,343,15
1567,-0.07,-0.92,0.34,-2.93,-4.52,-3.05,192,264,414,461,346,15
1568,-0.09,-0.93,0.34,0.98,-2.14,-2.99,184,261,416,458,344,15
1569,-0.08,-0.93,0.34,-0.85,-2.5,-3.36,186,259,420,453,341,15
1570,-0.09,-0.94,0.34,1.04,-3.42,-1.95,185,264,411,460,346,15
1571,-0.08,-0.94,0.34,0.37,-2.69,-3.11,183,262,416,460,341,15
1572,-0.09,-0.94,0.34,0.55,-2.99,-2.2,185,263,415,457,340,15
1573,-0.09,-0.94,0.34,0.0,-2.32,-2.44,191,263,412,458,345,15
1574,-0.08,-0.93,0.33,1.04,-2.93,-2.87,186,260,413,457,343,15
1575,-0.07,-0.94,0.31,-1.16,-3.05,-2.87,188,271,418,457,343,15
1576,-0.07,-0.95,0.31,2.01,-4.88,-2.08,185,262,412,457,344,15
1577,-0.09,-0.95,0.33,1.53,-2.99,-2.38,175,267,414,456,344,15
1578,-0.07,-0.95,0.32,0.06,-3.42,-2.99,184,260,415,457,344,15
1579,-0.05,-0.94,0.29,0.85,-5.86,-2.99,189,264,414,462,345,15
1580,-0.06,-0.94,0.32,1.71,-5.13,-1.22,186,265,412,456,343,15
1581,-0.07,-0.94,0.34,1.1,-3.48,-2.69,188,260,410,457,347,15
1582,-0.03,-0.94,0.32,1.77,-1.28,-4.21,186,262,413,456,343,15
1583,-0.05,-0.95,0.33,1.95,-1.95,-2.56,187,261,414,457,339,15
1584,-0.05,-0.94,0.31,-0.49,-2.81,-2.69,180,266,413,458,345,15
1585,-0.05,-0.94,0.34,0.67,-2.99,-2.5,187,269,409,453,342,15
1586,-0.06,-0.93,0.33,-0.31,-2.99,-2.93,183,274,414,460,346,15
1587,-0.07,-0.95,0.34,-0.55,-1.95,-3.78,189,260,415,455,343,15
1588,-0.06,-0.94,0.33,0.06,-4.58,-3.05,186,267,412,452,346,15
1589,-0.07,-0.95,0.33,-0.12,-2.2,-2.75,187,264,408,452,346,15
1590,-0.07,-0.95,0.34,0.85,-2.93,-2.38,189,253,412,457,339,15
1591,-0.06,-0.95,0.32,-2.2,-2.08,-3.05,184,264,407,463,345,15
1592,-0.05,-0.94,0.31,-0.24,-2.32,-2.5,187,260,409,459,344,15
1593,-0.07,-0.95,0.32,1.16,-2.5,-2.5,187,264,410,456,347,15
1594,-0.07,-0.95,0.32,1.1,-1.53,-2.75,184,265,416,457,341,15
1595,-0.07,-0.95,0.32,1.1,-3.6,-2.08,184,261,411,456,346,15
1596,-0.07,-0.95,0.34,0.61,-3.85,-2.38,179,262,409,456,344,15
1597,-0.07,-0.95,0.32,-0.18,-1.77,-2.93,186,267,409,458,343,15
1598,-0.06,-0.94,0.32,1.34,-3.66,-1.53,190,265,412,458,345,15
1599,-0.06,-0.94,0.34,0.85,-1.53,-2.69,186,266,408,459,343,15
1600,-0.06,-0.94,0.31,-0.61,-3.3,-3.23,185,259,407,456,340,15
1601,-0.06,-0.94,0.33,0.55,-2.99,-2.75,187,263,411,458,349,15
1602,-0.08,-0.95,0.31,-4.88,-2.75,-1.04,186,261,410,458,341,15
1603,-0.07,-0.94,0.34,3.3,-4.09,-1.22,187,263,408,457,345,15
1604,-0.07,-0.95,0.32,0.43,-4.46,-1.59,188,264,406,458,342,15
1605,-0.07,-0.95,0.34,1.71,-15.87,-4.76,188,261,408,458,338,15
1606,-0.06,-0.95,0.32,-0.55,-3.91,-1.77,192,263,405,457,344,15
1607,-0.05,-0.95,0.32,-0.98,-2.69,-2.32,178,262,411,456,338,15
1608,-0.05,-0.95,0.31,2.01,-2.69,-2.32,191,267,403,451,345,15
1609,-0.04,-0.94,0.31,0.18,-2.62,-2.99,189,274,410,456,348,15
1610,-0.05,-0.94,0.32,0.06,-2.81,-3.66,185,264,404,457,346,15
1611,-0.04,-0.95,0.31,0.24,-1.77,-3.23,187,265,408,457,345,15
1612,-0.06,-0.95,0.34,-2.5,-3.17,-2.99,189,267,409,457,345,15
1613,-0.05,-0.95,0.29,0.79,-2.5,-3.05,186,260,413,456,343,15
1614,-0.04,-0.95,0.29,-1.22,-2.08,-2.81,182,268,411,452,343,15
1615,-0.04,-0.96,0.31,-0.06,-3.17,-1.77,188,274,417,460,344,15
1616,-0.04,-0.96,0.27,0.98,-1.53,-2.93,188,265,404,451,346,15
1617,-0.06,-0.95,0.34,3.85,-4.76,-0.37,189,267,411,456,347,15
1618,-0.07,-0.95,0.31,0.24,-2.56,-2.81,185,260,411,455,346,15
1619,-0.03,-0.95,0.29,-2.2,-0.85,-5.31,185,266,408,457,345,15
1620,-0.05,-0.95,0.31,-1.4,-1.83,-3.91,182,264,409,462,338,15
1621,-0.06,-0.96,0.31,1.22,-4.33,-1.71,182,260,407,460,343,15
1622,-0.05,-0.95,0.3,0.31,-2.44,-2.93,187,266,411,458,345,15
1623,-0.06,-0.95,0.3,-0.73,-2.69,-2.75,188,265,408,461,340,15
1624,-0.06,-0.95,0.3,0.06,-2.32,-2.56,192,263,407,457,342,15
1625,-0.05,-0.95,0.3,0.67,-3.78,-2.75,191,262,416,459,347,15
1626,-0.04,-0.96,0.31,1.59,-3.36,-1.65,191,266,412,458,344,15
1627,-0.05,-0.96,0.31,-0.49,-2.32,-2.87,191,262,409,462,339,15
1628,-0.04,-0.94,0.29,0.61,-2.81,-3.11,185,265,410,460,344,15
1629,-0.05,-0.95,0.3,-1.4,-2.69,-2.93,187,267,411,460,345,15
1630,-0.06,-0.95,0.3,1.4,-2.99,-2.75,190,266,409,457,344,15
1631,-0.06,-0.95,0.31,1.04,-3.6,-1.71,188,268,411,462,346,15
1632,-0.05,-0.97,0.3,2.99,-7.51,-3.3,189,265,405,453,346,15
1633,-0.04,-0.95,0.32,1.77,-9.58,-1.59,188,264,409,455,344,15
1634,-0.01,-0.95,0.3,2.87,-6.29,-0.31,189,263,409,452,347,15
1635,-0.02,-0.96,0.25,-5.13,-0.92,-7.08,183,266,405,461,344,15
1636,-0.03,-0.96,0.27,-4.09,-4.27,-2.44,188,258,405,455,337,15
1637,-0.02,-0.96,0.28,-0.55,-1.34,-3.66,190,267,409,455,344,15
1638,-0.01,-0.97,0.26,-2.93,0.49,-4.52,189,264,410,460,349,15
1639,0.0,-0.97,0.2,-4.15,0.12,-2.01,186,267,408,457,346,15
1640,-0.02,-0.98,0.27,6.77,-2.5,0.0,185,266,406,455,352,15
1641,-0.01,-0.96,0.29,4.15,0.61,-2.93,188,264,410,458,348,15
1642,-0.05,-0.96,0.32,-1.59,-5.98,-1.22,185,268,411,452,347,15
1643,-0.06,-0.96,0.33,0.61,-6.23,-2.14,183,257,409,459,345,15
1644,-0.04,-0.96,0.32,-2.32,-5.25,-3.36,184,263,407,461,346,15
1645,-0.03,-0.96,0.34,0.24,-0.85,-2.26,186,263,407,454,343,15
1646,-0.02,-0.97,0.34,1.53,-2.81,-3.72,182,264,407,458,347,15
1647,-0.02,-0.95,0.32,1.22,-2.44,-3.23,189,269,403,456,343,15
1648,-0.03,-0.95,0.32,0.43,-2.62,-2.99,183,267,410,462,343,15
1649,-0.02,-0.95,0.33,0.06,-3.17,-2.69,190,265,405,455,343,15
1650,-0.04,-0.95,0.34,-0.18,-3.72,-2.32,187,266,406,462,343,15
1651,-0.04,-0.95,0.33,0.24,-4.09,-2.81,188,262,405,459,342,15
1652,-0.04,-0.95,0.32,-1.53,-2.87,-2.38,186,266,406,456,344,15
1653,-0.03,-0.94,0.36,6.04,-3.42,-0.31,186,263,404,457,343,15
1654,-0.03,-0.94,0.35,0.98,-1.46,-4.09,186,267,406,452,342,15
1655,-0.04,-0.93,0.37,1.71,-3.3,-0.43,187,268,405,458,344,15
1656,-0.03,-0.93,0.31,1.95,-3.05,-0.61,189,265,409,460,343,15
1657,-0.04,-0.92,0.37,8.06,-8.54,1.71,188,264,404,449,345,15
1658,-0.05,-0.91,0.37,-6.47,-2.32,-5.13,188,267,405,455,343,15
1659,-0.03,-0.92,0.4,-3.36,-2.26,-4.64,182,268,404,457,338,15
1660,-0.03,-0.92,0.38,-1.59,-0.92,-2.26,187,268,406,460,342,15
1661,-0.05,-0.94,0.35,-1.53,-1.59,-1.77,188,266,404,461,342,15
1662,-0.06,-0.93,0.37,0.31,-3.48,-2.69,190,265,420,460,345,15
1663,-0.06,-0.94,0.35,1.4,-3.05,-2.5,190,267,406,456,349,15
1664,-0.05,-0.94,0.34,-2.2,-2.38,-3.23,187,267,406,459,341,15
1665,-0.06,-0.95,0.35,1.28,-2.93,-1.04,189,267,406,458,339,15
1666,-0.04,-0.95,0.33,-1.95,-2.14,-4.46,185,267,410,457,344,15
1667,-0.05,-0.94,0.31,-2.93,-5.25,-2.2,189,264,403,463,346,15
1668,-0.04,-0.94,0.35,1.46,-3.97,-4.03,191,261,404,457,341,15
1669,-0.03,-0.94,0.34,-1.71,-3.91,-3.78,187,271,405,453,344,15
1670,-0.04,-0.96,0.32,0.0,-2.26,-2.26,187,254,401,461,341,15
1671,-0.03,-0.94,0.29,-2.5,-2.44,-3.3,189,261,402,459,345,15
1672,-0.04,-0.95,0.34,-0.98,-2.81,-1.95,186,262,407,457,344,15
1673,-0.04,-0.95,0.3,1.89,-3.23,-0.49,190,264,403,456,346,15
1674,-0.04,-0.95,0.32,-0.24,-5.74,-0.49,186,262,400,459,345,15
1675,-0.06,-0.94,0.35,2.87,-0.79,-1.46,188,266,409,463,345,15
1676,-0.05,-0.93,0.35,2.93,-3.36,-0.67,192,265,407,456,344,15
1677,-0.05,-0.94,0.35,-0.49,-1.71,-2.81,189,271,405,459,346,15
1678,-0.05,-0.94,0.35,-1.16,1.71,-4.76,187,268,406,457,344,15
1679,-0.03,-0.93,0.34,2.75,3.6,-5.8,186,263,402,455,344,15
1680,0.01,-0.94,0.32,0.98,4.76,-9.22,186,263,407,457,349,15
1681,-0.0,-0.94,0.34,-11.47,5.8,-13.0,188,268,406,458,344,15
1682,0.02,-0.95,0.29,-3.3,-5.25,-5.07,189,270,411,458,343,15
1683,0.02,-0.96,0.27,-2.87,-8.42,-1.34,186,264,411,459,345,15
1684,0.01,-0.95,0.28,3.78,-1.89,1.1,192,269,405,457,339,15
1685,-0.0,-0.96,0.3,5.25,-3.3,0.24,188,265,403,458,342,15
1686,-0.02,-0.94,0.32,1.04,-1.46,-1.4,186,265,400,453,347,15
1687,-0.02,-0.95,0.33,5.8,-2.56,-0.92,187,267,404,458,347,15
1688,-0.03,-0.94,0.32,-0.43,-2.62,-2.99,183,266,404,446,345,15
1689,-0.06,-0.95,0.36,2.32,-4.94,-0.92,190,264,399,452,344,15
1690,-0.05,-0.94,0.33,2.44,-3.42,-1.59,188,266,404,460,343,15
1691,-0.05,-0.94,0.34,-0.61,-2.44,-2.87,188,259,403,456,345,15
1692,-0.04,-0.94,0.33,-0.24,-3.17,-2.75,179,267,402,457,346,15
1693,-0.04,-0.95,0.3,-2.26,-2.5,-2.87,188,266,406,457,345,15
1694,-0.04,-0.95,0.31,2.08,-2.87,-1.77,190,267,405,460,344,15
1695,-0.03,-0.94,0.33,1.4,-2.99,-3.97,189,269,398,454,346,15
1696,-0.04,-0.95,0.33,0.73,-2.87,-2.44,193,270,404,461,348,15
1697,-0.04,-0.95,0.33,0.12,-2.5,-2.5,193,266,405,458,343,15
1698,-0.04,-0.95,0.32,-0.79,-2.44,-3.23,194,260,404,455,347,15
1699,-0.05,-0.96,0.32,-0.12,-3.23,-2.44,189,264,401,456,344,15
1700,-0.04,-0.95,0.32,-0.37,-3.66,-2.2,189,267,403,453,344,15
1701,-0.04,-0.95,0.34,1.77,-3.42,-2.44,191,267,407,456,349,15
1702,-0.05,-0.95,0.33,0.0,-2.81,-3.36,189,264,405,455,345,15
1703,-0.04,-0.95,0.34,0.12,-2.62,-2.38,188,264,406,452,343,15
1704,-0.04,-0.95,0.29,0.73,-3.36,-1.77,189,259,403,457,345,15
1705,-0.06,-0.95,0.29,0.24,-4.27,2.75,188,263,405,452,346,15
1706,-0.05,-0.95,0.31,-5.13,-3.48,-4.7,193,265,405,456,346,15
1707,-0.05,-0.96,0.31,-2.08,-1.46,-3.48,186,268,405,460,342,15
1708,-0.02,-0.95,0.3,1.89,-4.94,-0.18,191,262,405,461,345,15
1709,-0.02,-0.94,0.29,1.59,-4.82,-1.59,190,265,398,460,341,15
1710,-0.02,-0.94,0.3,1.71,-4.64,-1.28,188,268,405,463,346,15
1711,-0.05,-0.96,0.32,0.0,-2.32,-2.62,187,268,403,459,346,15
1712,-0.03,-0.95,0.32,-1.22,-2.69,-3.66,192,263,401,455,344,15
1713,-0.03,-0.96,0.29,2.44,-1.22,-3.48,193,268,405,452,343,15
1714,-0.04,-0.95,0.32,4.46,-4.27,0.18,191,268,404,461,344,15
1715,-0.04,-0.96,0.31,1.71,-0.92,-3.48,184,259,402,457,345,15
1716,-0.04,-0.95,0.31,-0.55,-3.05,-2.14,187,264,404,458,344,15
1717,-0.04,-0.95,0.31,4.03,-2.38,-4.52,192,268,401,457,343,15
1718,-0.04,-0.95,0.33,-1.53,-4.03,-1.22,190,271,407,457,345,15
1719,-0.04,-0.94,0.34,0.06,-2.5,-1.1,191,268,402,456,341,15
1720,-0.04,-0.95,0.34,-2.44,-3.36,-3.17,195,265,403,462,345,15
1721,-0.04,-0.94,0.32,2.44,-4.03,-0.92,190,264,403,458,341,15
1722,-0.04,-0.94,0.34,-0.12,-2.62,-3.48,191,268,403,462,346,15
1723,-0.04,-0.94,0.33,0.18,-2.56,-2.44,188,269,404,460,344,15
1724,-0.04,-0.94,0.34,-1.22,-0.67,-4.39,188,266,399,457,340,15
1725,-0.05,-0.95,0.34,0.37,-3.05,-2.62,181,267,402,456,347,15
1726,-0.03,-0.95,0.34,-0.49,-2.62,-2.87,193,267,403,460,346,15
1727,-0.08,-0.9,0.37,0.37,-2.62,-0.37,190,269,405,458,356,15
1728,-0.03,-0.95,0.32,0.67,-2.93,-2.75,201,266,404,454,344,15
1729,-0.05,-0.95,0.32,-3.48,-0.37,-3.85,191,266,406,462,347,15
1730,-0.03,-0.95,0.31,0.37,-2.32,-1.83,203,266,406,459,343,15
1731,-0.04,-0.95,0.32,0.37,-2.99,-2.69,190,266,405,459,346,15
1732,-0.05,-0.95,0.33,1.28,-3.42,-1.95,192,270,403,455,356,15
1733,-0.06,-0.96,0.3,0.12,-2.75,-3.11,198,261,404,456,344,15
1734,-0.05,-0.94,0.31,-1.34,-3.17,-2.87,203,261,403,458,347,15
1735,-0.04,-0.95,0.31,-0.55,-2.2,-2.99,190,267,401,457,346,15
1736,-0.05,-0.96,0.31,-0.06,-1.95,-3.05,194,266,404,459,348,15
1737,-0.05,-0.95,0.31,0.12,-2.2,-2.93,190,267,402,458,346,15
1738,-0.05,-0.96,0.3,-0.49,-2.32,-2.38,189,265,401,458,343,15
1739,-0.05,-0.95,0.31,-1.04,-2.38,-3.54,189,269,402,458,347,15
1740,-0.06,-0.95,0.31,1.28,-2.93,-2.93,191,265,401,457,343,15
1741,-0.05,-0.94,0.33,0.98,-4.64,-1.22,191,266,398,461,345,15
1742,-0.05,-0.94,0.31,0.12,-3.36,-2.5,193,263,397,457,345,15
1743,-0.05,-0.94,0.31,-0.37,-1.34,-3.3,187,267,400,453,344,15
1744,-0.07,-0.95,0.32,-3.48,-2.5,-3.17,186,262,401,455,345,15
1745,-0.05,-0.95,0.3,-3.48,-2.62,-2.93,189,268,402,461,342,15
1746,-0.05,-0.96,0.28,1.34,-2.38,-2.2,187,278,400,456,345,15
1747,-0.05,-0.95,0.3,0.61,-3.11,-2.5,186,269,403,456,344,15
1748,-0.04,-0.95,0.32,4.94,-3.91,-2.2,187,264,401,455,347,15
1749,-0.06,-0.95,0.28,0.37,-3.72,-2.08,190,265,402,458,351,15
1750,-0.05,-0.95,0.3,1.89,-2.2,-1.95,190,266,399,454,347,15
1751,-0.06,-0.95,0.31,-0.31,-1.89,-3.85,195,271,406,457,344,15
1752,-0.05,-0.95,0.3,-0.12,-2.08,-3.48,193,266,404,461,344,15
1753,-0.08,-0.95,0.34,-0.98,-2.93,-3.17,193,265,404,456,343,15
1754,-0.07,-0.94,0.33,0.92,-4.21,-1.83,192,269,407,454,347,15
1755,-0.07,-0.94,0.31,0.49,-4.33,-2.26,198,266,401,458,347,15
1756,-0.07,-0.95,0.34,4.09,-2.14,-1.34,192,266,403,454,347,15
1757,-0.04,-0.94,0.39,1.59,-4.09,-2.14,197,268,403,455,348,15
1758,-0.04,-0.94,0.31,2.14,-4.88,-3.17,194,274,399,461,345,15
1759,-0.08,-0.92,0.41,3.91,-2.01,-5.07,200,269,402,457,344,15
1760,-0.05,-0.94,0.33,-0.92,-8.54,-5.74,193,269,403,454,345,15
1761,-0.04,-0.96,0.38,2.32,1.59,1.65,195,266,402,458,345,15
1762,-0.07,-0.93,0.35,0.55,-0.85,-4.03,195,266,400,455,343,15
1763,-0.07,-0.95,0.36,2.81,-1.83,-1.46,192,265,406,458,345,15
1764,-0.06,-0.94,0.33,-0.12,-2.81,-3.36,195,266,406,455,348,15
1765,-0.05,-0.93,0.33,0.24,-3.3,-3.23,194,271,409,458,340,15
1766,-0.07,-0.93,0.34,0.31,-2.32,-2.38,198,267,400,462,350,15
1767,-0.06,-0.93,0.34,1.53,-1.89,-3.23,197,268,401,457,348,15
1768,-0.07,-0.94,0.35,0.98,-3.6,-2.01,195,266,398,458,344,15
1769,-0.07,-0.93,0.34,-0.98,-2.32,-2.32,195,270,402,453,346,15
1770,-0.06,-0.93,0.34,1.46,-3.17,-2.93,194,268,403,456,348,15
1771,-0.08,-0.94,0.35,-0.92,-2.2,-2.99,192,268,402,462,344,15
1772,-0.07,-0.94,0.33,-2.93,-4.21,-1.83,196,269,403,458,343,15
1773,-0.03,-0.93,0.32,3.3,-4.27,-1.95,192,265,400,458,348,15
1774,-0.05,-0.94,0.32,-0.55,-2.32,-3.36,197,266,401,459,344,15
1775,-0.07,-0.94,0.34,2.01,-3.36,-2.62,194,264,400,458,345,15
1776,-0.07,-0.94,0.36,-0.92,-2.01,-2.62,200,266,404,461,345,15
1777,-0.06,-0.94,0.35,-0.55,-2.5,-3.05,193,266,403,460,348,15
1778,-0.07,-0.93,0.35,0.43,-2.62,-2.44,199,264,399,454,347,15
1779,-0.06,-0.93,0.35,0.12,-2.69,-2.75,196,269,398,457,344,15
1780,-0.07,-0.93,0.35,1.04,-2.81,-2.75,195,266,401,452,350,15
1781,-0.07,-0.94,0.34,-0.12,-3.3,-2.99,192,263,411,452,348,15
1782,-0.07,-0.93,0.34,0.92,-4.88,-2.56,189,268,399,461,339,15
1783,-0.08,-0.94,0.34,-3.42,-1.1,-4.03,196,262,406,458,345,15
1784,-0.08,-0.95,0.33,-1.04,-1.95,-2.69,193,268,408,447,346,15
1785,-0.06,-0.95,0.32,-2.56,-4.52,-3.3,201,267,406,455,343,15
1786,-0.06,-0.96,0.32,0.43,-6.23,-4.46,188,266,408,446,345,15
1787,-0.06,-0.94,0.31,-1.89,-2.62,-2.87,196,265,409,454,345,15
1788,-0.06,-0.94,0.32,-0.92,-2.69,-2.81,198,273,404,454,346,15
1789,-0.05,-0.95,0.31,1.53,-5.07,-3.72,212,266,406,454,343,15
1790,-0.07,-0.95,0.32,-0.12,-2.93,-1.16,195,261,404,451,342,15
1791,-0.07,-0.94,0.3,-0.55,-3.11,-3.11,185,264,407,457,345,15
1792,-0.04,-0.94,0.31,0.37,-3.6,-3.36,194,264,408,453,347,15
1793,-0.07,-0.95,0.34,-1.89,0.67,-1.71,183,265,410,454,346,15
1794,-0.04,-0.93,0.33,0.98,-6.1,-0.73,187,267,410,451,345,15
1795,-0.05,-0.95,0.34,0.0,1.1,0.73,187,268,411,454,340,15
1796,-0.06,-0.94,0.34,-0.43,-3.48,-3.48,197,271,413,457,346,15
1797,-0.07,-0.94,0.33,-0.06,-3.11,-3.05,195,263,407,451,345,15
1798,-0.08,-0.95,0.34,0.85,-2.14,-3.6,192,272,410,449,347,15
1799,-0.08,-0.95,0.29,2.08,-5.68,-2.14,192,269,410,450,342,15
1800,-0.06,-0.94,0.31,0.85,-3.72,-2.5,190,265,408,459,339,15
1801,-0.06,-0.94,0.31,0.37,-3.97,-2.87,195,267,408,452,343,15
1802,-0.08,-0.94,0.33,0.67,-2.62,-2.69,192,268,410,453,353,15
1803,-0.07,-0.94,0.33,1.89,-4.39,-1.83,194,266,405,456,344,15
1804,-0.07,-0.94,0.32,0.67,-2.56,-2.56,195,265,406,452,344,15
1805,-0.08,-0.94,0.33,0.49,-2.56,-2.32,194,261,410,454,347,15
1806,-0.08,-0.94,0.32,0.12,-1.71,-2.5,194,265,409,459,346,15
1807,-0.07,-0.94,0.32,-0.12,-1.77,-2.56,192,267,411,455,348,15
1808,-0.07,-0.94,0.33,1.1,-3.78,-2.44,197,267,406,459,340,15
1809,-0.05,-0.94,0.32,0.85,-3.17,-2.26,196,268,409,459,344,15
1810,-0.06,-0.95,0.32,-0.49,-2.87,-2.5,184,266,405,455,349,15
1811,-0.06,-0.94,0.32,0.37,-2.2,-3.05,198,266,409,454,346,15
1812,-0.06,-0.94,0.31,0.55,-2.75,-3.42,195,267,409,455,345,15
1813,-0.08,-0.94,0.32,-2.2,-2.08,-3.85,194,272,407,454,348,15
1814,-0.07,-0.95,0.33,-0.12,-2.69,-2.56,195,270,408,451,350,15
1815,-0.06,-0.95,0.32,0.79,-2.62,-2.56,185,270,407,453,348,15
1816,-0.07,-0.95,0.32,0.43,-2.32,-2.81,197,267,408,453,345,15
1817,-0.06,-0.94,0.32,-0.37,-2.81,-3.05,194,268,408,458,346,15
1818,-0.06,-0.94,0.32,-0.24,-3.23,-3.23,192,269,403,457,343,15
1819,-0.08,-0.94,0.31,-0.55,-3.17,-2.81,197,268,410,454,347,15
1820,-0.06,-0.95,0.31,0.37,-3.91,-2.5,193,264,405,458,345,15
1821,-0.06,-0.94,0.33,0.55,-2.5,-1.89,194,269,411,456,345,15
1822,-0.06,-0.95,0.31,1.04,-2.69,-2.69,200,266,408,461,355,15
1823,-0.06,-0.93,0.32,-0.24,-3.17,-3.66,193,267,407,457,347,15
1824,-0.07,-0.94,0.35,-2.08,-3.17,-1.53,196,268,408,461,342,15
1825,-0.06,-0.95,0.31,0.92,-3.66,-2.62,196,270,408,456,345,15
1826,-0.07,-0.94,0.31,-0.31,-2.69,-3.17,197,265,411,458,347,15
1827,-0.06,-0.94,0.31,0.79,-3.23,-2.69,193,268,406,459,346,15
1828,-0.06,-0.95,0.31,0.73,-3.91,-2.38,194,268,407,459,344,15
1829,-0.07,-0.95,0.31,1.4,-3.97,-2.81,185,269,411,454,343,15
1830,-0.06,-0.95,0.3,0.49,-2.93,-2.69,194,263,412,458,347,15
1831,-0.07,-0.94,0.32,-0.12,-2.38,-2.14,196,267,423,458,345,15
1832,-0.06,-0.94,0.33,-0.24,-2.69,-2.56,193,271,405,458,349,15
1833,-0.07,-0.95,0.32,1.59,-3.11,-2.44,188,265,407,460,346,15
1834,-0.07,-0.94,0.33,0.06,-2.93,-2.5,199,266,410,456,348,15
1835,-0.06,-0.94,0.32,0.37,-3.3,-2.87,196,266,412,462,350,15
1836,-0.06,-0.95,0.31,0.79,-3.6,-2.99,195,266,406,461,346,15
1837,-0.07,-0.95,0.31,-0.49,-2.69,-3.17,196,270,409,457,342,15
1838,-0.07,-0.94,0.31,-0.73,-2.87,-3.11,196,270,411,456,347,15
1839,-0.07,-0.94,0.32,0.06,-2.5,-2.44,196,268,409,455,348,15
1840,-0.06,-0.95,0.31,-1.46,-1.95,-2.93,190,268,403,462,348,15
1841,-0.07,-0.94,0.31,0.49,-3.78,-2.75,193,271,407,457,345,15
1842,-0.07,-0.96,0.31,0.37,-2.75,-2.81,194,268,407,463,348,15
1843,-0.07,-0.95,0.31,-1.04,-1.4,-3.11,195,267,403,455,348,15
1844,-0.07,-0.94,0.31,-0.12,-2.75,-2.2,192,269,407,456,347,15
1845,-0.07,-0.95,0.3,0.67,-4.76,-1.95,194,261,407,459,344,15
1846,-0.07,-0.95,0.33,-1.16,-2.62,-1.77,198,272,403,460,349,15
1847,-0.09,-0.94,0.31,2.01,-2.14,-2.56,197,273,409,456,345,15
1848,-0.07,-0.94,0.31,-1.46,-1.65,-3.66,196,275,407,457,344,15
1849,-0.07,-0.94,0.33,-3.54,1.83,-6.16,190,268,408,453,347,15
1850,-0.07,-0.94,0.3,-0.73,-2.44,-4.39,196,262,408,461,348,15
1851,-0.06,-0.95,0.32,6.47,-7.32,-5.13,197,267,410,457,346,15
1852,-0.06,-0.94,0.35,-2.75,-0.55,-1.46,201,265,404,458,341,15
1853,-0.06,-0.94,0.33,-0.55,-3.6,-2.62,198,267,408,461,347,15
1854,-0.07,-0.94,0.33,2.99,-7.75,-4.03,197,270,410,456,350,15
1855,-0.07,-0.94,0.34,-1.89,0.73,-1.28,197,264,404,456,348,15
1856,-0.09,-0.95,0.32,-0.61,-4.46,-2.44,198,270,406,461,350,15
1857,-0.04,-0.94,0.32,0.55,-3.17,-2.5,194,267,404,460,345,15
1858,-0.06,-0.94,0.32,0.79,-2.32,-2.44,189,269,405,456,344,15
1859,-0.07,-0.94,0.32,-1.95,-3.17,-3.66,195,270,406,456,349,15
1860,-0.08,-0.94,0.33,0.98,-3.78,-1.46,194,270,406,452,350,15
1861,-0.05,-0.94,0.32,0.55,-1.95,-2.99,190,267,407,461,346,15
1862,-0.07,-0.94,0.34,1.71,-3.36,-1.65,196,272,408,454,350,15
1863,-0.06,-0.94,0.33,1.59,-3.3,-2.08,194,268,405,457,347,15
1864,-0.08,-0.95,0.32,1.04,-3.05,-1.83,194,269,407,457,346,15
1865,-0.09,-0.95,0.35,0.79,-3.85,-2.99,200,258,404,449,350,15
1866,-0.06,-0.94,0.35,1.28,-4.94,-1.77,193,267,408,455,349,15
1867,-0.08,-0.93,0.33,-0.37,-2.99,-2.99,196,266,404,458,348,15
1868,-0.06,-0.93,0.32,-1.28,-2.87,-3.3,194,268,405,461,347,15
1869,-0.07,-0.95,0.33,-0.12,-2.5,-2.75,196,270,405,457,349,15
1870,-0.06,-0.94,0.33,0.61,-2.93,-2.81,194,266,404,456,356,15
1871,-0.07,-0.94,0.32,-1.83,-1.71,-2.81,194,267,407,456,344,15
1872,-0.06,-0.95,0.32,-2.14,-2.26,-3.42,193,264,403,457,349,15
1873,-0.07,-0.94,0.33,-0.98,-3.23,-1.4,204,267,405,467,347,15
1874,-0.07,-0.95,0.33,-0.55,-1.53,-3.54,195,270,403,457,353,15
1875,-0.06,-0.94,0.33,0.0,-2.81,-2.26,195,272,405,452,349,15
1876,-0.07,-0.95,0.32,0.79,-3.17,-2.26,200,272,404,459,347,15
1877,-0.07,-0.94,0.32,0.43,-3.17,-2.38,194,272,405,456,350,15
1878,-0.07,-0.95,0.32,1.04,-2.81,-2.5,196,268,406,456,346,15
1879,-0.07,-0.94,0.33,0.73,-2.81,-2.99,198,272,407,456,350,15
1880,-0.07,-0.94,0.32,0.18,-3.17,-2.2,198,275,407,458,344,15
1881,-0.07,-0.94,0.33,0.67,-2.32,-2.87,194,269,407,459,348,15
1882,-0.08,-0.94,0.32,0.49,-1.53,-4.52,196,271,404,452,348,15
1883,-0.07,-0.95,0.32,0.0,-3.36,-2.5,195,270,400,452,353,15
1884,-0.08,-0.94,0.33,0.43,-3.23,-2.99,194,265,405,456,346,15
1885,-0.07,-0.94,0.33,-0.06,-2.26,-3.3,198,266,402,454,346,15
1886,-0.07,-0.94,0.33,1.28,-3.66,-2.08,194,269,405,454,348,15
1887,-0.07,-0.95,0.32,0.55,-3.11,-2.69,194,269,408,449,349,15
1888,-0.07,-0.95,0.32,0.43,-3.17,-2.69,196,271,400,451,346,15
1889,-0.07,-0.94,0.32,0.67,-3.11,-2.01,197,271,404,456,347,15
1890,-0.08,-0.94,0.32,1.4,-3.66,-2.2,193,269,406,453,347,15
1891,-0.08,-0.94,0.32,-0.37,-2.81,-2.93,200,272,398,460,347,15
1892,-0.08,-0.95,0.32,0.12,-3.05,-2.44,187,273,406,455,348,15
1893,-0.07,-0.94,0.33,-0.24,-3.05,-3.48,193,273,401,458,349,15
1894,-0.07,-0.95,0.34,0.67,-2.69,-2.2,200,268,405,455,344,15
1895,-0.08,-0.94,0.32,-0.73,-2.87,-2.93,195,274,409,467,346,15
1896,-0.07,-0.94,0.33,1.04,-3.11,-2.69,197,267,403,457,347,15
1897,-0.07,-0.94,0.31,0.0,-3.05,-2.26,195,269,403,456,347,15
1898,-0.07,-0.94,0.31,-0.18,-3.78,-3.72,199,273,406,461,349,15
1899,-0.03,-0.8,0.41,70.86,-23.74,2.38,317,353,393,458,377,15
1900,0.15,-0.84,0.73,33.45,-8.36,-6.9,408,423,376,445,395,15
1901,0.29,-0.25,0.97,63.05,21.67,-31.07,403,436,377,440,383,15
1902,0.16,-0.28,0.99,-15.63,-2.5,-4.7,382,447,353,410,372,15
1903,0.19,-0.32,0.93,-2.32,15.01,-8.24,376,443,333,395,328,15
1904,0.19,-0.32,0.95,1.71,-4.76,1.22,365,434,330,389,314,15
1905,0.16,-0.25,0.93,4.58,-3.17,-3.72,360,438,327,398,335,15
1906,-0.12,-0.91,0.47,27.16,-0.98,-11.47,269,280,443,470,341,15
1907,-0.21,-0.89,0.55,-21.91,12.94,-7.87,263,282,444,472,346,15
1908,-0.22,-0.89,0.17,9.28,-15.38,11.17,269,288,446,471,336,15
1909,-0.17,-0.92,0.42,-6.77,-9.46,-8.36,270,288,440,465,339,15
1910,-0.16,-0.76,0.28,-2.93,-47.67,14.47,250,274,437,455,329,15
1911,-0.13,-0.98,0.24,40.04,13.61,-13.0,240,276,429,457,337,15
1912,-0.1,-0.95,0.37,-1.83,1.59,-1.59,244,275,438,460,343,15
1913,-0.07,-0.91,0.31,1.53,-2.69,-2.99,252,282,440,467,343,15
1914,-0.07,-0.92,0.39,21.0,-1.89,-6.53,257,280,440,474,346,15
1915,-0.09,-0.91,0.41,-5.0,3.78,-4.33,263,286,439,468,349,15
1916,-0.09,-0.93,0.33,22.83,-9.34,11.84,264,286,440,468,350,15
1917,-0.17,-0.91,0.43,-10.01,-2.69,-2.99,266,287,440,467,355,15
1918,-0.08,-0.88,0.25,-2.01,-0.73,-5.55,266,287,440,470,353,15
1919,-0.14,-0.95,0.46,-5.25,-14.83,-1.89,283,290,440,468,353,15
1920,-0.13,-0.93,0.34,2.75,-3.66,-2.08,266,291,438,469,356,15
1921,-0.14,-0.92,0.35,0.98,-6.84,1.71,266,299,438,483,356,15
1922,-0.15,-1.0,0.42,-6.59,-4.76,9.4,266,292,446,465,358,15
1923,-0.29,-0.85,0.35,15.75,9.03,0.06,265,289,435,469,356,15
1924,-0.13,-1.01,0.34,5.8,3.97,-24.29,265,287,437,467,354,15
1925,-0.17,-0.88,0.36,-2.08,-4.33,6.47,275,289,436,463,358,15
1926,-0.14,-0.89,0.25,-2.26,6.35,-1.1,267,293,439,464,356,15
1927,-0.17,-0.94,0.3,1.95,-4.52,-2.62,266,292,437,467,356,15
1928,-0.15,-0.94,0.29,0.85,0.49,-3.3,269,292,438,472,355,15
1929,-0.13,-0.95,0.31,2.69,-3.54,-2.26,271,293,440,471,356,15
1930,-0.14,-0.96,0.32,1.4,-2.69,-2.93,276,291,441,463,358,15
1931,-0.13,-0.94,0.3,0.12,-0.55,-2.87,272,292,439,462,359,15
1932,-0.13,-0.97,0.32,-0.85,-3.91,-2.38,270,290,441,471,357,15
1933,-0.12,-0.94,0.31,-0.12,-7.93,-3.6,270,292,441,464,354,15
1934,-0.14,-0.93,0.31,1.22,-4.7,-1.4,274,288,440,463,358,15
1935,-0.15,-0.94,0.35,0.0,-3.17,-1.95,266,292,441,468,359,15
1936,-0.15,-0.95,0.34,0.79,-0.67,-2.81,270,291,440,463,362,15
1937,-0.16,-0.91,0.36,-4.09,-2.75,-2.87,271,294,442,472,361,15
1938,-0.13,-0.92,0.35,-1.53,-5.13,-4.58,271,296,440,467,360,15
1939,-0.15,-0.92,0.37,-1.28,-0.85,-3.78,274,298,438,468,359,15
1940,-0.16,-0.94,0.4,0.61,9.58,-2.44,273,298,440,469,359,15
1941,-0.19,-0.9,0.33,-2.56,14.89,-5.8,272,298,444,472,357,15
1942,-0.13,-0.94,0.29,-13.31,13.79,-19.41,263,293,446,469,356,15
1943,-0.19,-0.95,0.25,7.93,-2.26,-0.92,267,310,445,464,355,15
1944,-0.12,-0.95,0.28,0.43,-4.82,-4.82,270,300,441,463,352,15
1945,-0.13,-0.95,0.34,3.48,-4.39,-1.28,272,300,441,471,356,15
1946,-0.12,-0.95,0.31,0.67,-8.12,-2.32,272,300,445,470,352,15
1947,-0.13,-0.92,0.36,0.43,-2.75,-1.95,273,297,444,473,357,15
1948,-0.13,-0.93,0.44,-1.4,-15.01,-2.38,262,290,435,463,357,15
1949,-0.12,-0.89,0.28,0.79,0.18,-6.35,269,282,434,465,349,15
1950,-0.12,-0.95,0.38,0.55,-2.08,-2.75,269,295,434,465,349,15
1951,-0.11,-0.89,0.32,6.53,-4.58,-2.26,269,299,438,466,350,15
1952,-0.11,-0.93,0.4,-0.55,-3.66,-4.27,274,299,439,461,357,15
1953,-0.11,-0.92,0.36,4.52,-4.82,-2.93,276,298,435,470,359,15
1954,-0.13,-0.93,0.44,1.89,-18.37,-3.36,275,304,435,460,359,15
1955,-0.07,-0.9,0.31,3.23,-0.55,-3.91,275,304,437,477,356,15
1956,-0.1,-0.95,0.42,-8.36,-3.48,-2.75,275,302,434,465,359,15
