,aX,aY,aZ,gX,gY,gZ,little,ring,middle,index,thumb,number
0,-0.16,-0.98,0.11,-0.92,0.12,-1.46,412,259,436,464,293,25
1,-0.14,-0.98,0.07,-0.55,-0.73,-4.39,410,265,436,465,298,25
2,-0.22,-0.96,0.06,0.92,1.28,3.97,413,261,436,470,296,25
3,-0.1,-0.95,-0.04,-14.59,3.11,-3.48,414,263,437,466,296,25
4,-0.12,-0.97,0.03,10.13,-5.68,3.42,412,261,439,461,296,25
5,-0.05,-0.98,0.04,-7.51,-0.79,3.85,412,260,442,466,296,25
6,-0.27,-0.97,0.07,4.15,0.37,-4.21,411,262,439,467,298,25
7,-0.22,-0.96,0.1,8.24,-2.14,4.03,402,266,441,468,299,25
8,-0.23,-0.96,0.08,-5.92,0.0,-1.53,412,263,437,470,299,25
9,-0.26,-0.98,0.08,-6.47,4.21,-6.47,409,264,440,467,300,25
10,-0.2,-0.97,-0.0,-3.78,-2.38,-7.75,429,266,440,471,298,25
11,-0.19,-0.98,0.07,-0.37,-6.41,-3.78,410,268,439,462,298,25
12,-0.14,-0.98,0.03,1.34,-2.99,-5.13,413,265,455,468,295,25
13,-0.12,-0.99,0.02,-4.21,-0.73,-3.11,410,266,439,462,298,25
14,-0.16,-0.99,0.04,2.56,-7.81,-3.85,408,261,440,469,299,25
15,-0.14,-0.99,0.03,-2.93,-3.72,-2.5,405,266,439,468,300,25
16,-0.13,-0.98,0.0,0.12,-5.43,-4.09,404,265,438,468,301,25
17,-0.15,-0.99,0.03,1.4,-1.53,-3.36,406,267,438,468,300,25
18,-0.14,-0.99,0.03,0.55,-5.37,-3.17,407,265,441,469,300,25
19,-0.13,-0.99,0.04,1.77,-4.39,-1.22,443,265,441,467,298,25
20,-0.12,-0.99,0.04,-2.01,-2.32,-3.42,407,264,439,468,295,25
21,-0.12,-0.99,0.04,0.24,-4.33,-2.93,404,262,440,470,302,25
22,-0.1,-0.99,0.04,-0.24,-5.25,-4.09,407,264,437,464,298,25
23,-0.17,-0.99,0.05,0.55,-1.28,-4.88,407,267,437,470,297,25
24,-0.13,-0.98,0.03,2.75,-3.17,-1.28,406,268,439,467,295,25
25,-0.12,-0.98,0.03,-2.93,0.98,-6.71,407,267,440,472,300,25
26,-0.1,-0.99,0.03,-4.09,-3.48,-4.64,407,266,435,463,299,25
27,-0.13,-0.99,0.01,3.05,-1.53,-3.11,406,265,437,473,303,25
28,-0.14,-0.99,0.01,-2.81,-3.17,-1.16,407,264,441,468,300,25
29,-0.1,-0.99,0.01,-0.73,-2.69,-3.72,408,268,438,464,302,25
30,-0.1,-0.99,0.01,1.04,-3.54,-1.4,406,264,437,470,296,25
31,-0.11,-0.99,-0.0,2.62,-3.72,-2.32,408,264,434,466,300,25
32,-0.1,-0.99,0.0,1.59,-4.09,-2.93,408,265,436,469,301,25
33,-0.1,-0.99,0.01,0.92,-3.91,-0.61,410,268,439,464,303,25
34,-0.12,-0.99,0.02,1.34,-2.26,-2.2,409,263,434,464,299,25
35,-0.14,-0.99,0.03,2.87,-4.64,-3.54,407,265,435,468,303,25
36,-0.11,-0.99,-0.01,-2.56,-2.38,-2.14,407,266,436,463,299,25
37,-0.11,-0.98,0.01,1.95,-3.66,-1.71,405,269,436,473,301,25
38,-0.13,-0.99,0.02,0.37,-1.65,-3.6,435,268,436,472,301,25
39,-0.11,-0.99,0.02,0.67,-2.44,-2.75,409,267,436,468,303,25
40,-0.13,-0.99,0.02,1.1,-2.69,-2.56,408,267,437,468,302,25
41,-0.13,-0.99,0.02,1.16,-2.5,-2.69,405,265,438,468,298,25
42,-0.13,-0.99,0.02,-0.49,-2.26,-1.83,408,266,437,474,302,25
43,-0.13,-0.99,0.02,0.24,-3.78,-2.38,408,267,433,467,305,25
44,-0.13,-0.99,0.02,0.55,-3.36,-2.5,406,267,436,468,298,25
45,-0.13,-0.98,0.02,1.46,-2.75,-2.62,404,268,434,471,302,25
46,-0.14,-0.99,0.03,1.22,-2.2,-1.59,407,264,436,468,299,25
47,-0.14,-0.98,0.03,0.67,-2.81,-2.14,408,265,448,464,300,25
48,-0.14,-0.99,0.03,0.85,-3.54,-2.62,406,272,437,472,299,25
49,-0.14,-0.99,0.03,-0.31,-2.14,-2.99,410,269,435,480,305,25
50,-0.1,-0.99,0.01,-2.44,0.43,-6.1,410,269,436,469,301,25
51,-0.12,-0.99,0.02,-0.24,-2.56,-3.23,409,267,433,468,301,25
52,-0.11,-0.99,0.02,1.16,-2.32,-0.49,409,269,434,461,300,25
53,-0.12,-0.99,0.02,0.55,-2.01,-2.5,405,266,433,468,300,25
54,-0.12,-0.99,0.02,-0.49,-3.66,-3.48,410,266,432,467,299,25
55,-0.13,-0.99,0.01,-0.24,-2.44,-2.01,404,267,433,471,299,25
56,-0.13,-0.99,0.01,1.77,-5.0,-2.69,409,266,434,467,300,25
57,-0.11,-0.99,0.01,-0.43,-2.26,-3.42,405,268,433,473,296,25
58,-0.11,-0.99,0.01,-0.55,-2.38,-1.89,407,270,435,473,302,25
59,-0.12,-0.99,0.01,0.55,-2.01,-2.5,405,265,434,470,308,25
60,-0.12,-0.99,0.02,1.1,-2.75,-1.89,404,269,434,468,302,25
61,-0.12,-0.99,0.03,-1.34,-4.27,-3.17,425,265,430,480,302,25
62,-0.13,-0.99,0.02,-2.26,-2.32,-2.75,406,267,431,468,303,25
63,-0.13,-0.98,0.02,-1.28,-4.76,-0.55,409,267,434,467,303,25
64,-0.13,-0.99,0.02,1.71,-3.54,-1.77,404,269,433,472,300,25
65,-0.13,-0.99,0.02,0.98,-4.21,-2.62,407,268,435,473,300,25
66,-0.12,-0.99,0.0,0.37,-6.1,-1.83,409,269,431,472,297,25
67,-0.14,-0.99,0.03,0.73,-2.69,-3.17,408,269,430,467,304,25
68,-0.12,-0.99,0.04,-0.55,-0.79,-3.6,404,271,429,470,302,25
69,-0.13,-0.99,0.04,-0.43,-3.78,-1.77,410,267,430,469,303,25
70,-0.12,-0.99,0.01,-1.65,-1.95,-4.03,406,269,429,472,298,25
71,-0.12,-0.99,0.01,0.49,-2.2,-3.72,408,267,431,468,301,25
72,-0.13,-0.99,0.02,3.48,-3.48,-0.85,409,270,431,473,311,25
73,-0.12,-0.99,0.02,1.28,-1.77,-3.78,403,267,433,472,299,25
74,-0.12,-0.99,0.03,0.98,-3.91,-2.75,409,269,429,468,301,25
75,-0.12,-0.99,0.04,0.67,-2.5,-3.17,408,269,431,473,301,25
76,-0.12,-0.98,0.02,-1.46,-1.89,-3.48,407,268,433,469,302,25
77,-0.12,-0.99,0.02,0.06,-3.91,-2.56,409,268,431,472,298,25
78,-0.12,-0.99,0.03,0.24,-4.15,-2.93,408,268,427,464,304,25
79,-0.13,-0.99,0.02,0.98,-2.26,-1.77,406,269,430,472,302,25
80,-0.1,-0.98,-0.01,-0.79,-2.56,-1.71,410,268,429,471,301,25
81,-0.13,-0.99,0.04,1.1,-2.99,-2.2,425,271,426,473,308,25
82,-0.11,-0.99,0.04,0.43,-1.59,-3.97,408,267,433,469,298,25
83,-0.13,-0.99,0.03,1.28,-3.05,-1.95,407,268,432,468,303,25
84,-0.11,-0.99,0.05,-2.56,-5.31,-2.08,409,266,435,473,300,25
85,-0.13,-0.98,0.02,1.16,-1.95,-3.05,409,268,430,473,301,25
86,-0.14,-0.98,0.02,1.22,-4.03,-2.32,406,270,428,465,302,25
87,-0.14,-0.98,0.03,1.95,-2.62,-0.92,408,271,428,469,302,25
88,-0.13,-0.99,0.04,0.0,-3.11,-2.44,407,268,430,473,302,25
89,-0.14,-0.98,0.03,-0.37,-1.28,-2.44,407,265,430,473,300,25
90,-0.14,-0.98,0.03,0.73,-2.75,-2.44,406,270,429,469,302,25
91,-0.13,-0.98,0.03,0.18,-1.95,-2.81,406,269,429,473,301,25
92,-0.14,-0.99,0.04,0.24,-3.05,-2.81,407,270,429,468,302,25
93,-0.14,-0.99,0.03,0.61,-2.99,-2.38,408,271,432,473,301,25
94,-0.13,-0.98,0.03,0.67,-3.97,-2.26,407,268,429,469,304,25
95,-0.12,-0.98,0.03,4.58,-2.62,-2.08,409,269,429,469,304,25
96,-0.14,-0.99,0.05,3.42,-4.94,-2.26,410,268,430,473,301,25
97,-0.14,-0.99,0.05,1.53,-3.72,-2.32,419,272,428,467,304,25
98,-0.13,-0.98,0.04,1.95,-4.64,-2.2,409,269,428,469,303,25
99,-0.15,-0.99,0.07,-0.67,-2.5,-2.62,407,271,428,473,302,25
100,-0.14,-0.98,0.06,0.18,-3.6,-3.11,406,267,426,470,303,25
101,-0.15,-0.98,0.05,0.24,-2.32,-2.62,406,271,429,470,302,25
102,-0.14,-0.98,0.05,0.85,-1.59,-3.05,407,269,432,467,303,25
103,-0.14,-0.98,0.05,-0.12,-2.5,-3.05,407,280,427,473,300,25
104,-0.14,-0.99,0.05,-0.73,-2.38,-3.05,408,268,429,469,302,25
105,-0.15,-0.98,0.05,-0.06,-4.64,-2.75,412,268,428,471,302,25
106,-0.15,-0.98,0.05,0.61,-3.48,-2.93,407,268,428,470,303,25
107,-0.14,-0.99,0.05,0.0,-0.43,-5.13,402,268,427,484,302,25
108,-0.14,-0.98,0.06,0.06,-3.66,-2.81,407,271,428,474,302,25
109,-0.14,-0.98,0.03,0.67,-2.93,-2.69,406,268,429,467,302,25
110,-0.12,-0.98,0.02,-0.37,-1.1,-4.76,427,267,423,470,303,25
111,-0.12,-0.99,0.03,2.01,-2.44,-2.32,407,267,428,465,302,25
112,-0.12,-0.98,0.03,1.1,-2.87,-2.99,405,268,425,470,305,25
113,-0.13,-0.99,0.03,0.85,-2.56,-2.32,409,274,426,469,300,25
114,-0.13,-0.98,0.03,0.79,-3.6,-2.14,406,270,430,475,300,25
115,-0.13,-0.99,0.03,1.28,-2.5,-2.26,413,269,425,474,304,25
116,-0.14,-0.99,0.06,0.85,1.53,-4.52,407,270,426,468,300,25
117,-0.11,-0.99,0.04,-0.18,-2.14,-2.56,395,275,422,473,303,25
118,-0.11,-0.99,0.05,-1.4,3.78,-7.2,411,271,426,469,302,25
119,-0.06,-0.99,0.0,-2.99,-2.01,-9.52,410,277,427,473,305,25
120,-0.11,-0.98,-0.11,3.48,8.91,5.8,408,277,424,468,303,25
121,-0.12,-1.0,0.06,-6.1,-5.92,-0.12,411,274,425,471,304,25
122,-0.06,-0.98,-0.04,-6.29,-16.05,-1.59,408,277,426,470,301,25
123,-0.07,-0.99,-0.03,-10.68,4.7,-6.71,408,275,425,466,305,25
124,-0.13,-0.98,-0.05,7.32,-5.62,2.75,405,275,426,468,306,25
125,-0.11,-1.0,0.05,2.5,-1.16,-4.33,408,275,427,469,299,25
126,-0.12,-0.99,0.03,-0.06,-1.28,-3.11,407,274,428,470,305,25
127,-0.12,-0.99,-0.0,0.0,-3.85,-3.54,408,273,428,464,304,25
128,-0.1,-0.99,0.01,1.46,-1.46,-3.66,408,288,429,469,302,25
129,-0.11,-0.99,0.01,1.34,-4.21,-2.81,407,278,427,467,307,25
130,-0.1,-0.99,0.01,1.04,-3.11,-2.5,401,276,424,477,300,25
131,-0.1,-0.99,0.01,0.12,-2.81,-2.87,406,274,424,470,304,25
132,-0.1,-0.99,-0.0,0.43,-2.38,-3.05,408,277,424,465,303,25
133,-0.09,-0.99,0.01,-2.56,-0.43,-4.94,405,282,424,469,302,25
134,-0.09,-0.99,-0.01,-0.43,-3.23,-1.4,409,276,428,470,306,25
135,-0.14,-0.99,0.02,-0.55,-2.08,-5.55,408,276,423,469,307,25
136,-0.06,-0.99,-0.02,-0.79,-3.11,-0.43,406,274,424,469,307,25
137,-0.09,-0.99,-0.0,-0.67,-3.42,-5.86,409,278,427,465,307,25
138,-0.07,-0.99,-0.02,2.08,-3.72,-2.2,409,274,420,474,304,25
139,-0.07,-0.99,-0.02,2.44,-2.32,-2.32,407,276,427,465,305,25
140,-0.08,-0.99,-0.02,-1.34,-3.3,-4.09,408,275,421,469,305,25
141,-0.09,-0.99,-0.01,1.65,-6.47,-1.28,410,274,423,470,302,25
142,-0.08,-1.0,0.0,1.71,-3.05,-1.46,406,275,423,464,306,25
143,-0.07,-0.99,-0.02,0.85,-3.23,-1.59,410,273,423,466,301,25
144,-0.08,-0.99,-0.02,1.95,-2.93,-2.56,408,274,427,472,302,25
145,-0.08,-0.99,0.0,0.31,-3.23,-1.65,406,277,422,473,302,25
146,-0.08,-0.99,-0.02,3.17,-5.55,-5.49,409,274,427,473,307,25
147,-0.05,-0.99,-0.04,-0.18,-5.62,1.59,415,275,434,469,303,25
148,-0.05,-0.99,-0.02,2.5,-3.05,-3.6,407,272,421,469,305,25
149,-0.05,-0.99,-0.03,2.38,-2.14,-1.65,409,274,420,471,306,25
150,-0.07,-0.99,-0.0,-0.43,-2.44,-2.32,412,276,427,465,298,25
151,-0.06,-0.99,-0.02,-0.37,-3.72,-4.21,405,275,420,470,307,25
152,-0.06,-1.0,-0.01,-3.6,-2.87,-2.5,408,275,423,467,303,25
153,-0.06,-0.99,-0.03,0.73,-3.66,-2.32,410,274,422,469,307,25
154,-0.09,-0.99,-0.02,0.31,-3.54,-1.4,409,276,432,468,302,25
155,-0.08,-0.99,-0.02,0.12,-3.36,-2.62,405,275,423,467,305,25
156,-0.08,-0.99,-0.02,0.31,-2.93,-2.14,406,282,426,473,305,25
157,-0.08,-0.99,-0.02,1.22,-4.03,-1.34,408,276,424,481,303,25
158,-0.1,-0.99,-0.01,2.81,-3.3,-2.99,407,274,422,472,303,25
159,-0.09,-0.99,-0.01,1.4,-2.38,-1.65,408,276,422,470,304,25
160,-0.1,-0.99,-0.0,0.0,-2.38,-3.54,408,278,425,474,305,25
161,-0.08,-0.99,-0.02,-0.79,-1.1,-3.48,409,277,425,471,301,25
162,-0.09,-0.99,-0.01,-0.73,-4.88,-1.53,408,274,423,465,307,25
163,-0.09,-0.99,0.01,1.4,-1.95,-0.79,407,275,422,469,305,25
164,-0.08,-0.99,-0.04,-2.38,-3.11,-4.03,412,277,422,469,306,25
165,-0.1,-0.99,-0.01,0.79,-4.15,-0.55,406,278,422,466,303,25
166,-0.09,-0.98,-0.04,-1.34,-2.56,-2.14,407,272,422,469,307,25
167,-0.12,-1.0,0.02,-1.71,-2.5,-3.66,408,278,420,473,304,25
168,-0.08,-0.99,-0.02,-1.71,-4.94,-3.6,406,276,414,469,304,25
169,-0.12,-0.99,-0.02,-3.66,-5.07,-0.85,409,278,425,471,303,25
170,-0.08,-1.01,0.03,-8.73,11.11,-0.61,414,275,423,465,306,25
171,-0.08,-0.99,-0.04,-0.92,-1.95,-2.2,407,274,421,469,304,25
172,-0.07,-0.99,-0.05,0.98,-2.87,-2.69,408,276,422,473,302,25
173,-0.08,-0.99,-0.05,0.85,-2.56,-2.32,410,277,421,469,304,25
174,-0.09,-0.99,-0.03,0.61,-2.75,-2.26,409,277,422,473,306,25
175,-0.09,-0.99,-0.03,0.67,-3.85,-2.08,408,274,418,473,304,25
176,-0.1,-0.99,-0.03,1.4,-2.62,-1.71,408,274,421,473,304,25
177,-0.07,-0.99,-0.05,-2.14,-2.75,0.0,407,275,421,469,302,25
178,-0.1,-0.99,-0.03,0.73,-5.13,-1.65,407,276,421,468,301,25
179,-0.09,-0.99,-0.05,-0.55,-0.92,-3.11,407,272,420,472,306,25
180,-0.1,-0.99,-0.02,1.83,-2.26,-1.95,408,278,430,468,301,25
181,-0.08,-0.98,-0.06,0.79,-0.31,-4.64,405,274,421,473,307,25
182,-0.09,-0.99,-0.04,1.22,-2.81,-2.99,407,278,424,464,305,25
183,-0.08,-0.99,-0.04,1.71,-2.08,-3.36,409,274,417,471,305,25
184,-0.09,-0.99,-0.03,0.67,-2.44,-3.48,413,286,423,467,305,25
185,-0.08,-0.99,-0.03,0.73,-0.49,-6.84,405,277,417,470,303,25
186,-0.05,-0.99,-0.07,7.87,-0.31,-2.08,408,276,423,469,305,25
187,-0.14,-0.99,-0.01,-5.55,-3.66,-3.48,408,276,420,469,304,25
188,-0.05,-0.98,-0.06,2.08,-4.82,-3.54,407,275,423,469,303,25
189,-0.12,-1.0,0.09,-1.89,-4.46,-7.75,406,272,422,469,297,25
190,-0.03,-0.99,0.03,-4.82,-5.49,-8.85,404,277,422,474,306,25
191,0.02,-0.99,-0.04,12.33,-3.6,-3.78,401,273,421,467,304,25
192,-0.01,-0.99,-0.04,-0.37,-2.87,-4.94,408,273,410,470,302,25
193,0.0,-1.01,0.01,-1.83,-3.66,0.49,406,275,419,469,305,25
194,-0.01,-1.0,0.02,-1.71,-4.94,-1.95,408,274,421,466,304,25
195,0.01,-1.0,-0.01,-2.87,-1.77,-4.33,407,277,420,474,303,25
196,-0.0,-0.99,0.01,5.25,-4.27,-1.83,407,277,424,470,307,25
197,-0.0,-1.0,0.02,-1.22,-3.72,-3.85,406,278,423,471,303,25
198,0.03,-1.0,0.02,2.99,-3.48,0.24,409,278,425,470,306,25
199,-0.01,-0.99,-0.01,2.99,-4.52,-2.56,421,276,422,472,303,25
200,-0.01,-0.99,0.0,2.75,-0.31,-2.44,407,274,422,474,304,25
201,-0.04,-0.99,-0.01,1.59,-1.77,0.18,406,276,420,469,307,25
202,-0.06,-0.98,-0.03,0.98,-3.23,-1.22,406,277,420,464,303,25
203,-0.05,-0.99,-0.01,3.6,-2.26,-4.7,406,275,420,473,304,25
204,-0.04,-0.99,0.0,3.54,-3.11,-2.2,406,274,421,471,302,25
205,-0.04,-1.0,0.01,2.69,-4.64,0.18,409,275,421,464,305,25
206,-0.04,-0.99,0.01,-1.95,-2.32,-3.17,413,273,421,464,303,25
207,-0.07,-0.99,0.02,1.1,-3.23,-2.62,408,278,418,471,305,25
208,-0.06,-1.01,0.04,1.04,-3.48,0.55,406,278,418,473,304,25
209,-0.05,-0.99,0.03,-1.34,-3.05,-3.6,409,278,421,473,306,25
210,-0.06,-1.01,0.03,-0.67,-3.23,-2.26,407,281,420,471,305,25
211,-0.09,-1.0,0.01,0.98,-5.92,1.53,405,275,418,465,306,25
212,-0.07,-1.0,0.02,-7.93,4.09,-13.85,407,279,419,482,304,25
213,-0.02,-0.99,-0.08,5.68,-18.68,17.21,407,277,420,465,302,25
214,-0.15,-1.0,0.04,-0.12,3.97,-1.1,433,275,419,466,307,25
215,-0.05,-0.99,0.03,-14.16,0.0,-2.81,406,278,420,470,301,25
216,-0.11,-0.99,0.01,-1.53,-8.73,-1.89,406,276,422,469,307,25
217,-0.06,-0.99,-0.03,-3.97,-0.98,-6.65,405,277,420,470,304,25
218,-0.08,-0.99,-0.05,1.1,-1.22,-1.95,406,282,420,473,304,25
219,-0.08,-0.99,-0.05,2.08,-5.68,-0.92,404,281,420,465,305,25
220,-0.09,-0.99,-0.05,0.98,-2.81,-2.26,408,278,422,469,304,25
221,-0.08,-0.99,-0.04,-0.37,-2.32,-3.23,409,275,420,470,306,25
222,-0.09,-0.99,-0.04,3.54,-2.32,-1.59,411,278,419,470,305,25
223,-0.16,-1.0,0.02,3.6,-3.05,-2.38,408,274,416,467,303,25
224,-0.16,-0.99,0.02,6.16,-4.82,0.61,406,280,423,473,304,25
225,-0.08,-0.99,0.01,2.75,-4.82,-2.69,406,281,419,470,305,25
226,-0.09,-0.98,-0.01,-0.37,10.01,-16.24,406,279,419,466,307,25
227,-0.05,-0.99,-0.06,10.13,-4.64,0.31,409,277,416,470,305,25
228,-0.08,-0.99,-0.02,4.46,-1.83,-3.97,410,280,418,471,304,25
229,-0.09,-1.0,-0.01,-0.92,-1.04,-5.25,403,280,419,465,304,25
230,-0.09,-0.99,-0.01,3.05,-4.03,-0.67,407,277,417,465,304,25
231,-0.03,-0.99,0.02,-5.13,-3.05,-5.86,409,278,418,469,306,25
232,-0.06,-1.0,0.03,2.81,-3.91,-0.31,406,280,419,465,297,25
233,-0.07,-1.0,0.04,1.1,-2.14,-3.05,404,280,421,465,302,25
234,-0.07,-1.01,0.05,1.95,-3.72,1.71,406,277,421,469,301,25
235,-0.07,-0.99,-0.0,0.37,0.18,-4.39,407,280,418,471,305,25
236,-0.04,-1.0,0.02,-1.16,-2.81,-5.68,406,279,418,472,305,25
237,-0.08,-0.98,0.01,3.36,-1.77,1.4,405,277,416,473,306,25
238,-0.07,-1.01,0.09,4.88,-2.93,1.22,405,279,416,470,307,25
239,-0.07,-1.01,0.03,-2.01,-2.69,-4.58,407,278,417,466,304,25
240,-0.07,-0.98,-0.03,-0.18,-2.5,0.61,405,277,418,466,307,25
241,-0.08,-1.02,0.12,8.48,6.96,4.88,404,278,417,466,306,25
242,-0.14,-0.99,0.02,-3.78,-5.37,-7.2,402,277,412,473,305,25
243,-0.03,-1.0,0.06,2.08,4.27,-3.11,405,280,416,481,306,25
244,-0.05,-1.0,0.04,6.65,-7.26,-3.66,433,281,421,467,306,25
245,-0.07,-0.99,0.04,-1.65,-4.15,-1.95,406,280,418,472,305,25
246,-0.06,-0.99,0.06,0.12,-4.58,-3.6,405,281,419,469,303,25
247,-0.06,-1.0,0.04,0.0,-4.21,-1.77,405,279,418,474,300,25
248,-0.05,-0.99,0.04,-2.2,-3.17,-5.13,405,286,417,468,304,25
249,-0.05,-1.0,0.05,1.4,-1.95,-3.66,408,278,418,474,304,25
250,-0.05,-0.99,0.03,-0.85,-2.2,-5.07,403,278,415,472,305,25
251,-0.05,-1.0,0.03,-0.31,-1.71,-0.24,411,286,414,473,305,25
252,-0.07,-0.99,0.02,0.12,-2.87,-4.21,407,278,421,473,304,25
253,-0.04,-0.99,0.02,-0.31,-2.38,-2.69,405,291,416,465,303,25
254,-0.02,-1.0,0.03,1.4,-3.54,-3.66,406,292,417,473,303,25
255,-0.05,-0.97,0.03,3.17,-2.56,-3.78,404,279,416,469,305,25
256,-0.05,-0.99,0.01,-1.34,3.23,1.46,406,281,417,471,303,25
257,-0.08,-1.01,0.1,1.89,4.09,-9.16,411,277,416,471,301,25
258,0.02,-0.97,0.01,9.58,4.88,0.37,410,280,418,473,306,25
259,-0.04,-0.99,0.0,1.1,-5.8,0.06,409,279,414,465,301,25
260,-0.03,-1.0,0.03,1.53,-4.15,-2.2,410,278,418,470,304,25
261,-0.01,-1.0,0.03,-2.2,-1.34,-3.23,408,280,415,465,302,25
262,-0.04,-1.0,0.05,-0.85,-3.91,-3.72,409,277,418,469,303,25
263,-0.04,-1.0,0.03,0.98,-4.33,-2.38,408,280,415,472,305,25
264,-0.05,-1.0,0.01,2.32,-3.48,-1.1,408,278,416,471,306,25
265,-0.04,-1.0,0.02,-3.91,-3.72,-2.5,408,281,419,469,304,25
266,-0.03,-0.99,0.02,0.37,-2.08,-2.75,406,280,419,468,302,25
267,-0.04,-1.0,0.04,-0.37,-2.93,-3.54,410,281,418,467,304,25
268,-0.04,-0.99,0.03,-0.31,-3.23,-2.01,408,277,415,468,301,25
269,-0.02,-1.0,0.05,0.92,-1.59,-4.39,408,281,414,471,307,25
270,-0.07,-0.99,0.04,4.33,-3.78,0.06,407,275,417,469,303,25
271,-0.05,-0.99,0.05,2.69,-2.69,-3.66,410,273,416,464,302,25
272,-0.06,-1.0,0.07,-0.61,-2.99,-3.6,408,279,419,469,305,25
273,-0.03,-0.99,0.04,0.12,-10.31,-0.98,415,276,415,470,302,25
274,-0.1,-0.99,0.04,-6.71,-10.25,-7.02,411,275,414,464,304,25
275,-0.05,-0.98,0.01,-2.38,-5.92,-2.99,411,275,415,469,305,25
276,-0.1,-0.99,0.07,4.03,-2.62,-2.38,408,278,415,471,300,25
277,-0.07,-0.99,0.06,-2.81,-3.91,-4.09,411,283,415,472,302,25
278,-0.1,-0.99,0.04,-1.77,-5.07,-2.44,410,276,414,467,304,25
279,-0.11,-0.99,0.03,-0.31,-2.32,-2.93,410,276,414,474,302,25
280,-0.07,-0.99,0.05,1.22,-5.19,-5.19,410,278,414,470,307,25
281,-0.09,-0.99,0.04,4.03,-2.87,-3.23,409,278,418,464,302,25
282,-0.09,-0.97,0.06,-2.26,3.05,-5.74,409,275,417,469,305,25
283,-0.11,-1.01,0.11,2.14,-6.1,-3.72,409,278,411,466,300,25
284,0.03,-1.0,0.07,0.67,0.61,-7.93,411,280,416,469,306,25
285,0.01,-1.0,0.03,0.55,-5.92,-3.72,410,277,414,475,305,25
286,-0.02,-1.0,0.05,11.23,0.24,1.59,410,278,415,473,302,25
287,-0.06,-0.99,0.02,0.92,-5.86,-2.62,411,278,414,468,304,25
288,-0.04,-1.0,0.05,-2.75,0.73,-4.58,407,280,417,466,304,25
289,-0.01,-0.99,0.05,8.79,-1.59,1.71,410,279,414,470,302,25
290,-0.05,-1.0,0.04,1.65,-2.93,-3.97,409,277,416,471,307,25
291,-0.05,-1.0,0.09,2.99,-4.39,-0.98,410,277,414,468,307,25
292,-0.07,-0.99,0.1,10.99,-1.34,-3.48,411,278,412,467,304,25
293,-0.08,-0.99,0.09,5.37,-1.4,-2.62,411,276,414,468,301,25
294,-0.11,-1.0,0.12,-0.06,-3.11,-5.92,410,277,415,465,302,25
295,-0.04,-0.98,0.04,9.28,-3.54,-4.88,412,277,410,468,305,25
296,-0.04,-0.98,0.12,-0.31,-5.8,-2.38,410,277,411,471,305,25
297,0.05,-0.98,0.1,-4.94,4.94,-8.18,413,274,415,467,307,25
298,-0.11,-0.99,0.17,-6.29,-0.85,-5.31,412,275,416,463,301,25
299,0.05,-0.98,0.11,8.61,-3.66,-1.28,411,274,412,462,305,25
300,0.0,-0.99,0.12,14.95,-2.62,-4.88,410,274,418,467,309,25
301,0.01,-0.98,0.11,4.27,-4.21,-3.11,411,274,413,464,302,25
302,-0.08,-0.98,0.12,5.8,-5.19,-1.22,405,272,417,467,301,25
303,-0.04,-0.98,0.1,-4.7,-4.7,-3.54,399,272,414,467,302,25
304,0.02,-0.99,0.11,1.83,-0.73,-3.05,409,272,413,466,305,25
305,-0.03,-1.0,0.12,-0.98,-3.17,-1.83,410,272,416,468,302,25
306,-0.04,-0.99,0.1,-5.98,-1.46,-3.66,410,275,411,467,305,25
307,0.01,-0.99,0.13,0.98,2.5,-11.35,412,279,417,471,301,25
308,0.03,-0.98,0.13,-2.26,-12.88,3.05,412,274,419,467,306,25
309,-0.0,-0.99,0.15,1.71,-11.17,-2.62,410,273,411,468,306,25
310,0.02,-0.99,0.16,0.73,-0.67,-0.43,408,272,411,463,308,25
311,0.02,-0.98,0.2,0.37,-3.72,2.93,407,274,414,471,306,25
312,0.02,-0.99,0.12,7.81,-7.45,-1.53,412,274,421,465,306,25
313,0.02,-0.98,0.1,1.71,-2.14,-5.74,412,273,413,469,307,25
314,-0.03,-0.99,0.18,2.2,-1.89,-3.11,411,273,414,465,304,25
315,-0.01,-0.99,0.17,3.91,-3.54,-2.99,413,275,413,467,305,25
316,0.02,-0.98,0.11,-4.46,-0.92,-8.79,406,277,413,462,307,25
317,-0.02,-1.0,0.13,-4.46,1.22,-8.18,412,281,413,473,305,25
318,0.08,-0.98,0.11,-2.69,-4.58,-1.4,414,274,413,467,307,25
319,0.04,-1.01,0.14,-5.31,-10.13,-6.77,413,275,414,470,305,25
320,0.04,-0.99,0.07,-2.01,-5.13,-3.72,409,277,414,466,308,25
321,0.12,-0.99,0.04,-0.43,-6.04,0.67,409,275,413,469,304,25
322,0.04,-0.99,0.08,-0.79,1.83,-7.08,407,277,410,467,306,25
323,0.08,-0.99,0.06,0.31,-3.54,-0.37,406,276,412,477,306,25
324,0.06,-0.99,0.07,-1.4,-1.28,-3.66,410,273,411,468,307,25
325,0.06,-0.99,0.07,1.1,-4.03,-1.59,408,273,416,469,302,25
326,0.05,-1.0,0.08,-0.49,-2.32,-2.5,410,272,413,473,304,25
327,0.06,-0.99,0.08,0.92,-3.05,-0.61,410,274,412,470,304,25
328,0.06,-0.99,0.06,-0.18,-2.75,-4.09,402,274,413,462,307,25
329,0.06,-0.99,0.08,-0.79,-3.54,-3.42,413,281,411,472,307,25
330,0.06,-0.99,0.07,0.12,-3.05,-2.26,404,281,410,463,308,25
331,0.06,-1.0,0.08,0.0,-2.81,-2.87,408,278,413,462,304,25
332,0.06,-0.99,0.06,1.53,-3.85,-3.48,416,273,415,468,307,25
333,0.05,-0.99,0.07,0.43,-3.78,-1.22,409,274,417,466,307,25
334,0.06,-0.99,0.06,-0.37,-2.81,-2.93,413,276,413,471,303,25
335,0.03,-1.0,0.09,6.96,-4.33,3.3,412,274,413,466,301,25
336,0.04,-0.99,0.08,2.14,-1.04,-0.98,410,275,414,463,303,25
337,0.01,-1.0,0.08,-1.46,-3.36,-4.52,412,280,414,472,306,25
338,0.01,-0.99,0.08,-0.31,-3.17,0.18,413,282,410,467,307,25
339,-0.02,-0.99,0.09,0.85,-6.29,-1.22,409,275,415,464,308,25
340,0.01,-0.99,0.09,-0.24,-2.08,-1.65,413,273,413,468,305,25
341,0.01,-1.0,0.11,-3.17,-5.62,-5.62,407,275,415,472,307,25
342,-0.0,-0.99,0.1,0.0,-4.09,-0.73,415,276,413,470,311,25
343,0.0,-1.0,0.1,0.67,-3.23,-2.44,417,276,416,466,306,25
344,0.01,-0.99,0.09,0.73,-3.17,-2.62,408,274,416,470,305,25
345,0.01,-0.99,0.1,0.31,-3.85,-2.38,407,275,412,469,305,25
346,0.01,-1.0,0.12,3.66,-3.36,-0.73,410,277,414,473,306,25
347,-0.04,-0.99,0.12,-3.36,-3.97,-2.81,411,278,415,471,306,25
348,-0.01,-1.0,0.14,3.05,-4.58,0.79,409,278,415,468,305,25
349,0.01,-0.99,0.12,0.92,-6.04,-3.66,408,275,412,468,306,25
350,-0.01,-0.99,0.13,-1.95,-3.78,-3.11,410,274,413,462,305,25
351,-0.02,-0.99,0.13,0.12,-3.72,0.61,409,278,415,468,308,25
352,0.0,-0.98,0.1,-0.12,-2.38,-2.69,410,275,413,470,306,25
353,-0.01,-0.99,0.12,0.37,-2.2,-3.23,407,279,415,472,305,25
354,-0.01,-0.99,0.11,-1.77,-2.5,-4.21,412,283,413,468,308,25
355,0.0,-0.99,0.11,2.81,-3.97,-0.61,409,276,413,472,306,25
356,-0.01,-0.99,0.1,-0.37,-2.08,-3.91,413,277,411,472,307,25
357,0.02,-0.99,0.13,3.6,-3.17,-0.31,410,277,412,470,306,25
358,-0.0,-0.99,0.13,0.73,-2.08,-3.42,412,275,412,470,303,25
359,-0.01,-0.99,0.11,0.12,-2.2,-1.71,409,275,416,466,305,25
360,-0.01,-0.98,0.15,-11.54,-4.76,-7.08,410,275,415,464,305,25
361,-0.08,-0.99,0.14,2.08,-11.84,7.57,412,272,414,474,307,25
362,-0.05,-0.99,0.13,-0.92,-1.83,-6.29,412,278,413,469,304,25
363,-0.08,-1.01,0.25,6.84,1.34,-5.74,411,276,412,472,298,25
364,-0.1,-0.98,0.09,-5.74,-8.24,8.85,413,275,413,465,306,25
365,-0.01,-0.99,0.11,4.33,-1.4,-1.53,411,279,411,468,311,25
366,-0.04,-1.05,0.15,-2.5,-4.58,0.06,411,276,415,464,306,25
367,-0.07,-0.98,0.11,-2.08,1.95,-2.69,412,277,411,471,305,25
368,-0.07,-0.99,0.1,-0.98,-3.11,-3.42,407,280,415,469,304,25
369,-0.1,-0.96,0.13,4.82,0.12,-1.59,416,278,411,469,305,25
370,-0.07,-0.99,0.11,-0.85,-1.71,-4.88,410,279,409,467,306,25
371,-0.06,-0.99,0.1,-0.98,-3.11,-4.27,409,276,411,468,309,25
372,-0.07,-0.99,0.11,-0.18,-2.14,-3.42,411,279,415,468,304,25
373,-0.06,-0.99,0.11,-0.67,-2.32,-3.48,410,278,412,470,305,25
374,-0.07,-0.99,0.1,0.18,-2.14,-2.87,408,276,412,463,303,25
375,-0.06,-0.99,0.12,0.06,-2.26,-1.83,410,277,415,472,303,25
376,-0.06,-0.99,0.11,1.34,-4.09,-2.32,412,278,413,468,306,25
377,-0.05,-0.99,0.11,0.55,-3.17,-1.53,413,276,413,463,305,25
378,-0.06,-0.99,0.1,-1.59,-2.01,-3.3,413,280,414,466,306,25
379,-0.05,-0.99,0.08,-0.79,-3.23,-2.99,411,276,412,469,303,25
380,-0.05,-0.99,0.11,1.04,-3.36,-2.44,404,275,414,469,310,25
381,-0.06,-0.99,0.09,1.22,-3.48,-3.42,411,279,411,471,304,25
382,-0.05,-0.99,0.09,0.43,-3.17,-2.32,410,276,411,469,306,25
383,-0.06,-0.99,0.09,0.43,-4.46,-1.22,405,272,413,465,306,25
384,-0.05,-0.99,0.09,-2.01,-0.92,-3.97,411,277,412,469,307,25
385,-0.05,-0.99,0.09,2.32,-3.97,0.24,410,280,412,469,305,25
386,-0.05,-0.99,0.07,-0.12,-3.05,-3.48,409,275,411,469,305,25
387,-0.06,-0.99,0.11,1.46,-2.93,-3.05,409,277,412,467,307,25
388,-0.08,-0.99,0.09,-1.16,-3.05,-3.85,410,280,414,473,301,25
389,-0.07,-0.99,0.11,-0.37,-6.23,-2.32,411,277,414,471,304,25
390,-0.06,-0.99,0.09,-0.31,-3.66,-2.14,412,275,410,470,306,25
391,-0.06,-0.99,0.08,0.24,-3.36,-3.97,405,280,408,465,303,25
392,-0.04,-0.99,0.1,2.08,-4.39,-3.36,409,289,412,468,305,25
393,-0.08,-1.0,0.13,6.53,1.16,-14.22,411,278,412,469,303,25
394,0.02,-1.0,0.09,-4.27,10.68,13.12,412,277,414,465,308,25
395,-0.14,-1.0,0.2,-10.68,-7.57,0.73,408,276,412,473,307,25
396,-0.09,-0.98,0.15,-1.22,-3.85,-4.15,412,279,412,469,304,25
397,-0.07,-0.99,0.13,-2.26,-8.79,-7.32,411,277,414,470,303,25
398,-0.05,-0.99,0.13,0.61,-7.08,-7.08,409,277,412,464,307,25
399,-0.04,-0.98,0.15,-0.49,-1.77,-4.33,412,276,414,469,305,25
400,-0.02,-0.99,0.12,2.87,-1.59,-2.69,413,278,415,469,308,25
401,-0.03,-0.98,0.16,4.58,-2.75,-3.66,410,276,411,472,306,25
402,-0.09,-0.99,0.23,-6.53,-0.06,-9.64,410,277,412,470,307,25
403,-0.0,-0.97,0.22,-1.53,-43.27,-6.23,409,276,411,473,308,25
404,-0.06,-1.0,0.22,-1.46,-10.19,-2.26,411,276,410,468,307,25
405,0.07,-0.98,0.1,-8.18,-5.74,-11.23,412,276,411,476,302,25
406,-0.03,-0.99,0.15,7.14,-0.24,-3.54,409,279,411,473,304,25
407,0.05,-0.97,0.11,-6.71,-0.55,-2.69,410,276,410,465,306,25
408,-0.01,-0.99,0.18,-0.98,-0.43,-2.93,410,280,414,468,305,25
409,0.13,-0.96,0.11,-16.48,-0.18,-13.55,411,280,410,465,306,25
410,0.03,-0.99,0.12,6.84,-4.76,4.76,408,281,410,474,306,25
411,-0.01,-0.99,0.13,4.58,-3.97,-0.61,409,280,413,473,306,25
412,0.01,-0.99,0.14,-2.69,-3.48,-0.98,404,278,409,468,307,25
413,-0.01,-0.99,0.14,-4.88,-0.18,-2.99,408,278,411,469,306,25
414,-0.03,-0.99,0.14,-5.55,-3.36,-3.11,405,275,409,464,307,25
415,0.01,-0.99,0.1,-3.78,-4.27,-4.33,425,282,409,467,307,25
416,0.02,-0.96,0.15,-0.85,-3.66,-1.71,407,280,405,468,309,25
417,0.02,-0.99,0.17,1.89,-2.26,-0.98,406,282,404,469,309,25
418,-0.03,-0.99,0.13,0.12,-2.26,2.87,406,278,407,469,307,25
419,-0.04,-0.99,0.14,3.36,-5.49,-1.34,407,276,407,473,307,25
420,-0.04,-0.99,0.16,1.59,-1.59,-2.01,400,280,406,472,307,25
421,-0.03,-1.02,0.25,0.61,-5.25,-4.82,408,282,409,468,309,25
422,-0.04,-1.01,0.14,-4.33,-3.48,-3.36,403,279,410,469,307,25
423,-0.02,-0.99,0.08,-0.31,-4.46,-2.14,411,279,410,473,303,25
424,-0.03,-0.99,0.09,-0.61,-2.26,-2.87,407,283,408,469,304,25
425,-0.02,-0.99,0.08,0.12,-3.05,-2.14,407,279,408,464,308,25
426,-0.03,-1.0,0.07,-0.61,-3.36,-3.54,408,279,407,471,308,25
427,-0.03,-0.99,0.07,-1.04,-4.27,-1.71,407,278,407,473,304,25
428,-0.03,-0.99,0.06,1.95,-3.6,-2.38,407,274,403,473,309,25
429,-0.03,-1.0,0.07,-0.43,-3.66,-1.22,406,277,407,472,308,25
430,-0.03,-0.99,0.07,0.43,-0.92,-4.52,407,274,405,470,305,25
431,-0.04,-1.0,0.08,0.85,-2.69,-1.59,409,277,406,471,304,25
432,-0.04,-0.99,0.07,0.31,-3.11,-2.14,408,280,404,463,308,25
433,-0.04,-1.0,0.06,-0.06,-3.54,-1.83,436,277,407,467,306,25
434,-0.04,-1.0,0.06,-0.43,-2.93,-2.99,408,275,409,474,306,25
435,-0.04,-1.0,0.06,0.12,-2.75,-2.62,408,278,407,469,310,25
436,-0.04,-1.0,0.06,-3.05,-2.26,-3.78,403,276,408,469,306,25
437,-0.05,-0.99,0.06,0.43,-2.87,-2.81,410,277,411,472,300,25
438,-0.03,-0.99,0.05,1.22,-3.23,-3.3,406,279,404,471,300,25
439,-0.03,-0.99,0.05,0.85,-2.75,-2.75,408,276,406,468,303,25
440,-0.04,-0.99,0.03,0.85,-4.76,-2.08,430,276,409,471,304,25
441,-0.04,-0.99,0.04,0.31,-3.66,-2.62,410,282,409,470,304,25
442,-0.04,-0.99,0.06,-0.31,-2.5,-1.59,411,275,403,470,306,25
443,-0.04,-0.99,0.04,-2.44,-2.08,-2.87,424,281,410,473,303,25
444,-0.04,-1.0,0.03,0.73,-3.6,-2.38,410,274,420,471,306,25
445,-0.05,-1.0,0.03,1.28,-3.91,-2.14,406,278,407,464,303,25
446,-0.05,-0.99,0.03,0.61,-2.87,-3.17,403,277,408,470,305,25
447,-0.06,-1.0,0.03,3.3,-4.88,-2.38,411,278,405,469,302,25
448,-0.07,-0.99,0.01,-1.04,-1.77,-5.25,409,277,405,473,308,25
449,-0.08,-1.0,0.04,-1.04,-1.28,-3.66,410,278,406,465,303,25
450,-0.06,-0.99,-0.0,-3.54,-2.26,-1.59,408,277,406,469,304,25
451,-0.07,-0.99,0.01,1.22,-3.48,-1.65,408,276,407,465,306,25
452,-0.04,-1.0,-0.04,-0.85,4.03,-3.42,410,278,408,468,307,25
453,-0.17,-0.99,0.11,-2.26,2.32,6.59,418,277,406,464,305,25
454,-0.18,-1.02,0.03,-11.05,-1.89,-4.27,415,283,402,470,305,25
455,-0.11,-1.0,-0.01,-20.2,-1.34,-11.6,411,278,412,467,307,25
456,-0.05,-1.03,-0.05,-21.67,-10.5,-12.63,410,277,406,471,303,25
457,-0.02,-0.98,-0.11,-1.28,-8.12,-2.14,411,279,403,471,303,25
458,-0.02,-0.97,-0.11,0.79,-12.21,-1.16,410,275,404,468,308,25
459,0.01,-1.0,-0.01,0.18,-0.31,4.82,425,276,404,470,304,25
460,-0.07,-0.98,-0.05,6.23,-0.73,-6.04,407,277,407,468,306,25
461,-0.09,-0.97,-0.05,-2.62,-6.35,-4.33,410,275,406,471,307,25
462,-0.05,-0.98,-0.14,2.56,-8.54,-7.63,407,277,406,473,305,25
463,-0.05,-0.97,-0.12,0.12,-2.38,-3.17,407,279,405,473,308,25
464,-0.06,-0.99,-0.1,1.59,-2.5,-1.89,407,275,405,470,304,25
465,-0.08,-0.99,-0.09,0.79,-4.03,-2.44,409,278,406,474,305,25
466,0.06,-0.99,-0.0,30.7,12.57,-17.46,412,282,401,468,305,25
467,-0.01,-1.0,0.02,-4.27,-0.73,2.32,409,278,403,466,306,25
468,-0.04,-1.0,-0.04,0.18,-5.49,-5.31,410,277,399,471,305,25
469,-0.04,-0.97,-0.01,0.43,-5.68,0.92,410,279,404,470,306,25
470,-0.02,-0.99,0.01,1.16,-2.75,-3.23,409,277,400,474,308,25
471,-0.01,-0.98,0.01,4.94,-2.99,-1.53,408,278,399,471,307,25
472,-0.03,-1.0,0.02,-6.77,-1.65,-2.38,404,277,407,475,305,25
473,-0.02,-0.96,-0.05,-14.59,14.83,-5.68,405,281,402,471,309,25
474,-0.04,-0.98,-0.07,2.32,-3.54,5.0,406,279,401,475,306,25
475,-0.02,-0.99,-0.04,-1.59,-4.46,-4.09,405,280,404,477,307,25
476,-0.02,-1.0,-0.05,-2.08,-1.53,-4.46,402,280,403,469,310,25
477,-0.03,-0.99,-0.04,0.37,-3.3,-2.62,404,282,401,470,306,25
478,-0.04,-0.99,-0.05,1.04,-4.21,-2.01,404,282,402,469,311,25
479,-0.03,-1.0,-0.04,-0.12,-3.54,-2.75,401,283,399,470,307,25
480,-0.04,-1.0,-0.03,0.18,-2.14,-2.44,396,280,401,485,307,25
481,-0.04,-1.0,-0.03,0.61,-3.66,-2.01,400,281,402,470,307,25
482,-0.03,-1.0,-0.02,0.85,-2.38,-3.3,403,280,402,470,304,25
483,-0.04,-0.99,-0.03,1.22,-3.3,-2.2,400,280,406,470,304,25
484,-0.05,-1.0,-0.03,1.16,-3.36,-2.93,401,282,405,470,306,25
485,-0.07,-0.98,-0.05,0.73,-4.21,-0.98,402,281,404,471,308,25
486,-0.04,-0.99,-0.04,0.92,-2.62,-2.69,399,280,399,471,309,25
487,-0.05,-0.99,-0.05,-1.83,-2.2,-4.21,399,283,401,471,302,25
488,-0.04,-0.99,-0.06,0.0,-1.46,-3.36,400,282,398,474,309,25
489,-0.03,-0.99,-0.04,0.85,-2.99,-1.89,398,278,403,471,310,25
490,-0.04,-0.99,-0.05,0.18,-3.3,-2.81,396,277,403,467,305,25
491,-0.04,-0.99,-0.06,-1.04,-3.6,-2.81,393,281,400,475,305,25
492,-0.04,-0.99,-0.05,-0.31,-3.48,-1.89,397,283,403,471,306,25
493,-0.06,-0.99,-0.05,0.24,-2.81,-1.59,395,279,401,467,307,25
494,-0.05,-0.98,-0.06,1.89,-2.56,-2.32,396,283,397,473,309,25
495,-0.05,-0.99,-0.06,3.6,-2.99,-2.01,395,282,401,468,310,25
496,-0.05,-1.0,-0.01,-1.83,0.37,-1.83,396,281,405,469,306,25
497,-0.06,-1.0,-0.04,-1.22,-4.27,-2.01,395,280,403,470,310,25
498,-0.05,-0.99,-0.06,-2.81,-3.72,-2.08,394,283,398,467,304,25
499,-0.06,-1.0,-0.04,-2.5,-3.3,-3.48,396,281,401,472,306,25
500,-0.31,-0.95,0.11,10.62,-0.43,-2.5,416,211,397,443,314,25
501,-0.27,-0.95,0.16,-12.51,-1.53,-2.56,415,225,394,450,323,25
502,-0.22,-0.96,0.1,1.95,-7.45,-2.08,413,221,399,451,319,25
503,-0.23,-0.95,0.11,-0.31,-3.54,-3.91,416,220,400,451,313,25
504,-0.24,-0.95,0.13,2.69,-4.33,-2.32,412,220,401,449,319,25
505,-0.24,-0.96,0.14,1.53,-5.37,-1.4,414,215,400,451,315,25
506,-0.24,-0.96,0.14,1.59,-2.56,-3.72,413,221,400,452,317,25
507,-0.22,-0.96,0.17,13.49,-0.31,-15.69,414,218,399,453,322,25
508,-0.16,-0.71,0.3,25.27,3.6,6.71,413,216,400,448,318,25
509,-0.13,-1.05,0.42,37.35,18.31,-3.78,418,224,393,456,321,25
510,-0.06,-0.68,0.34,-8.61,-11.29,-24.9,407,221,396,449,320,25
511,-0.12,-0.74,0.4,4.15,13.49,18.37,406,218,393,450,324,25
512,-0.18,-1.43,0.77,-20.08,2.87,-14.4,405,220,395,446,316,25
513,-0.09,-0.7,0.3,14.89,9.03,-11.66,400,215,390,450,314,25
514,-0.12,-0.84,0.29,-12.15,0.73,12.15,402,218,395,453,320,25
515,-0.22,-1.07,0.31,0.06,1.1,10.93,403,222,393,452,319,25
516,-0.18,-0.96,0.29,1.4,1.28,-10.56,402,217,393,452,316,25
517,-0.17,-0.95,0.31,-1.04,-3.36,5.92,401,221,390,456,318,25
518,-0.22,-0.92,0.26,-17.94,-6.23,2.14,397,226,393,451,313,25
519,-0.22,-0.95,0.25,-0.49,-2.44,-4.88,413,223,390,449,318,25
520,-0.2,-0.96,0.2,2.99,-0.73,-8.48,404,216,399,456,315,25
521,-0.14,-0.99,0.22,8.54,-4.03,-0.31,404,214,391,456,322,25
522,-0.15,-0.97,0.23,3.54,-6.65,-2.38,405,222,391,447,322,25
523,-0.17,-0.96,0.27,-1.4,-1.16,-3.05,399,222,383,449,315,25
524,-0.16,-0.94,0.25,-1.83,-4.27,-2.38,404,226,390,455,321,25
525,-0.15,-0.95,0.27,-1.34,-3.48,-2.87,403,221,387,459,321,25
526,-0.15,-0.95,0.26,-0.37,-3.42,-2.99,400,220,388,452,322,25
527,-0.15,-0.95,0.27,1.59,-2.87,-2.75,403,220,390,454,318,25
528,-0.16,-0.95,0.28,1.95,-4.39,-2.38,405,213,386,455,318,25
529,-0.15,-0.95,0.26,0.06,-3.42,-2.5,404,228,387,454,318,25
530,-0.14,-0.95,0.26,0.18,-3.11,-3.23,397,230,382,453,318,25
531,-0.15,-0.95,0.26,0.49,-2.81,-2.38,401,220,387,451,321,25
532,-0.15,-0.95,0.24,-1.95,-0.79,-5.13,403,226,389,455,319,25
533,-0.15,-0.95,0.25,-0.37,-4.33,-2.56,404,224,387,447,318,25
534,-0.15,-0.96,0.25,0.49,-3.78,-2.14,405,225,386,452,318,25
535,-0.15,-0.95,0.26,1.1,-3.3,-1.71,404,225,382,454,320,25
536,-0.15,-0.95,0.25,-0.55,-1.89,-3.48,401,224,384,453,318,25
537,-0.15,-0.95,0.26,2.38,-5.07,-0.98,405,221,382,452,318,25
538,-0.15,-0.95,0.27,1.16,-4.03,-2.44,406,222,384,451,316,25
539,-0.16,-0.94,0.27,0.43,-3.23,-3.36,402,219,385,450,319,25
540,-0.16,-0.95,0.27,-0.12,-2.75,-2.87,399,222,383,454,324,25
541,-0.16,-0.95,0.27,-1.46,-1.77,-3.97,407,227,386,453,321,25
542,-0.15,-0.95,0.26,-0.12,-1.89,-2.69,401,218,387,454,324,25
543,-0.15,-0.95,0.25,1.1,-3.54,-1.89,402,227,388,458,322,25
544,-0.16,-0.95,0.26,0.61,-2.75,-2.44,403,227,391,464,314,25
545,-0.15,-0.95,0.26,1.95,-2.32,-2.56,402,222,385,452,320,25
546,-0.15,-0.95,0.26,0.0,-2.38,-3.23,401,222,385,452,324,25
547,-0.15,-0.95,0.26,0.61,-2.81,-2.62,398,223,380,455,322,25
548,-0.16,-0.95,0.26,0.49,-4.09,-2.26,404,222,381,454,321,25
549,-0.16,-0.95,0.26,0.85,-3.6,-2.62,401,234,384,457,332,25
550,-0.16,-0.95,0.26,-0.55,-3.36,-2.44,401,224,376,465,321,25
551,-0.16,-0.95,0.27,0.43,-2.99,-2.56,401,225,379,455,320,25
552,-0.16,-0.95,0.27,1.59,-2.56,-2.87,402,222,375,458,314,25
553,-0.16,-0.95,0.27,0.18,-2.75,-2.87,401,228,379,459,322,25
554,-0.15,-0.95,0.26,-0.61,-2.75,-3.36,400,213,380,454,320,25
555,-0.16,-0.95,0.26,-0.06,-2.81,-2.56,400,223,376,450,322,25
556,-0.15,-0.95,0.26,2.5,-3.48,-1.53,400,223,379,449,310,25
557,-0.16,-0.95,0.27,1.16,-3.36,-1.89,399,222,379,457,318,25
558,-0.16,-0.95,0.27,0.79,-3.17,-2.99,396,222,379,450,322,25
559,-0.15,-0.95,0.27,0.12,-2.87,-2.75,406,227,378,452,324,25
560,-0.15,-0.95,0.26,0.49,-2.87,-2.56,397,224,376,454,319,25
561,-0.16,-0.95,0.26,0.61,-3.85,-2.2,397,217,378,454,320,25
562,-0.16,-0.95,0.26,0.61,-3.05,-2.08,397,214,380,450,316,25
563,-0.15,-0.95,0.26,-0.37,-2.08,-3.17,397,223,379,455,319,25
564,-0.16,-0.95,0.27,-0.61,-2.69,-3.42,396,226,378,453,319,25
565,-0.15,-0.95,0.27,0.0,-2.75,-2.99,398,224,372,449,318,25
566,-0.16,-0.95,0.27,0.37,-3.23,-2.5,394,215,378,453,322,25
567,-0.15,-0.95,0.25,-0.37,-2.32,-2.69,396,224,375,453,320,25
568,-0.15,-0.95,0.25,0.12,-3.23,-2.38,392,229,378,450,322,25
569,-0.15,-0.95,0.26,1.16,-3.05,-2.32,396,225,376,450,322,25
570,-0.15,-0.95,0.26,1.34,-3.78,-2.44,395,226,379,452,320,25
571,-0.15,-0.95,0.28,-0.12,-2.62,-2.87,400,228,375,456,314,25
572,-0.15,-0.95,0.26,0.43,-2.2,-2.75,394,226,378,459,320,25
573,-0.15,-0.95,0.27,0.43,-1.95,-2.62,397,232,379,454,318,25
574,-0.15,-0.95,0.27,0.43,-3.36,-2.87,397,226,382,454,322,25
575,-0.15,-0.95,0.26,0.67,-3.36,-2.75,397,224,380,458,321,25
576,-0.15,-0.96,0.26,-0.18,-3.05,-2.81,396,231,368,457,321,25
577,-0.16,-0.95,0.26,0.24,-2.01,-3.23,399,229,383,454,316,25
578,-0.15,-0.95,0.26,0.61,-2.38,-2.75,402,218,379,454,326,25
579,-0.15,-0.95,0.26,0.31,-2.69,-3.05,400,227,378,451,321,25
580,-0.14,-0.96,0.26,-0.18,-2.14,-3.17,394,226,375,458,318,25
581,-0.14,-0.95,0.26,-1.04,-2.87,-2.99,397,218,379,456,318,25
582,-0.15,-0.95,0.25,1.28,-2.5,-2.75,386,224,379,453,320,25
583,-0.15,-0.95,0.26,0.98,-2.69,-2.2,398,227,378,460,321,25
584,-0.15,-0.96,0.25,0.92,-2.44,-2.32,396,226,376,458,319,25
585,-0.15,-0.96,0.26,1.1,-2.56,-2.38,387,228,377,445,314,25
586,-0.15,-0.95,0.25,0.49,-2.99,-2.44,398,227,377,455,321,25
587,-0.15,-0.95,0.26,0.79,-2.69,-3.11,399,225,378,458,318,25
588,-0.15,-0.95,0.26,0.12,-2.5,-3.23,401,216,371,466,324,25
589,-0.15,-0.95,0.26,1.04,-2.62,-2.69,398,224,377,465,318,25
590,-0.15,-0.95,0.25,0.18,-3.91,-2.2,394,220,378,458,320,25
591,-0.15,-0.95,0.25,-0.12,-3.3,-2.87,399,223,378,445,315,25
592,-0.15,-0.95,0.26,0.37,-2.69,-2.56,397,226,376,450,322,25
593,-0.15,-0.95,0.26,0.37,-2.44,-2.62,400,230,379,448,323,25
594,-0.15,-0.96,0.25,0.49,-3.3,-2.56,397,228,379,453,316,25
595,-0.16,-0.95,0.26,0.79,-1.83,-2.14,397,229,377,454,317,25
596,-0.16,-0.95,0.25,2.44,-0.12,-5.25,407,230,379,458,319,25
597,-0.15,-0.97,0.24,-10.8,1.53,-5.92,405,226,386,460,320,25
598,-0.15,-0.98,0.2,-4.58,-1.59,-0.24,408,224,387,447,317,25
599,-0.16,-0.97,0.19,1.53,-4.03,-2.26,408,218,387,456,320,25
600,-0.16,-0.97,0.19,-0.18,-4.46,-2.44,404,212,396,460,317,25
601,-0.16,-0.96,0.21,0.55,-2.56,-2.99,408,223,391,455,322,25
602,-0.15,-0.96,0.21,0.37,-2.69,-2.87,409,217,390,458,318,25
603,-0.15,-0.96,0.2,-0.18,-3.3,-2.5,410,231,393,456,320,25
604,-0.15,-0.97,0.2,-0.67,-2.81,-2.93,403,230,386,457,317,25
605,-0.14,-0.97,0.19,-1.59,-3.3,-3.54,405,225,395,451,319,25
606,-0.14,-0.97,0.2,0.73,-3.17,-2.44,405,229,387,452,324,25
607,-0.15,-0.97,0.2,-0.31,-2.56,-2.93,403,227,391,450,316,25
608,-0.14,-0.96,0.2,1.16,-3.42,-2.62,404,230,391,462,323,25
609,-0.14,-0.96,0.2,-1.83,-1.71,-4.15,401,222,390,455,321,25
610,-0.15,-0.96,0.2,1.34,-2.75,-2.87,402,230,382,449,321,25
611,-0.14,-0.97,0.2,0.98,-2.56,-2.75,405,227,391,455,322,25
612,-0.14,-0.96,0.22,0.98,-2.99,-2.93,398,224,390,449,313,25
613,-0.14,-0.97,0.22,-0.12,-3.42,-3.11,402,228,391,458,320,25
614,-0.14,-0.96,0.22,-0.24,-3.48,-3.23,401,218,388,461,320,25
615,-0.13,-0.97,0.22,0.24,-3.36,-2.69,401,230,399,454,320,25
616,-0.14,-0.97,0.22,-0.06,-2.99,-3.11,401,228,389,456,324,25
617,-0.14,-0.96,0.22,-0.85,-2.5,-3.11,398,225,391,447,324,25
618,-0.15,-0.96,0.22,0.24,-3.23,-2.32,405,226,390,454,320,25
619,-0.16,-0.96,0.24,-0.85,-3.6,-4.94,402,229,392,457,319,25
620,-0.1,-0.96,0.25,6.16,-0.61,-3.3,403,219,388,457,321,25
621,-0.12,-0.97,0.17,-15.93,0.92,-3.91,401,232,390,455,322,25
622,-0.1,-0.97,0.17,5.49,-3.6,-3.66,401,228,388,458,320,25
623,-0.12,-0.98,0.16,3.72,-3.23,-1.89,404,228,388,454,317,25
624,-0.11,-0.97,0.17,0.06,-2.81,-2.32,405,229,390,457,315,25
625,-0.13,-0.97,0.2,-0.18,-3.66,-1.89,404,231,392,449,321,25
626,-0.13,-0.97,0.21,-0.67,-2.75,-3.36,412,231,388,459,320,25
627,-0.13,-0.97,0.2,-0.73,-2.75,-2.93,395,232,389,459,321,25
628,-0.14,-0.97,0.21,1.04,-3.36,-1.89,402,228,383,461,321,25
629,-0.13,-0.96,0.2,1.34,-3.05,-2.81,398,230,391,456,319,25
630,-0.13,-0.97,0.21,-0.31,-3.42,-2.99,401,221,392,457,319,25
631,-0.13,-0.97,0.2,0.98,-2.87,-2.87,404,228,389,453,323,25
632,-0.13,-0.97,0.2,0.31,-3.05,-2.62,398,230,389,454,320,25
633,-0.13,-0.96,0.2,0.24,-2.81,-2.99,402,226,387,455,317,25
634,-0.12,-0.97,0.2,-2.14,-2.01,-3.91,400,227,387,456,322,25
635,-0.12,-0.97,0.19,-0.61,-2.38,-3.05,400,228,384,450,322,25
636,-0.13,-0.97,0.2,0.61,-3.6,-1.71,397,227,386,455,317,25
637,-0.13,-0.97,0.19,0.37,-3.3,-2.26,400,228,391,462,322,25
638,-0.13,-0.97,0.19,0.31,-3.78,-2.44,409,249,384,455,324,25
639,-0.13,-0.97,0.18,0.06,-3.72,-2.69,402,232,388,441,322,25
640,-0.12,-0.97,0.19,0.18,-2.99,-2.99,399,228,382,453,323,25
641,-0.13,-0.97,0.2,1.28,-3.17,-2.38,398,220,387,461,321,25
642,-0.13,-0.97,0.18,-0.55,-2.62,-3.05,400,225,389,457,317,25
643,-0.12,-0.97,0.17,-0.31,-3.11,-2.87,399,227,387,459,322,25
644,-0.12,-0.97,0.22,-0.12,-2.93,-2.81,400,230,389,453,321,25
645,-0.12,-0.97,0.18,0.61,-2.99,-2.69,395,229,386,460,321,25
646,-0.13,-0.97,0.19,0.67,-2.87,-2.56,401,227,383,461,321,25
647,-0.12,-0.97,0.18,0.61,-2.99,-2.44,400,224,389,462,325,25
648,-0.12,-0.97,0.18,0.24,-1.77,-2.81,403,223,396,457,315,25
649,-0.13,-0.97,0.19,1.1,-2.75,-2.62,398,235,389,453,324,25
650,-0.12,-0.97,0.19,0.12,-3.11,-2.99,394,229,385,459,318,25
651,-0.13,-0.97,0.19,0.12,-1.65,-3.05,399,231,389,459,317,25
652,-0.13,-0.97,0.2,1.28,-3.54,-2.56,391,231,388,459,323,25
653,-0.13,-0.97,0.19,-0.06,-2.81,-2.5,396,229,387,453,319,25
654,-0.13,-0.97,0.19,0.31,-2.87,-2.62,401,231,385,455,320,25
655,-0.13,-0.97,0.19,-0.31,-2.38,-3.36,397,230,385,451,318,25
656,-0.12,-0.97,0.19,0.61,-2.81,-2.62,397,231,384,452,320,25
657,-0.13,-0.97,0.19,0.43,-2.69,-2.69,400,233,390,459,320,25
658,-0.13,-0.97,0.19,0.18,-2.56,-2.93,401,230,388,455,323,25
659,-0.13,-0.97,0.19,0.37,-2.56,-2.5,418,234,382,457,321,25
660,-0.13,-0.97,0.19,0.73,-3.3,-2.5,409,228,380,455,318,25
661,-0.13,-0.97,0.2,0.92,-2.14,-3.05,400,229,378,455,323,25
662,-0.13,-0.97,0.2,-0.12,-2.87,-2.75,396,224,397,452,322,25
663,-0.13,-0.97,0.2,0.67,-3.42,-2.56,399,231,386,455,321,25
664,-0.13,-0.97,0.2,0.85,-2.87,-2.38,401,231,386,454,318,25
665,-0.13,-0.97,0.2,0.06,-2.56,-2.14,402,227,382,454,320,25
666,-0.13,-0.97,0.19,-0.49,-2.75,-2.5,402,232,382,456,325,25
667,-0.14,-0.97,0.2,0.85,-2.62,-2.87,399,226,384,456,324,25
668,-0.13,-0.97,0.2,0.92,-2.75,-2.69,400,230,387,456,324,25
669,-0.13,-0.97,0.2,0.67,-2.87,-1.77,400,233,380,457,319,25
670,-0.14,-0.97,0.2,1.1,-3.3,-2.2,403,231,390,457,318,25
671,-0.14,-0.97,0.21,1.28,-3.36,-2.62,401,228,378,459,316,25
672,-0.14,-0.96,0.22,1.16,-3.78,-2.2,402,232,381,455,322,25
673,-0.14,-0.97,0.22,-0.49,-4.03,-2.01,401,235,387,462,323,25
674,-0.15,-0.97,0.2,-0.31,-2.93,-2.93,399,229,384,459,323,25
675,-0.14,-0.97,0.21,-0.06,-2.5,-3.3,400,233,383,460,318,25
676,-0.14,-0.97,0.21,-0.49,-2.56,-2.62,400,230,387,454,322,25
677,-0.15,-0.97,0.21,-0.55,-2.62,-2.32,401,228,381,454,318,25
678,-0.14,-0.97,0.2,-0.55,-2.93,-2.93,399,233,385,459,323,25
679,-0.13,-0.97,0.19,-1.4,-2.38,-3.11,403,233,391,463,320,25
680,-0.13,-0.97,0.2,-2.14,-3.05,-1.77,399,237,389,457,321,25
681,-0.11,-0.98,0.15,2.56,-16.72,-7.08,402,238,396,450,322,25
682,-0.18,-0.95,0.22,-3.48,-11.35,-5.49,399,232,385,459,314,25
683,-0.01,-1.1,0.28,4.15,-5.25,-6.77,403,223,390,456,316,25
684,-0.09,-0.96,0.23,1.95,-1.59,0.31,400,232,386,455,321,25
685,-0.08,-0.96,0.25,2.93,-3.97,-1.46,400,229,387,456,318,25
686,-0.09,-0.97,0.23,2.08,-2.87,-2.32,396,234,389,457,324,25
687,-0.08,-0.97,0.21,0.37,-2.69,-3.6,398,233,388,456,322,25
688,-0.1,-0.97,0.23,-0.49,-2.44,-3.3,395,235,396,457,318,25
689,-0.09,-0.97,0.2,-1.46,-2.87,-4.21,405,234,389,455,322,25
690,-0.09,-0.97,0.23,1.65,-2.5,-2.32,401,234,389,456,313,25
691,-0.1,-0.96,0.25,1.46,-2.32,-3.05,400,234,389,450,319,25
692,-0.1,-0.97,0.25,-2.01,-2.14,-3.48,400,238,390,457,321,25
693,-0.07,-0.97,0.22,1.28,-4.39,-3.05,403,235,388,460,321,25
694,-0.09,-0.97,0.22,0.0,-2.5,-2.38,416,230,385,456,320,25
695,-0.08,-0.97,0.25,-0.79,-3.05,-3.36,389,235,390,455,316,25
696,-0.09,-0.97,0.23,-2.81,-3.36,-3.6,401,233,387,459,321,25
697,-0.08,-0.97,0.24,1.46,-2.2,-2.44,400,231,381,461,322,25
698,-0.09,-0.97,0.22,0.31,-3.17,-2.62,400,234,386,474,323,25
699,-0.09,-0.97,0.24,0.61,-2.69,-2.69,411,247,386,460,318,25
700,-0.1,-0.97,0.23,-1.34,-3.91,-2.87,403,224,383,455,324,25
701,-0.1,-0.97,0.23,0.73,-2.38,-2.56,396,231,385,462,323,25
702,-0.07,-0.97,0.23,1.34,-4.52,-1.46,401,236,389,453,326,25
703,-0.08,-0.97,0.26,3.91,-3.23,-1.53,401,229,386,460,319,25
704,-0.07,-0.97,0.24,1.4,-3.42,-1.77,403,234,383,460,320,25
705,-0.08,-0.96,0.23,1.22,-3.23,-2.93,403,230,386,454,320,25
706,-0.09,-0.97,0.24,-0.79,-2.56,-3.36,401,231,383,456,320,25
707,-0.08,-0.97,0.24,-0.61,-2.87,-2.56,399,229,385,459,322,25
708,-0.09,-0.96,0.24,1.28,-2.87,-2.5,401,238,384,454,318,25
709,-0.08,-0.96,0.25,0.79,-3.11,-2.75,396,230,386,456,319,25
710,-0.07,-0.97,0.24,0.37,-3.42,-1.59,416,232,387,456,322,25
711,-0.06,-0.96,0.24,2.08,-3.6,-2.69,403,234,386,455,320,25
712,-0.07,-0.96,0.25,1.34,-3.17,-2.2,399,229,387,463,322,25
713,-0.05,-0.97,0.23,-0.43,-7.39,-3.91,399,235,389,459,321,25
714,-0.07,-0.96,0.25,1.4,-0.73,0.31,399,233,386,459,322,25
715,-0.05,-0.96,0.25,3.3,-1.34,-3.36,398,236,380,462,317,25
716,-0.11,-0.97,0.23,-0.12,-3.42,-5.25,399,234,388,458,314,25
717,-0.06,-0.97,0.23,-1.1,-1.28,-1.53,397,232,383,458,317,25
718,-0.08,-0.96,0.24,1.71,-5.68,-0.85,397,232,384,458,324,25
719,-0.08,-0.97,0.24,-2.26,-2.14,-3.91,402,233,383,460,325,25
720,-0.04,-0.96,0.27,-0.73,-3.91,-1.53,396,248,383,461,322,25
721,-0.07,-0.96,0.27,1.4,-2.14,-0.98,394,224,384,456,320,25
722,-0.1,-0.95,0.29,2.32,-5.86,1.71,397,236,385,462,325,25
723,-0.09,-0.96,0.28,-3.3,-1.46,-6.1,401,231,384,459,322,25
724,-0.05,-0.96,0.26,-1.83,3.3,-5.43,402,235,388,456,322,25
725,-0.06,-0.96,0.28,-1.16,-2.14,-3.97,397,232,389,457,321,25
726,-0.05,-0.97,0.27,-2.44,-5.19,-6.53,403,236,386,454,319,25
727,-0.04,-0.97,0.25,0.06,-3.36,-2.75,403,232,384,456,322,25
728,-0.05,-0.97,0.26,0.61,-2.99,-2.56,402,234,381,456,322,25
729,-0.05,-0.97,0.24,-0.67,-3.3,-3.17,397,234,383,468,323,25
730,-0.06,-0.97,0.26,0.31,-3.17,-2.26,399,225,384,456,318,25
731,-0.05,-0.97,0.26,1.1,-2.2,-1.95,399,238,385,454,316,25
732,0.0,-0.97,0.22,0.55,-3.91,-7.57,400,229,382,457,323,25
733,-0.03,-0.97,0.26,0.31,1.65,-5.68,399,236,384,460,324,25
734,-0.06,-0.98,0.18,-2.93,7.45,1.46,400,228,381,457,321,25
735,-0.07,-0.98,0.21,-0.24,2.93,-4.46,400,235,387,455,318,25
736,-0.07,-0.98,0.18,-1.77,-2.32,-2.5,402,233,387,456,324,25
737,-0.09,-0.97,0.21,0.79,-0.85,-3.05,400,237,389,452,320,25
738,-0.08,-0.97,0.17,-0.73,-1.89,-2.99,396,237,380,463,321,25
739,-0.08,-0.97,0.21,-1.89,-4.33,-5.74,398,234,385,451,320,25
740,-0.02,-0.98,0.18,0.43,-3.3,-6.16,399,236,386,448,323,25
741,-0.05,-0.97,0.22,-1.83,0.12,-8.3,398,237,387,460,321,25
742,-0.04,-0.98,0.18,1.22,-6.53,0.92,399,226,386,457,321,25
743,-0.06,-0.97,0.21,5.25,-5.68,2.56,396,234,383,461,323,25
744,-0.05,-0.99,0.23,1.04,-3.54,-4.76,399,238,381,457,322,25
745,-0.04,-0.96,0.25,-3.48,-2.32,-1.16,403,234,386,460,320,25
746,-0.05,-0.98,0.24,1.46,-6.1,-2.56,396,235,386,458,321,25
747,-0.06,-0.97,0.25,-0.31,-2.38,-2.75,396,229,383,451,320,25
748,-0.06,-0.95,0.26,0.67,-2.32,-2.26,402,234,385,456,322,25
749,-0.06,-0.96,0.26,0.0,-3.42,-2.69,397,238,387,456,319,25
750,-0.05,-0.96,0.26,0.98,-2.99,-2.75,395,225,377,453,323,25
751,-0.05,-0.96,0.26,-0.24,-2.69,-2.26,399,237,387,461,317,25
752,-0.06,-0.97,0.25,-0.55,-3.36,-2.93,400,239,383,458,324,25
753,-0.05,-0.97,0.26,0.06,-2.99,-2.26,397,228,383,455,323,25
754,-0.06,-0.96,0.25,0.67,-3.17,-2.2,395,233,385,453,317,25
755,-0.06,-0.97,0.25,1.04,-3.42,-2.2,402,233,387,456,319,25
756,-0.05,-0.97,0.25,0.73,-2.62,-2.26,403,236,381,458,320,25
757,-0.05,-1.0,0.26,1.22,-2.08,-2.44,399,235,384,460,318,25
758,-0.06,-0.97,0.25,-2.87,-2.93,-3.3,398,238,385,458,324,25
759,-0.06,-0.96,0.29,1.77,-3.78,-1.65,397,234,380,451,319,25
760,-0.06,-0.96,0.27,-0.37,-4.33,-1.71,396,237,384,456,318,25
761,-0.06,-0.96,0.26,1.83,-5.19,-0.06,399,236,384,459,323,25
762,-0.01,-0.96,0.26,-4.94,13.24,-12.21,397,235,383,456,320,25
763,-0.05,-0.96,0.21,4.76,-7.63,4.09,404,237,379,457,324,25
764,-0.05,-0.97,0.27,-1.89,-11.78,-0.61,401,237,380,455,321,25
765,-0.04,-0.97,0.25,3.6,-4.52,-2.75,401,238,377,461,316,25
766,-0.04,-0.97,0.25,-0.67,-6.04,-3.48,400,233,384,458,318,25
767,-0.02,-0.97,0.25,-2.08,-3.11,-4.03,401,234,384,459,322,25
768,-0.04,-0.96,0.27,0.24,-2.81,-2.62,400,233,382,458,316,25
769,-0.03,-0.96,0.25,3.05,-3.3,-2.08,397,238,377,454,322,25
770,-0.05,-0.96,0.26,-0.49,-2.81,-2.5,400,233,390,458,331,25
771,-0.05,-0.96,0.28,-1.4,-3.3,-2.56,399,227,380,460,323,25
772,-0.02,-0.96,0.25,0.43,-3.72,-3.54,393,230,383,459,322,25
773,-0.04,-0.97,0.25,0.55,-3.54,-3.05,398,240,380,458,319,25
774,-0.02,-0.97,0.25,-0.18,-3.23,-2.62,398,237,379,458,322,25
775,-0.03,-0.97,0.25,0.73,-2.87,-1.77,395,238,380,451,325,25
776,-0.04,-0.97,0.25,0.06,-3.3,-2.01,398,233,380,460,320,25
777,-0.04,-0.97,0.25,-1.95,-3.05,-3.17,398,235,379,457,322,25
778,-0.02,-0.97,0.26,1.22,-3.42,-1.77,399,232,377,455,323,25
779,-0.03,-0.97,0.25,2.26,-3.78,-2.56,393,234,382,460,316,25
780,-0.05,-0.97,0.24,-1.4,-3.6,-5.25,396,232,374,456,322,25
781,-0.02,-0.97,0.23,0.85,-2.93,-2.44,393,231,378,459,321,25
782,-0.04,-0.97,0.24,3.23,-2.87,-2.01,396,237,381,458,323,25
783,-0.02,-0.97,0.24,1.77,-2.81,-2.62,395,236,377,463,325,25
784,-0.04,-0.97,0.24,0.18,-2.38,-3.17,397,232,380,456,321,25
785,-0.04,-0.97,0.25,1.4,-4.09,-2.93,391,236,379,454,317,25
786,-0.05,-0.96,0.26,-0.67,-3.85,-3.3,395,232,377,458,324,25
787,-0.05,-0.97,0.24,-0.73,-4.03,-1.22,397,236,383,460,321,25
788,-0.04,-0.97,0.24,1.4,-3.17,-1.71,398,239,375,458,323,25
789,-0.03,-0.97,0.24,0.55,-2.62,-2.26,393,238,380,456,316,25
790,-0.04,-0.97,0.24,-0.12,-2.44,-3.23,402,232,382,457,324,25
791,-0.04,-0.98,0.25,1.22,-3.11,-1.28,397,240,379,462,320,25
792,-0.04,-0.97,0.25,0.92,-3.36,-2.69,399,229,377,453,319,25
793,-0.04,-0.97,0.23,-0.92,-2.5,-3.66,422,235,382,460,318,25
794,-0.03,-0.97,0.23,-0.18,-3.72,-4.03,397,240,381,463,321,25
795,-0.04,-0.97,0.24,1.77,-2.81,-2.56,393,239,380,457,324,25
796,-0.03,-0.97,0.25,-0.37,-2.81,-3.54,398,239,381,458,324,25
797,-0.04,-0.97,0.24,-0.49,-3.05,-1.89,387,232,381,459,322,25
798,-0.03,-0.97,0.26,0.55,-3.42,-1.28,395,234,385,457,324,25
799,-0.03,-0.97,0.24,0.49,-3.85,-1.16,394,237,378,458,324,25
800,-0.04,-0.97,0.23,0.31,-3.23,-1.89,396,236,380,454,323,25
801,-0.04,-0.97,0.24,0.55,-2.99,-3.11,391,232,379,460,325,25
802,-0.04,-0.97,0.25,0.67,-3.11,-1.95,398,242,379,459,318,25
803,-0.03,-0.96,0.25,0.43,-3.54,-1.71,390,238,381,460,322,25
804,-0.02,-0.97,0.24,2.2,-3.36,-2.69,395,236,377,458,320,25
805,-0.03,-0.97,0.23,-1.28,-2.62,-3.66,395,228,381,459,322,25
806,-0.04,-0.98,0.21,-2.69,-2.56,-4.76,392,237,378,455,324,25
807,-0.06,-0.97,0.23,1.95,-2.44,-2.26,393,233,377,462,324,25
808,-0.04,-0.96,0.26,2.62,-3.78,-2.01,393,233,380,455,322,25
809,-0.02,-0.97,0.23,-1.22,-3.91,-3.91,399,238,379,462,323,25
810,-0.03,-0.97,0.23,0.12,-2.56,-1.59,394,234,381,453,319,25
811,-0.06,-0.97,0.24,-1.77,-2.99,-2.69,389,234,381,458,320,25
812,-0.06,-0.97,0.23,0.98,-3.66,-1.83,390,237,379,459,324,25
813,-0.05,-0.97,0.25,1.22,-2.2,-2.56,393,236,377,454,322,25
814,-0.03,-0.97,0.25,0.31,-2.99,-2.69,392,241,381,457,326,25
815,-0.04,-0.96,0.25,0.55,-2.01,-2.38,397,240,380,459,316,25
816,-0.04,-0.97,0.25,-0.92,-2.38,-2.99,395,237,372,461,324,25
817,-0.05,-0.97,0.25,0.18,-3.05,-2.81,395,237,383,456,323,25
818,-0.05,-0.97,0.24,0.31,-3.6,-2.44,399,240,381,457,317,25
819,-0.03,-0.96,0.27,4.7,-0.92,-0.79,409,242,377,455,320,25
820,-0.07,-0.96,0.3,4.58,0.12,-1.95,397,235,378,463,324,25
821,-0.06,-0.96,0.28,-0.18,-4.33,-3.23,394,245,381,460,320,25
822,-0.06,-0.95,0.29,-1.1,-3.36,-3.6,407,242,374,456,326,25
823,-0.06,-0.95,0.3,0.98,-3.6,-1.95,398,235,376,461,321,25
824,-0.06,-0.95,0.3,-0.24,-3.48,-1.95,434,229,378,459,324,25
825,-0.06,-0.95,0.29,-0.73,-4.03,-3.23,394,238,376,458,325,25
826,-0.06,-0.96,0.28,1.4,-3.54,-1.53,396,231,379,460,325,25
827,-0.06,-0.95,0.3,2.44,-3.3,-2.01,395,240,378,456,320,25
828,-0.06,-0.95,0.31,0.92,-3.6,-2.2,391,240,382,458,320,25
829,-0.06,-0.96,0.3,0.18,-2.99,-2.08,397,237,381,456,325,25
830,-0.07,-0.96,0.29,-1.22,-2.14,-3.48,395,238,383,453,324,25
831,-0.07,-0.95,0.31,-0.06,-3.3,-2.75,399,238,377,455,322,25
832,-0.07,-0.95,0.31,0.85,-2.87,-2.38,395,243,378,459,323,25
833,-0.05,-0.95,0.29,1.53,-2.44,-3.85,395,239,383,459,324,25
834,-0.07,-0.95,0.3,0.06,-2.81,-4.21,394,236,377,457,322,25
835,-0.07,-0.95,0.31,-3.72,-4.82,-3.78,392,240,374,458,317,25
836,-0.04,-0.96,0.26,-1.04,-3.78,-3.48,395,237,378,454,319,25
837,-0.05,-0.96,0.27,-0.18,-2.93,-3.91,391,230,380,456,324,25
838,-0.04,-0.96,0.29,1.4,-9.95,-2.69,391,239,378,462,324,25
839,-0.02,-0.96,0.26,-0.49,-3.6,-3.36,391,237,377,460,318,25
840,-0.04,-0.96,0.26,0.85,-2.87,-2.5,397,236,378,457,322,25
841,-0.05,-0.96,0.27,-1.53,-2.69,-2.99,391,238,376,460,326,25
842,-0.05,-0.96,0.27,-0.06,-2.87,-1.46,396,234,378,461,318,25
843,-0.03,-0.96,0.3,3.11,-3.54,-2.14,394,239,376,458,324,25
844,-0.05,-0.96,0.27,-1.4,-4.03,-1.83,395,239,382,461,325,25
845,-0.05,-0.96,0.26,-0.61,-1.89,-2.87,388,243,377,458,316,25
846,-0.06,-0.97,0.26,-0.12,-2.32,-2.2,394,236,376,456,322,25
847,-0.06,-0.96,0.26,-0.98,-2.75,-3.3,394,235,377,459,323,25
848,-0.05,-0.96,0.26,1.22,-3.05,-2.56,397,238,380,460,322,25
849,-0.04,-0.96,0.27,0.67,-2.81,-3.66,392,229,372,458,322,25
850,-0.04,-0.96,0.27,0.37,-2.56,-4.46,388,237,376,460,319,25
851,-0.05,-0.95,0.29,1.46,-2.56,-3.48,393,240,379,458,322,25
852,-0.05,-0.95,0.3,0.73,-3.36,-2.26,393,237,378,456,322,25
853,-0.04,-0.96,0.29,0.37,-4.03,-1.77,390,239,374,462,321,25
854,-0.05,-0.96,0.28,-0.67,-2.75,-2.75,389,240,372,459,321,25
855,-0.04,-0.95,0.28,1.71,-2.5,-1.59,393,236,375,463,323,25
856,-0.06,-0.96,0.29,-0.37,-2.99,-4.39,392,238,378,461,325,25
857,-0.04,-0.95,0.33,-1.65,-1.1,-4.03,390,240,371,462,325,25
858,-0.05,-0.97,0.24,5.68,-3.72,1.28,388,242,383,459,323,25
859,-0.06,-0.98,0.3,-0.85,-3.05,-1.34,391,241,377,461,323,25
860,-0.05,-0.97,0.28,-1.65,-5.37,-5.74,393,236,376,459,325,25
861,-0.06,-0.97,0.28,-0.85,-4.09,-1.65,392,241,388,460,321,25
862,-0.05,-0.95,0.29,0.73,-3.17,-2.38,391,240,374,458,320,25
863,-0.05,-0.97,0.29,0.37,-2.32,-2.87,389,240,377,461,326,25
864,-0.05,-0.96,0.28,0.18,-2.62,-2.81,393,243,377,456,315,25
865,-0.04,-0.98,0.28,-0.61,-2.2,-3.23,392,237,378,461,324,25
866,-0.05,-0.96,0.28,0.55,-2.75,-2.38,392,242,381,457,322,25
867,-0.05,-0.96,0.28,-0.24,-2.99,-1.95,389,241,376,458,315,25
868,-0.04,-0.96,0.28,0.55,-2.93,-2.2,391,239,376,464,324,25
869,-0.05,-0.96,0.27,0.06,-3.17,-2.99,391,238,375,459,321,25
870,-0.04,-0.97,0.28,2.08,-1.65,-3.42,393,239,377,457,321,25
871,-0.04,-0.96,0.27,-0.79,-3.54,-3.11,394,240,375,455,324,25
872,-0.05,-0.96,0.28,0.55,-2.69,-2.87,394,240,373,454,322,25
873,-0.05,-0.96,0.28,1.28,-3.78,-2.01,430,240,373,458,324,25
874,-0.04,-0.96,0.27,2.2,-2.99,-1.77,393,237,374,465,324,25
875,-0.05,-0.96,0.26,-0.43,-2.44,-2.38,391,239,374,459,320,25
876,-0.04,-0.97,0.26,-0.43,-2.32,-3.78,390,240,377,458,322,25
877,-0.04,-0.96,0.26,1.28,-2.75,-3.23,390,239,374,462,320,25
878,-0.03,-0.96,0.27,0.67,-2.99,-2.5,391,233,377,454,319,25
879,-0.04,-0.97,0.27,0.98,-2.87,-2.38,393,237,378,458,324,25
880,-0.04,-0.96,0.26,-0.43,-2.87,-2.62,391,242,375,458,325,25
881,-0.05,-0.96,0.28,0.85,-2.87,-3.11,392,237,372,454,325,25
882,-0.04,-0.96,0.27,0.79,-2.93,-2.62,393,236,372,469,316,25
883,-0.04,-0.96,0.28,0.43,-2.62,-2.75,392,239,376,457,318,25
884,-0.04,-0.96,0.27,-0.73,-2.69,-2.81,388,239,377,461,322,25
885,-0.04,-0.96,0.26,0.06,-2.99,-2.44,390,237,374,455,320,25
886,-0.05,-0.96,0.27,0.31,-2.75,-1.95,390,235,376,455,317,25
887,-0.05,-0.96,0.27,0.18,-3.23,-2.87,391,239,377,463,321,25
888,-0.05,-0.96,0.27,-0.61,-3.48,-2.44,390,244,375,459,322,25
889,-0.06,-0.96,0.27,0.31,-2.75,-2.81,390,239,376,461,324,25
890,-0.05,-0.96,0.27,0.43,-3.23,-2.93,393,245,378,454,324,25
891,-0.05,-0.96,0.27,0.73,-2.87,-2.75,391,238,370,454,320,25
892,-0.06,-0.96,0.27,-0.12,-2.32,-2.93,391,242,372,456,320,25
893,-0.05,-0.96,0.28,0.67,-2.93,-2.87,390,241,378,452,319,25
894,-0.05,-0.96,0.28,0.61,-3.17,-2.14,391,234,373,459,323,25
895,-0.05,-0.96,0.27,0.55,-2.93,-2.32,392,238,376,460,325,25
896,-0.05,-0.96,0.27,0.12,-2.62,-3.05,391,238,371,456,325,25
897,-0.05,-0.97,0.27,0.06,-2.56,-2.75,392,231,370,455,322,25
898,-0.05,-0.96,0.27,1.04,-2.81,-2.26,389,238,381,461,323,25
899,-0.06,-0.96,0.27,0.12,-2.69,-2.81,389,238,377,455,325,25
900,-0.05,-0.96,0.28,-0.79,-2.62,-3.17,392,237,374,457,324,25
901,-0.04,-0.96,0.27,1.59,-2.75,-2.5,390,239,380,458,325,25
902,-0.05,-0.96,0.27,0.67,-2.87,-1.89,391,255,377,461,322,25
903,-0.06,-0.96,0.26,-0.98,2.81,1.34,395,239,374,458,322,25
904,-0.12,-0.94,0.27,1.04,0.85,-6.47,391,237,377,456,322,25
905,-0.11,-0.95,0.29,-5.8,5.92,2.08,394,238,373,453,323,25
906,-0.13,-0.94,0.21,5.8,-2.44,-0.37,389,235,377,454,318,25
907,-0.16,-0.97,0.23,18.01,1.65,-1.28,392,238,379,452,321,25
908,-0.12,-0.95,0.24,-1.04,-0.92,-7.93,391,241,379,454,323,25
909,-0.13,-0.97,0.23,-3.78,0.31,-1.89,393,239,389,459,319,25
910,-0.12,-0.95,0.21,1.28,-4.76,-1.46,389,242,390,457,316,25
911,-0.14,-0.96,0.25,2.14,-2.87,-0.55,391,239,389,460,323,25
912,-0.15,-0.95,0.27,0.61,-3.23,-2.38,390,244,388,458,323,25
913,-0.14,-0.95,0.26,1.59,-2.2,-3.48,387,239,387,456,322,25
914,-0.14,-0.95,0.26,-0.18,-2.62,-2.75,393,236,388,462,323,25
915,-0.14,-0.95,0.27,0.49,-3.05,-2.75,391,237,392,452,322,25
916,-0.15,-0.95,0.28,2.32,-3.36,-1.65,393,241,390,457,320,25
917,-0.14,-0.95,0.28,0.73,-3.23,-2.62,389,239,388,460,322,25
918,-0.15,-0.94,0.3,1.4,-3.48,-1.77,392,241,388,459,326,25
919,-0.15,-0.95,0.29,0.12,-2.44,-2.2,391,236,388,456,325,25
920,-0.15,-0.95,0.29,-0.49,-2.01,-2.75,394,238,385,458,325,25
921,-0.15,-0.95,0.29,-0.43,-2.56,-3.3,394,240,388,461,321,25
922,-0.15,-0.95,0.28,0.12,-3.11,-2.81,391,233,387,458,324,25
923,-0.15,-0.95,0.28,0.37,-3.48,-2.14,390,237,385,462,325,25
924,-0.15,-0.95,0.29,-0.73,-2.75,-2.26,392,239,390,460,327,25
925,-0.15,-0.95,0.28,-0.12,-3.36,-2.56,388,238,386,459,325,25
926,-0.15,-0.95,0.27,0.55,-3.36,-2.26,389,240,380,458,320,25
927,-0.16,-0.94,0.29,0.37,-4.15,-2.5,389,251,388,463,322,25
928,-0.15,-0.95,0.28,0.49,-3.42,-2.81,389,240,387,454,321,25
929,-0.15,-0.95,0.28,1.34,-3.11,-2.2,393,241,388,463,325,25
930,-0.16,-0.94,0.28,-0.24,-3.17,-2.75,391,240,386,462,319,25
931,-0.16,-0.95,0.28,-0.55,-2.14,-3.36,384,241,384,455,321,25
932,-0.16,-0.94,0.28,0.79,-2.75,-2.93,388,242,387,457,320,25
933,-0.16,-0.94,0.27,-0.06,-2.44,-2.38,392,241,388,460,322,25
934,-0.15,-0.94,0.27,-0.06,-2.08,-3.17,388,242,386,461,323,25
935,-0.15,-0.95,0.28,1.22,-2.56,-2.75,389,241,383,462,323,25
936,-0.16,-0.94,0.27,0.37,-2.99,-2.56,390,239,386,463,322,25
937,-0.16,-0.95,0.27,0.85,-3.66,-2.5,388,239,386,459,321,25
938,-0.15,-0.95,0.29,0.49,-2.5,-2.75,388,249,384,456,319,25
939,-0.16,-0.94,0.28,0.24,-2.26,-2.69,388,248,385,461,323,25
940,-0.14,-0.95,0.23,2.62,-2.32,-2.69,388,238,387,457,321,25
941,-0.15,-0.95,0.25,-1.34,-2.01,-3.05,400,239,390,461,320,25
942,-0.15,-0.96,0.25,-0.73,-2.38,-3.11,389,241,386,454,320,25
943,-0.15,-0.96,0.26,0.49,-3.97,-2.5,390,240,385,460,324,25
944,-0.15,-0.96,0.26,0.92,-3.78,-2.56,387,242,383,459,329,25
945,-0.15,-0.94,0.26,1.65,-4.58,-1.83,387,240,381,462,319,25
946,-0.15,-0.95,0.27,0.73,-2.44,-2.5,389,242,387,459,323,25
947,-0.15,-0.95,0.26,-0.37,-2.08,-2.99,396,237,389,461,322,25
948,-0.15,-0.95,0.26,1.1,-2.38,-2.87,391,239,387,460,322,25
949,-0.15,-0.95,0.27,0.24,-2.56,-2.38,390,240,388,456,321,25
950,-0.15,-0.95,0.27,0.67,-3.54,-2.2,387,240,377,457,324,25
951,-0.15,-0.95,0.26,0.06,-2.75,-2.32,387,239,382,461,322,25
952,-0.15,-0.95,0.26,0.0,-3.17,-2.5,387,243,385,458,318,25
953,-0.16,-0.95,0.27,1.4,-2.93,-2.44,389,241,385,458,325,25
954,-0.15,-0.95,0.27,0.79,-2.69,-2.32,398,234,382,458,321,25
955,-0.15,-0.95,0.26,0.98,-2.32,-2.01,388,241,387,459,322,25
956,-0.15,-0.95,0.28,1.04,-2.81,-2.38,389,240,387,463,323,25
957,-0.15,-0.95,0.26,-0.67,-3.72,-2.56,397,236,387,458,325,25
958,-0.15,-0.95,0.26,-1.28,-1.46,-3.3,391,237,386,461,324,25
959,-0.14,-0.95,0.24,-2.01,-0.98,-3.23,387,239,391,463,320,25
960,-0.12,-0.96,0.24,-0.06,-6.1,-3.85,387,241,393,459,318,25
961,-0.14,-0.98,0.17,-1.71,-2.93,-2.69,386,240,389,460,320,25
962,-0.14,-0.97,0.18,1.16,-3.11,-3.11,382,242,393,457,322,25
963,-0.14,-0.97,0.19,0.92,-2.81,-2.5,387,242,388,463,325,25
964,-0.15,-0.97,0.19,0.98,-3.11,-2.56,393,243,392,459,321,25
965,-0.15,-0.97,0.2,1.1,-3.48,-2.38,387,241,388,458,321,25
966,-0.14,-0.97,0.2,-1.34,-2.44,-3.17,383,240,391,461,320,25
967,-0.14,-0.97,0.2,0.43,-2.69,-2.38,402,240,392,474,322,25
968,-0.14,-0.96,0.2,-0.18,-2.32,-2.62,387,238,391,464,320,25
969,-0.15,-0.97,0.2,0.06,-2.56,-2.75,386,241,393,457,321,25
970,-0.14,-0.97,0.19,0.24,-3.17,-2.69,389,240,405,460,318,25
971,-0.15,-0.97,0.21,0.92,-2.56,-2.38,386,242,393,455,322,25
972,-0.15,-0.97,0.21,1.22,-3.6,-2.5,386,241,394,459,321,25
973,-0.15,-0.96,0.21,1.53,-3.17,-2.38,386,238,392,455,323,25
974,-0.15,-0.97,0.22,1.04,-3.11,-2.62,387,238,387,459,323,25
975,-0.15,-0.96,0.22,-0.24,-3.17,-2.62,387,238,391,462,322,25
976,-0.15,-0.96,0.21,0.18,-1.59,-2.62,385,243,391,468,324,25
977,-0.15,-0.96,0.22,0.73,-2.93,-2.81,388,235,391,459,321,25
978,-0.14,-0.97,0.21,0.06,-2.5,-2.56,386,243,389,460,320,25
979,-0.15,-0.96,0.21,0.37,-2.99,-2.32,389,241,390,460,323,25
980,-0.15,-0.96,0.22,0.06,-1.89,-2.75,389,241,391,456,322,25
981,-0.15,-0.96,0.22,1.53,-4.03,-1.95,388,238,392,460,323,25
982,-0.16,-0.96,0.23,1.83,-3.6,-2.01,386,237,390,464,320,25
983,-0.15,-0.96,0.24,0.61,-3.3,-2.56,389,240,394,464,324,25
984,-0.16,-0.96,0.24,-0.18,-2.08,-3.23,387,243,391,454,314,25
985,-0.16,-0.96,0.24,-0.31,-1.83,-2.75,389,240,390,457,320,25
986,-0.16,-0.96,0.23,0.43,-2.44,-2.75,386,237,394,455,323,25
987,-0.16,-0.96,0.23,1.16,-2.69,-2.62,387,240,391,460,320,25
988,-0.15,-0.96,0.22,0.55,-2.93,-2.99,385,243,388,460,320,25
989,-0.16,-0.96,0.23,-0.18,-2.56,-2.99,388,237,391,462,320,25
990,-0.15,-0.96,0.23,0.31,-3.3,-2.08,386,255,391,459,325,25
991,-0.15,-0.96,0.24,2.01,-4.27,-3.05,384,239,392,462,321,25
992,-0.15,-0.95,0.24,1.04,-3.17,-2.56,384,239,389,465,322,25
993,-0.15,-0.95,0.25,0.79,-2.93,-2.56,388,239,392,454,322,25
994,-0.16,-0.96,0.24,0.18,-1.71,-3.11,385,239,393,462,320,25
995,-0.15,-0.95,0.24,1.1,-2.56,-2.62,383,243,393,454,323,25
996,-0.16,-0.95,0.24,-0.55,-2.99,-2.99,388,242,392,459,324,25
997,-0.15,-0.96,0.24,0.24,-4.09,-2.5,386,239,390,462,326,25
998,-0.15,-0.96,0.26,-0.98,-4.09,-2.81,387,248,391,455,319,25
999,-0.15,-0.95,0.25,1.83,-3.36,-1.95,410,242,391,459,319,25
1000,-0.16,-0.95,0.24,1.4,-3.3,-1.89,387,244,390,461,321,25
1001,-0.15,-0.95,0.25,0.24,-2.62,-2.87,385,240,390,463,321,25
1002,-0.15,-0.96,0.24,1.22,-2.81,-2.32,385,254,387,461,323,25
1003,-0.15,-0.95,0.25,0.18,-2.93,-2.44,387,242,388,461,322,25
1004,-0.15,-0.96,0.24,0.31,-2.56,-2.99,384,241,390,460,321,25
1005,-0.16,-0.95,0.25,0.73,-3.17,-2.5,384,239,390,459,322,25
1006,-0.15,-0.96,0.25,-1.04,-3.17,-3.42,395,241,392,464,325,25
1007,-0.18,-0.98,0.25,-2.93,-0.12,-6.04,384,240,394,458,321,25
1008,-0.15,-0.96,0.22,3.05,-4.64,-2.62,381,240,394,463,319,25
1009,-0.14,-0.96,0.23,1.1,-2.99,-2.26,383,241,389,456,324,25
1010,-0.14,-0.96,0.22,1.04,-3.05,-2.14,385,238,392,453,320,25
1011,-0.14,-0.96,0.23,0.43,-2.99,-2.87,385,248,392,460,322,25
1012,-0.15,-0.96,0.23,0.61,-2.56,-1.95,384,244,392,455,323,25
1013,-0.11,-0.89,0.46,-0.06,-2.99,-3.11,416,220,414,451,344,25
1014,-0.11,-0.9,0.44,-1.46,-3.17,-4.15,414,221,410,446,342,25
1015,-0.09,-0.88,0.42,-0.43,-3.54,-2.62,414,223,414,451,339,25
1016,-0.1,-0.9,0.42,1.65,-4.64,0.06,407,222,414,450,337,25
1017,-0.12,-0.9,0.45,-1.1,-1.77,-2.56,410,237,413,451,345,25
1018,-0.11,-0.9,0.45,-0.06,-1.65,-1.4,410,224,423,451,346,25
1019,-0.09,-0.9,0.42,0.73,-0.55,-2.08,406,224,413,457,341,25
1020,-0.07,-0.89,0.4,-2.2,-2.62,-4.21,412,222,409,452,340,25
1021,-0.12,-0.91,0.41,1.28,-1.46,-3.97,405,222,411,447,342,25
1022,-0.09,-0.9,0.41,1.71,-6.23,-1.4,403,223,412,453,343,25
1023,-0.09,-0.9,0.41,-0.12,-0.18,-5.49,403,224,411,447,344,25
1024,-0.09,-0.94,0.41,1.71,-3.78,-2.08,404,225,411,457,344,25
1025,-0.09,-0.92,0.42,1.16,-3.05,-1.59,404,222,411,457,339,25
1026,-0.09,-0.89,0.43,1.65,-4.33,-0.18,401,224,411,457,343,25
1027,-0.1,-0.92,0.4,0.12,-3.42,-1.34,397,226,409,459,343,25
1028,-0.11,-0.91,0.4,-0.85,-2.93,-1.77,400,221,410,457,344,25
1029,-0.08,-0.88,0.39,-5.43,-2.2,0.92,400,227,410,458,343,25
1030,-0.11,-0.9,0.4,-0.18,-3.66,-1.71,398,228,412,454,345,25
1031,-0.11,-0.92,0.4,0.31,-4.27,-3.54,397,225,409,454,343,25
1032,-0.11,-0.89,0.42,3.91,-2.14,-1.65,399,230,411,454,346,25
1033,-0.11,-0.85,0.38,-0.55,-2.08,-1.34,395,226,413,455,346,25
1034,-0.12,-0.92,0.4,15.08,-2.5,-2.56,399,227,408,455,345,25
1035,-0.1,-0.9,0.4,-2.38,-2.26,-3.3,399,229,410,450,345,25
1036,-0.11,-0.92,0.38,-2.56,-4.64,-3.17,398,228,405,456,344,25
1037,-0.05,-0.93,0.37,-5.25,-3.11,-3.36,399,225,407,458,345,25
1038,-0.08,-0.93,0.36,-2.26,-3.23,-1.34,400,227,407,459,355,25
1039,-0.08,-0.93,0.36,0.18,-2.93,-3.23,397,227,405,459,346,25
1040,-0.08,-0.93,0.35,-2.38,-1.34,-4.21,401,226,403,455,347,25
1041,-0.1,-0.93,0.35,0.79,-2.87,-2.26,399,226,404,459,342,25
1042,-0.1,-0.94,0.36,-0.37,-2.93,-3.11,397,229,402,458,345,25
1043,-0.1,-0.93,0.35,-0.43,-2.26,-3.78,398,229,402,461,347,25
1044,-0.08,-0.91,0.36,1.95,-2.32,-4.76,397,222,405,457,345,25
1045,-0.08,-0.92,0.38,0.79,-3.23,-3.6,400,229,402,457,346,25
1046,-0.09,-0.91,0.39,1.28,-1.34,-2.69,397,228,404,459,345,25
1047,-0.1,-0.92,0.37,0.98,-2.38,-2.38,397,227,400,455,348,25
1048,-0.07,-0.93,0.35,-2.26,-1.22,-3.36,397,233,400,455,344,25
1049,-0.11,-0.92,0.37,-0.49,-0.92,-2.69,394,224,398,460,345,25
1050,-0.1,-0.93,0.36,0.0,-2.26,-2.01,397,228,396,455,346,25
1051,-0.09,-0.94,0.35,1.95,-1.16,-2.32,396,227,398,451,344,25
1052,-0.11,-0.92,0.36,0.43,-3.78,-2.2,397,227,397,461,343,25
1053,-0.1,-0.93,0.36,1.04,-4.15,-2.26,403,225,397,458,346,25
1054,-0.11,-0.93,0.37,0.67,-2.56,-2.38,405,228,394,455,347,25
1055,-0.09,-0.92,0.35,0.18,-3.85,-2.08,407,228,400,458,346,25
1056,-0.09,-0.93,0.35,-0.55,1.34,-2.81,421,227,396,455,348,25
1057,-0.11,-0.93,0.35,-2.2,0.67,-4.52,403,230,397,454,344,25
1058,-0.13,-0.92,0.38,1.22,-2.62,-0.12,401,231,397,467,345,25
1059,-0.11,-0.92,0.38,1.59,-5.37,-0.79,401,229,395,454,347,25
1060,-0.12,-0.92,0.39,0.06,-3.42,-3.11,426,231,397,460,343,25
1061,-0.11,-0.92,0.37,2.26,-3.91,-2.38,414,231,395,460,343,25
1062,-0.1,-0.92,0.37,0.24,-3.05,-2.87,402,234,396,459,346,25
1063,-0.12,-0.91,0.36,-0.06,-2.93,-2.38,404,224,397,460,348,25
1064,-0.09,-0.9,0.38,-0.37,-2.32,-2.56,405,230,396,461,346,25
1065,-0.13,-0.92,0.38,-3.17,-2.01,-4.33,401,229,393,456,345,25
1066,-0.12,-0.92,0.36,-1.77,-3.91,-3.42,402,228,400,460,344,25
1067,-0.11,-0.92,0.34,0.85,-3.11,-2.99,400,232,396,452,345,25
1068,-0.11,-0.93,0.36,1.77,-2.81,-3.78,436,232,396,456,345,25
1069,-0.11,-0.92,0.37,1.22,-2.81,-2.32,399,230,397,461,347,25
1070,-0.11,-0.92,0.37,-0.24,-2.38,-2.62,395,231,397,456,342,25
1071,-0.11,-0.93,0.37,-0.61,-3.11,-1.89,399,230,396,453,341,25
1072,-0.12,-0.92,0.37,-1.28,-1.89,-3.23,399,230,397,453,346,25
1073,-0.12,-0.93,0.36,-1.22,-1.77,-2.93,400,230,396,458,343,25
1074,-0.11,-0.93,0.36,1.46,-2.08,-2.01,400,232,408,458,345,25
1075,-0.11,-0.92,0.36,0.06,-5.31,-1.89,400,228,395,451,343,25
1076,-0.13,-0.93,0.36,-0.31,-3.54,-0.73,399,234,394,456,349,25
1077,-0.13,-0.91,0.39,5.8,-0.67,-5.8,399,230,395,455,346,25
1078,-0.12,-0.91,0.4,-1.1,-4.09,-2.14,402,232,393,452,346,25
1079,-0.11,-0.92,0.37,-0.43,-2.08,-2.38,398,232,397,459,349,25
1080,-0.11,-0.92,0.38,0.92,-2.56,-2.08,387,230,398,454,355,25
1081,-0.1,-0.92,0.36,2.14,-3.66,-1.59,401,232,394,455,347,25
1082,-0.13,-0.92,0.38,-0.18,-2.2,-2.99,395,232,397,461,347,25
1083,-0.11,-0.93,0.36,-1.16,-3.36,-2.99,398,232,394,457,346,25
1084,-0.12,-0.92,0.38,0.18,-2.01,-1.89,397,233,394,460,348,25
1085,-0.13,-0.92,0.39,-3.6,-1.89,-3.72,398,233,388,461,349,25
1086,-0.13,-0.93,0.33,-3.05,-2.2,-3.85,394,231,395,452,345,25
1087,-0.14,-0.91,0.38,5.8,-2.69,-0.37,400,232,393,453,349,25
1088,-0.15,-0.91,0.38,1.1,-5.37,0.55,418,234,394,455,347,25
1089,-0.12,-0.92,0.37,2.69,-4.21,-1.46,397,234,395,455,345,25
1090,-0.14,-0.91,0.4,2.93,-2.01,-3.97,398,234,391,471,349,25
1091,-0.12,-0.92,0.39,2.38,-0.92,-3.05,399,233,397,458,345,25
1092,-0.16,-0.92,0.37,-0.92,3.97,-2.75,414,231,394,459,346,25
1093,-0.16,-0.92,0.37,-4.33,5.37,-0.85,415,229,392,458,346,25
1094,-0.19,-0.92,0.29,0.55,-2.75,-3.54,416,237,395,458,346,25
1095,-0.18,-0.94,0.28,-3.97,-0.73,-15.69,417,233,394,457,344,25
1096,-0.19,-0.92,0.33,7.93,3.42,-19.53,414,231,394,457,346,25
1097,-0.18,-0.94,0.32,5.92,-4.27,-6.29,413,233,393,458,346,25
1098,-0.16,-0.94,0.29,3.3,-4.09,-0.55,414,236,394,458,349,25
1099,-0.19,-0.92,0.39,-4.88,5.92,-12.08,414,234,395,461,347,25
1100,-0.11,-0.95,0.31,-0.12,-0.85,-0.85,405,231,393,460,349,25
1101,-0.12,-0.93,0.28,-5.43,3.05,-15.5,409,234,393,459,346,25
1102,-0.12,-0.99,0.21,-21.36,4.46,-2.32,409,232,395,462,341,25
1103,-0.09,-0.95,0.29,6.16,-10.07,-0.55,408,233,395,459,345,25
1104,-0.13,-0.96,0.25,2.01,-3.66,-0.61,407,232,392,458,347,25
1105,-0.13,-0.97,0.24,1.16,-6.96,-1.4,412,231,395,461,343,25
1106,-0.13,-0.96,0.25,1.59,-4.88,-1.22,406,231,395,455,345,25
1107,-0.14,-0.96,0.23,-1.65,-3.66,-3.3,410,233,398,462,342,25
1108,-0.1,-0.97,0.19,3.3,-3.11,-3.05,408,236,391,454,351,25
1109,-0.13,-0.96,0.26,2.14,-3.91,-3.36,406,233,393,458,346,25
1110,-0.14,-0.94,0.22,-0.43,-5.37,-2.5,406,233,391,460,342,25
1111,-0.12,-0.96,0.21,-3.72,-3.48,-3.6,408,232,389,459,342,25
1112,-0.11,-0.97,0.2,0.61,-2.38,-3.36,404,234,388,459,343,25
1113,-0.13,-0.96,0.2,-0.98,-4.88,-2.26,405,231,391,458,344,25
1114,-0.14,-0.97,0.21,0.06,-2.2,-2.81,405,234,389,458,344,25
1115,-0.15,-0.97,0.2,0.37,-3.3,-2.44,403,236,392,458,345,25
1116,-0.07,-0.96,0.19,-2.75,-4.76,-2.56,404,236,392,458,346,25
1117,-0.11,-0.97,0.19,-1.34,-4.03,-2.81,405,233,389,459,342,25
1118,-0.13,-0.98,0.17,0.0,-2.93,-2.56,406,232,390,458,348,25
1119,-0.15,-0.98,0.21,-0.55,-4.33,-1.16,407,233,394,459,348,25
1120,-0.13,-0.98,0.19,-0.73,-2.44,-3.3,406,233,391,462,346,25
1121,-0.1,-0.97,0.2,-1.53,-2.87,-2.93,409,234,381,457,345,25
1122,-0.12,-0.97,0.17,3.72,-1.53,-4.7,406,235,391,459,346,25
1123,-0.13,-0.98,0.24,1.71,12.27,-1.83,405,234,390,454,349,25
1124,-0.11,-0.97,0.18,2.01,-3.6,0.0,407,246,389,460,343,25
1125,-0.12,-0.96,0.2,-0.92,-2.2,-3.66,407,247,397,457,348,25
1126,-0.11,-0.97,0.2,-1.53,0.79,-4.88,406,235,388,461,348,25
1127,-0.11,-0.97,0.19,4.94,-0.18,-4.27,406,233,391,460,348,25
1128,-0.14,-0.97,0.19,5.68,-5.43,-1.53,407,238,387,459,348,25
1129,-0.12,-0.97,0.18,-1.95,-1.77,-4.7,407,237,389,457,348,25
1130,-0.13,-0.96,0.2,2.5,-3.72,0.0,405,238,385,459,346,25
1131,-0.13,-0.97,0.2,0.0,-4.27,-4.39,406,236,388,460,348,25
1132,-0.11,-0.97,0.17,-2.62,-3.54,-1.53,400,235,387,458,348,25
1133,-0.13,-0.96,0.19,1.04,-2.93,-1.46,411,234,388,460,347,25
1134,-0.13,-0.97,0.21,-1.65,-2.38,-2.62,406,238,389,460,349,25
1135,-0.13,-0.98,0.2,-0.67,-2.87,-2.38,407,235,387,461,347,25
1136,-0.13,-0.94,0.19,1.4,-1.95,-3.6,403,235,388,457,347,25
1137,-0.13,-0.97,0.17,0.43,-3.17,-2.81,408,236,387,458,343,25
1138,-0.13,-0.96,0.19,-0.37,-2.44,-2.38,408,238,384,459,348,25
1139,-0.13,-0.96,0.19,-0.37,-1.59,-3.17,406,236,389,457,345,25
1140,-0.13,-0.97,0.18,-0.55,-2.32,-3.36,407,232,394,459,350,25
1141,-0.14,-0.97,0.18,-0.12,-3.23,-3.36,407,238,390,461,347,25
1142,-0.14,-0.97,0.18,-0.49,-3.23,-2.75,406,240,387,459,346,25
1143,-0.14,-0.96,0.17,-0.18,-3.66,-2.2,407,236,386,459,349,25
1144,-0.14,-0.97,0.18,0.61,-2.93,-2.93,407,236,389,463,346,25
1145,-0.14,-0.97,0.19,0.79,-3.3,-2.26,407,236,388,455,350,25
1146,-0.14,-0.96,0.18,-0.61,-4.09,-2.2,406,239,387,453,348,25
1147,-0.15,-0.97,0.18,0.79,-2.81,-2.69,406,238,388,454,346,25
1148,-0.13,-0.96,0.18,2.32,-3.78,-3.36,406,238,388,461,346,25
1149,-0.14,-0.98,0.17,0.98,-3.23,-1.83,406,240,387,459,347,25
1150,-0.14,-0.98,0.18,0.55,-3.3,-2.93,394,240,387,459,344,25
1151,-0.15,-0.97,0.18,-0.37,-2.75,-2.81,408,239,388,463,350,25
1152,-0.14,-0.97,0.19,0.12,-2.38,-2.5,408,240,386,460,348,25
1153,-0.15,-0.96,0.19,-0.67,-0.92,-2.32,409,239,389,461,348,25
1154,-0.15,-0.96,0.16,-1.95,-2.2,-2.81,412,242,386,454,343,25
1155,-0.17,-0.98,0.2,0.67,-3.85,-4.03,414,237,385,462,342,25
1156,-0.13,-0.99,0.16,3.11,-4.58,-2.62,411,235,386,456,331,25
1157,-0.17,-0.98,0.13,-8.54,-7.51,0.0,411,235,388,463,342,25
1158,-0.16,-0.97,0.19,-1.59,1.04,-1.71,411,241,388,457,345,25
1159,-0.18,-0.98,0.14,-2.26,-1.65,-6.29,412,238,388,462,346,25
1160,-0.13,-0.97,0.15,-1.77,-2.81,-4.64,413,238,383,462,345,25
1161,-0.13,-0.98,0.2,-2.69,-0.49,-2.93,416,234,383,462,344,25
1162,-0.12,-0.97,0.17,-10.8,2.14,-4.21,413,238,384,457,346,25
1163,-0.12,-0.97,0.22,-1.34,-6.35,-4.39,412,238,385,455,347,25
1164,-0.11,-0.96,0.25,-0.12,-9.03,-1.83,408,239,382,464,347,25
1165,-0.11,-0.97,0.23,-3.66,2.56,-4.03,410,237,382,458,345,25
1166,-0.12,-0.98,0.13,0.31,-2.81,-5.49,411,239,387,464,346,25
1167,-0.1,-0.97,0.18,3.36,-1.71,-1.28,407,235,388,459,344,25
1168,-0.11,-0.98,0.15,-0.79,-3.23,-4.09,408,237,387,463,346,25
1169,-0.11,-0.97,0.19,0.06,-3.91,-0.12,405,238,387,460,348,25
1170,-0.11,-0.97,0.18,-2.44,-2.81,-0.06,405,240,383,459,349,25
1171,-0.09,-0.97,0.19,-1.16,-4.21,-0.79,410,240,385,462,346,25
1172,-0.13,-0.97,0.22,-3.42,-4.15,-2.81,417,238,387,455,350,25
1173,-0.1,-0.96,0.22,2.38,-7.63,-5.62,429,241,387,460,347,25
1174,-0.13,-0.97,0.22,3.05,-2.75,-0.37,410,241,383,460,346,25
1175,-0.13,-0.96,0.28,-0.92,-0.49,-3.11,411,239,386,460,347,25
1176,-0.14,-0.96,0.24,-4.76,-2.2,-1.34,409,241,384,462,345,25
1177,-0.13,-0.96,0.23,1.65,-3.6,-2.99,406,237,381,457,344,25
1178,-0.13,-0.97,0.22,-2.99,-2.5,-3.11,407,239,383,460,345,25
1179,-0.12,-0.97,0.17,-0.31,-0.06,-3.42,407,240,382,458,349,25
1180,-0.15,-0.97,0.21,2.32,1.95,-0.37,412,240,382,460,345,25
1181,-0.16,-0.97,0.23,-0.18,-1.46,-1.46,408,241,384,460,350,25
1182,-0.15,-0.96,0.23,2.99,-3.11,-2.2,413,241,381,462,344,25
1183,-0.14,-0.96,0.23,5.49,-2.69,-2.44,414,237,386,455,357,25
1184,-0.15,-0.95,0.23,3.66,-2.5,-2.75,412,241,380,460,351,25
1185,-0.15,-0.96,0.21,-0.12,-1.04,-2.44,411,239,378,461,339,25
1186,-0.17,-0.96,0.24,-0.06,-5.25,-2.14,411,239,385,461,349,25
1187,-0.16,-0.97,0.21,0.55,-3.3,-2.5,414,240,383,462,354,25
1188,-0.16,-0.96,0.21,0.18,-2.26,-2.44,413,242,385,472,350,25
1189,-0.16,-0.96,0.22,0.85,-3.05,-3.05,415,238,383,455,348,25
1190,-0.17,-0.97,0.22,0.0,-3.3,-3.48,413,248,379,460,348,25
1191,-0.16,-0.96,0.24,-0.98,-2.87,-3.91,420,240,380,460,351,25
1192,-0.16,-0.96,0.22,-0.06,-3.6,-2.08,413,238,384,455,346,25
1193,-0.17,-0.96,0.23,-0.06,-1.95,-2.26,412,252,385,463,347,25
1194,-0.16,-0.96,0.22,0.12,-2.56,-1.4,412,242,385,463,349,25
1195,-0.17,-0.96,0.22,0.49,-2.2,-2.26,404,240,383,471,344,25
1196,-0.17,-0.96,0.22,0.55,-3.05,-2.26,413,238,383,459,350,25
1197,-0.17,-0.96,0.22,0.31,-3.05,-2.75,414,240,383,464,349,25
1198,-0.17,-0.95,0.23,1.71,-4.27,-2.69,412,241,381,462,348,25
1199,-0.16,-0.96,0.23,0.67,-2.93,-2.62,412,241,381,461,350,25
1200,-0.19,-1.0,0.32,-1.53,-2.44,-2.56,412,243,383,460,346,25
1201,-0.17,-0.95,0.22,-0.79,-1.34,-2.44,412,241,382,460,349,25
1202,-0.17,-0.96,0.22,-2.08,-1.95,-3.36,415,238,385,463,347,25
1203,-0.17,-0.96,0.21,-2.62,-1.4,-4.58,413,244,383,465,347,25
1204,-0.17,-0.96,0.22,-0.49,-2.81,-2.38,414,243,381,459,348,25
1205,-0.16,-0.95,0.22,0.0,-3.42,-2.44,413,245,386,464,348,25
1206,-0.17,-0.95,0.2,-0.43,-2.32,-3.91,414,246,390,458,348,25
1207,-0.19,-0.96,0.26,0.12,-4.39,-2.75,413,241,389,461,348,25
1208,-0.18,-0.94,0.25,5.25,-5.86,0.73,415,242,390,460,344,25
1209,-0.17,-0.95,0.23,-3.72,-0.12,-4.88,413,245,391,460,350,25
1210,-0.18,-0.96,0.22,-0.06,-2.93,-2.2,412,245,393,462,348,25
1211,-0.2,-0.95,0.22,-0.92,-4.64,-4.94,419,243,387,464,350,25
1212,-0.17,-0.96,0.25,0.18,-2.93,-1.16,412,242,390,463,348,25
1213,-0.15,-0.95,0.22,-0.24,-3.17,-4.21,415,242,391,459,350,25
1214,-0.17,-0.95,0.23,1.28,-3.3,-1.89,412,243,394,455,348,25
1215,-0.17,-0.95,0.23,0.43,-3.11,-2.2,414,243,392,461,350,25
1216,-0.17,-0.96,0.24,0.92,-3.48,-2.5,412,244,392,463,345,25
1217,-0.16,-0.95,0.23,-1.16,-1.77,-1.71,412,243,390,465,343,25
1218,-0.17,-0.96,0.25,0.43,-2.69,-2.14,413,242,394,464,347,25
1219,-0.16,-0.96,0.23,-0.55,-1.46,-4.03,414,242,391,461,353,25
1220,-0.17,-0.95,0.25,-2.08,-1.53,-2.87,414,242,391,465,349,25
1221,-0.17,-0.94,0.24,0.37,-3.66,-2.38,408,244,393,459,350,25
1222,-0.18,-0.96,0.24,0.67,-1.46,-5.37,411,242,391,460,346,25
1223,-0.17,-0.95,0.25,2.08,-3.42,-2.01,412,242,391,464,349,25
1224,-0.17,-0.95,0.25,-1.59,-0.55,-1.46,410,246,390,464,352,25
1225,-0.17,-0.95,0.24,-0.18,-3.36,-1.83,414,240,391,462,348,25
1226,-0.18,-0.95,0.24,0.79,-2.56,-2.62,415,242,389,464,348,25
1227,-0.17,-0.95,0.24,-2.62,-0.49,-6.47,413,241,389,460,344,25
1228,-0.17,-0.95,0.24,-3.11,-1.77,-1.16,412,239,393,463,350,25
1229,-0.17,-0.95,0.24,0.37,-2.87,-2.56,409,247,389,475,351,25
1230,-0.17,-0.96,0.24,-1.77,-2.93,-2.14,411,242,391,474,347,25
1231,-0.16,-0.95,0.25,0.55,-3.17,-2.69,412,241,393,465,350,25
1232,-0.17,-0.96,0.24,2.5,-3.17,-2.14,412,244,394,459,348,25
1233,-0.18,-0.96,0.22,-1.65,-3.72,-3.05,411,245,393,461,352,25
1234,-0.17,-0.96,0.22,-0.43,-4.27,-2.32,411,248,398,461,349,25
1235,-0.18,-0.96,0.26,-2.93,-0.98,-3.11,420,244,391,464,350,25
1236,-0.17,-0.97,0.23,2.08,-3.23,-1.16,413,245,389,464,348,25
1237,-0.18,-0.95,0.21,0.79,-3.85,-3.17,414,243,392,466,349,25
1238,-0.19,-0.92,0.2,-1.16,-2.93,-2.87,412,242,393,459,349,25
1239,-0.17,-0.97,0.22,0.67,-2.26,-0.79,409,244,393,461,349,25
1240,-0.2,-0.95,0.24,0.31,-0.98,-4.27,409,241,389,460,348,25
1241,-0.21,-0.94,0.24,-2.26,-7.2,1.28,409,245,393,462,350,25
1242,-0.21,-0.96,0.22,0.18,-4.09,0.61,411,243,395,465,350,25
1243,-0.22,-0.94,0.27,10.07,-8.3,7.57,419,244,391,465,351,25
1244,-0.26,-0.92,0.3,2.69,-4.39,-2.5,415,246,392,462,347,25
1245,-0.21,-0.92,0.27,-2.14,-3.97,-2.2,414,246,393,461,346,25
1246,-0.22,-0.92,0.35,-2.81,-1.4,0.98,412,242,392,456,345,25
1247,-0.25,-0.89,0.35,-3.54,-3.6,-4.15,412,246,393,462,349,25
1248,-0.22,-0.92,0.33,0.31,-3.17,-4.94,414,243,391,457,353,25
1249,-0.24,-0.92,0.31,3.36,-2.81,-0.43,415,243,390,462,351,25
1250,-0.24,-0.91,0.3,-0.61,-2.56,-2.93,414,245,390,462,350,25
1251,-0.23,-0.91,0.3,2.62,-1.28,-3.85,411,245,392,465,350,25
1252,-0.33,-0.93,0.33,4.27,7.14,-8.48,413,243,391,456,351,25
1253,-0.16,-0.94,0.23,-4.39,10.93,-14.28,412,243,388,460,350,25
1254,-0.16,-0.96,0.27,2.99,0.0,1.1,412,242,390,460,349,25
1255,-0.16,-0.94,0.29,1.59,-2.44,-3.6,410,245,390,460,346,25
1256,-0.12,-0.95,0.22,2.26,3.17,-8.06,412,246,390,462,350,25
1257,-0.18,-0.96,0.27,-4.39,-10.13,1.89,411,245,390,460,351,25
1258,-0.18,-0.97,0.27,2.87,-9.7,-3.3,412,246,391,461,350,25
1259,-0.18,-0.99,0.21,-0.85,-5.0,-0.98,412,246,390,461,344,25
1260,-0.2,-0.95,0.25,-2.87,-4.27,-2.14,412,245,390,456,348,25
1261,-0.19,-0.95,0.28,-0.85,-5.37,-1.34,411,243,389,460,351,25
1262,-0.21,-0.95,0.26,1.53,-5.62,-2.99,409,243,390,462,348,25
1263,-0.22,-0.95,0.26,-1.95,-6.1,1.34,411,242,393,458,347,25
1264,-0.21,-0.95,0.25,0.55,-1.65,-1.95,411,242,390,462,348,25
1265,-0.21,-0.94,0.24,0.31,-4.94,-3.23,409,246,390,461,349,25
1266,-0.19,-0.94,0.24,1.04,-3.3,-4.82,412,244,393,464,351,25
1267,-0.18,-0.94,0.25,3.97,-6.23,-2.87,410,241,389,462,347,25
1268,-0.19,-0.94,0.26,2.2,-3.72,0.06,408,240,390,457,349,25
1269,-0.2,-0.94,0.27,0.55,-2.99,-2.38,411,245,385,460,349,25
1270,-0.19,-0.95,0.27,0.06,-3.91,-2.81,406,246,390,466,350,25
1271,-0.2,-0.94,0.26,-0.43,-1.46,-3.17,439,247,387,464,349,25
1272,-0.21,-0.95,0.26,0.12,-3.11,-2.87,411,245,393,462,351,25
1273,-0.2,-0.94,0.22,0.12,-2.08,-2.81,414,245,387,462,351,25
1274,-0.21,-0.93,0.26,-1.77,-3.85,-3.78,409,242,393,457,349,25
1275,-0.2,-0.94,0.25,-0.49,-1.1,-3.66,413,244,394,461,348,25
1276,-0.19,-0.94,0.25,0.31,-3.48,-2.44,408,246,390,465,346,25
1277,-0.21,-0.94,0.25,1.4,-3.3,-2.01,409,242,392,465,351,25
1278,-0.21,-0.94,0.25,-0.43,-1.95,-2.38,408,245,390,462,349,25
1279,-0.23,-0.93,0.27,-1.16,-3.6,-2.62,409,245,393,460,346,25
1280,-0.21,-0.95,0.25,-1.28,-3.78,-2.56,405,246,396,457,351,25
1281,-0.22,-0.93,0.25,-0.61,-2.08,-3.23,408,247,390,462,348,25
1282,-0.22,-0.94,0.25,0.49,-3.66,-2.38,408,244,390,465,349,25
1283,-0.21,-0.94,0.26,-0.18,-2.01,-3.6,408,245,390,462,347,25
1284,-0.21,-0.94,0.26,1.22,-2.75,-3.23,409,244,392,462,344,25
1285,-0.21,-0.94,0.26,0.06,-2.62,-2.87,409,248,388,461,350,25
1286,-0.22,-0.94,0.26,-0.37,-2.5,-2.38,411,245,398,466,347,25
1287,-0.22,-0.94,0.26,0.24,-2.75,-2.01,429,245,389,463,350,25
1288,-0.22,-0.94,0.25,0.24,-3.11,-2.14,408,245,387,462,348,25
1289,-0.22,-0.94,0.26,0.49,-2.56,-2.38,401,248,391,461,347,25
1290,-0.22,-0.95,0.27,2.69,-4.76,-3.97,409,252,389,463,349,25
1291,-0.23,-0.93,0.28,-2.69,-2.5,-1.89,408,246,390,470,349,25
1292,-0.22,-0.94,0.29,-0.18,-5.68,-0.85,402,248,395,457,350,25
1293,-0.23,-0.94,0.28,0.55,-2.99,-0.24,410,243,386,463,347,25
1294,-0.22,-0.93,0.29,1.89,-1.28,-2.26,407,244,391,479,347,25
1295,-0.23,-0.93,0.28,-1.83,-3.11,-2.87,411,244,386,462,348,25
1296,-0.22,-0.93,0.25,-0.98,-2.14,-2.69,414,244,388,463,346,25
1297,-0.23,-0.93,0.25,-0.92,-2.87,-2.75,408,244,392,466,348,25
1298,-0.22,-0.94,0.24,0.43,-3.6,-2.32,409,249,390,459,349,25
1299,-0.22,-0.93,0.25,0.92,-4.03,-2.56,408,248,389,466,350,25
1300,-0.23,-0.94,0.26,1.65,-3.78,-3.23,410,246,387,462,347,25
1301,-0.22,-0.94,0.27,-0.37,-1.71,-3.17,408,246,392,458,348,25
1302,-0.22,-0.94,0.25,0.85,-1.65,-2.56,408,248,392,462,347,25
1303,-0.21,-0.92,0.25,-1.65,-2.93,-1.53,409,249,386,462,346,25
1304,-0.23,-0.95,0.28,1.28,-3.11,-0.67,406,245,389,459,349,25
1305,-0.22,-0.93,0.25,-0.85,-2.08,-2.87,410,248,390,458,348,25
1306,-0.23,-0.95,0.24,-0.06,-3.17,-1.83,409,249,391,463,350,25
1307,-0.23,-0.94,0.24,0.98,-3.11,-2.38,409,246,389,461,357,25
1308,-0.23,-0.94,0.24,1.83,-3.17,-2.87,409,250,389,466,346,25
1309,-0.22,-0.94,0.25,1.22,-3.17,-3.66,406,247,398,462,350,25
1310,-0.23,-0.94,0.26,0.37,-2.2,-2.2,411,250,393,465,349,25
1311,-0.23,-0.94,0.25,-1.1,-1.95,-2.69,410,247,388,463,340,25
1312,-0.2,-0.94,0.23,-2.62,0.24,-4.52,409,245,385,466,349,25
1313,-0.21,-0.94,0.23,0.67,-2.56,-2.62,409,246,392,462,349,25
1314,-0.21,-0.94,0.27,1.95,-8.79,-2.2,410,248,387,462,349,25
1315,-0.19,-0.95,0.25,0.49,-6.41,-4.58,408,247,389,467,348,25
1316,-0.17,-0.95,0.24,0.49,-0.67,-2.32,410,245,386,462,349,25
1317,-0.17,-0.95,0.22,-2.08,-2.01,-3.91,409,247,390,466,348,25
1318,-0.18,-0.96,0.2,-3.66,-0.73,-5.8,406,247,393,463,349,25
1319,-0.17,-0.97,0.23,-1.16,-1.71,-2.62,408,249,392,457,351,25
1320,-0.18,-0.96,0.23,1.1,-2.93,-2.93,408,248,386,458,349,25
1321,-0.19,-0.96,0.23,0.24,-2.14,-3.11,409,258,387,458,347,25
1322,-0.17,-0.96,0.22,0.61,-2.87,-2.08,408,250,385,458,345,25
1323,-0.17,-0.96,0.2,0.0,-1.71,-2.44,406,253,388,467,350,25
1324,-0.18,-0.96,0.21,0.92,-2.75,-2.01,408,250,388,466,348,25
1325,-0.17,-0.97,0.21,-0.18,-4.64,-1.65,410,249,388,467,348,25
1326,-0.16,-0.96,0.21,-1.65,-5.49,-2.08,408,249,392,458,346,25
1327,-0.16,-0.96,0.18,-2.32,-3.17,-4.09,405,249,392,461,351,25
1328,-0.17,-0.96,0.19,1.4,-2.99,-4.03,413,249,388,463,349,25
1329,-0.17,-0.96,0.19,-0.49,-2.32,-2.56,408,250,390,462,351,25
1330,-0.17,-0.96,0.19,-2.01,-3.11,-3.72,408,254,390,462,349,25
1331,-0.15,-0.98,0.15,-1.83,-0.67,-3.42,408,252,391,463,349,25
1332,-0.15,-0.97,0.17,-1.34,0.31,-5.07,408,250,390,461,347,25
1333,-0.15,-0.97,0.17,1.16,-4.09,-0.61,409,251,391,464,349,25
1334,-0.15,-0.95,0.19,0.43,-0.31,-2.01,407,251,389,461,346,25
1335,-0.17,-0.97,0.19,2.81,-5.68,-0.24,407,247,391,463,347,25
1336,-0.16,-0.97,0.18,-0.55,-3.17,-2.44,400,252,390,466,349,25
1337,-0.17,-0.96,0.18,0.85,-2.08,-1.4,404,251,387,461,347,25
1338,-0.17,-0.97,0.18,-0.37,-2.5,-2.01,408,249,386,462,350,25
1339,-0.18,-0.96,0.18,-0.24,-2.44,-3.11,407,250,386,462,351,25
1340,-0.17,-0.97,0.18,-0.67,-2.99,-3.05,409,247,387,464,348,25
1341,-0.18,-0.96,0.18,0.18,-3.6,-1.89,404,249,388,463,349,25
1342,-0.18,-0.96,0.18,0.12,-3.05,-2.81,406,252,385,467,348,25
1343,-0.17,-0.96,0.18,1.1,-2.38,-2.62,408,252,387,463,350,25
1344,-0.17,-0.96,0.18,-0.06,-2.81,-3.72,405,249,386,460,348,25
1345,-0.17,-0.96,0.2,-0.24,-1.95,-2.14,409,253,387,464,351,25
1346,-0.18,-0.96,0.19,0.49,-2.81,-2.26,419,252,387,463,350,25
1347,-0.19,-0.96,0.17,0.43,-2.93,-1.95,409,251,386,462,350,25
1348,-0.19,-0.97,0.19,0.49,-2.81,-1.28,425,248,387,463,348,25
1349,-0.19,-0.96,0.17,1.95,-2.81,-2.93,406,245,390,463,348,25
1350,-0.18,-0.95,0.2,2.08,-3.05,-2.2,408,251,392,463,349,25
1351,-0.19,-0.96,0.22,0.79,-2.93,-1.65,407,251,385,463,349,25
1352,-0.19,-0.95,0.2,0.49,-3.05,-2.2,405,252,384,462,347,25
1353,-0.19,-0.95,0.22,-2.81,-4.15,-4.39,409,252,384,465,350,25
1354,-0.18,-0.96,0.17,-5.62,-5.13,-5.31,407,252,386,462,349,25
1355,-0.17,-0.97,0.16,-2.26,-1.59,-1.89,404,248,388,466,353,25
1356,-0.17,-0.97,0.19,0.24,-2.56,-1.83,409,253,385,469,357,25
1357,-0.18,-0.96,0.17,1.4,-3.05,-1.22,410,253,387,459,350,25
1358,-0.18,-0.97,0.17,0.0,-3.11,-2.56,408,253,387,466,351,25
1359,-0.18,-0.97,0.17,0.98,-3.48,-2.2,405,252,386,462,358,25
1360,-0.18,-0.96,0.18,0.18,-3.17,-2.44,407,250,386,465,349,25
1361,-0.19,-0.97,0.19,1.28,-2.69,-2.2,410,248,388,463,349,25
1362,-0.16,-0.97,0.16,0.18,-3.48,-2.87,409,252,386,462,352,25
1363,-0.18,-0.97,0.17,0.37,-3.97,-2.14,410,250,383,461,349,25
1364,-0.17,-0.96,0.17,0.0,-2.62,-2.75,404,255,383,465,346,25
1365,-0.18,-0.96,0.16,0.31,-2.62,-2.81,405,250,392,466,351,25
1366,-0.17,-0.97,0.17,1.16,-2.81,-2.81,407,250,386,463,350,25
1367,-0.17,-0.94,0.16,-1.1,-3.05,-3.72,409,254,387,458,350,25
1368,-0.17,-0.97,0.16,1.83,-1.59,-1.65,407,250,389,467,350,25
1369,-0.18,-0.97,0.17,0.0,-1.53,-2.75,406,251,387,463,347,25
1370,-0.18,-0.97,0.16,-1.65,-2.08,-3.17,407,250,386,463,346,25
1371,-0.18,-0.97,0.14,2.38,-6.04,-2.01,409,248,386,462,350,25
1372,-0.18,-0.97,0.14,1.28,-3.6,-2.14,435,252,387,465,350,25
1373,-0.16,-0.97,0.14,0.98,-3.91,-2.2,417,249,387,460,343,25
1374,-0.17,-0.97,0.16,1.46,-2.87,-3.17,407,250,386,462,348,25
1375,-0.17,-0.97,0.15,0.67,-2.93,-2.87,410,247,386,463,348,25
1376,-0.17,-0.97,0.15,-0.12,-3.17,-2.75,426,249,385,464,348,25
1377,-0.17,-0.96,0.15,-0.18,-2.01,-2.81,408,250,387,463,348,25
1378,-0.18,-0.97,0.14,-0.49,-2.75,-2.62,409,250,386,465,348,25
1379,-0.17,-0.97,0.14,0.98,-2.93,-2.01,408,250,386,463,348,25
1380,-0.16,-0.96,0.14,0.06,-3.05,-2.56,407,250,387,463,347,25
1381,-0.16,-0.97,0.14,0.43,-2.93,-3.23,405,250,386,461,350,25
1382,-0.17,-0.97,0.14,0.37,-3.11,-3.11,408,250,391,458,349,25
1383,-0.17,-0.97,0.15,0.73,-3.42,-2.56,405,252,385,460,349,25
1384,-0.17,-0.97,0.16,-0.55,-2.44,-2.38,416,253,388,467,351,25
1385,-0.18,-0.94,0.16,-1.77,-2.62,-3.36,408,248,386,462,351,25
1386,-0.19,-0.97,0.15,-0.85,-3.42,-2.32,408,252,389,462,351,25
1387,-0.17,-0.96,0.15,-1.34,-1.71,-3.85,405,251,383,458,347,25
1388,-0.17,-0.97,0.14,0.0,-2.93,-2.56,408,251,386,461,349,25
1389,-0.17,-0.96,0.14,1.22,-3.54,-2.81,406,250,387,458,346,25
1390,-0.18,-0.97,0.15,0.73,-3.3,-2.93,409,250,390,462,348,25
1391,-0.18,-0.97,0.15,-0.37,-2.87,-2.44,408,252,387,458,345,25
1392,-0.17,-0.97,0.15,0.0,-2.69,-2.38,408,251,385,462,356,25
1393,-0.18,-0.97,0.15,0.73,-2.38,-2.44,410,254,387,466,345,25
1394,-0.18,-0.97,0.14,0.55,-2.69,-2.01,426,254,386,469,346,25
1395,-0.17,-0.97,0.15,-0.67,-1.53,-2.62,409,251,387,461,349,25
1396,-0.18,-0.97,0.15,0.61,-3.11,-2.32,406,250,388,467,351,25
1397,-0.18,-0.97,0.14,1.16,-3.3,-3.17,404,250,386,461,350,25
1398,-0.18,-0.97,0.15,2.99,-4.09,-2.32,407,248,385,464,347,25
1399,-0.17,-0.98,0.16,3.11,-3.48,-2.38,409,254,395,460,349,25
1400,-0.16,-0.96,0.16,-0.55,-2.56,-2.62,411,260,387,463,349,25
1401,-0.18,-0.97,0.16,-0.98,-2.56,-2.81,408,252,385,466,347,25
1402,-0.19,-0.96,0.16,-0.92,-2.2,-3.23,407,252,385,459,349,25
1403,-0.19,-0.97,0.16,0.43,-3.54,-2.38,405,249,397,468,350,25
1404,-0.18,-0.97,0.15,-0.79,-2.14,-3.36,409,250,383,460,350,25
1405,-0.18,-0.97,0.15,1.16,-3.11,-2.93,409,252,388,465,350,25
1406,-0.18,-0.96,0.16,0.61,-3.11,-3.17,410,249,383,462,347,25
1407,-0.17,-0.97,0.16,0.31,-3.78,-2.26,409,251,389,461,341,25
1408,-0.18,-0.97,0.16,-4.76,-0.67,-3.23,408,252,386,458,348,25
1409,-0.17,-0.97,0.14,-0.06,-2.08,-2.38,406,248,387,464,349,25
1410,-0.17,-0.97,0.15,0.12,-2.26,-5.0,408,253,382,459,352,25
1411,-0.15,-0.97,0.14,-0.73,-2.26,-2.26,409,254,388,466,346,25
1412,-0.17,-0.97,0.15,2.14,-1.65,-0.37,407,249,385,466,349,25
1413,-0.18,-0.97,0.14,0.61,-4.21,-2.38,431,254,385,467,350,25
1414,-0.14,-0.96,0.16,4.64,-3.97,-3.23,407,253,383,464,349,25
1415,-0.17,-0.97,0.12,-2.69,-0.73,-4.88,408,251,388,475,349,25
1416,-0.16,-0.98,0.15,0.37,-3.11,-2.2,410,250,380,466,349,25
1417,-0.17,-0.98,0.13,-1.95,-1.04,-2.69,408,251,384,464,350,25
1418,-0.17,-0.98,0.13,2.08,-0.43,-3.36,411,253,386,459,352,25
1419,-0.17,-0.97,0.16,2.44,-2.08,-1.22,410,249,388,462,347,25
1420,-0.18,-0.96,0.16,11.96,-7.2,-1.28,411,249,387,466,346,25
1421,-0.17,-0.96,0.22,-1.16,-2.01,0.43,407,253,383,461,345,25
1422,-0.17,-0.96,0.17,1.46,-3.6,-2.93,410,251,389,462,349,25
1423,-0.18,-0.96,0.19,1.28,-3.66,-1.46,407,250,387,467,347,25
1424,-0.16,-0.93,0.22,-0.06,-3.3,2.5,407,248,387,466,349,25
1425,-0.22,-0.96,0.17,-7.69,-5.37,2.75,412,251,388,459,348,25
1426,-0.23,-0.97,0.18,2.5,-5.19,-2.2,412,251,382,463,347,25
1427,-0.19,-0.96,0.2,0.0,-2.93,-4.03,411,246,385,460,349,25
1428,-0.19,-0.96,0.2,1.4,-3.23,-2.26,413,252,382,464,338,25
1429,-0.19,-0.96,0.18,0.92,-3.11,-2.26,411,250,382,463,349,25
1430,-0.2,-0.96,0.18,0.12,-2.87,-1.71,411,249,385,463,349,25
1431,-0.2,-0.96,0.18,0.06,-3.05,-1.65,412,251,388,467,341,25
1432,-0.19,-0.96,0.17,1.89,-4.21,-3.36,412,254,384,470,347,25
1433,-0.19,-0.96,0.17,-1.89,-2.62,-3.66,408,250,386,465,350,25
1434,-0.19,-0.96,0.2,-2.62,-0.24,-4.27,411,252,388,458,344,25
1435,-0.19,-0.96,0.22,-0.85,-2.44,-4.15,411,252,385,464,348,25
1436,-0.19,-0.96,0.17,0.79,-2.87,-2.69,413,254,389,466,348,25
1437,-0.19,-0.96,0.18,-1.89,-2.87,-3.11,414,253,389,462,348,25
1438,-0.18,-0.96,0.16,0.31,-2.44,-4.03,412,251,384,459,346,25
1439,-0.18,-0.96,0.18,0.67,-2.75,-2.38,418,251,384,462,350,25
1440,-0.18,-0.97,0.17,-0.06,-2.62,-2.2,410,253,387,458,351,25
1441,-0.19,-0.96,0.18,-1.16,-2.01,-2.81,414,254,388,464,350,25
1442,-0.19,-0.96,0.16,2.75,-5.07,-2.2,412,256,385,463,351,25
1443,-0.19,-0.96,0.16,0.49,-3.3,-2.38,412,250,396,464,351,25
1444,-0.19,-0.96,0.18,2.44,-3.3,-3.36,409,252,386,463,348,25
1445,-0.18,-0.96,0.18,4.03,-3.42,-2.38,413,254,385,459,347,25
1446,-0.18,-0.96,0.17,3.91,-3.85,-4.03,411,255,380,467,348,25
1447,-0.17,-0.96,0.2,-4.7,-1.65,-1.22,409,252,385,464,348,25
1448,-0.19,-0.96,0.16,0.37,-1.83,-3.36,418,252,384,466,349,25
1449,-0.17,-0.96,0.16,-0.24,-2.56,-3.11,414,254,387,474,350,25
1450,-0.19,-0.97,0.16,0.43,-3.11,-2.32,413,249,385,461,352,25
1451,-0.19,-0.96,0.16,0.12,-2.69,-3.23,412,254,381,463,350,25
1452,-0.18,-0.97,0.16,0.12,-3.42,-2.5,411,251,385,467,350,25
1453,-0.2,-0.96,0.16,0.12,-2.56,-2.5,411,259,385,462,348,25
1454,-0.18,-0.96,0.16,0.79,-3.78,-2.26,411,256,384,463,349,25
1455,-0.19,-0.96,0.16,-0.37,-3.3,-2.2,412,253,385,463,349,25
1456,-0.19,-0.96,0.16,-0.18,-2.56,-2.69,412,255,384,466,347,25
1457,-0.19,-0.96,0.17,1.22,-3.72,-3.17,411,252,381,466,348,25
1458,-0.18,-0.97,0.19,-1.53,-1.89,-3.23,413,254,385,462,349,25
1459,-0.2,-0.97,0.14,-2.32,-1.83,-2.87,412,255,383,464,348,25
1460,-0.18,-0.97,0.16,-0.43,-1.95,-3.42,413,255,384,463,351,25
1461,-0.19,-0.96,0.17,-0.92,-2.26,-2.26,412,255,387,467,349,25
1462,-0.19,-0.97,0.15,0.24,-3.17,-1.71,439,252,389,458,346,25
1463,-0.18,-0.96,0.16,0.37,-3.11,-2.69,409,252,386,464,350,25
1464,-0.19,-0.96,0.16,2.26,-3.66,-3.54,410,250,382,464,345,25
1465,-0.18,-0.96,0.17,1.77,-2.26,-3.05,413,252,387,465,347,25
1466,-0.19,-0.96,0.16,0.06,-3.11,-2.26,412,256,382,466,346,25
1467,-0.19,-0.96,0.16,1.1,-2.56,-2.93,411,251,383,464,347,25
1468,-0.18,-0.97,0.14,1.53,-4.15,-2.44,409,252,387,461,347,25
1469,-0.17,-0.97,0.21,-0.92,-3.6,-1.83,414,249,383,463,348,25
1470,-0.21,-0.97,0.15,0.43,-3.97,-0.98,412,254,390,462,348,25
1471,-0.18,-0.97,0.16,-0.61,-1.95,-1.71,412,252,386,468,349,25
1472,-0.19,-0.96,0.16,0.0,-3.05,-2.14,409,257,384,462,346,25
1473,-0.19,-0.97,0.16,-0.37,-2.5,-2.75,411,255,381,462,349,25
1474,-0.19,-0.96,0.16,0.06,-2.69,-3.36,411,255,385,467,345,25
1475,-0.2,-0.97,0.18,0.85,-3.17,-2.69,412,252,387,464,350,25
1476,-0.2,-0.96,0.18,0.18,-2.62,-1.95,412,252,387,462,348,25
1477,-0.18,-0.97,0.2,3.05,-3.23,-1.28,414,255,387,461,352,25
1478,-0.19,-0.96,0.16,1.71,-2.99,-3.05,413,258,384,465,347,25
1479,-0.2,-0.97,0.17,1.83,-3.3,-1.46,412,252,380,466,347,25
1480,-0.19,-0.97,0.16,1.1,-2.75,-3.23,410,253,384,462,348,25
1481,-0.2,-0.97,0.18,2.26,-3.11,-2.32,412,252,385,466,348,25
1482,-0.2,-0.96,0.16,0.18,-2.87,-2.62,413,255,385,465,349,25
1483,-0.2,-0.96,0.16,0.73,-3.05,-1.89,411,254,383,463,350,25
1484,-0.19,-0.95,0.11,-2.69,-3.3,-3.66,414,252,388,463,346,25
1485,-0.18,-0.96,0.14,-2.87,-1.59,-2.14,436,251,386,467,349,25
1486,-0.2,-0.96,0.15,0.24,-2.2,-3.05,412,250,382,467,349,25
1487,-0.19,-0.96,0.14,-1.89,-2.26,-1.89,410,251,388,458,346,25
1488,-0.2,-0.96,0.14,1.95,-2.81,-2.62,412,252,383,465,349,25
1489,-0.2,-0.96,0.13,0.43,-3.48,-2.5,411,253,386,464,348,25
1490,-0.21,-0.97,0.16,0.43,-2.69,-2.93,406,249,382,463,351,25
1491,-0.2,-0.97,0.15,0.24,-2.81,-3.72,413,255,387,463,350,25
1492,-0.2,-0.97,0.17,0.92,-1.83,-2.14,412,252,384,463,348,25
1493,-0.21,-0.97,0.15,-1.22,-2.38,-2.69,412,254,384,467,348,25
1494,-0.2,-0.97,0.14,-1.65,-2.08,-2.5,412,253,384,467,346,25
1495,-0.19,-0.97,0.15,-1.28,-2.56,-2.75,410,255,384,458,351,25
1496,-0.2,-0.97,0.15,0.43,-2.87,-2.81,412,255,373,459,349,25
1497,-0.19,-0.96,0.14,-0.49,-2.26,-2.44,411,253,387,465,350,25
1498,-0.19,-0.97,0.15,0.61,-2.14,-2.81,410,255,385,463,349,25
1499,-0.2,-0.97,0.14,-0.67,-2.87,-2.62,408,256,384,465,349,25
1500,-0.2,-0.96,0.14,-0.06,-3.11,-2.44,410,253,384,468,345,25
1501,-0.19,-0.97,0.15,0.37,-3.23,-2.62,406,253,384,462,347,25
1502,-0.21,-0.97,0.16,0.0,-2.81,-3.3,412,254,383,459,349,25
1503,-0.21,-0.98,0.17,3.3,-3.36,-2.32,411,253,381,466,349,25
1504,-0.19,-0.96,0.1,-1.95,-0.79,-6.04,410,254,384,465,349,25
1505,-0.17,-0.98,0.14,4.46,-1.71,-2.75,449,254,383,469,346,25
1506,-0.16,-0.97,0.12,-2.44,-2.99,-1.71,412,256,385,463,350,25
1507,-0.17,-0.97,0.11,0.73,-2.93,-3.05,412,257,381,468,350,25
1508,-0.17,-0.97,0.12,-0.06,-2.01,-2.38,412,254,384,462,346,25
1509,-0.18,-0.96,0.12,-0.49,-2.75,-3.05,411,258,380,460,347,25
1510,-0.18,-0.98,0.12,0.0,-3.05,-3.05,410,252,382,464,348,25
1511,-0.18,-0.97,0.13,0.31,-2.93,-3.6,408,256,390,469,346,25
1512,-0.17,-0.96,0.14,-0.43,-2.87,-2.87,413,255,387,462,350,25
1513,-0.17,-0.98,0.14,-0.92,-1.89,-2.69,410,253,386,463,351,25
1514,-0.18,-0.97,0.13,0.12,-2.32,-2.38,407,257,384,463,351,25
1515,-0.38,-0.9,0.07,27.28,30.94,-13.67,434,262,444,466,353,25
1516,-0.22,-0.97,0.1,-21.48,-3.91,-10.38,436,264,445,467,350,25
1517,-0.27,-1.01,0.04,6.04,-13.18,-4.33,439,265,446,468,354,25
1518,-0.24,-0.94,0.03,-8.73,-9.22,-2.2,435,265,444,465,353,25
1519,-0.26,-0.99,-0.02,4.7,-4.88,-0.24,439,265,442,460,353,25
1520,-0.32,-0.91,-0.02,-6.16,-10.8,-0.67,438,264,449,460,355,25
1521,-0.31,-0.93,-0.07,7.75,26.67,-13.92,436,265,449,461,352,25
1522,-0.2,-0.95,-0.09,-1.34,-10.13,1.77,436,268,447,464,355,25
1523,-0.14,-0.99,-0.07,2.69,-8.85,-0.85,438,266,449,463,356,25
1524,-0.32,-1.03,-0.06,-9.83,35.95,-11.54,437,263,448,469,356,25
1525,-0.17,-0.98,-0.12,-6.1,-5.98,-7.93,430,269,446,459,357,25
1526,-0.16,-0.99,-0.12,2.99,-3.17,1.46,426,268,445,463,358,25
1527,-0.15,-0.94,-0.12,5.43,-6.77,-1.16,434,267,445,468,355,25
1528,-0.16,-0.98,-0.1,-3.23,-2.01,-3.72,434,267,445,458,357,25
1529,-0.16,-0.98,-0.1,-0.49,-2.01,-2.99,434,267,447,479,352,25
1530,-0.15,-0.97,-0.12,1.77,-2.87,-2.01,436,266,445,463,356,25
1531,-0.18,-0.96,-0.1,11.72,-14.34,0.18,435,264,446,468,349,25
1532,-0.17,-0.96,-0.06,-1.53,-3.85,-0.85,426,265,442,457,354,25
1533,-0.18,-0.98,-0.07,-2.56,-1.83,-3.42,431,269,444,460,354,25
1534,-0.17,-0.99,-0.07,-0.85,-3.05,-4.58,434,270,444,468,355,25
1535,-0.16,-0.98,-0.08,0.73,-1.65,-2.99,436,269,445,467,357,25
1536,-0.15,-0.97,-0.1,0.92,-2.93,-2.2,437,268,440,463,355,25
1537,-0.17,-0.99,-0.06,-1.1,-3.11,-1.53,439,269,443,464,355,25
1538,-0.15,-0.98,-0.12,1.46,-2.87,-2.14,437,273,444,464,351,25
1539,-0.15,-0.98,-0.1,0.24,-2.5,-2.01,437,270,440,463,357,25
1540,-0.15,-0.98,-0.12,0.0,-1.34,-2.26,437,273,445,465,357,25
1541,-0.16,-0.98,-0.1,-2.44,-2.93,-2.99,441,272,443,464,357,25
1542,-0.15,-0.97,-0.13,-0.55,-2.99,-2.5,441,271,444,467,357,25
1543,-0.16,-0.96,-0.12,-0.55,-2.01,-2.87,439,272,442,458,355,25
1544,-0.16,-0.96,-0.13,-1.4,-1.77,-1.89,439,272,439,463,360,25
1545,-0.16,-0.99,-0.11,-2.99,-2.93,-3.05,439,275,443,460,359,25
1546,-0.17,-0.97,-0.15,-0.43,-1.1,-1.95,439,273,441,465,359,25
1547,-0.17,-0.99,-0.11,0.79,-1.95,-2.26,439,276,441,462,355,25
1548,-0.14,-0.97,-0.15,1.46,-1.83,-2.5,479,271,442,465,359,25
1549,-0.13,-0.99,-0.13,2.32,-0.12,-2.32,441,270,442,469,360,25
1550,-0.18,-0.94,-0.11,13.37,11.17,5.98,443,273,441,464,357,25
1551,-0.15,-1.0,-0.11,2.69,-4.39,-0.31,440,271,443,467,355,25
1552,-0.17,-1.0,-0.08,-5.92,-8.12,-0.98,438,273,445,465,360,25
1553,-0.17,-0.96,-0.13,1.89,-2.26,-1.65,465,274,443,460,358,25
1554,-0.17,-0.97,-0.11,-1.46,-2.62,-3.17,439,273,438,462,360,25
1555,-0.17,-0.98,-0.1,0.73,-2.93,-0.67,441,272,444,463,359,25
1556,-0.18,-0.97,-0.1,-1.71,-2.62,-2.75,440,275,442,457,361,25
1557,-0.18,-0.98,-0.12,0.06,-3.54,-1.95,438,274,441,458,358,25
1558,-0.17,-0.98,-0.11,0.67,-2.2,-0.79,440,273,445,464,358,25
1559,-0.2,-0.97,-0.08,1.59,-3.91,-3.05,438,277,442,463,358,25
1560,-0.17,-0.99,-0.09,4.03,-1.71,-1.46,440,273,442,465,358,25
1561,-0.17,-0.95,-0.1,1.46,-3.42,-0.24,440,275,437,468,357,25
1562,-0.23,-0.95,-0.1,3.48,-5.49,-1.95,439,277,441,457,359,25
1563,-0.19,-0.98,-0.09,-0.79,-2.62,-0.37,434,287,437,465,360,25
1564,-0.2,-0.97,-0.08,0.0,-3.6,-3.23,435,274,437,462,358,25
1565,-0.2,-0.95,-0.11,1.53,-1.95,-5.98,436,273,441,461,360,25
1566,-0.18,-0.98,-0.1,1.1,-5.25,0.37,435,274,438,459,359,25
1567,-0.19,-0.97,-0.09,0.18,-1.46,-3.48,435,282,439,463,358,25
1568,-0.17,-0.97,-0.09,0.85,-3.6,-1.83,435,275,438,464,359,25
1569,-0.21,-0.97,-0.1,0.85,-2.81,-3.54,433,277,438,464,355,25
1570,-0.2,-0.98,-0.08,0.12,-5.37,-4.39,430,275,439,456,360,25
1571,-0.17,-0.98,-0.08,0.18,1.83,-4.46,434,275,442,465,357,25
1572,-0.16,-0.98,-0.08,2.75,-2.08,-1.1,434,274,436,461,360,25
1573,-0.15,-0.98,-0.08,1.28,-2.81,-2.08,434,274,436,464,358,25
1574,-0.18,-0.98,-0.06,-1.22,-5.31,-0.67,433,277,439,465,360,25
1575,-0.17,-0.98,-0.07,0.67,-4.52,-4.82,433,275,437,462,360,25
1576,-0.17,-0.98,-0.08,1.16,-3.23,-2.87,436,277,438,464,360,25
1577,-0.16,-0.99,-0.04,0.18,-3.42,-3.17,430,277,436,457,362,25
1578,-0.18,-0.98,-0.07,1.53,-4.88,-0.79,432,276,435,462,362,25
1579,-0.16,-0.96,-0.1,-0.55,-3.97,-3.78,436,276,438,463,356,25
1580,-0.18,-0.98,-0.07,-2.87,-5.31,-1.83,433,278,433,465,359,25
1581,-0.17,-0.98,-0.07,-0.85,-1.59,-2.93,435,276,433,462,360,25
1582,-0.17,-0.97,-0.06,-3.11,-2.01,-4.39,434,287,435,461,360,25
1583,-0.17,-0.96,-0.09,-1.83,-0.92,-2.93,432,277,435,461,360,25
1584,-0.14,-1.0,-0.11,-3.48,-3.36,-2.5,432,277,437,463,360,25
1585,-0.26,-0.81,-0.32,-46.2,-15.44,4.09,431,275,437,461,359,25
1586,-0.21,-0.94,-0.27,14.47,9.77,0.79,433,278,434,461,357,25
1587,-0.2,-0.94,-0.26,7.14,2.69,1.1,421,276,439,466,362,25
1588,-0.23,-0.94,-0.24,2.08,-1.95,-1.22,428,278,437,461,358,25
1589,-0.23,-0.95,-0.23,4.39,-3.11,-3.91,428,274,434,461,361,25
1590,-0.21,-0.94,-0.25,-2.44,-1.1,-3.72,428,279,434,463,359,25
1591,-0.23,-0.95,-0.2,-2.08,-2.62,0.18,430,278,445,458,361,25
1592,-0.19,-0.94,-0.25,2.32,-3.48,-6.96,430,277,434,461,359,25
1593,-0.23,-0.96,-0.19,1.4,6.71,-5.25,430,278,436,461,361,25
1594,-0.21,-0.93,-0.25,4.09,-0.55,-2.87,427,280,434,461,361,25
1595,-0.2,-0.93,-0.23,0.85,-2.14,-2.44,433,283,433,460,360,25
1596,-0.23,-0.94,-0.2,-0.12,-4.03,-1.1,430,278,433,460,362,25
1597,-0.23,-0.96,-0.18,1.65,-3.17,-4.21,430,281,435,460,362,25
1598,-0.21,-0.96,-0.19,0.61,-1.89,-2.38,432,282,434,459,358,25
1599,-0.22,-0.94,-0.22,1.28,-0.37,-1.89,431,282,436,464,360,25
1600,-0.22,-0.96,-0.18,-1.04,-1.04,-2.08,429,280,432,461,358,25
1601,-0.23,-0.95,-0.19,3.6,0.61,-4.03,429,277,431,465,366,25
1602,-0.21,-0.96,-0.2,-0.73,-6.29,-5.8,427,282,434,460,360,25
1603,-0.19,-0.94,-0.21,3.11,-5.19,0.49,428,278,430,459,361,25
1604,-0.21,-0.95,-0.21,0.61,2.93,-1.65,429,278,431,463,356,25
1605,-0.22,-0.96,-0.21,-1.16,-1.83,-3.05,431,279,431,460,358,25
1606,-0.22,-0.92,-0.22,-0.79,-1.59,-2.32,429,277,432,461,360,25
1607,-0.18,-0.93,-0.26,0.06,1.22,-2.01,425,279,433,462,357,25
1608,-0.2,-0.94,-0.24,0.79,-3.78,1.89,422,281,434,460,357,25
1609,-0.22,-0.97,-0.19,0.37,-2.2,-3.54,428,283,429,459,358,25
1610,-0.21,-0.94,-0.23,-1.1,-1.95,-2.32,425,275,431,461,359,25
1611,-0.18,-0.96,-0.21,-1.22,-5.55,-1.77,426,280,428,454,359,25
1612,-0.18,-0.92,-0.24,-5.62,-5.86,-4.27,427,279,431,460,356,25
1613,-0.2,-0.93,-0.26,0.06,-3.05,-0.24,422,278,426,461,359,25
1614,-0.2,-0.95,-0.24,3.85,1.16,-1.89,419,278,427,459,361,25
1615,-0.23,-0.94,-0.22,0.37,0.37,-1.83,423,276,430,454,355,25
1616,-0.2,-0.92,-0.25,-8.24,-1.46,1.46,423,276,423,453,360,25
1617,-0.22,-0.94,-0.25,-0.98,-4.15,-2.81,425,280,425,453,359,25
1618,-0.25,-0.93,-0.23,1.77,0.73,-3.66,425,278,425,458,359,25
1619,-0.25,-0.94,-0.25,-0.61,-0.73,-4.76,423,278,426,455,357,25
1620,-0.21,-0.95,-0.25,2.08,-4.88,-2.14,423,281,427,456,359,25
1621,-0.22,-0.93,-0.23,1.1,-3.6,-3.66,423,281,424,458,358,25
1622,-0.25,-0.92,-0.25,-3.85,0.43,-0.55,422,277,425,460,360,25
1623,-0.2,-0.96,-0.22,0.61,1.46,-3.11,423,280,429,462,358,25
1624,-0.23,-0.91,-0.25,6.53,-4.33,-0.43,448,278,430,464,357,25
1625,-0.24,-0.9,-0.21,-1.16,-5.86,-0.24,428,278,430,465,362,25
1626,-0.25,-0.93,-0.23,11.41,-6.65,2.14,425,279,436,460,362,25
1627,-0.29,-0.99,-0.07,15.75,-6.41,-4.52,428,277,434,462,364,25
1628,-0.27,-0.97,-0.04,-0.55,-1.59,-3.78,425,277,434,464,364,25
1629,-0.25,-0.95,-0.1,4.21,-5.8,-6.84,428,276,435,460,362,25
1630,-0.2,-0.93,-0.09,10.31,5.25,-15.32,429,280,436,457,366,25
1631,-0.15,-0.99,-0.03,5.98,-1.95,-6.04,425,284,433,463,364,25
1632,-0.15,-0.97,-0.02,-1.83,-5.8,-2.87,425,280,433,464,364,25
1633,-0.15,-0.96,-0.03,-1.46,-3.97,-4.27,424,279,430,462,364,25
1634,-0.15,-0.98,-0.01,-1.22,-2.38,0.73,419,280,433,465,363,25
1635,-0.16,-0.99,0.0,-9.58,-9.03,3.23,419,279,430,464,362,25
1636,-0.2,-0.98,-0.11,-3.72,-5.74,-0.49,419,280,433,460,364,25
1637,-0.2,-0.97,-0.1,1.89,-7.45,-3.3,420,284,435,454,364,25
1638,-0.2,-0.97,-0.08,-1.4,-5.49,-3.54,423,280,435,460,364,25
1639,-0.19,-0.98,-0.08,-1.4,-4.09,-3.48,426,284,431,459,365,25
1640,-0.17,-0.97,-0.1,0.0,-3.48,-2.5,424,285,435,460,363,25
1641,-0.19,-0.97,-0.09,1.46,-2.81,-1.77,424,281,429,458,366,25
1642,-0.19,-0.97,-0.09,0.12,-3.66,-3.23,422,281,431,457,366,25
1643,-0.19,-0.97,-0.07,0.49,-3.05,-2.56,425,280,429,458,366,25
1644,-0.18,-0.98,-0.08,0.73,-2.99,-2.62,425,284,431,458,363,25
1645,-0.18,-0.98,-0.07,-0.85,-2.08,-2.87,424,282,434,460,364,25
1646,-0.19,-0.98,-0.07,0.37,-2.44,-2.81,425,283,429,454,363,25
1647,-0.18,-0.97,-0.1,0.98,-3.05,-2.01,423,281,431,464,362,25
1648,-0.17,-0.96,-0.11,0.43,-8.3,-2.81,427,282,430,458,364,25
1649,-0.17,-0.98,-0.08,-3.3,-5.13,-4.03,436,284,426,459,365,25
1650,-0.2,-0.97,-0.12,0.24,-0.61,-2.56,424,287,430,453,367,25
1651,-0.19,-0.97,-0.09,2.93,-8.61,-2.14,460,284,431,456,365,25
1652,-0.19,-0.96,-0.13,3.97,-5.68,-1.46,424,282,432,457,367,25
1653,-0.18,-0.98,-0.09,-1.28,-1.1,-3.54,425,288,431,462,366,25
1654,-0.18,-0.97,-0.11,0.0,-2.14,-3.05,425,283,431,453,365,25
1655,-0.17,-0.97,-0.1,0.06,-2.26,-2.81,423,283,434,459,364,25
1656,-0.17,-0.97,-0.11,-0.79,-2.38,-2.69,424,280,432,460,365,25
1657,-0.17,-0.96,-0.12,4.82,-4.03,-1.34,424,282,430,458,364,25
1658,-0.18,-0.97,-0.1,0.18,-2.81,-2.44,429,281,428,462,366,25
1659,-0.11,-1.0,-0.17,-24.9,-4.94,9.4,427,281,434,461,359,25
1660,-0.2,-0.89,-0.24,22.16,-24.23,-19.59,427,282,435,456,357,25
1661,-0.18,-0.98,-0.11,-2.87,-8.24,-1.53,424,283,433,464,358,25
1662,-0.13,-0.99,-0.12,-0.12,-2.14,-2.32,428,282,431,464,360,25
1663,-0.16,-0.99,-0.09,0.43,-1.77,-2.81,427,281,432,461,361,25
1664,-0.15,-0.99,-0.1,1.34,-4.39,-1.83,430,286,431,459,361,25
1665,-0.15,-0.98,-0.11,-0.43,-3.11,-3.11,423,286,434,461,363,25
1666,-0.15,-0.98,-0.13,2.08,-4.33,-2.62,429,285,430,462,357,25
1667,-0.13,-0.97,-0.11,1.28,-2.75,-2.69,425,286,432,475,361,25
1668,-0.15,-0.99,-0.09,-0.67,-2.81,-3.05,425,284,430,458,365,25
1669,-0.14,-0.98,-0.1,0.92,-2.5,-3.11,426,287,430,459,358,25
1670,-0.14,-0.99,-0.09,0.0,-2.44,-0.43,427,283,434,455,364,25
1671,-0.15,-0.96,-0.14,1.1,-5.19,-4.09,427,285,429,460,365,25
1672,-0.15,-0.98,-0.1,0.31,-3.42,-3.48,428,283,434,464,367,25
1673,-0.17,-1.01,-0.12,-8.42,-2.26,10.93,426,283,427,461,363,25
1674,-0.25,-0.89,-0.3,-11.29,7.69,10.99,428,281,435,460,361,25
1675,-0.3,-0.93,-0.27,5.19,-11.05,-0.37,427,287,429,463,359,25
1676,-0.27,-0.97,-0.21,-2.38,-13.79,-5.55,428,284,425,462,363,25
1677,-0.33,-0.9,-0.21,-10.25,-9.58,-11.17,429,284,432,470,363,25
1678,-0.39,-0.88,-0.22,-3.42,-8.97,-1.04,428,285,429,457,360,25
1679,-0.33,-0.89,-0.24,0.85,-8.24,2.75,427,283,424,463,363,25
1680,-0.63,-0.87,-0.01,6.1,66.04,-11.29,425,286,428,461,362,25
1681,-0.43,-0.81,-0.37,-24.78,1.1,-11.11,430,281,426,455,363,25
1682,-0.37,-0.76,-0.47,-4.58,-16.48,-6.23,430,285,428,459,363,25
1683,-0.44,-0.88,-0.25,24.9,-3.23,-11.47,424,287,426,459,363,25
1684,-0.36,-0.76,-0.25,4.94,8.73,7.51,423,288,429,464,365,25
1685,-0.38,-0.82,-0.22,17.7,3.17,-8.54,418,283,430,464,362,25
1686,-0.27,-0.93,-0.18,-12.88,4.09,-15.69,421,287,428,464,364,25
1687,-0.31,-0.89,-0.09,-8.54,-13.55,-6.16,420,279,431,456,355,25
1688,-0.32,-1.02,0.08,35.83,50.29,-23.5,420,274,432,455,354,25
1689,-0.3,-0.83,0.1,-55.24,-26.0,-39.49,440,279,438,453,355,25
1690,-0.39,-1.11,0.01,26.67,2.26,37.17,442,285,432,464,359,25
1691,-0.35,-0.98,-0.17,-9.64,-5.86,-11.47,439,283,434,460,356,25
1692,-0.25,-0.98,-0.11,-0.12,-12.39,-2.56,439,286,435,466,355,25
1693,-0.24,-0.93,-0.16,12.88,-24.17,-5.07,449,284,432,458,357,25
1694,-0.27,-0.96,-0.02,-6.04,-8.36,-9.28,438,282,429,461,358,25
1695,-0.28,-0.99,-0.03,-5.86,13.0,-1.59,437,284,429,463,358,25
1696,-0.16,-0.94,-0.05,9.46,-7.39,-1.59,435,283,434,459,359,25
1697,-0.21,-0.99,-0.06,-1.77,-7.02,0.98,436,284,431,458,364,25
1698,-0.2,-0.98,-0.06,3.48,-4.46,-6.1,433,285,431,460,359,25
1699,-0.18,-0.96,-0.07,2.75,-2.75,-5.86,435,285,432,463,360,25
1700,-0.18,-0.97,-0.05,1.83,-2.93,-1.77,435,284,430,458,360,25
1701,-0.19,-0.98,-0.04,0.79,-3.3,-3.11,434,287,428,458,361,25
1702,-0.19,-0.98,-0.03,1.16,-2.5,-4.33,435,285,428,459,360,25
1703,-0.17,-0.98,-0.03,0.06,-2.75,-2.99,431,284,431,460,359,25
1704,-0.18,-0.99,-0.0,-5.0,-3.3,-4.88,433,284,422,459,358,25
1705,-0.16,-0.99,-0.03,-2.75,-3.11,-3.05,430,285,428,458,361,25
1706,-0.16,-0.97,-0.0,1.53,-4.03,-3.72,433,291,426,460,361,25
1707,-0.17,-0.99,-0.01,-1.28,-2.56,-3.54,435,285,425,462,356,25
1708,-0.16,-0.98,-0.02,0.67,-3.17,-3.66,437,288,442,454,354,25
1709,-0.16,-0.98,-0.03,-0.37,-2.62,-2.44,467,289,428,459,357,25
1710,-0.16,-0.99,-0.04,0.85,-5.0,-0.79,437,288,428,463,359,25
1711,-0.17,-0.97,-0.02,1.1,-3.3,-3.66,437,288,427,458,357,25
1712,-0.17,-0.97,-0.03,0.79,-3.78,-2.5,437,287,429,458,355,25
1713,-0.18,-0.98,-0.02,1.65,-1.71,-0.98,437,286,423,456,357,25
1714,-0.18,-0.98,-0.04,6.16,4.82,2.87,436,289,428,458,357,25
1715,-0.18,-0.94,-0.07,-4.33,3.17,1.04,437,287,425,463,359,25
1716,-0.17,-0.99,-0.02,5.07,0.31,-5.43,439,289,427,454,358,25
1717,-0.19,-0.99,-0.01,2.99,-5.49,-3.42,436,289,431,459,357,25
1718,-0.2,-0.99,0.03,-0.55,-7.39,-3.91,437,288,429,455,356,25
1719,-0.15,-0.98,0.02,2.99,-6.1,-5.37,435,287,426,464,355,25
1720,-0.17,-0.98,0.01,2.38,-2.01,-2.14,433,287,428,463,359,25
1721,-0.15,-0.97,0.02,-0.85,-0.43,0.24,432,290,427,456,360,25
1722,-0.19,-0.98,0.05,-0.12,-0.06,-2.81,435,291,426,463,358,25
1723,-0.19,-0.97,-0.02,-7.32,6.04,-12.82,434,291,431,454,358,25
1724,-0.17,-0.98,-0.02,3.11,0.31,-1.1,433,287,429,459,358,25
1725,-0.13,-0.98,-0.0,-3.23,-3.17,-7.69,433,288,426,457,356,25
1726,-0.11,-1.0,-0.01,-5.19,4.76,-1.04,432,289,426,465,359,25
1727,-0.16,-1.01,0.01,-6.47,9.46,-7.14,434,284,428,459,335,25
1728,-0.14,-0.98,-0.06,2.26,-4.33,-1.34,437,282,429,463,340,25
1729,-0.15,-0.97,-0.08,-0.12,-3.17,2.01,434,286,425,458,348,25
1730,-0.15,-0.99,-0.07,1.46,-3.66,-2.87,430,299,431,462,347,25
1731,-0.15,-1.0,-0.05,-1.22,-0.85,-3.54,433,287,426,464,347,25
1732,-0.16,-0.99,-0.06,3.05,-1.71,-1.89,432,288,427,459,349,25
1733,-0.15,-0.97,-0.07,2.62,-1.95,-4.82,429,285,424,459,351,25
1734,-0.13,-0.98,-0.05,0.06,-3.11,-2.26,434,288,431,458,344,25
1735,-0.14,-0.99,-0.02,0.98,-3.17,-2.38,431,289,429,461,345,25
1736,-0.15,-0.99,-0.02,4.76,-4.27,-1.53,430,287,426,458,348,25
1737,-0.14,-0.99,-0.02,2.81,-4.03,-2.62,432,288,426,457,346,25
1738,-0.15,-1.0,-0.01,2.5,-2.5,-1.71,430,288,426,458,351,25
1739,-0.14,-0.98,0.03,4.33,-2.99,-4.88,430,286,426,461,349,25
1740,-0.13,-0.97,-0.02,3.54,-1.4,-1.46,428,288,426,457,353,25
1741,-0.15,-1.0,0.0,-2.32,-2.01,-1.34,428,290,429,462,354,25
1742,-0.13,-0.98,-0.02,3.05,-3.48,-2.01,426,289,431,459,354,25
1743,-0.14,-0.97,-0.02,0.61,-2.32,-2.32,431,293,426,459,350,25
1744,-0.14,-1.01,0.01,-7.32,-4.82,-2.56,435,289,428,464,352,25
1745,-0.13,-0.99,-0.05,3.3,-1.1,-2.26,430,291,425,456,357,25
1746,-0.14,-0.99,-0.05,4.15,-2.69,-1.95,428,289,430,458,354,25
1747,-0.13,-0.95,-0.08,6.23,-3.17,-0.67,433,293,427,460,354,25
1748,-0.14,-0.98,-0.01,1.89,-3.97,-1.16,432,288,425,461,357,25
1749,-0.16,-0.99,-0.01,2.93,-3.97,-1.28,432,289,427,460,356,25
1750,-0.17,-0.99,-0.01,0.43,-3.48,-2.14,427,292,435,463,354,25
1751,-0.16,-0.97,-0.02,0.12,-1.89,-3.11,429,290,427,458,354,25
1752,-0.16,-0.98,-0.01,-3.05,-1.89,-4.09,430,291,429,461,353,25
1753,-0.15,-0.98,-0.02,3.42,-2.69,-2.93,429,293,428,462,352,25
1754,-0.16,-0.99,-0.02,0.73,-2.56,-2.26,440,292,427,459,353,25
1755,-0.15,-0.99,-0.01,2.5,-2.87,-2.08,429,290,427,462,355,25
1756,-0.16,-0.99,0.0,0.79,-3.66,-1.4,432,294,428,455,354,25
1757,-0.16,-0.99,-0.01,-1.1,-2.75,-1.77,432,292,427,459,352,25
1758,-0.16,-0.99,-0.02,-1.71,-3.36,-3.36,429,292,428,456,354,25
1759,-0.16,-0.99,-0.01,2.01,-2.5,-2.87,430,291,431,456,351,25
1760,-0.15,-0.98,-0.03,1.89,-2.56,-1.59,427,291,430,463,348,25
1761,-0.16,-1.0,-0.02,-1.53,-2.2,-3.72,428,290,426,462,354,25
1762,-0.16,-0.98,-0.03,1.77,-2.75,-0.98,430,296,427,462,355,25
1763,-0.15,-0.97,-0.01,1.28,-3.36,-1.71,428,295,429,455,352,25
1764,-0.16,-0.98,-0.01,-1.16,-3.17,-3.11,437,293,428,456,356,25
1765,-0.16,-0.98,-0.02,-0.06,-4.21,-6.04,432,295,426,458,355,25
1766,-0.16,-0.96,-0.03,2.2,-2.69,-2.69,433,291,431,459,354,25
1767,-0.15,-1.0,-0.01,-2.93,-3.72,-1.95,434,295,427,452,351,25
1768,-0.15,-1.0,-0.01,2.99,-2.56,-2.93,431,292,429,454,355,25
1769,-0.15,-0.97,-0.03,1.34,-2.01,-2.44,433,295,427,456,356,25
1770,-0.16,-0.99,-0.01,-1.1,-2.44,-3.11,433,292,427,458,359,25
1771,-0.15,-0.98,0.0,1.04,-2.93,-1.53,432,290,426,459,358,25
1772,-0.14,-0.98,-0.01,-2.56,-10.74,-8.61,431,294,430,462,358,25
1773,-0.12,-0.99,-0.01,1.65,-1.4,-1.89,430,296,429,463,358,25
1774,-0.12,-0.98,-0.02,1.04,-3.42,-4.03,427,293,429,459,358,25
1775,-0.13,-1.0,-0.0,1.04,-4.64,-2.75,429,293,429,458,358,25
1776,-0.14,-0.99,-0.01,0.92,-3.66,-0.98,429,295,428,461,357,25
1777,-0.13,-0.96,-0.03,3.91,-3.3,0.0,432,295,428,453,359,25
1778,-0.13,-1.02,0.01,-4.27,-0.79,-4.58,429,295,429,457,359,25
1779,-0.14,-1.01,-0.08,-4.76,-1.83,-5.19,427,293,429,463,358,25
1780,-0.14,-0.99,-0.05,-0.24,-3.36,-4.21,424,293,430,458,359,25
1781,-0.13,-1.0,-0.04,0.85,-4.09,-3.17,427,294,431,462,360,25
1782,-0.12,-0.99,-0.05,3.23,-4.09,-1.89,428,294,428,459,360,25
1783,-0.12,-0.98,-0.05,0.55,-2.44,-3.42,427,296,428,455,358,25
1784,-0.14,-1.0,-0.03,-0.67,-5.92,-3.05,427,297,427,458,358,25
1785,-0.11,-1.0,-0.05,1.83,-2.81,-3.72,428,293,424,461,358,25
1786,-0.11,-0.99,-0.05,1.77,-3.3,-1.16,428,296,425,461,358,25
1787,-0.12,-0.99,-0.05,1.71,-4.21,-0.37,428,294,424,458,359,25
1788,-0.11,-0.98,-0.06,1.83,0.73,-3.42,427,293,424,457,358,25
1789,-0.13,-0.98,-0.05,2.08,-2.69,-0.67,423,295,430,453,357,25
1790,-0.14,-0.97,-0.03,-1.04,-4.09,-0.73,428,292,424,453,358,25
1791,-0.15,-1.0,-0.02,-7.87,-1.59,-5.92,426,294,429,462,356,25
1792,-0.14,-0.98,-0.03,1.59,-2.14,-2.32,425,297,424,462,360,25
1793,-0.14,-0.98,-0.02,1.28,-3.54,-1.16,427,291,427,459,360,25
1794,-0.14,-0.99,-0.02,-1.34,-2.44,-3.54,428,292,430,463,358,25
1795,-0.13,-0.99,-0.03,-1.04,0.92,-2.56,424,295,430,459,359,25
1796,-0.13,-0.98,-0.01,5.49,-5.37,0.79,427,292,427,459,360,25
1797,-0.14,-0.97,-0.03,0.31,-2.32,-1.83,437,296,437,461,356,25
1798,-0.14,-0.98,-0.02,-1.59,-2.62,-3.78,429,295,425,464,353,25
1799,-0.12,-0.98,-0.02,2.81,-3.05,-1.59,427,295,426,461,359,25
1800,-0.12,-0.98,-0.02,1.89,-3.78,-2.87,423,290,427,454,358,25
1801,-0.14,-1.0,-0.01,0.79,-1.95,-1.59,428,293,429,459,358,25
1802,-0.13,-0.98,-0.01,4.03,-4.27,-1.59,427,294,424,461,359,25
1803,-0.12,-0.99,-0.0,0.92,-2.87,-1.89,426,304,426,460,359,25
1804,-0.14,-0.98,-0.01,1.46,-3.78,-1.65,428,293,423,462,358,25
1805,-0.13,-0.99,0.01,-1.34,-1.95,-3.3,428,295,427,459,360,25
1806,-0.14,-0.99,0.01,1.46,-4.03,-2.14,427,294,429,464,356,25
1807,-0.14,-0.98,0.0,-1.59,-3.91,-1.34,425,296,424,456,361,25
1808,-0.14,-0.99,-0.01,0.98,-2.69,-1.77,427,296,426,454,359,25
1809,-0.14,-0.99,-0.02,2.38,0.79,-2.2,424,294,427,462,360,25
1810,-0.13,-1.0,0.0,-0.61,-2.62,-3.05,428,296,425,458,361,25
1811,-0.13,-0.99,-0.01,1.95,-2.93,0.49,427,292,428,461,361,25
1812,-0.13,-0.98,0.0,1.16,-3.23,-1.04,427,295,426,463,356,25
1813,-0.13,-0.99,-0.01,-0.67,-2.75,-2.5,434,295,426,459,360,25
1814,-0.13,-0.98,-0.01,1.59,-2.5,-1.95,427,294,423,460,358,25
1815,-0.14,-0.98,0.01,-1.89,-3.23,-2.81,427,293,424,462,356,25
1816,-0.13,-0.99,-0.01,-2.5,-0.67,-2.99,429,292,424,456,357,25
1817,-0.13,-1.0,0.0,4.82,-2.01,-2.99,427,290,424,462,363,25
1818,-0.13,-0.97,-0.02,7.63,-4.64,-1.28,426,292,424,462,352,25
1819,-0.13,-0.96,0.03,7.32,-3.72,1.71,435,290,424,455,355,25
1820,-0.12,-0.98,-0.0,-2.87,-2.81,-2.26,428,288,426,461,363,25
1821,-0.13,-0.99,-0.03,4.15,-5.43,-2.87,429,293,423,460,354,25
1822,-0.12,-1.0,0.02,1.16,-1.95,-3.3,428,292,426,459,356,25
1823,-0.11,-0.98,0.01,3.23,-2.44,-2.01,441,292,430,464,362,25
1824,-0.11,-1.01,0.05,-1.53,-1.53,-1.83,430,292,426,460,353,25
1825,-0.11,-0.97,0.03,6.1,-4.09,-0.37,428,292,431,457,357,25
1826,-0.11,-0.99,0.04,1.53,-1.89,-2.56,429,293,425,463,358,25
1827,-0.12,-0.98,0.04,0.49,-3.05,-1.77,431,291,428,461,357,25
1828,-0.12,-0.98,0.03,0.79,-3.54,-1.83,429,293,426,465,359,25
1829,-0.12,-0.98,0.03,0.12,-2.69,-2.81,429,291,427,457,359,25
1830,-0.12,-1.0,0.04,0.0,-4.64,-3.36,430,293,429,457,357,25
1831,-0.12,-0.99,0.05,-2.32,-1.89,-1.04,428,294,423,464,357,25
1832,-0.12,-0.99,0.02,0.61,-4.15,-0.55,430,291,423,454,360,25
1833,-0.12,-0.98,0.01,2.99,-3.6,-1.4,422,292,427,460,354,25
1834,-0.14,-0.99,0.04,-0.55,-3.17,-2.14,430,296,426,473,359,25
1835,-0.13,-0.98,0.02,0.61,-3.42,-2.62,428,291,426,457,359,25
1836,-0.12,-0.98,0.01,0.06,-3.3,-1.22,431,291,431,459,358,25
1837,-0.13,-0.99,0.03,1.04,-2.01,-3.54,428,291,427,459,358,25
1838,-0.13,-0.99,0.04,1.89,-2.87,-2.01,432,294,425,458,358,25
1839,-0.12,-1.0,0.05,-0.67,-3.48,-3.3,433,294,425,464,356,25
1840,-0.13,-0.99,0.03,0.55,-2.26,-2.69,430,291,425,465,358,25
1841,-0.13,-0.97,0.02,2.81,-3.11,-2.08,427,293,423,457,353,25
1842,-0.11,-0.95,0.01,9.46,-4.94,1.04,428,285,426,460,347,25
1843,-0.14,-0.98,0.04,-3.91,-2.32,-2.32,430,285,426,458,344,25
1844,-0.15,-1.01,0.08,-0.98,-3.17,-3.23,427,287,426,460,340,25
1845,-0.13,-0.99,0.05,2.99,-5.07,-1.46,432,285,429,459,345,25
1846,-0.14,-1.0,0.05,-0.18,-3.72,-3.17,431,288,429,460,346,25
1847,-0.15,-0.99,0.06,1.83,-3.05,-1.89,429,287,424,456,342,25
1848,-0.14,-0.97,0.04,0.49,-2.93,-2.26,430,282,425,455,348,25
1849,-0.14,-0.99,0.08,0.98,-3.17,-2.44,428,286,427,457,349,25
1850,-0.13,-0.99,0.06,-3.05,-3.66,-3.05,421,288,425,461,351,25
1851,-0.13,-0.98,0.05,1.59,-3.48,-3.3,429,288,423,461,351,25
1852,-0.13,-0.99,0.07,1.65,-3.3,-2.08,430,290,422,460,350,25
1853,-0.14,-0.99,0.07,-1.89,-2.93,-3.91,425,289,424,460,348,25
1854,-0.13,-1.01,0.07,-0.98,-3.48,-3.23,428,288,424,465,351,25
1855,-0.12,-0.98,0.04,-0.37,-2.56,-2.01,427,292,424,464,351,25
1856,-0.13,-1.0,0.04,-1.71,-2.08,-2.26,428,289,427,460,354,25
1857,-0.16,-1.0,0.05,10.19,-10.13,-1.71,425,286,428,458,353,25
1858,-0.16,-0.96,0.08,-1.83,1.53,-5.25,427,291,423,457,353,25
1859,-0.14,-0.98,0.08,-0.12,-1.65,-5.19,429,287,427,461,350,25
1860,-0.13,-0.99,0.1,1.22,-1.83,-3.36,425,291,428,458,361,25
1861,-0.14,-0.99,0.1,1.46,-3.11,-3.78,426,290,429,459,355,25
1862,-0.12,-0.99,0.09,-3.97,2.87,-5.8,424,289,427,457,354,25
1863,-0.15,-0.98,0.12,-3.54,-5.8,0.43,428,288,427,459,354,25
1864,-0.09,-1.0,0.04,1.28,-2.81,-6.41,430,291,426,460,356,25
1865,-0.07,-0.98,0.0,-6.9,-10.31,-8.54,426,293,429,461,357,25
1866,-0.07,-0.99,-0.02,2.2,-2.56,-4.15,425,293,426,462,356,25
1867,-0.06,-0.99,-0.03,-2.01,-6.29,-1.22,430,290,425,459,352,25
1868,-0.04,-0.95,-0.04,-7.93,-3.54,6.77,426,290,424,457,352,25
1869,-0.1,-1.04,-0.03,3.85,-8.06,-6.16,426,291,426,459,354,25
1870,-0.1,-1.01,-0.05,-0.24,-0.98,-2.62,432,290,429,464,356,25
1871,-0.11,-0.99,-0.04,4.94,-0.24,-4.82,427,294,430,461,355,25
1872,-0.11,-0.99,-0.07,2.99,6.29,-10.44,433,292,428,456,355,25
1873,-0.05,-1.02,0.0,3.48,-11.47,-1.46,425,294,429,464,357,25
1874,-0.11,-1.01,-0.0,-0.24,-15.93,-4.27,428,292,430,461,356,25
1875,-0.07,-0.98,-0.02,-0.43,-8.97,-3.54,428,299,426,462,357,25
1876,-0.07,-1.05,0.01,-4.39,-6.04,2.14,429,291,430,460,358,25
1877,-0.11,-0.97,-0.02,10.07,-1.22,3.6,426,294,425,460,359,25
1878,-0.12,-0.96,0.07,1.16,-7.57,-8.97,424,294,425,464,355,25
1879,-0.12,-0.91,-0.05,-3.11,-1.95,-5.13,423,293,425,465,357,25
1880,-0.13,-0.97,0.02,-0.12,-0.92,0.85,427,293,426,465,358,25
1881,-0.12,-1.0,0.05,3.91,-5.25,-0.92,424,293,424,458,355,25
1882,-0.12,-0.97,0.06,-2.56,-3.23,-3.6,426,293,420,464,360,25
1883,-0.12,-0.99,0.04,-2.69,-1.95,-3.42,425,293,421,457,357,25
1884,-0.13,-0.98,0.02,2.26,-2.62,-1.89,425,295,423,456,356,25
1885,-0.12,-1.0,0.05,0.06,-2.99,-2.26,422,293,420,460,356,25
1886,-0.13,-0.97,0.04,1.95,-1.71,-1.28,421,291,423,461,356,25
1887,-0.13,-0.98,0.04,1.1,-0.06,-1.89,424,292,424,457,359,25
1888,-0.12,-0.98,0.04,2.08,-2.93,-1.83,421,296,426,455,358,25
1889,-0.12,-0.98,0.04,-0.79,-3.97,-4.21,429,293,425,465,358,25
1890,-0.12,-0.99,0.04,0.18,-2.44,-2.26,440,294,423,461,360,25
1891,-0.13,-0.99,0.04,0.06,-3.42,-3.23,433,295,423,460,354,25
1892,-0.12,-0.99,0.05,0.92,-2.81,-2.26,425,292,423,463,358,25
1893,-0.12,-0.98,0.03,2.01,-2.5,-2.75,427,290,424,465,357,25
1894,-0.12,-0.99,0.06,-1.04,-1.95,-2.38,426,290,424,461,360,25
1895,-0.11,-0.99,0.04,0.18,-1.28,-2.75,427,294,427,464,358,25
1896,-0.12,-0.97,0.01,-1.34,2.44,-3.72,424,292,419,456,354,25
1897,-0.11,-0.98,0.02,1.4,-2.62,-2.5,426,295,424,457,354,25
1898,-0.1,-1.0,0.03,0.85,-5.8,-2.14,426,295,428,463,358,25
1899,-0.12,-1.0,0.01,-4.33,-0.18,-3.3,423,292,426,460,358,25
1900,-0.1,-0.98,-0.02,6.41,-0.61,-1.53,423,294,422,460,353,25
1901,-0.09,-1.01,0.0,-0.92,1.59,-0.92,422,295,429,464,358,25
1902,-0.11,-0.96,-0.1,-2.99,7.63,-0.37,430,294,427,459,356,25
1903,-0.13,-0.98,-0.05,1.46,-6.16,2.62,421,289,427,457,355,25
1904,-0.11,-0.99,-0.07,10.31,-4.88,-6.71,433,292,430,462,357,25
1905,-0.08,-0.99,-0.04,1.59,1.1,-1.4,426,290,426,462,356,25
1906,-0.07,-0.95,-0.03,2.44,-3.3,-2.56,421,292,425,465,359,25
1907,-0.05,-1.0,-0.01,-1.77,-1.59,-1.34,421,293,426,460,358,25
1908,-0.07,-1.0,-0.01,-1.4,0.31,-2.08,421,295,426,458,359,25
1909,-0.07,-1.0,-0.01,-2.38,-7.08,-3.97,420,290,422,459,357,25
1910,-0.04,-0.98,-0.06,-4.03,-6.77,7.14,423,291,426,461,355,25
1911,-0.15,-0.98,-0.06,6.53,-8.18,-0.37,424,294,425,459,358,25
1912,-0.06,-0.99,-0.05,3.85,-4.39,-4.7,420,294,419,458,361,25
1913,-0.06,-1.0,-0.03,0.73,-1.16,-2.75,421,291,425,455,359,25
1914,-0.04,-0.99,-0.04,0.73,-5.74,-3.66,422,294,423,464,359,25
1915,-0.07,-0.99,-0.01,0.55,-2.99,-1.65,424,294,425,464,358,25
1916,-0.07,-0.99,-0.01,-0.67,-2.08,-0.79,425,294,420,461,361,25
1917,-0.07,-0.98,-0.01,-3.91,-2.75,-3.11,421,296,424,463,358,25
1918,-0.06,-1.0,-0.01,-3.3,-2.81,-5.43,421,291,427,463,359,25
1919,-0.06,-1.0,-0.03,-7.45,3.97,-6.04,422,295,424,466,364,25
1920,-0.08,-1.04,0.01,2.44,1.28,0.61,418,294,426,464,354,25
1921,0.0,-0.94,-0.11,7.51,-5.49,5.86,421,288,429,461,360,25
1922,-0.09,-1.0,-0.06,1.28,-8.79,-2.69,421,290,429,460,359,25
1923,-0.08,-1.02,-0.02,-0.79,-3.72,-3.6,421,292,428,465,358,25
1924,-0.1,-0.99,-0.06,1.04,-4.94,-2.26,418,295,431,466,356,25
1925,-0.09,-0.99,-0.07,1.4,-2.38,-1.04,420,299,427,458,358,25
1926,-0.08,-0.98,-0.09,6.41,-0.79,-0.37,422,292,426,460,358,25
1927,-0.09,-1.01,-0.03,0.98,-3.17,-3.3,421,291,426,460,359,25
1928,-0.1,-0.99,-0.06,-0.18,-3.42,-3.36,421,293,426,464,358,25
1929,-0.09,-0.99,-0.03,-0.79,-2.81,-2.5,421,294,425,462,357,25
1930,-0.11,-0.99,-0.03,-0.31,-4.76,-2.5,419,295,421,458,358,25
1931,-0.09,-1.0,-0.03,-0.06,-2.01,-1.89,421,295,425,464,357,25
1932,-0.1,-0.98,-0.04,-1.65,-1.34,-2.38,417,296,427,464,359,25
1933,-0.1,-0.99,-0.04,0.92,-2.56,-0.92,421,296,425,459,359,25
1934,-0.1,-0.99,-0.06,4.15,-3.78,-0.98,420,296,426,461,355,25
1935,-0.1,-0.98,-0.05,2.62,-2.62,-2.87,455,296,427,464,362,25
1936,-0.08,-0.99,-0.03,0.92,-7.26,-4.39,421,294,425,461,359,25
1937,-0.08,-0.99,-0.03,2.26,1.53,-1.46,422,296,427,461,363,25
1938,-0.1,-0.98,-0.02,-2.93,2.26,-3.42,422,297,426,461,360,25
1939,-0.1,-1.0,-0.03,-7.87,-8.61,-6.04,418,295,427,463,359,25
1940,-0.02,-0.96,-0.09,-0.55,-1.95,1.22,418,293,429,461,359,25
1941,-0.07,-0.98,-0.08,5.86,-3.48,0.06,419,294,426,465,360,25
1942,-0.08,-0.99,-0.06,-0.43,-2.81,-1.4,419,295,426,460,361,25
1943,-0.1,-0.99,-0.04,3.42,-2.99,-2.44,418,291,421,455,359,25
1944,-0.09,-1.0,-0.02,1.59,-4.82,-1.59,419,300,421,473,361,25
1945,-0.09,-0.99,-0.02,2.01,-1.04,-0.24,421,291,422,458,360,25
1946,-0.09,-0.99,-0.02,1.46,-4.15,-2.81,420,297,426,462,359,25
1947,-0.1,-0.99,-0.0,0.24,-4.58,-2.75,417,295,423,464,359,25
1948,-0.1,-0.99,-0.02,0.12,-2.81,-2.99,415,295,424,457,360,25
1949,-0.1,-0.99,-0.02,-0.06,-3.85,-2.93,418,296,426,460,356,25
1950,-0.1,-0.99,-0.0,-3.66,-6.77,-5.43,422,297,424,462,361,25
