,aX,aY,aZ,gX,gY,gZ,little,ring,middle,index,thumb,number
0,0.88,-0.46,-0.14,2.62,0.49,-4.03,227,261,194,457,311,16
1,0.87,-0.47,-0.05,-3.6,-2.75,-2.2,225,259,190,453,309,16
2,0.91,-0.46,-0.04,3.48,3.48,-1.71,224,259,196,458,312,16
3,0.88,-0.47,-0.06,0.55,-5.8,-2.93,225,258,192,453,311,16
4,0.86,-0.48,-0.04,2.99,7.2,-3.05,235,261,190,458,310,16
5,0.9,-0.46,-0.07,5.86,-4.7,-4.15,227,257,194,462,307,16
6,0.94,-0.44,-0.07,-1.1,5.25,-1.16,225,259,196,459,311,16
7,0.86,-0.5,0.0,-1.04,-1.04,0.43,226,257,200,463,311,16
8,0.86,-0.5,0.04,0.85,-1.46,0.06,231,261,194,458,311,16
9,0.89,-0.49,0.02,0.92,-6.47,-6.59,226,258,200,463,310,16
10,0.82,-0.48,0.04,-1.65,-9.4,-2.93,227,260,196,462,311,16
11,0.95,-0.45,-0.04,-10.19,8.12,6.65,224,260,194,460,311,16
12,0.91,-0.49,0.02,0.92,-2.93,-5.07,226,262,193,462,312,16
13,0.85,-0.5,0.02,-3.66,-0.43,-0.31,228,259,194,457,309,16
14,0.88,-0.49,0.02,-2.2,-3.3,-0.73,226,260,196,462,308,16
15,0.9,-0.47,0.02,-1.59,-3.85,-2.69,227,266,195,462,309,16
16,0.88,-0.51,0.01,1.4,-2.2,-3.97,226,258,191,453,312,16
17,0.86,-0.5,0.02,-0.92,-3.72,-2.99,228,259,198,459,311,16
18,0.85,-0.49,0.02,-0.49,-2.08,0.43,227,261,196,460,309,16
19,0.86,-0.49,0.02,-0.43,-2.69,-1.22,229,262,199,462,311,16
20,0.87,-0.5,0.02,2.38,-2.69,-4.03,229,262,197,461,312,16
21,0.86,-0.5,0.02,1.59,-1.16,-0.79,227,263,196,461,313,16
22,0.84,-0.51,0.04,4.33,-0.37,-8.61,229,261,197,458,307,16
23,0.88,-0.49,0.05,3.05,-3.91,-4.03,229,259,202,454,314,16
24,0.82,-0.51,0.04,1.1,-4.88,-4.27,251,259,208,460,312,16
25,0.91,-0.48,0.07,3.54,-5.13,-7.93,225,263,199,457,312,16
26,0.87,-0.43,0.06,-3.91,-8.73,0.12,226,263,199,458,312,16
27,0.89,-0.48,0.0,-3.3,-1.71,0.85,226,264,199,460,311,16
28,0.86,-0.52,0.04,4.52,-1.22,3.3,228,264,199,466,313,16
29,0.87,-0.49,0.05,-1.83,-3.11,-5.43,234,264,197,461,313,16
30,0.9,-0.48,-0.01,0.98,-3.36,-2.81,226,259,201,459,312,16
31,0.88,-0.48,0.03,-6.65,-4.52,-2.5,228,262,195,455,311,16
32,0.87,-0.5,0.01,0.49,-3.72,-2.81,225,266,200,465,313,16
33,0.87,-0.5,0.0,2.14,-1.34,-1.46,228,271,198,459,310,16
34,0.86,-0.5,0.01,-0.55,-2.93,-2.87,227,262,201,461,311,16
35,0.87,-0.5,0.02,-0.92,-3.91,-2.08,226,264,197,459,310,16
36,0.88,-0.49,0.02,-0.18,-3.85,-2.69,229,263,203,460,308,16
37,0.87,-0.5,0.01,-0.73,-4.03,-2.99,229,262,199,458,313,16
38,0.85,-0.5,0.01,0.24,-2.69,-5.0,239,263,202,460,321,16
39,0.85,-0.5,-0.02,-0.37,-3.6,-2.99,230,270,198,460,311,16
40,0.88,-0.49,-0.0,2.5,-1.77,-2.62,230,265,199,465,311,16
41,0.86,-0.5,-0.01,0.31,-2.62,-2.5,228,261,196,465,314,16
42,0.87,-0.49,-0.01,-0.37,-3.91,-2.38,223,263,200,456,314,16
43,0.87,-0.48,-0.02,0.37,-2.2,-2.69,229,265,202,461,313,16
44,0.87,-0.5,-0.01,0.37,-2.69,-2.38,226,266,206,462,312,16
45,0.88,-0.48,-0.02,0.0,-2.56,-2.69,228,263,199,461,314,16
46,0.88,-0.49,-0.01,0.98,-0.73,-2.87,230,266,198,466,309,16
47,0.87,-0.49,0.0,1.65,-2.32,-2.5,231,265,200,458,309,16
48,0.88,-0.49,0.01,2.2,-3.11,-3.17,231,263,200,461,313,16
49,0.87,-0.49,0.0,1.28,-2.99,-3.48,230,262,201,463,310,16
50,0.88,-0.48,0.0,1.1,-3.23,-3.11,230,263,200,462,308,16
51,0.87,-0.48,-0.0,0.43,-2.81,-2.56,235,265,200,462,310,16
52,0.88,-0.48,0.0,0.06,-3.48,-2.93,231,265,199,457,310,16
53,0.87,-0.47,0.01,-0.79,-2.93,-2.26,254,266,203,462,311,16
54,0.87,-0.48,0.01,1.65,-3.78,-4.58,226,261,199,465,308,16
55,0.83,-0.41,-0.03,-10.62,-15.99,-6.96,229,264,199,462,310,16
56,0.9,-0.44,-0.0,-1.28,-12.7,-9.22,228,262,204,462,308,16
57,0.94,-0.53,0.1,12.88,2.2,-10.07,234,264,202,465,309,16
58,0.76,-0.49,0.13,-11.35,2.26,14.53,228,266,204,462,311,16
59,1.07,-0.34,0.21,1.1,-7.93,-10.99,232,264,200,465,310,16
60,0.87,-0.47,0.15,4.76,8.06,9.28,230,261,199,461,311,16
61,0.87,-0.48,0.06,-8.24,-6.41,-8.42,230,264,204,461,310,16
62,0.88,-0.47,0.09,-1.71,-3.85,-2.2,230,264,202,457,312,16
63,0.89,-0.47,0.1,1.83,0.79,-2.08,230,264,201,463,305,16
64,0.86,-0.48,0.07,-0.79,-5.19,-5.92,229,268,202,463,310,16
65,0.88,-0.46,0.1,-1.83,-2.32,-2.75,232,262,202,466,309,16
66,0.89,-0.48,0.1,1.53,-2.93,-1.46,230,263,202,461,314,16
67,0.87,-0.49,0.09,3.17,-6.23,-2.5,232,262,201,461,310,16
68,0.88,-0.47,0.09,-5.13,-4.33,-2.99,229,267,203,465,311,16
69,0.83,-0.48,0.07,2.08,-0.55,4.76,232,265,201,461,313,16
70,0.88,-0.47,0.06,-0.73,-8.54,-3.05,238,266,203,463,309,16
71,0.9,-0.46,0.0,-1.4,-0.61,3.85,231,265,204,464,310,16
72,0.9,-0.45,0.13,10.8,8.18,5.98,229,265,205,462,309,16
73,0.87,-0.48,-0.01,-18.19,-14.4,-5.13,231,267,208,458,312,16
74,0.85,-0.49,0.02,8.54,-16.05,-5.43,229,264,202,463,307,16
75,0.91,-0.45,-0.01,9.64,-9.16,-3.78,217,264,206,463,311,16
76,0.85,-0.46,-0.15,9.22,-10.93,-17.52,236,266,204,464,310,16
77,0.94,-0.35,0.06,-14.04,-13.18,2.5,230,265,203,462,311,16
78,0.97,-0.4,0.0,-12.57,-4.15,1.95,238,273,206,458,314,16
79,0.94,-0.43,-0.01,6.41,0.31,-5.19,229,267,206,463,314,16
80,0.95,-0.41,-0.01,-1.53,-2.87,-1.83,231,260,204,467,309,16
81,0.83,-0.47,-0.02,4.33,0.55,8.97,229,266,204,464,310,16
82,0.85,-0.46,-0.0,21.36,7.51,5.0,232,265,204,467,313,16
83,0.87,-0.48,-0.05,-9.89,-9.58,-16.05,227,267,206,468,309,16
84,0.83,-0.49,0.04,-2.56,-3.97,-3.6,229,268,206,466,310,16
85,0.88,-0.46,-0.03,0.12,-5.31,-4.09,230,266,206,458,312,16
86,0.82,-0.49,-0.01,-5.43,-5.86,-4.46,231,265,203,464,307,16
87,0.99,-0.39,-0.01,14.65,-6.9,3.72,230,265,204,462,319,16
88,0.94,-0.4,-0.04,-5.25,-15.44,-11.47,230,270,204,467,311,16
89,0.89,-0.43,-0.13,7.32,-23.38,-7.81,227,273,204,465,312,16
90,0.92,-0.44,-0.02,-12.57,33.81,0.37,232,267,208,466,311,16
91,0.89,-0.41,0.02,-7.2,-6.65,3.78,231,266,206,464,314,16
92,0.92,-0.43,0.07,13.18,-0.31,1.95,230,268,206,461,312,16
93,0.79,-0.45,-0.07,18.31,-21.91,-0.61,230,267,203,468,314,16
94,1.0,-0.43,0.23,-27.77,10.07,-1.71,231,266,207,461,311,16
95,0.98,-0.35,-0.24,-2.14,-25.27,-13.92,229,267,204,460,309,16
96,1.0,-0.37,-0.09,16.78,3.42,-5.49,231,268,208,464,313,16
97,0.95,-0.36,0.02,3.54,3.85,-2.99,229,264,207,463,313,16
98,0.91,-0.38,0.02,4.52,-1.83,4.94,230,266,210,465,312,16
99,0.89,-0.44,0.08,-0.12,0.79,-1.53,232,266,207,467,313,16
100,0.92,-0.42,0.04,1.83,-3.85,-4.58,229,267,204,465,312,16
101,0.91,-0.42,0.08,1.59,-2.5,-4.39,229,268,203,469,313,16
102,0.92,-0.43,0.08,1.83,-5.0,-0.18,230,265,208,464,310,16
103,0.85,-0.45,0.2,4.15,-8.42,6.84,232,269,208,468,311,16
104,0.88,-0.45,0.11,8.91,-4.7,-3.17,231,268,208,468,310,16
105,0.89,-0.45,0.18,-9.77,-1.77,-11.41,226,267,205,465,311,16
106,0.91,-0.4,0.23,32.23,-5.31,3.23,230,267,208,467,312,16
107,0.86,-0.47,0.26,-7.2,2.26,-7.87,230,266,210,465,312,16
108,0.95,-0.41,0.13,21.42,-48.22,-2.14,228,266,205,468,313,16
109,0.89,-0.41,0.21,-3.66,0.18,1.04,232,269,205,469,313,16
110,0.88,-0.44,0.12,-9.16,-2.38,-2.69,226,267,219,470,312,16
111,0.91,-0.44,0.1,1.46,-7.2,-6.35,229,267,206,465,310,16
112,0.91,-0.4,0.1,0.06,-4.21,-2.08,229,268,209,467,312,16
113,0.91,-0.4,0.14,-0.06,-2.38,-3.17,227,265,208,467,314,16
114,0.94,-0.41,0.1,-8.12,-6.29,-2.81,231,267,209,462,314,16
115,0.99,-0.34,-0.11,-3.48,-2.38,-6.53,232,265,208,466,311,16
116,0.89,-0.39,0.12,-11.66,15.01,-2.99,228,268,205,461,313,16
117,0.85,-0.38,-0.01,-22.4,52.19,-23.07,228,267,206,468,312,16
118,0.96,-0.37,0.0,6.9,3.54,6.53,233,268,206,466,313,16
119,0.94,-0.37,0.07,0.79,-2.62,3.17,231,266,205,467,311,16
120,0.9,-0.42,0.12,-4.46,9.22,-4.46,230,263,207,471,313,16
121,0.88,-0.43,0.1,15.2,-5.62,-5.13,227,270,207,470,310,16
122,0.9,-0.46,0.05,-12.21,-11.23,-8.06,230,264,207,471,312,16
123,0.84,-0.42,0.09,3.3,0.18,-1.83,230,281,209,469,312,16
124,0.98,-0.43,0.08,10.19,3.23,-3.85,230,266,209,468,313,16
125,0.89,-0.42,0.17,14.77,2.99,-1.4,233,267,206,462,310,16
126,0.86,-0.39,0.11,2.38,-7.63,3.48,230,269,210,463,311,16
127,0.91,-0.42,0.22,-1.16,3.72,-10.74,229,268,206,471,311,16
128,0.88,-0.4,0.17,-3.91,-3.36,3.23,232,266,207,466,308,16
129,0.86,-0.44,0.17,-15.38,-6.9,1.22,230,267,207,470,314,16
130,0.9,-0.4,0.11,-1.34,-10.01,-3.23,232,270,207,462,309,16
131,0.94,-0.42,0.0,-15.87,-11.41,-0.98,230,269,210,467,310,16
132,0.89,-0.42,0.07,4.94,0.73,0.37,231,268,211,464,312,16
133,0.93,-0.41,0.06,-1.1,-0.61,-5.0,232,270,210,471,309,16
134,0.9,-0.4,0.1,3.42,-2.38,-3.85,233,266,210,467,311,16
135,0.93,-0.38,0.11,1.71,2.56,-3.54,234,269,208,464,312,16
136,0.89,-0.43,0.08,-1.77,-2.69,-1.46,230,266,208,462,314,16
137,0.87,-0.41,0.12,0.12,-4.7,-1.89,230,266,208,468,311,16
138,0.93,-0.4,0.09,-1.59,-4.76,-2.93,232,269,209,467,311,16
139,0.92,-0.4,0.1,-2.99,-3.66,1.04,230,270,206,466,313,16
140,0.9,-0.41,0.07,-0.43,-1.22,-2.26,231,270,210,466,309,16
141,0.94,-0.39,0.24,1.4,8.54,-2.93,232,270,210,467,315,16
142,0.87,-0.43,0.09,-4.33,-2.01,-2.26,232,264,209,466,313,16
143,0.97,-0.37,0.16,9.16,-1.53,-6.59,230,269,205,473,313,16
144,0.93,-0.38,0.07,0.79,-4.03,1.95,231,267,210,465,312,16
145,0.85,-0.47,0.18,2.38,-2.62,-6.59,230,269,205,468,313,16
146,0.9,-0.42,0.13,2.62,6.1,-5.55,230,267,206,466,313,16
147,0.88,-0.44,0.21,1.65,-6.16,-3.6,229,269,211,463,315,16
148,0.96,-0.37,0.22,4.39,-1.77,-5.25,230,268,207,470,314,16
149,0.92,-0.39,0.21,-0.24,-5.49,6.16,233,270,211,466,312,16
150,0.9,-0.43,0.2,-4.27,-10.07,-0.92,229,267,207,471,314,16
151,0.94,-0.4,0.15,-2.2,-6.96,-1.95,232,270,208,462,313,16
152,0.9,-0.41,0.07,-5.98,-9.22,-3.48,233,265,206,467,311,16
153,0.91,-0.42,0.06,5.68,-3.42,-1.77,229,269,209,470,311,16
154,0.89,-0.44,0.07,-0.55,1.46,-4.27,232,268,211,469,313,16
155,0.85,-0.41,0.1,1.1,-5.74,-3.36,229,268,208,467,314,16
156,0.92,-0.43,0.03,9.58,-12.27,-3.11,230,272,210,467,315,16
157,0.93,-0.42,0.07,-4.64,5.74,1.59,232,270,213,469,312,16
158,0.92,-0.43,0.18,4.46,-3.66,-1.95,233,267,209,469,312,16
159,0.94,-0.4,0.1,-9.46,-2.44,-4.58,230,265,211,467,314,16
160,0.89,-0.44,0.11,4.03,-3.36,0.67,232,268,209,465,312,16
161,0.89,-0.41,0.11,-10.68,-6.47,-8.91,232,269,208,467,315,16
162,0.92,-0.41,0.1,3.17,0.18,-1.16,231,267,206,465,313,16
163,0.91,-0.41,0.09,-1.53,-1.89,-2.08,231,271,210,468,314,16
164,0.91,-0.41,0.11,3.36,-1.22,-2.26,233,271,211,465,314,16
165,0.92,-0.41,0.1,8.85,0.67,-2.81,233,267,207,468,312,16
166,0.88,-0.43,0.14,-3.48,-3.91,0.92,232,268,211,471,312,16
167,0.9,-0.43,0.15,-0.18,-12.33,-0.61,229,268,211,470,315,16
168,0.87,-0.43,0.07,-7.39,-8.3,0.43,228,269,210,467,314,16
169,0.94,-0.44,0.09,13.24,6.65,-2.81,228,268,206,467,314,16
170,0.84,-0.48,0.13,2.75,-8.3,6.65,231,267,209,462,311,16
171,0.9,-0.45,0.13,0.55,-1.16,-1.95,232,271,211,471,312,16
172,0.84,-0.47,0.12,-4.76,-3.85,-2.75,231,265,208,466,312,16
173,0.82,-0.49,0.13,-4.64,-6.47,0.55,230,267,210,467,312,16
174,0.88,-0.46,0.11,-2.87,-2.75,-5.68,230,267,213,471,311,16
175,0.89,-0.47,0.08,-0.73,-3.72,-5.37,234,270,214,467,320,16
176,0.88,-0.46,0.09,-0.67,-4.15,-2.38,230,268,210,466,309,16
177,0.88,-0.47,0.07,-0.12,-3.78,-4.64,232,268,210,467,310,16
178,0.89,-0.46,0.07,-0.06,-3.42,-2.5,226,275,212,471,310,16
179,0.88,-0.47,0.07,1.28,-2.5,-3.17,230,270,209,468,313,16
180,0.88,-0.47,0.07,-0.43,-3.17,-2.93,230,271,212,465,305,16
181,0.88,-0.47,0.06,-0.12,-2.99,-2.75,228,268,211,471,310,16
182,0.88,-0.46,0.07,0.92,-2.56,-3.17,231,266,210,467,313,16
183,0.89,-0.46,0.07,0.24,-3.17,-2.69,231,269,214,467,313,16
184,0.88,-0.46,0.07,0.0,-3.23,-2.99,232,271,212,468,314,16
185,0.88,-0.46,0.07,0.92,-3.3,-2.14,232,271,209,468,313,16
186,0.88,-0.47,0.07,-0.12,-3.42,-2.93,232,267,210,466,312,16
187,0.89,-0.46,0.07,-0.37,-3.3,-2.81,233,266,209,468,311,16
188,0.88,-0.46,0.07,-0.98,-1.95,-5.37,233,268,213,463,313,16
189,0.9,-0.46,0.08,0.0,-2.38,-3.05,231,271,212,467,312,16
190,0.89,-0.46,0.06,0.43,-2.38,-2.75,231,265,213,462,315,16
191,0.89,-0.45,0.07,0.37,-2.62,-2.14,232,271,212,470,313,16
192,0.89,-0.46,0.07,0.18,-2.75,-2.87,234,268,215,467,313,16
193,0.89,-0.46,0.07,0.61,-2.5,-2.93,230,270,212,468,309,16
194,0.89,-0.45,0.08,0.18,-2.87,-2.32,234,271,211,471,312,16
195,0.89,-0.46,0.07,0.12,-2.26,-3.05,231,268,210,471,317,16
196,0.89,-0.45,0.08,0.43,-2.81,-2.5,232,278,211,471,310,16
197,0.89,-0.46,0.07,0.12,-2.99,-2.5,231,278,211,469,315,16
198,0.89,-0.46,0.07,0.0,-3.42,-2.93,234,269,212,467,312,16
199,0.89,-0.46,0.07,0.43,-2.44,-2.26,228,269,213,469,314,16
200,0.9,-0.45,0.09,0.24,-1.83,-2.81,231,270,214,469,314,16
201,0.89,-0.46,0.09,-0.31,-2.75,-2.62,232,271,208,468,315,16
202,0.89,-0.46,0.08,-0.18,-3.85,-2.87,229,268,213,471,314,16
203,0.89,-0.45,0.07,0.31,-3.66,-2.14,227,271,212,462,314,16
204,0.89,-0.46,0.08,0.31,-2.44,-2.93,235,272,210,471,311,16
205,0.89,-0.45,0.08,1.16,-2.81,-2.56,229,269,217,469,313,16
206,0.89,-0.45,0.08,-0.06,-3.05,-2.62,234,270,212,471,312,16
207,0.89,-0.45,0.08,1.22,-3.11,-2.93,231,267,212,469,314,16
208,0.89,-0.45,0.1,0.67,-2.81,-2.75,232,268,209,473,313,16
209,0.89,-0.45,0.08,-0.73,-2.87,-2.81,231,270,212,467,314,16
210,0.89,-0.45,0.09,0.67,-1.95,-2.87,230,268,213,472,315,16
211,0.88,-0.46,0.09,0.43,-3.42,-2.56,231,270,211,468,315,16
212,0.89,-0.45,0.08,-1.16,-3.36,-2.5,240,269,214,468,314,16
213,0.9,-0.45,0.08,0.24,-3.97,-2.56,232,269,213,470,310,16
214,0.89,-0.45,0.08,0.55,-2.99,-3.23,234,271,214,464,315,16
215,0.89,-0.45,0.08,0.0,-2.75,-2.93,230,266,211,467,312,16
216,0.89,-0.45,0.09,1.65,-2.87,-2.38,233,268,212,469,314,16
217,0.89,-0.45,0.08,0.49,-2.93,-3.05,234,267,210,468,313,16
218,0.9,-0.45,0.08,1.53,-2.87,-3.17,231,269,211,472,312,16
219,0.89,-0.45,0.08,-0.37,-3.11,-2.08,232,265,214,465,313,16
220,0.89,-0.45,0.09,-0.31,-3.48,-2.38,231,265,214,470,312,16
221,0.89,-0.45,0.08,0.0,-3.11,-2.56,232,270,215,468,309,16
222,0.89,-0.44,0.08,0.55,-2.99,-2.08,230,270,214,466,312,16
223,0.89,-0.45,0.08,0.92,-3.36,-2.38,233,270,212,468,311,16
224,0.89,-0.46,0.08,0.98,-2.56,-2.87,229,271,211,465,312,16
225,0.9,-0.44,0.09,0.79,-2.2,-3.66,233,268,215,468,312,16
226,0.89,-0.46,0.08,1.16,-2.99,-3.11,231,267,226,467,312,16
227,0.89,-0.45,0.08,0.73,-2.38,-3.05,240,270,213,468,311,16
228,0.89,-0.45,0.09,0.0,-3.48,-3.05,231,270,207,467,312,16
229,0.9,-0.44,0.08,-0.18,-2.87,-2.75,233,269,214,462,312,16
230,0.9,-0.45,0.08,-0.18,-2.81,-2.26,234,272,214,468,314,16
231,0.89,-0.45,0.09,-0.24,-3.42,-1.71,235,268,210,472,310,16
232,0.9,-0.44,0.08,-0.73,-3.05,-2.81,237,269,211,462,313,16
233,0.89,-0.45,0.08,-0.24,-2.75,-2.81,234,271,210,468,313,16
234,0.91,-0.47,0.09,0.43,-2.93,-2.99,233,269,213,468,313,16
235,0.88,-0.44,0.07,1.4,-2.56,-1.4,233,271,211,468,318,16
236,0.89,-0.45,0.09,1.28,-2.38,-2.87,232,269,210,474,311,16
237,0.89,-0.45,0.09,1.46,-2.81,-2.69,231,269,214,468,311,16
238,0.9,-0.44,0.08,0.43,-2.81,-2.32,231,269,211,464,314,16
239,0.89,-0.44,0.08,-0.06,-2.75,-2.38,234,269,215,471,312,16
240,0.89,-0.45,0.08,0.49,-3.3,-2.56,230,269,211,463,309,16
241,0.9,-0.44,0.09,1.4,-4.64,-3.42,231,271,210,467,311,16
242,0.89,-0.45,0.06,1.28,-1.83,-3.05,231,270,211,468,311,16
243,0.88,-0.45,0.09,-0.98,-1.53,-2.01,231,269,213,471,314,16
244,0.89,-0.44,0.1,-0.06,-3.05,-2.14,234,268,214,467,315,16
245,0.89,-0.45,0.08,1.28,-2.56,-3.36,232,268,214,470,312,16
246,0.89,-0.45,0.08,1.77,-2.62,-2.2,231,275,211,470,311,16
247,0.89,-0.44,0.09,0.0,-2.93,-2.26,231,267,211,467,315,16
248,0.89,-0.44,0.1,1.1,-2.99,-2.38,235,271,215,471,313,16
249,0.89,-0.45,0.09,0.49,-2.99,-2.62,234,269,216,467,313,16
250,0.9,-0.44,0.09,-0.12,-3.91,-1.89,229,270,214,472,314,16
251,0.89,-0.45,0.09,0.43,-2.87,-2.5,232,271,213,467,310,16
252,0.89,-0.45,0.08,0.55,-2.26,-2.01,231,269,212,463,321,16
253,0.9,-0.44,0.1,2.26,-2.32,-2.01,234,270,212,467,315,16
254,0.89,-0.45,0.1,0.06,-2.5,-3.05,234,271,213,469,312,16
255,0.86,-0.47,0.09,1.59,-4.33,-2.08,230,268,213,468,310,16
256,0.89,-0.45,0.11,0.73,-1.83,-2.69,232,272,211,479,310,16
257,0.89,-0.46,0.1,-0.49,-3.54,-3.17,232,268,210,468,314,16
258,0.89,-0.45,0.11,0.92,-3.05,-2.32,233,268,212,468,311,16
259,0.89,-0.45,0.1,1.4,-2.5,-3.3,233,273,213,468,310,16
260,0.89,-0.46,0.1,0.79,-2.75,-3.36,232,271,215,467,315,16
261,0.89,-0.46,0.1,0.55,-3.54,-1.95,253,270,211,463,309,16
262,0.89,-0.45,0.1,-0.06,-2.99,-2.32,232,271,211,471,311,16
263,0.9,-0.45,0.1,0.49,-3.17,-3.42,232,270,214,466,312,16
264,0.9,-0.45,0.12,2.44,-0.31,-1.04,231,268,214,469,312,16
265,0.89,-0.45,0.11,0.18,-3.23,-2.99,236,269,214,468,312,16
266,0.89,-0.44,0.11,0.73,-2.75,-2.62,234,265,211,468,310,16
267,0.89,-0.45,0.11,0.24,-2.69,-2.32,232,271,213,470,311,16
268,0.89,-0.45,0.11,0.98,-3.6,-2.5,258,270,214,470,314,16
269,0.89,-0.45,0.1,0.92,-2.93,-2.38,231,272,212,465,314,16
270,0.89,-0.45,0.09,-0.31,-4.15,-1.4,233,272,213,472,310,16
271,0.89,-0.45,0.1,0.43,-3.05,-2.14,235,270,215,468,312,16
272,0.9,-0.45,0.1,0.61,-3.17,-2.26,232,266,215,467,311,16
273,0.89,-0.45,0.1,0.55,-2.93,-2.38,232,269,212,470,311,16
274,0.89,-0.45,0.1,0.73,-2.69,-2.26,233,272,211,470,311,16
275,0.9,-0.45,0.11,1.77,-2.75,-2.5,232,272,210,471,312,16
276,0.89,-0.45,0.12,1.22,-2.44,-2.93,236,271,213,465,314,16
277,0.88,-0.45,0.11,1.28,-2.56,-2.56,232,270,213,471,312,16
278,0.89,-0.45,0.08,7.02,1.34,-0.85,232,277,212,463,314,16
279,0.86,-0.45,0.05,3.05,4.03,-9.95,231,272,210,467,311,16
280,0.81,-0.47,0.22,13.37,-1.65,10.8,236,272,214,469,311,16
281,0.81,-0.48,0.31,-1.04,-2.56,1.34,233,269,214,467,312,16
282,0.86,-0.44,0.16,-5.8,-5.74,-5.31,232,269,213,463,311,16
283,0.85,-0.48,0.23,4.21,-0.06,-3.05,230,273,212,472,310,16
284,0.9,-0.47,0.17,4.46,-13.18,-2.01,234,270,214,464,312,16
285,0.87,-0.49,0.23,1.95,-1.65,-2.99,232,272,212,468,311,16
286,0.87,-0.47,0.19,-1.4,-2.56,-3.11,233,273,216,468,310,16
287,0.87,-0.45,0.23,-2.01,-2.2,-5.07,231,275,212,471,313,16
288,0.82,-0.5,0.18,3.11,2.38,1.04,234,269,217,468,311,16
289,0.86,-0.5,0.22,-4.09,-1.65,-5.98,231,282,210,468,312,16
290,0.86,-0.49,0.22,-0.55,-2.62,-1.34,230,270,211,484,314,16
291,0.85,-0.49,0.22,0.67,-2.69,-2.93,232,269,215,465,311,16
292,0.85,-0.5,0.23,2.99,0.49,-1.34,235,269,218,472,312,16
293,0.85,-0.5,0.2,-0.31,-3.97,-2.81,233,267,212,468,313,16
294,0.85,-0.5,0.22,1.46,-2.87,-1.95,233,270,216,482,311,16
295,0.85,-0.5,0.21,-0.18,-2.44,-2.62,241,267,212,472,309,16
296,0.84,-0.51,0.22,-0.61,-3.36,-2.62,235,270,214,468,311,16
297,0.84,-0.5,0.24,1.34,-2.99,-3.05,233,269,213,465,313,16
298,0.83,-0.51,0.22,0.0,-4.58,-2.2,230,272,215,471,312,16
299,0.84,-0.5,0.2,-0.24,-3.78,-2.56,233,271,215,468,308,16
300,0.86,-0.5,0.22,0.67,-2.69,-2.93,231,272,211,468,312,16
301,0.84,-0.5,0.21,-0.92,-4.09,-2.69,235,272,214,467,312,16
302,0.85,-0.5,0.22,0.67,-2.56,-3.72,234,273,216,463,306,16
303,0.85,-0.49,0.21,-1.46,-3.66,-2.81,231,269,216,463,307,16
304,0.85,-0.5,0.21,-0.18,-3.85,-2.32,236,273,212,467,312,16
305,0.85,-0.5,0.23,-0.06,-1.22,-3.72,232,269,215,471,307,16
306,0.91,-0.48,0.15,-0.37,-16.66,-2.69,234,270,214,466,310,16
307,0.84,-0.5,0.19,-0.12,-2.44,-3.85,228,266,214,466,311,16
308,0.8,-0.51,0.22,7.32,-5.0,-3.91,234,268,213,472,309,16
309,0.84,-0.5,0.16,-0.18,-2.56,-3.42,231,271,219,472,312,16
310,0.85,-0.48,0.2,-3.72,-7.26,-2.38,232,272,213,471,311,16
311,0.81,-0.5,0.29,-0.98,-8.18,-14.71,234,267,214,463,310,16
312,0.87,-0.48,0.12,3.97,-4.15,-2.32,231,270,212,467,309,16
313,0.85,-0.48,0.12,-9.77,-4.58,-1.89,232,271,215,470,307,16
314,0.88,-0.48,0.08,4.88,-2.44,-2.75,234,270,216,467,313,16
315,0.86,-0.48,0.1,-3.23,-3.6,-1.16,237,273,214,469,314,16
316,0.89,-0.48,0.11,2.56,-2.5,-2.2,231,271,213,468,309,16
317,0.88,-0.48,0.09,-0.85,-2.44,-4.09,234,270,217,463,308,16
318,0.87,-0.48,0.08,-0.12,-2.81,-3.72,231,272,213,471,310,16
319,0.87,-0.48,0.1,0.49,-2.08,-2.75,234,270,213,465,310,16
320,0.88,-0.48,0.11,0.85,-2.69,-2.01,235,270,215,471,304,16
321,0.87,-0.49,0.1,0.43,-2.69,-2.69,231,269,229,468,312,16
322,0.86,-0.49,0.11,0.18,-3.48,-2.75,234,270,215,468,311,16
323,0.87,-0.48,0.12,0.55,-3.11,-2.26,235,274,212,469,319,16
324,0.87,-0.48,0.12,1.95,-1.53,-2.69,231,271,213,467,308,16
325,0.88,-0.48,0.11,1.1,-2.01,-2.81,234,271,217,468,310,16
326,0.87,-0.47,0.12,0.31,-2.62,-2.93,235,272,215,473,308,16
327,0.87,-0.48,0.14,-0.55,-2.99,-2.38,232,270,213,469,310,16
328,0.87,-0.48,0.13,-0.79,-3.23,-2.44,233,273,217,469,313,16
329,0.86,-0.48,0.13,-0.31,-2.62,-2.56,235,272,217,472,313,16
330,0.87,-0.48,0.12,-0.49,-3.3,-2.2,232,270,216,464,313,16
331,0.86,-0.5,0.11,0.79,-3.11,-3.91,235,269,213,468,311,16
332,0.87,-0.47,0.12,1.1,-2.69,-4.03,234,273,216,465,311,16
333,0.86,-0.49,0.13,2.56,-2.26,-0.67,232,273,215,464,310,16
334,0.87,-0.48,0.15,2.2,-3.05,-2.99,233,273,216,472,310,16
335,0.88,-0.46,0.16,1.34,-1.4,-1.22,233,271,214,464,310,16
336,0.86,-0.48,0.18,0.85,-2.56,-0.61,234,270,214,472,309,16
337,0.88,-0.47,0.17,-0.67,-3.23,-2.14,241,272,215,472,308,16
338,0.87,-0.48,0.16,0.18,-2.5,-3.36,233,270,214,472,312,16
339,0.87,-0.48,0.15,-1.83,-5.31,-2.26,232,269,214,464,312,16
340,0.86,-0.49,0.14,-3.42,-5.07,-2.26,241,270,212,466,311,16
341,0.86,-0.5,0.13,0.06,-4.03,-1.77,232,268,216,468,309,16
342,0.86,-0.47,0.12,2.01,-6.29,-1.65,232,273,217,463,309,16
343,0.88,-0.48,0.09,-1.28,-2.75,-4.33,232,273,215,472,310,16
344,0.85,-0.49,0.14,0.18,-4.21,-1.71,234,271,216,472,312,16
345,0.87,-0.48,0.11,0.79,-2.38,-3.05,232,269,214,463,310,16
346,0.87,-0.49,0.11,1.04,-2.81,-2.69,232,268,214,468,308,16
347,0.88,-0.48,0.11,0.55,-4.27,-1.4,233,271,229,470,313,16
348,0.87,-0.48,0.1,1.16,-3.17,-3.23,232,269,213,463,310,16
349,0.87,-0.47,0.11,-0.79,-2.81,-2.08,232,272,212,468,314,16
350,0.87,-0.49,0.11,0.43,-2.14,-2.62,232,276,214,465,312,16
351,0.88,-0.49,0.12,-0.55,-2.99,-2.93,234,271,216,472,309,16
352,0.88,-0.49,0.12,0.37,-2.99,-2.62,232,269,215,472,306,16
353,0.86,-0.49,0.1,-0.98,-3.85,-2.5,235,270,215,471,313,16
354,0.88,-0.48,0.1,-0.31,-3.36,-1.4,232,271,213,474,309,16
355,0.87,-0.49,0.11,0.37,-3.05,-2.81,234,271,214,468,312,16
356,0.87,-0.48,0.13,1.77,-2.99,-0.85,233,269,215,469,311,16
357,0.86,-0.49,0.11,1.89,-3.42,-0.73,234,276,218,463,305,16
358,0.88,-0.48,0.1,0.12,-2.38,-4.76,232,271,215,468,312,16
359,0.86,-0.49,0.1,1.53,-2.75,-1.65,237,280,214,469,309,16
360,0.88,-0.48,0.1,1.53,-1.83,-2.87,232,273,217,472,312,16
361,0.87,-0.49,0.09,-1.46,-3.3,-2.08,233,273,218,472,311,16
362,0.85,-0.51,0.11,-1.34,-2.81,-3.72,258,274,215,470,309,16
363,0.87,-0.48,0.12,-0.24,-2.99,-2.08,231,270,218,465,311,16
364,0.87,-0.5,0.11,0.67,-2.5,-2.87,231,274,215,471,313,16
365,0.87,-0.49,0.11,0.98,-3.48,-2.26,234,268,215,471,308,16
366,0.87,-0.49,0.12,-0.43,-3.11,-2.26,232,271,216,468,308,16
367,0.86,-0.49,0.11,-0.06,-2.62,-2.14,232,268,216,471,314,16
368,0.87,-0.48,0.11,0.79,-3.66,-1.46,232,271,216,474,312,16
369,0.87,-0.48,0.11,-0.85,-2.01,-2.62,231,269,214,469,310,16
370,0.85,-0.5,0.09,-1.22,-4.46,-0.98,231,273,217,468,312,16
371,0.88,-0.49,0.11,0.67,-2.99,-2.32,228,271,218,468,312,16
372,0.88,-0.48,0.11,1.59,-5.31,-2.14,230,270,212,464,313,16
373,0.87,-0.5,0.05,-2.08,-3.3,-3.66,235,273,212,470,309,16
374,0.87,-0.48,0.11,-0.49,-2.99,-2.69,230,274,216,467,312,16
375,0.86,-0.49,0.07,0.92,-2.26,-3.05,230,273,217,469,313,16
376,0.87,-0.48,0.09,2.01,-2.81,-2.08,230,271,218,468,312,16
377,0.86,-0.49,0.09,-0.98,-3.91,-1.34,232,272,215,472,312,16
378,0.87,-0.51,0.09,1.89,-2.38,-3.42,232,269,213,472,313,16
379,0.87,-0.48,0.09,0.43,-3.17,-2.14,230,272,216,468,310,16
380,0.87,-0.5,0.09,0.98,-2.93,-2.32,234,272,215,469,314,16
381,0.86,-0.49,0.08,0.73,-3.05,-3.54,235,271,215,474,310,16
382,0.86,-0.49,0.08,-0.73,-4.27,-1.53,232,271,216,463,313,16
383,0.87,-0.48,0.09,-1.59,-2.69,-3.3,232,272,222,464,314,16
384,0.87,-0.49,0.07,-0.31,-3.23,-2.56,233,271,218,471,310,16
385,0.84,-0.5,0.01,10.01,2.38,-13.06,262,271,217,468,311,16
386,0.85,-0.5,0.12,-8.42,-5.74,-6.04,234,270,216,463,315,16
387,0.89,-0.47,-0.0,-2.93,-3.85,-5.25,229,274,217,469,314,16
388,0.86,-0.47,0.09,1.16,-4.52,-1.4,232,273,228,472,312,16
389,0.88,-0.47,0.01,-0.85,-4.03,-2.56,243,274,216,463,322,16
390,0.88,-0.47,0.04,-1.95,-3.97,-3.17,233,273,215,464,312,16
391,0.89,-0.46,0.04,2.2,-3.11,-1.71,264,270,220,463,312,16
392,0.89,-0.47,0.04,-0.37,-3.48,-2.14,233,275,217,463,313,16
393,0.88,-0.47,0.02,-0.31,-3.11,-2.69,233,273,219,465,311,16
394,0.89,-0.46,0.04,0.98,-3.36,-2.14,236,274,214,468,313,16
395,0.89,-0.47,0.03,1.16,-3.6,-2.14,233,272,215,467,312,16
396,0.88,-0.46,0.03,3.36,-4.58,-3.11,235,277,217,470,312,16
397,0.89,-0.46,0.03,1.4,-3.66,-1.95,231,273,219,469,312,16
398,0.89,-0.46,0.03,1.04,-3.23,-4.03,233,267,217,464,312,16
399,0.88,-0.46,0.03,2.69,-2.81,-2.81,235,274,217,469,311,16
400,0.89,-0.45,0.05,0.85,-2.81,-2.75,241,274,217,469,312,16
401,0.88,-0.47,0.04,-1.77,-3.23,-1.59,233,270,215,467,315,16
402,0.89,-0.46,0.05,2.5,-2.38,-2.14,229,274,216,469,314,16
403,0.89,-0.47,0.03,0.73,-3.17,-1.89,236,273,217,469,315,16
404,0.88,-0.46,0.03,-0.06,-3.48,-2.08,233,274,216,469,313,16
405,0.89,-0.46,0.03,-0.37,-2.81,-0.73,234,269,214,468,315,16
406,0.86,-0.49,0.05,0.43,-1.71,-4.64,235,271,213,471,312,16
407,0.87,-0.49,0.03,1.1,-1.83,-2.93,234,270,215,470,313,16
408,0.87,-0.48,0.07,0.12,-3.97,-1.59,233,274,219,468,312,16
409,0.88,-0.49,0.06,5.25,-0.24,-1.71,234,274,218,467,311,16
410,0.88,-0.48,0.08,0.43,-0.98,-3.54,235,270,215,468,311,16
411,0.88,-0.48,0.07,0.0,-3.36,-2.5,233,275,218,470,316,16
412,0.87,-0.48,0.07,0.43,-2.81,-2.44,260,271,216,469,314,16
413,0.88,-0.48,0.09,-0.43,-2.87,-2.08,233,272,218,467,311,16
414,0.86,-0.48,0.07,0.06,-4.15,-1.83,237,271,219,468,312,16
415,0.87,-0.47,0.05,-0.67,-2.56,-2.26,236,273,217,467,312,16
416,0.88,-0.5,0.06,0.85,-2.32,-2.5,231,270,216,464,313,16
417,0.87,-0.48,0.07,15.5,-3.3,-2.75,233,271,213,470,310,16
418,0.87,-0.49,0.07,1.71,-3.36,-2.26,234,272,216,467,312,16
419,0.87,-0.48,0.06,0.43,-3.6,-2.87,234,274,217,468,312,16
420,0.87,-0.49,0.08,0.61,-2.2,1.65,235,277,216,468,313,16
421,0.88,-0.48,0.06,0.79,-2.99,-4.88,231,277,216,468,312,16
422,0.88,-0.48,0.05,0.55,-3.42,-2.38,236,273,215,469,308,16
423,0.88,-0.48,0.05,0.43,-3.23,-2.93,234,272,217,471,312,16
424,0.87,-0.48,0.08,1.34,-3.05,-3.42,234,274,217,472,313,16
425,0.88,-0.48,0.06,0.79,-3.3,-2.62,233,271,213,467,312,16
426,0.88,-0.47,0.07,0.31,-3.17,-2.2,236,269,216,468,314,16
427,0.88,-0.48,0.06,0.73,-2.69,-2.81,236,271,219,477,312,16
428,0.87,-0.48,0.06,-0.92,-3.66,-2.01,233,273,216,469,314,16
429,0.88,-0.48,0.06,-0.61,-2.5,-3.6,235,270,217,467,312,16
430,0.88,-0.48,0.05,-0.31,-2.81,-2.69,233,272,214,467,312,16
431,0.89,-0.48,0.05,0.0,-2.62,-2.2,234,275,215,468,314,16
432,0.87,-0.48,0.06,0.06,-2.69,-2.93,233,272,219,472,310,16
433,0.88,-0.48,0.07,0.67,-3.05,-2.2,233,276,218,472,313,16
434,0.88,-0.48,0.05,2.56,-2.14,-2.75,235,273,219,466,311,16
435,0.88,-0.48,0.05,0.55,-2.93,-2.08,232,272,217,467,313,16
436,0.88,-0.48,0.06,-0.73,-3.3,-2.26,234,274,215,472,310,16
437,0.88,-0.48,0.06,-0.43,-2.93,-2.5,233,275,211,471,314,16
438,0.87,-0.48,0.06,0.85,-2.93,-2.38,233,271,218,472,310,16
439,0.89,-0.47,0.06,1.34,-3.05,-2.62,237,272,215,467,314,16
440,0.91,-0.46,0.06,0.43,-2.75,-4.39,236,272,219,465,313,16
441,0.88,-0.47,0.07,0.79,-2.38,-3.17,231,273,216,477,313,16
442,0.89,-0.47,0.07,-0.12,-3.3,-2.56,271,270,218,468,313,16
443,0.88,-0.47,0.06,-0.12,-3.54,-1.89,235,272,215,467,314,16
444,0.9,-0.46,0.07,0.73,-2.75,-2.2,236,272,217,468,312,16
445,0.88,-0.47,0.05,-0.43,-3.48,-2.08,234,272,216,468,313,16
446,0.88,-0.48,0.05,-0.37,-3.23,-2.69,231,272,214,471,312,16
447,0.88,-0.47,0.05,0.24,-3.3,-2.2,233,271,216,464,312,16
448,0.88,-0.47,0.06,0.12,-2.93,-2.38,236,274,213,469,313,16
449,0.89,-0.47,0.06,1.04,-2.75,-2.87,235,271,216,468,310,16
450,0.88,-0.47,0.05,0.67,-2.69,-3.11,235,272,216,468,313,16
451,0.89,-0.46,0.06,0.31,-3.11,-2.69,269,271,216,468,311,16
452,0.88,-0.47,0.07,1.1,-2.5,-2.75,233,273,219,469,312,16
453,0.89,-0.47,0.06,-1.34,-2.32,-2.2,234,275,218,472,310,16
454,0.89,-0.46,0.07,-0.24,-5.0,-0.79,230,274,216,466,308,16
455,0.88,-0.48,0.02,4.21,0.06,-2.62,235,275,216,471,310,16
456,0.87,-0.47,0.14,-1.95,-1.34,-4.82,231,272,220,472,311,16
457,0.89,-0.46,0.1,1.22,-3.05,-2.93,235,269,218,472,313,16
458,0.87,-0.45,0.12,1.4,-1.22,-1.46,231,272,218,462,315,16
459,0.9,-0.46,0.15,0.31,-6.65,-1.34,236,273,218,468,313,16
460,0.86,-0.49,0.02,-0.06,-3.91,-4.33,233,274,215,472,309,16
461,0.87,-0.46,0.11,-0.85,-2.69,-3.36,235,275,217,467,312,16
462,0.93,-0.44,0.1,5.98,1.4,-4.64,234,270,218,463,307,16
463,0.89,-0.46,0.08,-1.89,-0.98,-5.19,233,271,215,468,312,16
464,0.89,-0.46,0.12,-1.83,-3.36,-2.93,236,272,219,471,314,16
465,0.88,-0.47,0.13,1.65,-2.5,-1.83,234,272,217,472,312,16
466,0.89,-0.46,0.1,-0.85,-4.15,-2.56,247,276,219,469,312,16
467,0.88,-0.46,0.11,0.55,-2.32,-2.93,230,275,219,463,310,16
468,0.88,-0.46,0.11,-0.67,-3.42,-2.62,235,271,219,472,312,16
469,0.89,-0.46,0.11,2.38,-2.62,-2.56,237,272,216,472,318,16
470,0.87,-0.47,0.11,-0.31,-4.52,-2.44,235,274,217,470,315,16
471,0.89,-0.46,0.12,-0.06,-3.23,-3.05,235,270,219,463,313,16
472,0.88,-0.46,0.11,0.31,-2.87,-2.75,236,270,213,469,312,16
473,0.87,-0.47,0.11,0.06,-3.36,-2.2,240,272,219,473,312,16
474,0.9,-0.46,0.1,-0.73,-2.56,-3.78,237,274,219,463,311,16
475,0.88,-0.46,0.1,0.12,-3.6,-2.14,236,272,214,468,309,16
476,0.88,-0.46,0.1,-0.24,-4.09,-2.08,233,273,216,464,303,16
477,0.89,-0.46,0.1,3.48,-1.4,-2.87,233,269,219,464,311,16
478,0.89,-0.43,0.1,-1.22,-3.78,-2.93,233,271,215,472,314,16
479,0.89,-0.46,0.11,0.31,-2.93,-1.95,235,272,218,469,314,16
480,0.87,-0.46,0.11,-0.37,-2.99,-2.01,234,274,219,473,315,16
481,0.87,-0.47,0.1,-0.06,-3.72,-2.56,234,275,217,468,310,16
482,0.9,-0.45,0.1,-0.85,-1.89,-2.5,235,273,217,468,313,16
483,0.88,-0.46,0.11,0.0,-2.93,-2.75,234,273,218,472,314,16
484,0.89,-0.46,0.11,-2.32,-2.87,-2.99,234,273,218,463,310,16
485,0.87,-0.46,0.1,0.61,-0.61,-4.03,231,272,217,469,315,16
486,0.88,-0.46,0.07,-3.48,1.77,-2.99,232,270,215,468,312,16
487,0.84,-0.46,0.17,5.98,3.6,-6.23,235,272,216,468,313,16
488,0.9,-0.43,0.14,1.53,-4.64,-1.53,234,274,214,472,312,16
489,0.88,-0.46,0.13,-0.31,-2.14,-1.46,235,273,217,469,312,16
490,0.91,-0.37,0.2,0.06,3.48,-7.57,231,271,216,465,312,16
491,0.9,-0.44,0.14,-3.54,-5.13,-2.81,243,273,216,467,309,16
492,0.88,-0.44,0.13,0.43,-2.75,-2.2,236,273,217,465,311,16
493,0.89,-0.44,0.14,1.04,-3.05,-2.87,233,272,216,468,310,16
494,0.9,-0.44,0.12,1.1,-2.5,-2.44,233,272,217,465,315,16
495,0.89,-0.44,0.13,-1.22,-3.54,-2.38,234,274,217,477,312,16
496,0.88,-0.44,0.12,0.61,-2.69,-2.62,239,271,213,464,313,16
497,0.9,-0.44,0.12,0.0,-2.5,-3.17,236,274,218,471,312,16
498,0.9,-0.44,0.12,-0.49,-2.56,-2.44,235,274,221,472,313,16
499,0.89,-0.44,0.12,-0.18,-2.81,-3.11,234,276,226,469,312,16
500,0.89,-0.45,0.12,0.0,-3.54,-2.75,235,269,215,469,314,16
501,0.96,-0.21,0.17,0.49,-3.3,-1.65,241,256,194,450,302,16
502,0.97,-0.22,0.14,-0.61,-3.78,-2.38,235,258,194,453,303,16
503,0.97,-0.22,0.16,-0.43,-2.56,-3.11,231,251,200,450,300,16
504,0.98,-0.22,0.16,0.43,-2.32,-1.89,237,259,195,450,299,16
505,0.97,-0.22,0.17,1.59,-2.56,-2.01,237,254,197,447,304,16
506,0.96,-0.23,0.17,-0.92,-2.2,-2.75,240,259,198,452,305,16
507,0.96,-0.22,0.18,2.2,-2.93,-3.36,238,257,197,451,305,16
508,0.97,-0.22,0.17,0.0,-2.81,-3.42,230,255,192,453,308,16
509,0.96,-0.22,0.18,0.37,-2.62,-2.56,239,256,199,454,305,16
510,0.96,-0.23,0.17,0.43,-1.95,-3.42,242,259,192,450,305,16
511,0.98,-0.23,0.17,-1.16,-4.39,-0.92,236,257,200,453,304,16
512,0.95,-0.24,0.16,-0.31,-2.99,-3.3,236,259,193,451,307,16
513,0.96,-0.23,0.13,-0.67,-1.89,-3.3,241,258,204,446,305,16
514,0.97,-0.23,0.18,4.15,-2.56,-3.97,242,258,197,444,308,16
515,0.96,-0.22,0.16,-0.49,-4.21,-2.2,245,259,195,453,306,16
516,0.98,-0.22,0.17,2.26,-3.05,-3.17,252,265,191,454,306,16
517,0.96,-0.21,0.16,0.0,-4.03,-2.69,239,259,203,451,304,16
518,0.98,-0.22,0.18,2.14,-1.65,-3.11,239,259,198,455,307,16
519,0.96,-0.22,0.16,-1.65,-3.54,-1.04,242,258,203,458,305,16
520,0.95,-0.22,0.16,1.34,-2.62,-2.99,271,259,195,450,306,16
521,0.96,-0.22,0.17,1.59,-2.26,-3.05,243,260,195,454,305,16
522,0.96,-0.23,0.17,2.87,-2.99,-2.01,244,257,205,450,305,16
523,0.97,-0.22,0.18,0.43,-2.44,-3.11,251,261,199,446,309,16
524,0.95,-0.22,0.18,-0.98,-2.75,-2.75,244,252,205,447,307,16
525,0.97,-0.22,0.17,0.67,-2.56,-1.59,245,254,198,453,308,16
526,0.96,-0.23,0.17,-0.79,-3.54,-1.4,240,255,196,452,307,16
527,0.96,-0.24,0.17,-0.43,-3.42,-1.34,244,257,204,451,309,16
528,0.95,-0.24,0.16,1.16,-4.94,-2.87,242,259,201,452,308,16
529,0.96,-0.23,0.18,-4.64,-1.71,-4.15,250,265,199,447,309,16
530,0.97,-0.24,0.16,2.2,-3.11,-2.2,244,258,204,451,304,16
531,0.97,-0.24,0.16,1.1,-2.2,-3.85,250,258,199,456,309,16
532,0.97,-0.24,0.17,2.26,-2.93,-2.44,245,261,203,451,306,16
533,0.96,-0.24,0.17,-0.73,-3.78,-5.55,247,255,202,449,311,16
534,0.96,-0.22,0.17,-1.16,-2.75,-2.62,242,255,199,453,309,16
535,0.98,-0.21,0.18,0.24,-2.87,0.79,248,260,190,447,310,16
536,0.98,-0.23,0.17,0.98,-3.6,-3.78,242,256,202,451,311,16
537,0.95,-0.22,0.16,1.83,-2.2,-2.69,241,253,201,452,303,16
538,0.96,-0.24,0.17,-2.01,-2.87,-0.06,247,261,200,455,309,16
539,0.97,-0.23,0.16,0.24,-2.44,-5.68,242,258,201,454,308,16
540,0.95,-0.23,0.15,-0.85,-2.75,-1.83,246,257,201,447,308,16
541,0.98,-0.23,0.16,-2.38,-3.72,-2.2,244,259,203,452,311,16
542,0.97,-0.23,0.17,0.67,-2.5,-1.71,243,263,193,451,307,16
543,0.96,-0.24,0.15,0.31,-3.23,-2.62,243,259,202,452,312,16
544,0.97,-0.24,0.16,-0.24,-2.75,-1.65,242,262,201,454,301,16
545,0.95,-0.24,0.16,0.12,-2.93,-2.08,246,258,195,450,309,16
546,0.96,-0.23,0.17,3.78,-2.32,-2.93,241,262,205,450,310,16
547,0.96,-0.23,0.17,2.01,-2.81,-2.99,241,262,213,465,310,16
548,0.96,-0.23,0.17,-0.67,-3.48,-2.32,244,257,195,453,310,16
549,0.97,-0.22,0.17,1.1,-2.87,-3.05,244,260,203,451,311,16
550,0.96,-0.22,0.16,0.12,-2.87,-1.1,243,260,198,453,310,16
551,0.97,-0.23,0.15,0.79,-3.36,-2.01,247,260,198,451,313,16
552,0.96,-0.23,0.16,0.0,-1.83,-3.36,249,258,202,451,312,16
553,0.97,-0.22,0.15,0.49,-2.62,-1.59,243,258,204,454,312,16
554,0.97,-0.22,0.17,-1.34,-0.37,-4.27,242,257,201,449,314,16
555,0.97,-0.21,0.17,-0.92,-1.46,-2.26,244,259,201,451,311,16
556,0.97,-0.21,0.19,0.55,-2.26,-2.44,243,262,197,453,307,16
557,0.97,-0.21,0.19,0.98,-3.91,-1.83,244,259,199,446,313,16
558,0.97,-0.21,0.19,2.2,-3.54,-1.95,248,261,202,451,309,16
559,0.97,-0.22,0.17,-0.12,-3.17,-2.2,244,263,202,444,305,16
560,0.96,-0.22,0.17,1.77,-2.2,-2.2,244,259,200,451,313,16
561,0.96,-0.21,0.16,-0.31,-2.44,-2.75,247,261,205,447,313,16
562,0.97,-0.21,0.18,0.37,-2.44,-1.71,239,260,199,461,313,16
563,0.98,-0.21,0.17,0.49,-2.5,-2.38,248,261,201,451,314,16
564,0.97,-0.21,0.18,3.11,-3.42,-1.59,243,261,199,445,311,16
565,0.96,-0.21,0.18,0.55,-3.36,-3.17,246,260,203,452,313,16
566,0.97,-0.2,0.19,1.1,-3.36,-2.01,248,262,205,449,314,16
567,0.96,-0.21,0.17,0.0,-3.05,-1.46,243,256,213,448,311,16
568,0.97,-0.21,0.18,-0.98,-2.69,-2.69,248,263,199,445,311,16
569,0.97,-0.22,0.18,0.49,-2.99,-2.01,243,259,205,446,310,16
570,0.97,-0.22,0.18,0.31,-2.62,-2.26,242,259,203,463,310,16
571,0.97,-0.21,0.19,3.78,-2.26,-2.56,245,261,211,451,312,16
572,0.96,-0.22,0.18,-2.93,-2.93,-2.38,249,262,204,451,313,16
573,0.97,-0.21,0.19,2.38,-2.99,-2.81,243,262,204,449,312,16
574,0.96,-0.21,0.18,1.53,-2.93,-2.75,250,252,198,448,314,16
575,0.97,-0.21,0.18,-0.18,-3.23,-2.14,245,258,200,447,314,16
576,0.96,-0.21,0.18,1.1,-2.5,-2.5,247,260,202,451,314,16
577,0.97,-0.2,0.19,-0.31,-2.75,-3.91,242,259,202,450,311,16
578,0.97,-0.2,0.19,1.16,-2.14,-2.99,244,256,204,450,314,16
579,0.97,-0.2,0.19,2.5,-0.85,-2.75,247,259,196,450,310,16
580,0.97,-0.2,0.22,-2.44,-0.67,-2.01,244,255,201,453,313,16
581,0.96,-0.21,0.22,-2.81,-1.59,-2.38,244,265,200,450,313,16
582,0.96,-0.22,0.21,-0.24,-3.3,-1.4,244,264,206,449,314,16
583,0.96,-0.22,0.21,-0.61,-3.97,-3.66,246,259,200,445,312,16
584,0.96,-0.21,0.18,-1.1,-3.66,-5.62,246,262,204,453,312,16
585,0.96,-0.19,0.2,-3.54,-2.87,-4.15,248,260,206,449,310,16
586,0.97,-0.19,0.19,-1.16,-4.27,-3.42,249,260,198,454,312,16
587,0.98,-0.18,0.19,-1.4,-3.05,-1.89,246,261,204,456,312,16
588,0.98,-0.19,0.17,0.55,-2.75,-1.77,244,262,203,454,316,16
589,0.97,-0.19,0.2,3.3,-2.62,-2.08,243,263,202,450,314,16
590,0.97,-0.2,0.2,0.0,-2.93,-1.46,249,260,206,444,311,16
591,0.97,-0.19,0.2,0.49,-2.56,-3.17,246,257,202,452,314,16
592,0.96,-0.2,0.2,3.36,-3.3,-2.44,246,260,198,455,316,16
593,0.97,-0.2,0.19,0.06,-2.69,-2.5,246,265,198,453,315,16
594,0.97,-0.2,0.2,0.85,-2.62,-2.14,246,262,200,453,314,16
595,0.97,-0.19,0.2,0.06,-2.87,-1.71,245,261,205,456,309,16
596,0.95,-0.21,0.18,1.77,-3.97,-1.04,245,263,203,449,313,16
597,0.97,-0.22,0.18,2.01,-4.15,-1.59,245,260,217,451,313,16
598,0.95,-0.23,0.19,3.6,-3.3,-4.88,243,265,206,457,310,16
599,0.96,-0.22,0.2,1.1,-3.3,-3.42,248,259,202,452,316,16
600,0.97,-0.22,0.21,-0.49,0.0,0.92,248,263,203,451,314,16
601,0.98,-0.23,0.18,3.54,-3.3,-4.39,249,260,200,456,309,16
602,0.96,-0.24,0.16,-9.64,-4.15,-4.46,250,260,203,455,319,16
603,0.97,-0.25,0.15,-1.77,-3.05,0.0,244,262,202,453,308,16
604,0.97,-0.24,0.17,2.14,-2.44,0.79,247,264,202,451,317,16
605,0.96,-0.25,0.16,2.99,-2.62,-3.97,250,257,203,455,316,16
606,0.95,-0.23,0.18,-2.2,-1.04,0.18,244,263,204,452,313,16
607,0.94,-0.27,0.16,-2.32,-3.36,-2.5,248,260,205,451,315,16
608,0.94,-0.26,0.18,3.72,-3.36,-2.69,248,264,203,456,316,16
609,0.96,-0.26,0.16,0.92,-3.54,0.55,249,268,208,456,315,16
610,0.94,-0.28,0.17,-0.92,-2.5,-2.62,256,263,214,448,313,16
611,0.94,-0.27,0.18,0.31,-3.23,-2.81,251,264,202,447,317,16
612,0.97,-0.25,0.18,4.15,-3.36,-2.32,241,258,199,454,321,16
613,0.96,-0.25,0.18,-0.12,-3.05,-2.01,243,262,208,448,316,16
614,0.96,-0.26,0.17,-0.43,-2.69,-2.75,249,262,199,452,316,16
615,0.96,-0.26,0.17,1.04,-2.5,-2.26,248,262,203,453,316,16
616,0.94,-0.26,0.18,-2.26,-2.93,-1.1,249,263,208,453,312,16
617,0.96,-0.27,0.17,0.37,-1.77,-2.81,251,260,208,447,317,16
618,0.96,-0.25,0.2,-0.18,-1.77,-3.05,245,258,206,450,317,16
619,0.96,-0.26,0.16,-2.14,-2.69,-4.21,241,262,203,452,316,16
620,0.96,-0.26,0.19,-2.62,-1.95,-1.04,246,265,208,450,313,16
621,0.94,-0.26,0.16,0.18,-3.72,-10.62,248,260,200,451,315,16
622,0.99,-0.23,0.18,0.67,-4.64,1.4,247,260,200,452,317,16
623,0.96,-0.25,0.17,0.24,-2.14,-4.21,249,262,199,450,318,16
624,0.96,-0.25,0.21,4.46,-2.75,-0.43,249,265,205,452,316,16
625,0.93,-0.27,0.18,-1.59,-2.69,-3.23,250,261,204,454,315,16
626,0.95,-0.26,0.19,1.4,-3.97,-1.22,248,264,201,452,319,16
627,0.95,-0.26,0.17,-1.71,-2.69,-3.11,251,264,207,445,315,16
628,0.97,-0.25,0.18,1.71,-3.91,-2.69,245,260,197,446,316,16
629,0.96,-0.25,0.19,2.08,-3.23,-2.87,244,264,204,444,314,16
630,0.96,-0.25,0.16,1.77,-2.5,-2.69,247,260,206,450,316,16
631,0.97,-0.25,0.2,1.46,-2.62,-1.77,247,261,201,455,314,16
632,0.95,-0.26,0.19,0.98,-2.93,-2.69,251,263,203,453,315,16
633,0.95,-0.26,0.2,-1.46,-2.2,-2.75,249,261,200,455,318,16
634,0.95,-0.26,0.19,-3.36,-2.81,-2.56,243,263,205,454,303,16
635,0.96,-0.26,0.18,-0.92,-2.99,-3.23,245,258,202,455,317,16
636,0.95,-0.26,0.19,-0.12,-2.99,-1.95,248,262,208,451,317,16
637,0.95,-0.26,0.2,0.0,-2.38,-2.5,247,263,206,448,317,16
638,0.96,-0.25,0.18,1.95,-2.93,-3.42,250,259,200,451,317,16
639,0.95,-0.25,0.19,2.56,-3.23,-3.54,248,263,202,455,317,16
640,0.96,-0.25,0.2,1.77,-2.87,-2.08,250,262,209,454,315,16
641,0.95,-0.25,0.19,0.67,-3.42,-1.71,251,264,208,445,315,16
642,0.95,-0.25,0.2,0.55,-2.44,-4.15,248,264,204,449,316,16
643,0.96,-0.24,0.21,-1.22,-2.44,-1.77,249,261,205,455,315,16
644,0.95,-0.25,0.2,1.71,-2.62,-1.83,249,261,204,445,316,16
645,0.96,-0.25,0.2,-1.22,-3.05,-2.08,250,260,207,450,316,16
646,0.95,-0.26,0.18,-0.55,-2.87,-1.83,248,266,205,455,318,16
647,0.95,-0.26,0.19,-0.73,-2.32,-3.3,250,263,202,455,316,16
648,0.96,-0.26,0.21,1.1,-2.44,-2.87,252,261,210,455,318,16
649,0.97,-0.26,0.18,-1.1,-3.05,-2.38,251,266,206,451,316,16
650,0.93,-0.26,0.18,-0.55,-3.11,-2.87,250,264,209,446,315,16
651,0.96,-0.26,0.2,1.04,-2.69,-3.54,248,264,200,458,309,16
652,0.95,-0.26,0.2,-1.34,-3.54,-1.34,252,261,205,450,316,16
653,0.95,-0.26,0.18,1.28,-2.93,-1.89,249,263,199,455,316,16
654,0.95,-0.27,0.18,-1.65,-3.17,-0.61,251,262,202,454,316,16
655,0.94,-0.26,0.2,-2.38,-2.93,-1.04,259,261,203,456,314,16
656,0.95,-0.27,0.19,1.28,-2.5,-3.42,252,262,205,453,317,16
657,0.95,-0.26,0.19,1.77,-2.5,-5.55,253,266,201,450,317,16
658,0.94,-0.26,0.21,1.59,-2.56,-0.55,253,262,202,452,316,16
659,0.95,-0.26,0.2,-1.34,-2.93,-0.24,251,263,207,451,315,16
660,0.96,-0.27,0.17,0.85,-4.27,-5.31,252,269,207,451,317,16
661,0.94,-0.26,0.18,1.83,-3.72,-2.5,248,263,205,455,314,16
662,0.94,-0.26,0.2,-0.55,-2.26,-1.83,251,265,196,455,317,16
663,0.96,-0.27,0.19,0.73,-2.93,-1.46,254,258,203,452,319,16
664,0.95,-0.25,0.21,1.28,-2.14,-2.93,251,264,202,455,318,16
665,0.94,-0.26,0.2,1.4,-2.81,-1.22,253,261,206,447,316,16
666,0.98,-0.25,0.19,2.38,-3.05,-2.08,254,261,209,455,316,16
667,0.94,-0.28,0.16,-1.83,-3.66,-5.19,252,263,207,451,319,16
668,0.95,-0.26,0.16,0.24,-2.69,-2.69,244,262,207,451,311,16
669,0.96,-0.27,0.17,1.34,-2.62,-2.5,254,261,206,462,308,16
670,0.97,-0.24,0.2,-2.2,-3.91,1.28,250,262,208,448,318,16
671,0.95,-0.29,0.16,-1.28,-2.5,-1.59,255,264,210,451,315,16
672,0.95,-0.27,0.19,0.98,-0.98,-3.48,253,262,202,451,312,16
673,0.96,-0.26,0.18,-0.06,-2.75,-4.94,249,265,206,451,317,16
674,0.96,-0.25,0.2,4.09,-3.3,-2.32,251,263,201,455,317,16
675,0.94,-0.27,0.19,-1.16,-3.11,-1.04,251,261,207,451,317,16
676,0.95,-0.26,0.18,0.06,-2.32,-3.36,249,265,207,453,312,16
677,0.96,-0.26,0.19,1.46,-3.54,-1.89,247,261,205,453,314,16
678,0.96,-0.26,0.19,2.5,-2.81,-1.77,251,267,206,454,308,16
679,0.95,-0.26,0.19,0.49,-2.5,-2.62,249,264,209,455,313,16
680,0.95,-0.27,0.18,-0.24,-3.85,-1.71,250,271,207,452,314,16
681,0.95,-0.27,0.19,1.22,-3.05,-3.3,254,265,208,455,315,16
682,0.94,-0.26,0.2,-0.06,-1.65,-4.64,252,259,203,448,318,16
683,0.95,-0.25,0.2,-0.98,-2.69,-3.85,248,266,200,455,311,16
684,0.96,-0.25,0.2,1.89,-3.42,-2.87,254,264,208,454,319,16
685,0.96,-0.25,0.19,0.79,-3.3,-2.14,293,260,208,455,317,16
686,0.95,-0.26,0.2,0.0,-3.85,-1.77,255,265,209,458,313,16
687,0.96,-0.25,0.19,-0.85,-2.44,-2.69,257,266,197,454,321,16
688,0.96,-0.25,0.2,1.83,-3.05,-3.3,249,271,200,450,317,16
689,0.95,-0.26,0.19,-0.85,-3.42,-2.56,250,264,193,453,315,16
690,0.95,-0.25,0.18,-0.73,-2.87,-2.69,256,253,205,458,318,16
691,0.95,-0.25,0.18,0.12,-3.36,-2.5,256,261,202,454,317,16
692,0.96,-0.26,0.18,-0.37,-2.5,-2.26,255,262,206,456,321,16
693,0.96,-0.25,0.2,2.5,-1.83,-3.42,256,267,197,453,316,16
694,0.95,-0.26,0.18,-2.14,-2.5,-2.01,250,260,204,457,316,16
695,0.96,-0.26,0.2,0.12,-3.11,-2.32,255,263,212,459,319,16
696,0.95,-0.26,0.19,-1.1,-2.5,-3.6,255,264,206,449,317,16
697,0.94,-0.25,0.21,4.21,-3.97,-1.04,254,263,211,453,318,16
698,0.96,-0.24,0.21,1.16,-2.99,-3.05,252,265,210,449,317,16
699,0.97,-0.25,0.19,-0.67,-3.11,-2.81,254,259,210,458,317,16
700,0.95,-0.25,0.2,0.61,-3.72,-1.46,254,262,206,458,318,16
701,0.96,-0.24,0.2,-3.54,-2.93,-2.99,251,264,206,460,316,16
702,0.95,-0.26,0.18,1.1,-2.81,-3.36,263,255,202,456,315,16
703,0.96,-0.25,0.18,-1.04,-3.11,-1.95,255,261,207,456,317,16
704,0.96,-0.25,0.19,-1.53,-3.17,-1.46,254,266,207,448,318,16
705,0.96,-0.25,0.19,-0.18,-2.26,-4.82,257,263,211,454,318,16
706,0.96,-0.25,0.18,0.61,-2.93,-3.11,251,271,201,455,322,16
707,0.95,-0.25,0.19,0.67,-2.44,-2.32,257,256,209,459,320,16
708,0.95,-0.26,0.2,0.31,-2.44,-2.81,254,263,206,450,316,16
709,0.96,-0.25,0.2,1.71,-3.05,-1.53,258,263,209,457,316,16
710,0.95,-0.25,0.22,-0.67,-2.81,-2.32,252,265,204,451,318,16
711,0.95,-0.26,0.19,0.0,-3.91,-1.34,254,268,197,458,321,16
712,0.96,-0.26,0.19,-1.28,-2.93,-3.23,255,265,206,451,313,16
713,0.95,-0.25,0.19,0.98,-2.62,-3.66,257,264,208,453,318,16
714,0.96,-0.25,0.2,2.32,-3.78,-1.77,248,259,206,454,316,16
715,0.95,-0.25,0.19,-0.37,-4.03,-1.71,254,264,208,452,318,16
716,0.95,-0.26,0.19,-0.85,-3.97,-1.95,249,265,208,453,320,16
717,0.95,-0.26,0.19,-0.18,-3.05,-2.93,257,263,207,458,319,16
718,0.95,-0.26,0.19,0.79,-2.56,-3.11,257,267,213,452,319,16
719,0.95,-0.26,0.2,-0.24,-1.65,-2.32,250,262,212,456,318,16
720,0.96,-0.25,0.19,0.37,-3.17,-1.71,256,264,209,459,320,16
721,0.95,-0.26,0.2,0.55,-2.93,-2.14,253,265,205,457,322,16
722,0.96,-0.25,0.2,-0.31,-2.75,-2.26,255,263,208,455,321,16
723,0.96,-0.26,0.2,-0.79,-3.72,-2.32,253,257,208,454,319,16
724,0.95,-0.26,0.2,-1.22,-2.93,-2.2,255,264,209,453,321,16
725,0.96,-0.26,0.19,1.22,-2.81,-2.38,251,267,206,455,316,16
726,0.95,-0.26,0.19,2.44,-3.11,-2.75,251,265,207,450,317,16
727,0.97,-0.24,0.21,0.55,-2.99,-2.38,255,269,211,453,322,16
728,0.96,-0.25,0.2,-0.31,-3.05,-1.95,257,269,204,453,322,16
729,0.96,-0.24,0.2,1.28,-2.62,-2.87,264,263,206,452,319,16
730,0.95,-0.25,0.19,-0.79,-2.26,-2.08,254,268,209,454,320,16
731,0.94,-0.25,0.19,-1.16,-2.75,-0.43,253,265,210,443,320,16
732,0.96,-0.26,0.2,-1.04,-2.62,-2.5,258,265,219,450,320,16
733,0.95,-0.25,0.19,-2.32,-3.6,-3.3,253,266,207,455,311,16
734,0.95,-0.26,0.19,0.0,-3.05,-1.95,283,266,204,458,320,16
735,0.96,-0.26,0.2,-0.37,-3.23,-2.26,254,263,208,449,320,16
736,0.95,-0.26,0.19,-0.55,-3.54,-2.93,252,262,210,457,319,16
737,0.95,-0.26,0.19,0.67,-2.87,-2.5,257,264,209,446,319,16
738,0.95,-0.26,0.18,0.18,-2.44,-1.95,257,271,204,456,321,16
739,0.95,-0.26,0.2,0.55,-2.81,-2.5,253,265,203,451,320,16
740,0.95,-0.26,0.2,1.22,-2.5,-2.32,256,264,209,458,321,16
741,0.94,-0.27,0.18,2.93,-2.81,-2.93,261,275,208,456,317,16
742,0.95,-0.25,0.21,3.36,-3.72,-2.69,257,259,207,449,319,16
743,0.95,-0.26,0.19,1.28,-3.54,-2.5,252,267,206,457,313,16
744,0.94,-0.26,0.21,0.31,-3.54,-3.48,259,269,210,453,314,16
745,0.95,-0.25,0.19,1.22,-3.48,-3.48,259,263,205,449,318,16
746,0.96,-0.24,0.2,-0.49,-2.99,-2.87,259,263,207,452,318,16
747,0.95,-0.25,0.19,-0.24,-2.5,-3.23,258,264,209,455,317,16
748,0.96,-0.25,0.2,0.73,-2.14,-2.14,264,265,208,455,316,16
749,0.95,-0.25,0.2,0.06,-3.11,-2.38,255,266,209,457,319,16
750,0.96,-0.24,0.19,-1.59,-1.65,-3.36,259,264,216,450,320,16
751,0.95,-0.26,0.19,0.06,-3.05,-2.56,259,264,209,450,320,16
752,0.96,-0.25,0.2,0.92,-3.3,-2.75,261,264,209,452,322,16
753,0.95,-0.25,0.19,1.1,-3.17,-2.81,262,264,207,449,317,16
754,0.94,-0.25,0.21,1.28,-2.75,-2.62,260,264,208,446,320,16
755,0.96,-0.25,0.2,2.14,-2.99,-3.11,257,257,199,456,319,16
756,0.96,-0.24,0.2,-0.37,-3.17,-2.99,257,264,208,458,317,16
757,0.96,-0.24,0.2,0.92,-3.48,-2.26,252,263,215,449,330,16
758,0.95,-0.24,0.2,-1.16,-2.56,-2.32,265,266,206,454,319,16
759,0.95,-0.24,0.2,-0.31,-2.75,-2.5,256,269,227,458,316,16
760,0.95,-0.24,0.2,-0.98,-2.99,-2.26,258,262,208,453,319,16
761,0.95,-0.25,0.2,-0.06,-2.62,-2.38,258,266,213,457,318,16
762,0.95,-0.25,0.2,0.49,-2.93,-2.01,258,264,209,455,316,16
763,0.96,-0.25,0.2,0.49,-3.05,-3.05,260,268,214,452,315,16
764,0.96,-0.25,0.2,2.56,-3.17,-2.62,257,256,208,452,323,16
765,0.96,-0.25,0.2,0.49,-3.11,-1.77,255,263,206,453,319,16
766,0.95,-0.25,0.2,0.24,-2.5,-2.38,258,259,212,451,323,16
767,0.96,-0.25,0.19,0.92,-3.23,-2.87,260,260,209,447,317,16
768,0.96,-0.25,0.19,0.31,-2.75,-2.26,261,266,206,448,315,16
769,0.96,-0.25,0.2,0.18,-2.87,-2.14,253,264,201,449,321,16
770,0.95,-0.25,0.19,-0.24,-2.44,-2.5,256,262,200,453,319,16
771,0.95,-0.25,0.2,0.49,-2.32,-2.32,258,265,209,452,317,16
772,0.95,-0.24,0.21,-0.98,-2.99,-2.38,256,267,204,450,320,16
773,0.95,-0.25,0.19,1.1,-3.05,-2.87,254,262,199,452,317,16
774,0.95,-0.25,0.2,1.46,-2.81,-2.32,258,263,197,454,319,16
775,0.95,-0.25,0.19,0.43,-3.3,-2.26,257,265,211,452,321,16
776,0.96,-0.25,0.2,1.1,-2.87,-3.66,255,265,213,452,320,16
777,0.95,-0.25,0.19,-0.31,-2.5,-2.5,258,268,208,447,316,16
778,0.95,-0.25,0.19,0.0,-2.62,-1.95,258,267,209,450,322,16
779,0.95,-0.25,0.19,1.95,-2.93,-2.26,256,264,214,457,320,16
780,0.96,-0.26,0.2,-0.49,-2.69,-2.44,259,262,211,455,323,16
781,0.95,-0.26,0.2,-2.32,-2.93,-2.44,260,267,209,453,314,16
782,0.96,-0.24,0.21,5.19,-2.87,-3.54,258,264,212,454,317,16
783,0.96,-0.25,0.21,0.24,-2.99,-1.46,257,268,211,455,321,16
784,0.93,-0.25,0.2,-1.89,-2.56,-3.3,261,266,208,456,315,16
785,0.96,-0.24,0.2,2.2,-3.11,-3.23,254,268,205,458,314,16
786,0.96,-0.25,0.2,1.34,-2.75,-2.62,261,267,217,456,321,16
787,0.95,-0.26,0.19,-0.98,-3.23,-2.32,261,265,211,454,321,16
788,0.94,-0.25,0.19,-0.43,-3.36,-2.32,258,266,202,452,317,16
789,0.96,-0.25,0.19,0.49,-2.99,-2.26,262,266,210,452,318,16
790,0.96,-0.25,0.19,-0.37,-2.87,-2.01,259,263,207,465,318,16
791,0.96,-0.26,0.19,0.18,-2.14,-1.89,252,266,206,448,323,16
792,0.95,-0.26,0.19,0.55,-2.32,-2.75,259,265,210,456,322,16
793,0.96,-0.26,0.19,0.98,-2.62,-2.5,258,268,213,454,320,16
794,0.96,-0.25,0.19,1.1,-3.17,-2.87,258,262,209,453,316,16
795,0.95,-0.26,0.19,-2.01,-1.46,-2.5,258,267,206,449,316,16
796,0.95,-0.25,0.18,0.92,-4.09,-2.56,259,264,213,456,321,16
797,0.95,-0.26,0.19,-2.5,-5.0,-2.56,257,268,210,456,321,16
798,0.96,-0.27,0.15,5.07,-8.97,3.48,256,268,209,455,320,16
799,0.94,-0.27,0.18,0.98,-2.08,-4.7,260,267,221,454,318,16
800,0.95,-0.29,0.15,-1.28,-2.56,-3.36,257,267,213,456,322,16
801,0.95,-0.27,0.15,-1.04,-3.42,-2.38,256,267,210,453,321,16
802,0.95,-0.27,0.15,1.16,-5.07,-0.55,257,268,209,454,319,16
803,0.95,-0.28,0.16,2.08,-2.38,-3.05,258,269,207,453,320,16
804,0.96,-0.27,0.14,1.28,-3.05,-2.69,258,266,215,452,320,16
805,0.95,-0.27,0.13,-0.06,-1.89,-3.3,253,264,215,451,319,16
806,0.96,-0.26,0.14,0.06,-2.14,-3.11,258,263,211,457,325,16
807,0.97,-0.27,0.14,0.73,-3.11,-2.14,259,268,206,446,319,16
808,0.95,-0.27,0.14,-0.98,-3.54,-1.34,260,266,209,456,317,16
809,0.95,-0.27,0.14,0.24,-3.48,-2.56,260,266,211,455,316,16
810,0.96,-0.27,0.14,0.73,-2.38,-2.81,256,253,206,455,322,16
811,0.96,-0.27,0.12,-0.49,-2.75,-2.62,259,265,213,455,323,16
812,0.96,-0.27,0.14,0.24,-2.62,-2.99,260,267,206,451,323,16
813,0.96,-0.27,0.11,-0.06,-2.93,-2.75,260,265,214,457,325,16
814,0.99,-0.27,0.08,5.19,-12.63,1.16,262,265,209,454,323,16
815,0.95,-0.27,0.13,5.8,-5.07,-3.36,263,269,207,452,322,16
816,0.98,-0.26,0.12,6.41,-4.7,0.73,263,269,209,449,323,16
817,0.95,-0.27,0.14,-5.13,-0.79,-1.89,261,266,213,450,321,16
818,0.95,-0.3,0.1,1.83,-1.65,-3.11,262,266,216,452,323,16
819,0.95,-0.31,0.12,-5.19,1.4,-0.49,263,264,210,457,327,16
820,0.95,-0.32,0.12,-3.17,-3.97,-2.14,261,258,207,457,318,16
821,0.93,-0.31,0.13,3.17,-2.01,-1.65,264,264,204,453,321,16
822,0.95,-0.31,0.13,5.0,-4.58,-1.16,264,263,213,455,317,16
823,0.94,-0.31,0.14,-0.37,-2.08,-3.42,261,266,213,453,318,16
824,0.94,-0.3,0.14,0.31,-3.36,-3.54,261,267,212,449,317,16
825,0.95,-0.3,0.13,-1.89,-2.93,-4.21,262,265,211,457,322,16
826,0.95,-0.29,0.14,-0.92,-2.81,-2.2,261,264,211,457,322,16
827,0.93,-0.26,0.15,-3.72,0.37,-4.76,260,268,214,455,320,16
828,0.97,-0.28,0.13,0.73,-2.32,-1.65,262,267,218,456,320,16
829,0.96,-0.26,0.16,0.43,-1.16,-1.34,256,268,212,458,320,16
830,0.95,-0.27,0.15,0.98,-2.5,-3.11,261,265,196,454,313,16
831,0.96,-0.27,0.17,2.26,-2.32,-3.85,263,265,214,456,320,16
832,0.95,-0.27,0.16,-0.12,-3.3,-2.32,263,267,206,449,322,16
833,0.95,-0.26,0.17,3.54,-3.85,-2.93,263,280,210,453,310,16
834,0.96,-0.27,0.17,2.08,-2.99,-1.77,290,264,210,459,318,16
835,0.96,-0.27,0.17,-0.24,-3.05,-1.4,265,270,210,451,324,16
836,0.94,-0.28,0.17,-0.92,-2.32,-3.85,263,261,205,457,315,16
837,0.95,-0.26,0.14,8.61,-8.48,-0.18,263,270,199,456,317,16
838,0.95,-0.26,0.17,-3.91,-3.3,-0.43,260,271,211,454,316,16
839,0.95,-0.28,0.14,0.98,-5.43,-0.12,261,266,210,455,315,16
840,0.96,-0.29,0.1,4.03,-3.17,-2.2,262,265,210,452,322,16
841,0.95,-0.28,0.13,-3.72,-4.03,-2.2,270,265,211,454,321,16
842,0.95,-0.27,0.17,1.95,-1.53,-3.05,264,263,214,450,319,16
843,0.96,-0.26,0.15,1.22,-1.16,-2.75,256,267,208,450,321,16
844,0.93,-0.28,0.15,-5.62,-0.85,-2.56,261,267,214,450,314,16
845,0.95,-0.29,0.15,1.34,-1.65,-1.59,262,267,208,451,322,16
846,0.95,-0.31,0.15,-2.5,-2.32,-2.01,264,269,215,453,315,16
847,0.94,-0.31,0.14,-1.53,-2.87,-1.4,268,267,208,452,315,16
848,0.97,-0.3,0.16,-1.65,-3.36,-2.69,261,259,198,456,324,16
849,0.95,-0.29,0.15,0.85,-3.05,-2.87,262,266,211,454,321,16
850,0.94,-0.3,0.15,1.34,-2.69,-2.87,260,262,213,453,321,16
851,0.95,-0.29,0.16,-1.16,-2.56,-2.75,263,271,206,451,315,16
852,0.95,-0.29,0.15,-0.61,-2.5,-2.62,260,267,212,451,318,16
853,0.95,-0.29,0.16,2.99,-2.62,-1.83,263,265,209,456,322,16
854,0.93,-0.31,0.16,3.17,-0.85,-5.13,265,266,214,455,324,16
855,0.94,-0.26,0.13,15.26,-2.2,-12.08,259,266,211,451,317,16
856,0.99,-0.2,0.16,-10.5,-8.3,-5.31,265,268,202,453,319,16
857,0.99,-0.19,0.1,1.34,0.55,-1.53,263,271,210,455,321,16
858,0.98,-0.21,0.13,1.22,-1.77,-1.59,260,268,213,452,317,16
859,0.96,-0.23,0.16,5.13,-3.72,-4.7,257,274,218,456,323,16
860,1.01,-0.18,0.07,15.14,-4.76,-2.99,262,272,201,453,318,16
861,0.98,-0.19,0.13,6.84,-3.17,-3.23,263,261,212,456,319,16
862,1.0,-0.18,0.13,4.39,-7.32,-3.6,266,262,208,457,322,16
863,0.97,-0.2,0.06,-1.1,-6.59,-1.65,260,261,210,457,316,16
864,0.99,-0.14,0.07,-8.06,8.3,-6.53,262,264,210,454,320,16
865,0.95,-0.18,0.07,-5.92,1.83,3.17,262,265,210,457,321,16
866,0.92,-0.14,0.09,-5.62,-2.56,-14.16,261,260,212,461,318,16
867,0.98,-0.2,0.09,1.4,-2.87,-1.77,261,269,212,454,319,16
868,0.98,-0.22,0.08,0.31,-2.99,-1.28,260,267,211,455,321,16
869,1.08,-0.1,0.15,4.52,0.61,-5.68,263,270,211,451,317,16
870,0.98,-0.12,0.12,8.67,-3.85,-8.3,266,267,204,453,320,16
871,1.0,-0.16,0.07,-1.65,-2.93,-3.6,264,267,213,458,314,16
872,0.99,-0.13,0.11,10.5,-6.23,0.85,262,263,199,460,323,16
873,0.97,-0.2,0.02,-0.61,0.67,2.56,262,270,213,454,320,16
874,1.0,-0.18,0.06,6.65,1.59,-3.48,262,268,211,452,321,16
875,0.99,-0.17,0.09,-1.77,-3.05,-2.62,265,267,211,458,322,16
876,0.98,-0.17,0.1,-0.37,-1.71,-4.39,263,265,210,456,318,16
877,0.98,-0.17,0.06,-4.27,-3.42,-2.26,263,268,209,450,317,16
878,0.99,-0.15,0.08,3.91,-1.89,-2.75,262,268,202,449,321,16
879,0.99,-0.15,0.08,3.54,-1.46,-2.5,264,263,214,449,320,16
880,0.99,-0.15,0.1,1.28,-2.44,-1.4,263,270,215,453,316,16
881,1.0,-0.16,0.09,1.95,-3.23,-2.01,265,268,209,451,318,16
882,0.99,-0.15,0.09,0.18,-3.48,-2.14,262,267,213,456,320,16
883,0.98,-0.16,0.09,1.04,-2.69,-1.89,262,264,212,454,324,16
884,0.99,-0.16,0.09,0.12,-2.75,-2.99,262,269,212,453,320,16
885,0.99,-0.16,0.09,0.18,-3.72,-3.6,264,272,212,450,319,16
886,0.99,-0.15,0.09,0.79,-3.11,-2.87,262,262,211,450,321,16
887,0.99,-0.16,0.09,0.85,-3.78,-0.79,265,265,210,452,321,16
888,1.0,-0.16,0.07,-5.86,-3.36,-2.38,263,264,209,449,318,16
889,1.0,-0.16,0.09,0.49,-2.32,-2.69,259,266,208,455,317,16
890,0.99,-0.16,0.09,0.61,-2.38,-1.89,265,261,208,449,320,16
891,0.92,-0.15,0.08,-11.66,-2.01,-1.77,260,269,214,449,321,16
892,0.97,-0.15,0.09,0.12,1.16,-4.76,261,268,212,451,319,16
893,0.93,-0.16,0.15,5.8,-8.97,-1.83,261,265,212,452,320,16
894,1.0,-0.15,0.13,0.43,-2.01,-0.55,262,268,212,455,317,16
895,1.01,-0.17,0.12,-2.38,-3.54,-1.4,263,262,217,446,319,16
896,0.94,-0.16,0.1,7.08,-3.97,-1.22,266,267,216,450,318,16
897,1.0,-0.12,0.11,22.34,-28.69,-13.37,262,266,212,451,320,16
898,1.03,-0.18,0.06,-6.96,-4.88,-10.62,263,271,212,452,324,16
899,1.05,-0.07,0.12,9.09,-2.93,7.2,259,268,210,451,318,16
900,0.99,-0.16,0.06,-8.67,-5.07,-3.54,261,266,210,445,319,16
901,0.99,-0.14,0.09,2.99,-1.59,1.28,262,267,216,455,315,16
902,1.01,-0.21,0.05,-3.91,-5.37,-0.55,264,267,214,447,318,16
903,0.98,-0.18,0.1,-10.74,-10.5,-0.31,264,268,211,442,317,16
904,0.94,-0.22,0.06,8.18,0.06,2.14,259,264,213,447,321,16
905,1.0,-0.22,0.04,0.37,-4.15,-2.99,261,265,214,451,321,16
906,0.96,-0.27,0.02,0.06,-5.74,0.73,259,269,215,450,317,16
907,0.99,-0.24,0.0,-2.26,-6.29,-1.1,279,271,213,451,318,16
908,1.01,-0.28,-0.01,1.95,1.77,-6.16,255,268,210,453,314,16
909,0.96,-0.24,-0.01,-2.14,-4.27,-3.48,258,267,216,453,318,16
910,0.96,-0.25,-0.01,-3.91,-2.38,0.61,257,261,209,446,319,16
911,0.93,-0.24,-0.02,4.33,-5.19,4.88,263,263,212,449,322,16
912,0.97,-0.23,0.0,5.19,-0.98,-3.23,262,267,207,452,319,16
913,1.0,-0.22,0.02,7.32,-1.46,0.55,261,263,204,453,321,16
914,0.97,-0.25,0.03,-0.12,-4.21,0.12,267,262,213,451,312,16
915,0.98,-0.25,-0.01,2.56,-3.72,-3.54,261,269,219,449,319,16
916,0.98,-0.26,0.04,-4.15,2.14,3.85,262,265,208,448,321,16
917,1.0,-0.26,0.0,1.04,-3.97,-2.93,264,268,213,454,318,16
918,0.96,-0.27,0.02,-0.18,-1.46,-1.53,259,268,212,449,319,16
919,0.96,-0.29,0.0,-5.13,-2.01,-3.72,264,264,211,453,320,16
920,0.98,-0.27,0.01,6.04,-4.21,-1.46,261,266,203,455,321,16
921,0.95,-0.3,0.02,-2.26,-2.38,1.53,275,269,212,447,320,16
922,0.95,-0.29,-0.02,7.93,-4.76,-4.27,263,267,208,455,321,16
923,0.95,-0.29,0.03,1.77,-0.67,-3.78,263,267,217,452,319,16
924,0.96,-0.28,0.02,-0.31,-0.37,-3.78,277,260,211,445,320,16
925,0.96,-0.28,0.02,-0.37,-1.59,-4.03,260,263,203,448,320,16
926,0.96,-0.27,0.04,-5.98,-1.95,-0.85,256,265,211,446,312,16
927,0.97,-0.28,0.02,-1.04,-3.17,-2.87,257,261,213,455,323,16
928,0.97,-0.28,0.03,4.82,-1.71,-3.11,255,264,212,451,315,16
929,0.96,-0.28,0.04,-2.32,-0.24,-3.23,255,260,206,453,317,16
930,0.96,-0.26,0.01,0.37,-0.73,-5.98,249,253,205,449,320,16
931,0.98,-0.23,0.08,1.65,1.89,-5.13,240,253,215,454,314,16
932,1.01,-0.24,0.11,4.82,2.38,-8.24,239,257,209,453,324,16
933,0.96,-0.24,0.09,3.48,-3.97,-3.23,241,259,208,453,315,16
934,0.93,-0.25,0.07,-0.06,-10.93,-0.24,245,261,208,456,320,16
935,0.97,-0.26,0.06,1.89,-4.82,-2.87,248,261,212,455,321,16
936,0.93,-0.25,0.1,-1.1,-1.65,-4.21,245,258,215,450,320,16
937,0.98,-0.23,0.02,2.56,-6.71,-3.97,240,259,221,456,321,16
938,0.95,-0.25,0.03,-3.54,-3.36,3.05,246,262,202,455,318,16
939,0.98,-0.25,0.05,4.21,0.98,-2.08,239,253,209,455,317,16
940,0.98,-0.25,0.09,-2.08,-1.53,0.49,247,262,208,456,318,16
941,0.96,-0.28,0.04,-1.22,-2.75,-0.61,247,255,208,455,318,16
942,0.97,-0.28,0.07,-0.06,-1.65,-2.08,247,262,208,458,320,16
943,0.96,-0.28,0.06,-0.67,-3.11,-1.34,248,258,207,453,313,16
944,0.96,-0.3,0.04,-0.06,-3.23,-1.34,248,258,209,448,320,16
945,0.95,-0.29,0.08,3.66,-2.62,-2.69,249,260,219,457,320,16
946,0.95,-0.29,0.06,-0.73,-2.14,-3.66,248,260,211,458,319,16
947,0.97,-0.28,0.07,0.37,-2.56,-5.31,243,256,207,452,320,16
948,0.94,-0.27,0.07,-1.1,-2.26,-2.75,250,257,209,447,319,16
949,0.96,-0.27,0.07,1.1,-1.95,-0.37,246,263,209,453,318,16
950,0.94,-0.29,0.1,1.1,-2.32,-3.78,251,266,211,452,317,16
951,0.93,-0.27,0.08,-2.87,-1.28,-3.6,250,259,208,449,312,16
952,0.99,-0.25,0.1,-0.43,-2.81,-1.16,248,264,207,452,323,16
953,0.97,-0.26,0.11,0.37,-4.09,-1.77,244,264,211,447,317,16
954,0.97,-0.3,0.09,4.58,-1.65,3.85,249,258,215,456,320,16
955,0.96,-0.28,0.07,0.43,-5.49,-1.65,251,265,211,454,321,16
956,0.97,-0.32,0.08,-1.89,-5.62,3.17,250,265,208,452,317,16
957,0.96,-0.32,0.06,4.15,-5.43,-3.85,253,265,211,452,315,16
958,0.9,-0.34,0.03,-5.49,-4.39,-0.98,247,251,217,451,313,16
959,0.95,-0.36,0.06,3.6,0.85,-4.39,243,258,208,443,315,16
960,0.93,-0.35,0.07,7.39,-4.76,-2.56,250,260,203,453,321,16
961,0.93,-0.36,0.07,1.4,-3.3,-0.18,241,262,211,452,322,16
962,0.91,-0.38,0.04,-2.01,-2.81,-1.77,250,262,211,458,324,16
963,0.92,-0.38,0.09,0.67,-2.38,-2.26,248,260,210,452,320,16
964,0.93,-0.37,0.06,0.31,-3.6,-3.11,252,263,214,447,319,16
965,0.94,-0.37,0.07,1.71,-2.44,-2.2,251,252,212,455,321,16
966,0.92,-0.36,0.08,2.69,-2.56,-2.93,245,262,211,448,318,16
967,0.93,-0.36,0.08,-0.12,-2.38,-3.23,249,260,218,449,318,16
968,0.93,-0.36,0.09,-1.71,-2.87,-2.14,249,259,208,455,318,16
969,0.93,-0.35,0.1,2.5,-3.17,-2.44,255,262,211,451,314,16
970,0.93,-0.36,0.07,1.59,-2.75,-2.38,250,258,212,453,318,16
971,0.94,-0.35,0.09,0.67,-2.99,-0.61,254,263,214,451,316,16
972,0.93,-0.35,0.07,0.92,-2.93,-0.37,275,263,206,456,316,16
973,0.9,-0.37,0.06,-2.38,-3.91,-0.49,250,261,210,455,320,16
974,0.92,-0.36,0.09,-1.83,-2.14,-2.14,252,259,210,455,322,16
975,0.94,-0.37,0.08,3.72,-1.65,-2.2,247,263,206,448,320,16
976,0.92,-0.39,0.05,-3.36,-2.87,-0.55,246,262,209,448,320,16
977,0.93,-0.37,0.1,4.94,-1.77,0.0,250,265,209,448,320,16
978,0.93,-0.39,0.04,0.55,-3.17,-4.21,245,264,212,447,322,16
979,0.94,-0.37,0.08,-3.17,-2.26,-2.93,253,263,228,456,318,16
980,0.93,-0.37,0.07,-0.67,-3.23,-1.95,252,260,207,451,320,16
981,0.91,-0.39,0.06,-2.26,-3.3,-3.17,253,262,215,452,317,16
982,0.89,-0.37,0.08,0.79,-0.18,-13.18,243,260,207,452,319,16
983,0.94,-0.34,0.09,2.69,-1.95,-4.27,248,260,214,453,321,16
984,0.93,-0.35,0.06,0.0,-4.21,-1.34,248,264,207,459,321,16
985,0.94,-0.33,0.1,5.86,-4.09,-2.56,250,262,215,450,318,16
986,0.94,-0.35,0.08,-3.3,-2.62,-1.46,247,261,212,459,320,16
987,0.93,-0.36,0.08,2.01,-2.69,-0.18,246,255,214,456,317,16
988,0.93,-0.36,0.08,1.46,-2.26,-2.99,253,262,210,455,314,16
989,0.94,-0.35,0.09,1.04,-3.42,-3.36,249,266,207,460,322,16
990,0.97,-0.35,0.09,0.12,-2.75,-3.11,246,271,212,451,315,16
991,0.93,-0.35,0.09,-2.2,-4.09,-1.95,247,259,210,458,313,16
992,0.94,-0.35,0.08,-5.07,-2.62,-1.4,247,264,211,458,317,16
993,0.94,-0.35,0.05,4.76,-3.78,-5.25,249,263,215,454,317,16
994,0.92,-0.37,0.08,-4.64,-1.22,6.41,247,265,205,452,321,16
995,0.95,-0.36,0.11,10.19,-1.28,-3.05,246,262,209,467,314,16
996,0.95,-0.35,0.06,-2.2,-4.27,-3.72,242,263,213,454,319,16
997,0.98,-0.39,0.07,-4.52,-5.07,0.79,250,262,202,453,317,16
998,0.97,-0.33,0.04,0.92,-3.78,-2.99,245,262,211,455,315,16
999,0.96,-0.34,0.02,0.92,-2.32,-4.88,248,263,211,454,317,16
1000,0.93,-0.34,0.05,-5.0,-1.83,-2.38,242,260,215,455,316,16
1001,0.93,-0.34,0.05,4.39,-0.43,0.55,251,268,214,456,327,16
1002,0.93,-0.33,0.08,2.62,-2.5,-0.98,250,264,212,457,327,16
1003,0.94,-0.35,0.06,2.62,-2.81,-2.62,248,264,214,452,315,16
1004,0.94,-0.35,0.06,0.98,-3.42,-2.87,250,265,215,453,321,16
1005,0.93,-0.35,0.04,2.32,-1.28,-4.58,249,257,217,453,321,16
1006,0.93,-0.35,0.07,0.18,-5.43,-3.66,250,264,208,455,317,16
1007,0.92,-0.36,0.06,2.44,-2.26,-4.39,253,265,207,450,321,16
1008,0.88,-0.47,-0.04,1.04,-2.32,-1.59,193,276,193,442,323,16
1009,0.87,-0.49,-0.03,0.18,-2.75,-1.77,202,286,194,452,322,16
1010,0.88,-0.46,-0.03,-0.61,-3.05,-0.24,200,274,195,441,326,16
1011,0.89,-0.46,-0.02,1.59,-2.99,-1.89,207,276,187,442,325,16
1012,0.87,-0.47,-0.02,1.22,-2.14,-4.46,204,275,177,444,328,16
1013,0.9,-0.46,-0.02,-0.06,-2.56,-3.91,206,278,189,436,328,16
1014,0.89,-0.46,-0.03,1.59,-2.5,-3.11,203,277,196,448,325,16
1015,0.87,-0.47,-0.0,-0.18,-1.4,-1.95,208,277,192,448,328,16
1016,0.9,-0.46,-0.02,1.77,2.08,-3.54,201,278,190,446,326,16
1017,0.88,-0.47,-0.01,-0.18,-4.21,-1.89,203,279,185,448,326,16
1018,0.86,-0.49,0.02,0.55,-7.2,-3.66,197,275,191,443,326,16
1019,0.87,-0.49,-0.02,0.12,-2.44,3.97,210,278,188,446,326,16
1020,0.88,-0.47,0.0,-0.43,-4.46,-0.67,203,286,195,447,325,16
1021,0.88,-0.47,-0.02,-0.24,-2.93,-2.32,203,276,194,443,326,16
1022,0.89,-0.46,0.01,1.28,-3.05,-1.59,204,278,192,438,329,16
1023,0.88,-0.47,-0.01,0.0,-2.2,-1.77,206,278,194,443,332,16
1024,0.89,-0.48,-0.01,0.12,-2.56,-3.23,204,277,192,443,331,16
1025,0.88,-0.49,-0.01,-0.43,-2.62,-3.66,207,278,194,442,329,16
1026,0.88,-0.48,-0.02,0.37,-2.93,-2.44,206,279,188,449,330,16
1027,0.88,-0.48,-0.01,1.34,-3.6,-2.14,203,281,191,438,330,16
1028,0.88,-0.47,-0.02,1.22,-3.48,-3.42,206,281,192,448,330,16
1029,0.89,-0.47,-0.01,-0.12,-2.56,-1.4,208,278,204,446,328,16
1030,0.88,-0.48,-0.0,-2.08,-2.62,-1.22,209,275,194,445,325,16
1031,0.88,-0.47,0.01,-2.93,-0.85,-3.54,209,281,198,447,327,16
1032,0.89,-0.48,0.0,0.24,-3.23,-2.14,203,280,195,448,332,16
1033,0.87,-0.48,-0.02,0.98,-3.85,-2.81,209,276,194,442,328,16
1034,0.89,-0.48,-0.01,1.59,-4.33,0.92,199,279,199,450,329,16
1035,0.87,-0.49,-0.01,0.12,-2.99,-2.62,205,276,198,446,332,16
1036,0.87,-0.49,-0.02,-0.49,-3.97,-3.23,209,281,211,439,326,16
1037,0.87,-0.48,-0.02,1.53,-4.52,-1.89,207,280,194,449,331,16
1038,0.86,-0.49,-0.01,-2.01,-1.95,-3.05,207,277,199,449,329,16
1039,0.88,-0.48,-0.01,-0.12,-3.05,-2.81,206,282,198,446,331,16
1040,0.88,-0.48,-0.01,-0.24,-3.05,-3.78,207,282,187,444,327,16
1041,0.88,-0.48,0.0,1.89,-3.17,-2.5,207,280,203,447,331,16
1042,0.88,-0.47,0.0,2.2,-2.26,-3.72,204,282,200,447,327,16
1043,0.91,-0.46,0.0,6.29,-4.64,-6.23,206,277,195,443,329,16
1044,0.87,-0.48,-0.01,1.65,-1.1,-5.19,211,290,197,444,328,16
1045,0.88,-0.47,0.01,0.73,-2.44,-5.07,208,274,201,439,328,16
1046,0.9,-0.46,0.0,-3.66,-2.93,-1.1,204,281,198,446,330,16
1047,0.88,-0.47,-0.0,-0.06,-3.91,-0.98,203,280,200,439,329,16
1048,0.88,-0.47,-0.02,0.49,-2.87,-3.6,209,281,200,444,330,16
1049,0.89,-0.47,-0.0,1.53,-2.44,-0.92,208,282,197,448,329,16
1050,0.88,-0.47,-0.01,0.12,-3.17,-2.38,206,284,195,448,331,16
1051,0.89,-0.47,-0.01,3.6,-3.54,-3.36,204,282,197,448,328,16
1052,0.89,-0.47,-0.0,0.61,-2.99,-3.48,208,279,188,447,327,16
1053,0.89,-0.47,-0.01,2.38,-2.5,-2.99,207,279,198,444,332,16
1054,0.88,-0.47,-0.01,2.2,-3.11,-1.89,209,281,197,449,332,16
1055,0.88,-0.47,0.01,0.0,-2.01,-2.62,208,282,198,444,329,16
1056,0.88,-0.49,-0.01,0.61,-2.26,-2.81,210,277,188,449,329,16
1057,0.88,-0.48,-0.01,0.49,-3.05,-2.38,207,282,198,449,324,16
1058,0.89,-0.47,-0.0,0.79,-2.93,-2.32,208,280,197,447,330,16
1059,0.88,-0.48,-0.01,-0.06,-3.17,-2.5,206,280,203,446,329,16
1060,0.87,-0.48,-0.01,0.85,-2.2,-2.87,209,273,201,442,322,16
1061,0.88,-0.47,0.0,0.67,-2.75,-3.23,212,279,200,456,328,16
1062,0.89,-0.47,0.0,1.04,-3.23,-2.2,203,284,198,444,330,16
1063,0.88,-0.48,0.0,1.04,-2.56,-2.87,211,282,199,452,332,16
1064,0.88,-0.48,-0.0,0.24,-2.32,-3.54,210,280,196,441,329,16
1065,0.88,-0.47,-0.0,-0.43,-2.81,-1.83,206,281,205,449,330,16
1066,0.86,-0.46,-0.01,1.1,-3.72,-2.5,209,281,199,451,325,16
1067,0.87,-0.48,-0.01,0.0,-2.38,-3.11,205,283,199,441,325,16
1068,0.87,-0.47,-0.01,0.61,-2.2,-2.93,206,285,195,450,329,16
1069,0.88,-0.47,-0.01,0.06,-2.75,-3.05,206,277,201,451,328,16
1070,0.89,-0.46,-0.0,0.06,-2.75,-3.3,206,278,207,446,331,16
1071,0.89,-0.47,-0.0,-0.12,-2.99,-2.87,209,281,206,448,328,16
1072,0.89,-0.46,-0.01,-0.37,-2.56,-2.62,210,281,199,444,328,16
1073,0.89,-0.46,-0.0,-0.67,-2.87,-2.75,207,280,189,451,323,16
1074,0.89,-0.47,-0.0,1.53,-3.78,-1.83,209,282,199,447,339,16
1075,0.88,-0.47,-0.01,0.98,-3.17,-1.46,208,283,198,448,328,16
1076,0.87,-0.48,-0.01,0.18,-3.11,-1.77,234,280,200,445,327,16
1077,0.88,-0.48,-0.01,-0.18,-2.32,-2.93,207,281,201,450,331,16
1078,0.88,-0.48,-0.02,0.18,-2.38,-3.36,213,283,201,443,329,16
1079,0.87,-0.47,-0.0,0.18,-2.69,-3.05,210,283,199,447,330,16
1080,0.87,-0.46,-0.0,0.61,-2.75,-2.5,207,283,199,443,330,16
1081,0.88,-0.47,-0.01,1.46,-2.99,-2.93,212,277,205,450,328,16
1082,0.89,-0.46,-0.0,0.49,-2.62,-2.62,206,279,201,448,325,16
1083,0.88,-0.47,-0.01,0.55,-3.3,-1.77,210,283,199,445,333,16
1084,0.88,-0.47,-0.0,-0.12,-3.05,-1.77,208,279,198,452,331,16
1085,0.88,-0.48,-0.0,1.4,-3.66,-1.71,209,280,198,444,332,16
1086,0.87,-0.48,-0.02,-0.18,-2.14,-2.93,206,278,195,440,330,16
1087,0.87,-0.48,-0.02,0.24,-2.62,-2.81,206,281,201,448,328,16
1088,0.88,-0.47,0.0,-0.98,-3.05,-2.69,203,281,200,446,328,16
1089,0.9,-0.47,-0.0,-0.61,-2.69,-2.38,206,280,201,448,326,16
1090,0.88,-0.47,-0.01,0.43,-3.11,-2.5,207,279,202,441,328,16
1091,0.89,-0.47,-0.01,1.28,-3.11,-3.72,209,283,199,440,334,16
1092,0.89,-0.48,-0.02,2.14,-3.66,-2.81,207,274,203,446,330,16
1093,0.89,-0.48,-0.0,0.79,-2.99,-1.59,211,282,201,450,324,16
1094,0.89,-0.48,-0.02,-0.37,-2.87,-1.71,206,281,203,442,326,16
1095,0.87,-0.49,-0.0,0.12,-2.32,-3.17,207,283,197,452,331,16
1096,0.87,-0.48,0.0,-0.37,-2.44,-2.81,208,282,200,448,326,16
1097,0.88,-0.48,0.0,-0.37,-2.93,-2.93,208,281,203,447,325,16
1098,0.88,-0.47,-0.0,-0.73,-2.38,-2.44,210,279,201,448,331,16
1099,0.89,-0.48,-0.01,0.43,-2.56,-2.56,207,280,202,447,329,16
1100,0.88,-0.48,0.0,0.06,-2.93,-2.08,207,282,207,448,333,16
1101,0.88,-0.47,-0.0,0.12,-3.54,-1.4,208,281,205,450,331,16
1102,0.87,-0.48,-0.01,0.55,-3.72,-1.77,207,281,196,451,327,16
1103,0.88,-0.48,-0.01,0.24,-3.05,-2.32,210,280,202,450,329,16
1104,0.87,-0.49,-0.01,-1.04,-2.99,-1.71,203,284,203,448,326,16
1105,0.87,-0.49,-0.01,-0.12,-2.26,-2.56,208,280,203,448,332,16
1106,0.89,-0.48,-0.0,0.67,-2.62,-2.87,211,284,204,448,329,16
1107,0.88,-0.48,-0.0,-0.06,-1.95,-2.99,209,283,194,448,331,16
1108,0.88,-0.47,-0.01,0.06,-3.23,-3.11,208,287,203,446,324,16
1109,0.88,-0.48,-0.0,1.4,-2.87,-3.66,212,278,204,453,330,16
1110,0.89,-0.48,-0.01,1.34,-3.05,-3.48,210,282,201,448,329,16
1111,0.86,-0.47,-0.0,-0.49,-3.42,-1.59,208,277,203,447,326,16
1112,0.88,-0.48,-0.01,1.16,-3.48,-2.38,210,284,203,446,333,16
1113,0.88,-0.47,-0.01,-0.43,-2.75,-1.28,215,283,202,444,330,16
1114,0.88,-0.48,-0.0,1.04,-2.5,-2.38,209,287,205,446,330,16
1115,0.89,-0.49,-0.01,-0.06,-2.56,-3.3,208,282,202,445,328,16
1116,0.87,-0.47,-0.01,0.24,-2.14,-2.26,208,282,199,451,328,16
1117,0.89,-0.48,0.0,1.46,-2.87,-2.75,205,282,207,443,331,16
1118,0.88,-0.46,0.0,0.73,-3.11,-1.89,207,284,202,445,329,16
1119,0.89,-0.48,-0.01,0.24,-3.3,-3.11,207,281,199,451,331,16
1120,0.88,-0.48,0.0,0.61,-2.93,-3.05,212,281,202,450,330,16
1121,0.89,-0.48,0.01,0.98,-2.32,-3.23,208,284,202,439,327,16
1122,0.88,-0.5,0.0,-0.61,-1.89,-1.89,208,284,202,442,332,16
1123,0.87,-0.49,0.01,-0.61,-1.53,-2.44,209,286,208,454,331,16
1124,0.88,-0.49,0.01,0.92,-2.81,-3.48,210,281,201,447,325,16
1125,0.87,-0.48,-0.0,1.04,-2.32,-2.75,214,284,195,448,332,16
1126,0.88,-0.48,0.01,-0.06,-3.91,-2.08,211,283,201,449,329,16
1127,0.88,-0.49,0.0,0.43,-3.48,-1.22,210,283,202,446,326,16
1128,0.88,-0.48,-0.0,-0.49,-2.99,-1.95,201,285,204,447,332,16
1129,0.88,-0.49,0.0,0.67,-3.6,-2.75,211,280,206,442,332,16
1130,0.87,-0.48,0.0,0.06,-2.69,-2.32,205,286,204,450,331,16
1131,0.88,-0.48,0.01,1.04,-3.48,-3.05,211,285,202,455,327,16
1132,0.87,-0.48,0.0,0.06,-2.56,-2.99,211,288,204,446,328,16
1133,0.87,-0.48,0.0,0.92,-2.56,-2.81,211,285,202,452,329,16
1134,0.88,-0.47,0.0,0.0,-3.05,-2.32,209,281,201,445,323,16
1135,0.88,-0.48,0.01,0.61,-2.81,-2.62,211,284,205,452,330,16
1136,0.9,-0.48,0.01,0.18,-3.3,-2.26,213,282,210,449,331,16
1137,0.87,-0.49,0.01,-0.49,-2.87,-1.77,210,285,208,441,328,16
1138,0.87,-0.49,-0.0,0.12,-3.17,-2.56,211,290,207,455,328,16
1139,0.88,-0.48,0.0,-0.24,-2.75,-2.26,208,276,205,448,329,16
1140,0.87,-0.48,-0.0,-0.24,-2.69,-2.5,212,279,208,451,329,16
1141,0.88,-0.48,0.0,0.0,-2.56,-3.3,211,283,209,450,324,16
1142,0.89,-0.48,0.01,-0.12,-3.17,-3.11,210,283,198,448,330,16
1143,0.88,-0.47,0.01,0.79,-2.87,-2.08,216,288,205,450,329,16
1144,0.87,-0.48,0.02,0.24,-2.69,-2.32,210,292,204,450,328,16
1145,0.88,-0.47,-0.0,2.26,-3.6,-2.87,214,290,203,448,330,16
1146,0.87,-0.47,-0.0,0.49,-4.33,-2.62,214,285,193,448,330,16
1147,0.88,-0.47,0.01,1.22,-2.44,-2.08,208,285,207,446,326,16
1148,0.88,-0.48,0.0,0.49,-2.87,-2.38,210,280,200,437,328,16
1149,0.88,-0.47,0.0,-0.61,-2.99,-3.3,214,287,202,446,328,16
1150,0.89,-0.46,0.01,1.65,-2.69,-4.58,208,283,205,450,330,16
1151,0.88,-0.48,0.02,0.31,-2.75,-3.72,214,277,202,445,332,16
1152,0.89,-0.46,0.01,0.12,-3.6,-2.08,212,285,200,447,331,16
1153,0.88,-0.46,0.02,-1.95,-3.3,0.06,209,288,210,442,329,16
1154,0.89,-0.47,0.01,-1.83,-3.54,-2.01,210,283,206,445,329,16
1155,0.88,-0.47,0.01,-1.16,-2.44,-3.05,215,282,205,451,330,16
1156,0.87,-0.48,0.01,-3.6,-0.85,-3.72,211,281,208,445,329,16
1157,0.89,-0.46,0.03,-4.03,-1.77,-2.56,206,286,209,449,331,16
1158,0.9,-0.46,-0.0,0.49,-4.21,-3.85,209,285,204,449,333,16
1159,0.89,-0.44,-0.0,-1.28,-3.97,-1.71,206,286,202,442,330,16
1160,0.87,-0.48,0.01,2.01,-6.53,1.28,208,284,208,448,332,16
1161,0.89,-0.47,0.0,1.53,-5.19,-0.49,205,283,207,453,330,16
1162,0.88,-0.49,-0.02,-0.67,-2.87,-1.4,211,281,205,443,328,16
1163,0.87,-0.49,-0.01,0.49,-3.42,-2.69,212,282,205,445,325,16
1164,0.87,-0.49,-0.02,-0.55,-3.48,-2.26,209,287,205,445,332,16
1165,0.88,-0.48,-0.01,-0.24,-2.56,-2.32,212,293,208,446,329,16
1166,0.91,-0.47,0.0,0.0,-1.83,-2.69,209,286,211,446,330,16
1167,0.86,-0.5,0.0,-1.77,-4.76,-0.24,207,282,204,448,330,16
1168,0.9,-0.45,-0.0,4.7,-1.77,-1.71,211,286,207,444,330,16
1169,0.91,-0.44,-0.01,5.37,-4.39,-3.23,207,283,204,448,328,16
1170,0.88,-0.47,0.01,-0.24,-2.2,-1.34,208,284,205,451,326,16
1171,0.89,-0.47,-0.01,-2.69,-2.5,0.24,210,283,199,453,329,16
1172,0.89,-0.47,-0.01,-1.77,-2.81,0.31,209,278,201,449,326,16
1173,0.85,-0.49,-0.01,0.61,-1.95,-3.23,210,285,203,451,328,16
1174,0.87,-0.49,-0.04,-1.16,-0.55,-7.57,214,285,213,445,327,16
1175,0.93,-0.42,0.02,1.34,-0.85,-3.48,211,283,204,450,331,16
1176,0.91,-0.43,0.03,3.23,-2.44,-2.75,209,284,204,447,331,16
1177,0.9,-0.44,-0.0,-0.61,-3.36,-3.54,216,279,209,448,334,16
1178,0.9,-0.44,0.01,3.3,-1.53,-1.89,207,284,206,439,332,16
1179,0.9,-0.45,0.02,-0.85,-4.33,-4.7,210,291,209,448,329,16
1180,0.9,-0.44,0.02,1.22,-3.97,-2.56,211,284,207,445,330,16
1181,0.9,-0.44,0.01,1.46,-3.42,-2.5,208,285,205,447,329,16
1182,0.89,-0.45,0.01,-0.49,-2.01,-2.01,210,285,207,451,333,16
1183,0.89,-0.44,0.02,0.37,-3.05,-2.81,211,284,209,448,325,16
1184,0.9,-0.44,0.01,0.61,-2.62,-2.38,211,285,208,450,331,16
1185,0.9,-0.43,0.02,0.67,-2.08,-2.99,214,280,207,443,332,16
1186,0.9,-0.43,0.03,0.98,-2.99,-2.81,210,278,202,450,328,16
1187,0.91,-0.45,0.03,0.73,-2.44,-4.27,217,283,206,453,330,16
1188,0.89,-0.44,0.02,0.61,-1.77,-3.11,211,283,209,451,329,16
1189,0.9,-0.44,0.02,0.18,-3.23,-2.62,211,286,203,448,332,16
1190,0.9,-0.45,0.02,0.67,-3.11,-2.69,211,285,207,450,328,16
1191,0.91,-0.44,0.02,0.67,-3.17,-2.56,211,299,204,450,330,16
1192,0.9,-0.44,0.03,1.34,-2.69,-2.75,211,279,209,444,329,16
1193,0.89,-0.44,0.01,0.12,-2.87,-3.36,211,279,207,451,331,16
1194,0.91,-0.43,0.01,1.22,-3.17,-2.56,210,286,206,446,331,16
1195,0.89,-0.45,0.02,0.43,-2.75,-1.89,210,285,214,452,328,16
1196,0.89,-0.45,0.02,-0.24,-3.17,-4.94,212,283,208,448,329,16
1197,0.9,-0.44,0.03,-0.18,-1.95,-2.38,215,285,209,450,333,16
1198,0.89,-0.45,0.03,0.06,-2.93,-3.54,209,287,209,453,328,16
1199,0.89,-0.44,0.03,1.77,-3.36,-2.93,212,284,205,452,331,16
1200,0.89,-0.44,0.04,0.06,-2.62,-3.6,210,287,205,452,328,16
1201,0.91,-0.43,0.03,1.34,-3.17,-2.44,210,281,208,444,330,16
1202,0.91,-0.44,0.02,-0.61,-2.32,-2.62,213,288,208,446,327,16
1203,0.9,-0.43,0.02,1.65,-3.11,-3.05,210,284,206,457,331,16
1204,0.9,-0.43,0.03,0.49,-2.62,-2.99,215,289,205,448,330,16
1205,0.9,-0.43,0.03,0.67,-2.93,-2.69,214,284,211,443,330,16
1206,0.9,-0.43,0.03,0.67,-2.38,-2.99,211,284,208,448,333,16
1207,0.91,-0.43,0.03,-1.28,-3.42,-1.95,216,284,210,452,328,16
1208,0.91,-0.43,0.03,0.49,-2.81,-2.38,208,294,198,444,334,16
1209,0.9,-0.43,0.03,0.43,-2.99,-2.69,211,285,206,451,330,16
1210,0.9,-0.43,0.03,0.85,-3.48,-2.56,211,284,208,443,331,16
1211,0.91,-0.44,0.03,0.49,-2.38,-2.75,210,287,222,454,329,16
1212,0.91,-0.44,0.02,0.61,-2.44,-3.36,210,282,205,446,332,16
1213,0.9,-0.43,0.02,0.12,-2.81,-2.93,211,284,202,451,328,16
1214,0.91,-0.43,0.03,0.24,-3.11,-2.81,213,282,208,449,332,16
1215,0.91,-0.43,0.03,0.73,-2.81,-2.75,213,287,211,450,332,16
1216,0.91,-0.44,0.03,0.24,-3.17,-2.93,214,285,212,455,331,16
1217,0.91,-0.43,0.03,-0.43,-2.56,-2.38,211,281,207,450,332,16
1218,0.9,-0.44,0.03,-0.12,-3.05,-2.93,210,286,208,455,331,16
1219,0.9,-0.43,0.03,0.0,-3.36,-2.08,215,281,210,450,329,16
1220,0.9,-0.43,0.03,1.04,-2.32,-2.26,211,285,211,455,331,16
1221,0.9,-0.44,0.03,0.73,-3.36,-2.81,212,286,199,448,327,16
1222,0.9,-0.43,0.02,-0.67,-2.56,-2.99,211,285,207,449,332,16
1223,0.9,-0.43,0.02,0.31,-3.23,-2.26,214,283,204,453,330,16
1224,0.9,-0.43,0.03,-0.06,-2.2,-2.44,220,287,206,451,332,16
1225,0.9,-0.43,0.03,0.18,-2.99,-2.56,211,287,213,456,329,16
1226,0.9,-0.43,0.03,0.31,-2.62,-2.69,212,286,210,450,331,16
1227,0.9,-0.43,0.03,0.85,-3.54,-2.44,213,286,213,452,335,16
1228,0.9,-0.44,0.03,0.98,-3.17,-2.75,210,278,208,451,331,16
1229,0.9,-0.43,0.03,0.0,-3.3,-2.01,216,285,211,452,330,16
1230,0.9,-0.43,0.02,-0.55,-2.38,-2.69,212,286,207,453,330,16
1231,0.91,-0.43,0.02,0.85,-3.05,-3.11,211,287,214,446,329,16
1232,0.9,-0.44,0.02,-0.43,-2.62,-1.83,207,289,212,450,332,16
1233,0.9,-0.43,0.03,-0.18,-2.44,-2.2,214,287,209,454,330,16
1234,0.9,-0.43,0.03,-0.24,-2.69,-2.62,212,286,209,451,331,16
1235,0.9,-0.43,0.03,-0.43,-2.69,-2.08,212,288,209,447,328,16
1236,0.9,-0.43,0.02,0.61,-3.36,-2.44,213,285,201,456,329,16
1237,0.9,-0.44,0.02,0.43,-3.42,-2.5,215,280,208,450,331,16
1238,0.89,-0.43,0.03,-0.06,-2.2,-1.71,213,285,212,451,333,16
1239,0.9,-0.43,0.03,0.18,-2.99,-2.62,217,286,209,449,330,16
1240,0.9,-0.43,0.03,0.12,-2.56,-3.23,212,289,211,452,330,16
1241,0.9,-0.43,0.03,-0.06,-2.69,-2.56,206,284,209,455,326,16
1242,0.91,-0.43,0.03,0.79,-2.62,-2.81,213,288,207,450,333,16
1243,0.9,-0.44,0.03,-0.49,-2.99,-2.26,209,285,209,452,330,16
1244,0.89,-0.43,0.02,0.12,-2.62,-2.44,211,288,202,455,331,16
1245,0.9,-0.43,0.03,0.85,-3.36,-2.01,214,288,210,454,324,16
1246,0.91,-0.43,0.03,0.79,-3.11,-1.77,211,285,207,455,327,16
1247,0.9,-0.43,0.03,1.04,-2.87,-3.6,209,283,208,450,332,16
1248,0.91,-0.43,0.03,1.04,-2.99,-3.66,213,284,212,445,332,16
1249,0.9,-0.43,0.02,1.65,-2.87,-3.54,215,289,215,455,334,16
1250,0.9,-0.43,0.02,2.2,-3.6,-4.09,215,285,209,451,330,16
1251,0.92,-0.42,0.03,0.55,-3.05,-2.26,210,282,209,451,331,16
1252,0.92,-0.42,0.04,1.65,-2.75,-4.76,209,288,207,452,332,16
1253,0.89,-0.44,0.01,-0.61,-3.3,-1.46,213,285,204,448,333,16
1254,0.9,-0.43,0.03,-0.18,-3.23,-1.22,212,289,209,446,331,16
1255,0.91,-0.43,0.03,0.12,-2.14,-3.48,212,290,210,452,332,16
1256,0.91,-0.44,0.02,0.55,-3.54,-2.32,212,286,211,447,333,16
1257,0.91,-0.43,0.02,1.83,-3.36,-2.44,214,285,216,455,327,16
1258,0.91,-0.43,0.03,1.1,-2.69,-2.81,211,283,208,450,331,16
1259,0.9,-0.43,0.02,1.59,-3.78,-2.32,211,288,208,452,331,16
1260,0.9,-0.42,0.03,-0.49,-3.05,-2.62,213,287,205,456,332,16
1261,0.9,-0.43,0.02,1.22,-3.3,-2.87,212,289,214,450,336,16
1262,0.9,-0.44,0.02,0.92,-4.09,-2.99,206,283,211,455,331,16
1263,0.9,-0.43,0.02,-0.24,-2.56,-2.08,216,289,211,452,331,16
1264,0.9,-0.44,0.02,-0.24,-2.56,-2.56,214,285,209,453,331,16
1265,0.89,-0.43,0.02,0.12,-2.62,-2.44,209,289,213,451,330,16
1266,0.9,-0.44,0.02,1.22,-2.81,-2.93,213,287,213,446,327,16
1267,0.9,-0.44,0.02,0.06,-2.75,-3.48,207,287,213,454,330,16
1268,0.91,-0.43,0.02,-0.18,-2.38,-2.14,205,288,211,456,331,16
1269,0.9,-0.44,0.04,1.28,-2.75,-3.78,212,285,210,460,331,16
1270,0.9,-0.43,0.02,1.53,-3.05,-2.5,211,291,215,449,331,16
1271,0.91,-0.42,0.03,1.71,-3.3,-3.3,208,287,209,454,331,16
1272,0.92,-0.41,0.02,1.4,-2.87,-2.5,209,284,209,448,332,16
1273,0.9,-0.44,0.02,0.18,-3.17,-3.3,211,285,211,454,334,16
1274,0.92,-0.43,0.02,0.79,-2.99,-3.05,213,285,205,450,328,16
1275,0.9,-0.43,0.03,-0.55,-2.5,-1.77,212,288,211,447,333,16
1276,0.9,-0.43,0.03,-0.18,-2.81,-2.44,210,283,208,447,331,16
1277,0.9,-0.42,0.03,0.31,-3.05,-2.5,205,288,209,453,328,16
1278,0.9,-0.43,0.02,-0.06,-3.23,-2.32,210,285,202,453,331,16
1279,0.91,-0.43,0.03,1.04,-3.11,-2.56,207,283,208,448,332,16
1280,0.91,-0.42,0.03,1.34,-2.87,-2.75,205,287,212,454,330,16
1281,0.9,-0.43,0.03,-0.73,-3.42,-2.44,207,287,211,453,331,16
1282,0.92,-0.43,0.03,2.2,-2.38,-3.72,208,290,212,450,332,16
1283,0.9,-0.44,0.03,0.06,-2.99,-2.99,213,286,215,455,333,16
1284,0.89,-0.44,0.03,-0.12,-3.85,-2.38,214,284,208,454,331,16
1285,0.9,-0.44,0.03,0.0,-2.62,-1.89,220,287,205,453,331,16
1286,0.91,-0.44,0.02,1.53,-2.56,-3.85,208,284,211,453,331,16
1287,0.91,-0.43,0.03,1.04,-2.99,-3.23,214,288,208,455,331,16
1288,0.91,-0.43,0.03,0.73,-3.11,-1.77,217,290,203,452,332,16
1289,0.9,-0.44,0.03,-0.18,-2.14,-2.38,211,278,207,450,335,16
1290,0.9,-0.43,0.03,0.0,-3.3,-1.1,215,290,212,456,334,16
1291,0.9,-0.43,0.03,-0.24,-2.2,-3.17,210,283,209,454,328,16
1292,0.91,-0.42,0.02,0.06,-2.38,-2.56,210,288,209,445,332,16
1293,0.9,-0.42,0.03,0.24,-3.05,-2.32,213,287,207,456,332,16
1294,0.89,-0.44,0.02,0.31,-3.91,-2.26,211,283,212,451,330,16
1295,0.91,-0.42,0.03,0.73,-2.81,-2.08,216,285,211,451,332,16
1296,0.9,-0.43,0.04,-3.66,-0.06,-0.73,212,289,208,464,332,16
1297,0.92,-0.41,0.02,-0.18,-1.77,-2.99,218,291,212,452,330,16
1298,0.91,-0.42,0.02,2.56,-3.72,-2.81,212,286,212,452,329,16
1299,0.9,-0.43,0.01,0.0,-3.3,-2.56,214,286,206,454,333,16
1300,0.91,-0.42,0.0,0.85,-2.93,-2.56,209,285,210,463,331,16
1301,0.89,-0.42,0.0,2.56,-4.94,-2.81,216,287,209,451,329,16
1302,0.91,-0.42,0.02,0.49,-2.87,-2.5,215,289,208,455,334,16
1303,0.92,-0.42,0.03,1.77,-3.05,-3.05,213,294,208,454,335,16
1304,0.91,-0.42,0.03,1.4,-2.87,-2.32,211,290,207,453,331,16
1305,0.91,-0.43,0.01,0.37,-3.11,-1.71,213,288,214,457,331,16
1306,0.91,-0.44,0.01,0.49,-3.6,-3.78,213,285,209,451,333,16
1307,0.91,-0.42,0.01,0.24,-2.69,-2.87,214,288,218,454,331,16
1308,0.91,-0.45,0.02,-1.46,-2.5,-3.85,213,286,210,453,330,16
1309,0.9,-0.42,0.02,0.67,-3.11,-1.83,214,295,217,451,330,16
1310,0.91,-0.43,0.02,-0.06,-3.23,-2.26,214,291,213,456,329,16
1311,0.9,-0.43,0.02,0.37,-2.93,-1.59,212,286,211,451,330,16
1312,0.91,-0.42,0.01,0.55,-3.3,-3.05,213,286,205,451,333,16
1313,0.9,-0.42,0.02,1.04,-3.23,-2.08,214,287,209,451,331,16
1314,0.9,-0.46,0.01,-0.06,-1.95,-2.93,215,286,209,452,328,16
1315,0.87,-0.46,0.0,0.49,-1.46,-3.78,215,291,212,452,333,16
1316,0.93,-0.4,0.03,2.56,-3.05,-1.1,212,283,211,453,334,16
1317,0.88,-0.47,-0.03,-5.37,-4.46,1.77,212,286,211,457,329,16
1318,0.84,-0.49,0.01,1.46,-3.54,-6.1,241,286,212,452,335,16
1319,0.88,-0.46,-0.01,-0.61,-2.14,-3.97,212,286,212,453,331,16
1320,0.85,-0.48,0.03,-4.52,-3.85,-0.67,213,289,205,451,332,16
1321,0.89,-0.47,0.03,-0.12,-3.91,-1.46,212,288,211,452,331,16
1322,0.9,-0.44,-0.0,-0.98,-2.08,-1.53,212,283,206,456,330,16
1323,0.9,-0.45,0.04,2.56,-2.62,-2.56,214,288,211,450,333,16
1324,0.9,-0.44,0.01,1.22,-3.3,-3.3,213,286,212,449,330,16
1325,0.9,-0.45,0.01,0.43,-3.85,-2.14,214,289,211,456,332,16
1326,0.89,-0.45,0.01,1.1,-2.87,-1.83,214,286,208,445,332,16
1327,0.9,-0.44,0.03,0.67,-3.23,-2.62,211,299,217,451,334,16
1328,0.9,-0.45,0.02,1.46,-3.3,-1.71,209,288,214,452,333,16
1329,0.89,-0.45,0.01,2.01,-4.58,-1.53,215,280,210,449,335,16
1330,0.89,-0.46,0.01,1.77,-3.11,-2.75,214,290,213,452,329,16
1331,0.89,-0.46,0.01,0.79,-3.11,-2.5,215,285,215,451,334,16
1332,0.89,-0.46,0.01,-1.4,-2.87,-2.38,212,286,209,453,330,16
1333,0.88,-0.44,0.02,0.31,-2.99,-2.44,211,287,209,454,330,16
1334,0.89,-0.46,0.01,-0.67,-3.48,-2.62,213,289,211,453,331,16
1335,0.9,-0.45,0.02,0.61,-3.17,-2.38,211,293,213,454,329,16
1336,0.9,-0.46,0.01,1.83,-3.42,-2.87,206,289,213,449,328,16
1337,0.88,-0.45,0.02,1.46,-3.42,-2.56,213,288,209,453,332,16
1338,0.89,-0.47,0.01,1.28,-3.17,-2.32,213,286,212,452,332,16
1339,0.89,-0.46,0.03,-0.06,-2.01,-1.59,215,287,213,448,330,16
1340,0.87,-0.48,0.0,0.12,-2.5,-3.78,211,285,211,450,336,16
1341,0.9,-0.45,0.03,-0.73,-2.38,-5.07,213,289,210,456,335,16
1342,0.9,-0.45,0.03,0.0,-2.44,-2.69,210,285,209,451,333,16
1343,0.9,-0.45,0.03,0.61,-3.05,-1.65,211,286,203,455,333,16
1344,0.89,-0.48,0.03,0.92,-2.69,-3.42,214,290,203,453,334,16
1345,0.89,-0.45,0.02,0.24,-3.42,-2.99,215,285,211,454,331,16
1346,0.88,-0.46,0.02,0.73,-4.03,-2.2,212,286,199,451,333,16
1347,0.87,-0.48,0.01,0.43,-3.6,-2.87,212,286,215,461,335,16
1348,0.89,-0.46,0.03,-0.67,-3.23,-2.26,211,289,212,447,337,16
1349,0.9,-0.45,0.03,1.71,-2.32,-1.95,215,288,207,455,331,16
1350,0.9,-0.45,0.03,0.06,-2.69,-1.53,208,286,208,456,334,16
1351,0.9,-0.45,0.01,-0.61,-2.14,-2.14,209,286,216,452,327,16
1352,0.91,-0.44,0.02,0.85,-2.44,-1.65,209,285,200,452,333,16
1353,0.9,-0.45,0.01,0.31,-2.93,-0.61,213,286,210,455,332,16
1354,0.89,-0.46,0.01,0.92,-2.14,-4.52,209,286,212,445,332,16
1355,0.89,-0.45,0.02,0.61,-2.93,-4.88,213,288,209,446,333,16
1356,0.9,-0.43,0.02,-0.49,-2.08,-2.38,221,286,209,448,331,16
1357,0.91,-0.44,0.03,-2.01,-2.99,-1.34,210,287,214,450,330,16
1358,0.91,-0.43,0.03,0.24,-2.75,-3.05,212,287,214,451,328,16
1359,0.9,-0.44,0.02,-0.49,-2.62,-2.2,213,285,210,453,329,16
1360,0.89,-0.44,0.04,0.0,-1.95,-2.62,210,281,213,449,332,16
1361,0.89,-0.44,0.03,0.61,-3.23,-2.75,214,286,208,456,333,16
1362,0.89,-0.45,0.01,1.1,-3.11,-1.95,211,287,204,447,330,16
1363,0.9,-0.44,0.01,0.92,-3.42,-1.59,214,287,206,455,333,16
1364,0.91,-0.45,0.02,0.92,-2.69,-3.17,215,290,213,455,333,16
1365,0.89,-0.45,0.01,0.61,-2.44,-3.17,212,288,210,454,330,16
1366,0.89,-0.44,0.02,0.0,-2.56,-1.65,211,287,211,447,334,16
1367,0.9,-0.45,0.02,0.24,-2.69,-2.32,212,289,211,465,333,16
1368,0.89,-0.45,0.02,-0.12,-2.87,-2.56,211,291,213,452,328,16
1369,0.89,-0.45,0.02,-0.24,-2.81,-2.2,209,288,207,455,332,16
1370,0.89,-0.45,0.03,0.37,-2.38,-2.75,214,287,209,448,325,16
1371,0.89,-0.45,0.02,-0.49,-2.2,-4.09,211,288,215,456,330,16
1372,0.91,-0.42,0.01,1.83,-2.44,-1.77,214,288,201,449,332,16
1373,0.91,-0.44,0.02,1.16,-2.69,-2.01,211,287,215,457,327,16
1374,0.89,-0.44,0.02,0.79,-3.11,-2.62,211,289,213,449,330,16
1375,0.9,-0.44,0.02,0.43,-3.23,-2.5,213,289,213,453,328,16
1376,0.89,-0.45,0.02,-0.61,-2.56,-2.81,215,286,214,454,332,16
1377,0.9,-0.45,0.03,0.37,-1.28,-3.42,213,293,212,456,331,16
1378,0.91,-0.43,0.02,1.16,-0.85,-2.69,210,288,212,451,333,16
1379,0.9,-0.44,0.03,0.31,-2.5,-2.56,215,285,213,457,327,16
1380,0.9,-0.44,0.04,-0.79,-3.23,-1.53,211,288,212,454,331,16
1381,0.9,-0.44,0.03,0.49,-3.85,-1.34,210,289,213,452,329,16
1382,0.89,-0.45,0.03,1.95,-3.05,-2.5,213,282,216,454,332,16
1383,0.9,-0.44,0.04,-0.92,-3.72,-1.4,216,286,215,456,327,16
1384,0.9,-0.45,0.02,-0.06,-2.93,-1.04,212,286,212,453,329,16
1385,0.9,-0.45,0.03,0.79,-2.93,-1.22,218,286,218,448,333,16
1386,0.89,-0.46,0.02,0.79,-3.05,-1.77,215,287,217,448,331,16
1387,0.89,-0.47,0.01,0.55,-3.11,-2.38,212,286,213,459,330,16
1388,0.89,-0.46,0.02,0.37,-2.2,-3.36,211,287,208,453,333,16
1389,0.89,-0.45,0.02,0.55,-3.3,-5.74,212,288,210,455,331,16
1390,0.88,-0.45,-0.0,4.03,-2.38,-10.56,214,287,202,457,333,16
1391,0.92,-0.41,0.03,-2.32,-1.89,-0.79,212,286,211,451,332,16
1392,0.89,-0.43,0.01,2.2,-4.09,-3.3,215,285,212,446,334,16
1393,0.89,-0.43,0.03,-2.38,-1.59,-3.3,211,280,213,453,333,16
1394,0.92,-0.39,0.06,0.37,-2.62,-2.69,212,292,213,456,332,16
1395,0.9,-0.41,0.03,-1.71,-2.32,-1.53,215,289,211,451,332,16
1396,0.91,-0.4,0.02,-1.77,-2.93,-0.92,214,288,214,455,332,16
1397,0.91,-0.41,0.03,-0.73,-0.67,-2.62,209,288,212,454,331,16
1398,0.87,-0.47,0.04,-2.26,-3.23,-6.41,213,288,217,455,329,16
1399,0.92,-0.41,0.05,0.31,-2.56,-2.14,212,291,217,455,330,16
1400,0.91,-0.41,0.05,-0.24,-2.93,-0.55,216,286,210,452,331,16
1401,0.91,-0.44,0.05,-0.31,-3.11,-1.59,212,285,214,452,334,16
1402,0.89,-0.43,0.04,-0.79,-3.97,-1.4,217,289,212,453,327,16
1403,0.9,-0.42,0.05,0.73,-3.36,-0.85,214,283,204,454,332,16
1404,0.89,-0.43,0.04,-0.85,-3.72,-1.77,212,284,214,453,334,16
1405,0.91,-0.42,0.03,1.04,-3.54,-4.33,215,289,203,457,326,16
1406,0.9,-0.44,0.03,-1.46,-3.97,-1.77,212,289,209,449,341,16
1407,0.9,-0.45,0.03,5.31,-3.66,-2.08,212,290,207,453,332,16
1408,0.9,-0.45,0.02,2.01,-4.09,-1.28,213,283,216,454,332,16
1409,0.91,-0.44,0.02,-0.49,-2.81,-0.79,209,290,208,456,333,16
1410,0.87,-0.48,0.02,-0.12,-1.04,-2.44,213,287,210,452,331,16
1411,0.88,-0.47,0.02,2.01,-2.5,-2.32,212,289,215,453,332,16
1412,0.88,-0.48,0.03,-0.73,-1.16,-2.99,213,287,216,453,334,16
1413,0.87,-0.48,0.03,-0.73,-2.32,-1.28,212,286,213,454,330,16
1414,0.88,-0.48,0.03,-0.24,-2.75,-0.98,212,289,210,451,328,16
1415,0.89,-0.47,0.03,-0.24,-2.87,-2.38,212,288,215,457,331,16
1416,0.89,-0.47,0.02,2.5,-3.48,-3.78,214,285,209,454,332,16
1417,0.89,-0.49,0.03,0.37,-2.75,-4.76,212,282,211,451,331,16
1418,0.88,-0.47,0.02,0.18,-3.17,-2.87,217,290,209,452,329,16
1419,0.88,-0.48,0.02,0.37,-2.81,-2.69,213,292,210,456,332,16
1420,0.87,-0.47,0.03,-1.1,-1.53,-2.93,213,287,219,455,330,16
1421,0.89,-0.46,0.03,-0.18,-2.26,-3.17,215,287,212,453,335,16
1422,0.9,-0.46,0.04,-0.37,-3.05,-2.2,213,283,211,452,329,16
1423,0.88,-0.46,0.03,0.43,-3.05,-2.08,213,288,216,444,333,16
1424,0.88,-0.48,0.02,1.1,-2.93,-3.11,214,290,213,455,334,16
1425,0.88,-0.47,0.02,-0.37,-2.99,-2.14,211,289,215,457,332,16
1426,0.89,-0.46,0.02,-0.24,-3.85,-1.77,211,292,208,454,327,16
1427,0.9,-0.46,0.03,0.55,-2.81,-3.23,212,290,212,455,330,16
1428,0.87,-0.48,0.01,0.98,-4.21,-3.3,213,288,215,453,331,16
1429,0.89,-0.46,0.04,0.85,-2.38,-1.34,224,285,209,461,331,16
1430,0.89,-0.47,0.03,-0.06,-3.97,-1.59,218,288,211,452,333,16
1431,0.89,-0.47,0.01,-0.24,-3.48,-3.36,214,287,213,454,331,16
1432,0.89,-0.46,0.03,0.67,-2.69,-3.48,217,286,216,452,330,16
1433,0.9,-0.45,0.01,0.37,-3.42,-3.23,244,285,215,456,332,16
1434,0.89,-0.46,0.04,0.43,-3.23,-3.42,216,284,211,452,332,16
1435,0.9,-0.45,0.02,2.14,-2.81,-2.14,212,298,214,455,328,16
1436,0.89,-0.45,0.02,-0.85,-2.81,-2.38,243,290,219,456,330,16
1437,0.9,-0.46,-0.0,0.85,-3.05,-6.59,222,292,216,448,332,16
1438,0.9,-0.44,0.02,0.85,-2.69,-3.05,213,287,209,453,335,16
1439,0.9,-0.44,0.02,0.31,-2.99,-2.75,218,286,217,453,330,16
1440,0.9,-0.45,0.03,2.01,-3.97,-4.58,210,284,209,457,331,16
1441,0.91,-0.43,0.02,1.95,-2.01,-2.38,211,289,210,450,332,16
1442,0.89,-0.46,0.01,1.4,-2.81,-3.42,211,286,215,450,333,16
1443,0.91,-0.44,0.03,1.04,-1.59,-1.16,208,285,209,457,333,16
1444,0.89,-0.46,0.02,0.31,-2.93,-3.6,209,288,210,453,333,16
1445,0.88,-0.46,0.02,0.24,-2.81,-2.69,210,289,212,453,333,16
1446,0.89,-0.46,0.03,0.24,-2.32,-2.81,207,283,214,452,330,16
1447,0.89,-0.46,0.03,0.37,-2.62,-2.81,212,287,213,451,333,16
1448,0.89,-0.46,0.02,0.06,-2.81,-2.99,213,285,209,454,332,16
1449,0.9,-0.45,0.02,1.34,-2.93,-2.26,214,289,214,457,330,16
1450,0.89,-0.46,0.01,-0.92,-2.87,-2.14,212,282,216,452,333,16
1451,0.89,-0.45,0.02,0.43,-3.3,-2.44,212,283,212,453,335,16
1452,0.88,-0.47,0.02,-0.61,-2.56,-1.89,212,288,213,448,332,16
1453,0.89,-0.46,0.02,-1.22,-2.26,-2.5,212,292,217,458,332,16
1454,0.89,-0.46,0.02,-0.18,-3.36,-3.36,217,288,210,454,332,16
1455,0.9,-0.45,0.02,0.18,-2.44,-2.5,215,291,212,457,331,16
1456,0.9,-0.45,0.02,0.73,-3.17,-3.05,214,286,208,449,333,16
1457,0.9,-0.46,0.02,-0.31,-3.11,-2.26,212,288,212,460,331,16
1458,0.89,-0.46,0.02,0.67,-3.6,-2.69,215,287,213,452,332,16
1459,0.88,-0.46,0.03,2.99,-4.7,-2.01,210,290,215,456,329,16
1460,0.88,-0.46,0.01,0.61,-2.99,-2.14,216,286,213,456,331,16
1461,0.89,-0.46,0.03,-0.67,-2.2,-3.23,213,286,213,452,333,16
1462,0.9,-0.45,0.02,-0.37,-2.44,-2.87,213,294,213,453,339,16
1463,0.89,-0.45,0.02,0.12,-2.81,-2.62,213,289,211,453,331,16
1464,0.9,-0.44,0.02,0.85,-3.05,-2.32,213,288,212,451,331,16
1465,0.9,-0.44,0.02,0.79,-3.3,-2.08,213,282,213,458,330,16
1466,0.9,-0.44,0.02,-0.12,-2.08,-2.87,215,289,213,454,332,16
1467,0.9,-0.45,0.03,1.28,-4.33,-2.75,215,297,212,449,334,16
1468,0.89,-0.45,0.02,0.37,-2.93,-2.75,217,288,213,457,332,16
1469,0.91,-0.48,0.01,-0.61,-1.34,-2.87,210,288,213,456,332,16
1470,0.89,-0.46,0.02,-1.28,-2.44,-1.77,211,289,211,455,335,16
1471,0.89,-0.45,0.02,-0.61,-2.99,-2.14,213,283,216,458,333,16
1472,0.89,-0.44,0.03,0.12,-2.62,-2.5,213,292,214,456,332,16
1473,0.9,-0.45,0.03,0.73,-2.38,-2.99,210,284,210,452,332,16
1474,0.89,-0.45,0.02,-0.06,-3.72,-2.5,212,286,214,456,329,16
1475,0.89,-0.45,0.02,1.04,-3.17,-3.3,213,286,214,457,338,16
1476,0.89,-0.46,0.02,1.28,-2.75,-2.87,210,284,212,455,333,16
1477,0.89,-0.46,0.02,1.22,-3.97,-2.2,210,288,214,455,327,16
1478,0.9,-0.42,0.03,1.65,-2.93,-1.89,211,287,226,449,330,16
1479,0.88,-0.46,0.04,-1.71,-3.66,-2.62,214,293,212,447,335,16
1480,0.93,-0.43,0.02,4.39,-3.11,-4.88,210,293,212,458,332,16
1481,0.89,-0.46,0.02,0.0,-3.66,-3.85,212,287,216,453,332,16
1482,0.85,-0.48,0.04,-2.5,-3.85,-3.17,210,287,217,452,329,16
1483,0.88,-0.45,0.04,0.67,-1.53,-3.91,213,285,211,457,331,16
1484,0.91,-0.43,0.02,1.77,-3.66,-3.3,210,286,216,460,332,16
1485,0.89,-0.44,0.04,0.73,-0.43,-3.23,214,289,215,454,326,16
1486,0.91,-0.45,0.03,-0.79,-0.61,-5.74,215,291,216,451,327,16
1487,0.92,-0.43,0.02,-0.31,-4.76,-2.75,214,287,212,454,332,16
1488,0.89,-0.43,0.03,1.65,-2.08,-2.93,215,289,211,454,333,16
1489,0.93,-0.42,0.04,3.36,-5.0,-3.36,215,290,217,456,329,16
1490,0.9,-0.44,0.02,-2.2,-2.69,0.55,212,289,214,449,330,16
1491,0.9,-0.44,-0.0,0.31,-3.72,-2.87,220,288,214,457,332,16
1492,0.89,-0.46,0.0,-1.53,-2.87,-1.95,214,287,212,454,329,16
1493,0.85,-0.48,0.0,-3.6,-3.05,-0.12,212,283,214,457,329,16
1494,0.89,-0.46,0.0,-0.31,-2.08,-2.2,214,287,212,453,329,16
1495,0.89,-0.43,-0.02,2.99,-4.88,-0.49,214,286,216,450,326,16
1496,0.88,-0.44,0.03,1.1,-2.32,-2.69,215,286,208,457,328,16
1497,0.9,-0.46,0.02,-0.49,-2.01,-3.23,212,286,212,457,330,16
1498,0.89,-0.46,-0.0,-1.34,-2.87,-2.14,215,287,211,454,331,16
1499,0.88,-0.47,0.0,0.18,-3.17,-2.56,210,286,216,453,330,16
1500,0.9,-0.45,0.0,2.2,-3.72,-0.67,215,290,212,456,326,16
1501,0.89,-0.47,0.01,0.43,-2.62,-2.08,211,285,215,454,333,16
1502,0.9,-0.45,0.0,1.65,-4.21,-4.88,211,286,209,459,330,16
1503,0.89,-0.47,-0.0,0.37,-3.42,-1.22,215,290,215,457,328,16
1504,0.88,-0.47,-0.01,1.04,-1.95,-4.09,214,286,206,456,328,16
1505,0.89,-0.47,-0.0,0.79,-2.32,-3.05,215,291,213,461,341,16
1506,0.88,-0.47,0.01,-0.92,-2.32,-1.59,215,287,213,454,331,16
1507,0.89,-0.47,-0.0,-0.12,-2.93,-2.38,213,290,211,456,332,16
1508,0.89,-0.47,0.01,-2.93,-1.83,-1.95,213,290,213,456,327,16
1509,0.88,-0.47,0.01,-0.73,-2.75,-2.75,210,287,215,455,330,16
1510,0.88,-0.48,-0.0,0.06,-2.93,-2.99,218,286,218,451,332,16
1511,0.88,-0.48,0.0,0.31,-2.99,-2.75,214,287,213,454,332,16
1512,0.89,-0.47,-0.0,0.31,-2.62,-3.05,212,283,215,458,329,16
1513,0.9,-0.46,0.01,-0.24,-3.05,-1.28,214,286,214,455,329,16
1514,0.77,-0.59,0.19,-6.84,-6.16,30.58,280,312,213,443,346,16
1515,0.86,-0.45,0.28,-12.57,7.39,-37.23,281,314,216,440,348,16
1516,0.78,-0.52,0.27,-3.3,-1.28,0.31,282,308,219,442,349,16
1517,0.74,-0.56,0.32,-8.0,6.1,-10.13,282,314,217,456,348,16
1518,0.75,-0.53,0.29,1.59,-0.43,-3.23,281,313,218,442,350,16
1519,0.81,-0.55,0.26,2.26,-3.85,-6.41,283,313,218,446,353,16
1520,0.92,-0.44,0.25,-35.16,6.96,3.17,254,303,215,441,346,16
1521,0.73,-0.6,0.25,-28.56,1.16,-13.79,260,307,220,425,347,16
1522,0.73,-0.61,0.28,0.73,-1.22,-11.96,265,309,220,435,347,16
1523,0.79,-0.55,0.32,0.85,7.02,-9.34,275,310,219,435,349,16
1524,0.84,-0.5,0.3,-1.1,-3.85,-2.38,266,312,221,437,359,16
1525,0.82,-0.49,0.29,-0.92,-3.72,-4.46,267,310,223,439,348,16
1526,0.76,-0.56,0.31,0.49,-3.23,1.71,269,311,223,441,350,16
1527,0.81,-0.56,0.36,-1.53,-1.83,22.71,271,311,223,446,350,16
1528,0.76,-0.63,0.32,2.81,-7.14,-11.05,267,314,224,443,354,16
1529,0.75,-0.62,0.35,-4.39,5.13,1.65,269,313,228,448,352,16
1530,0.77,-0.58,0.33,2.44,-4.76,-2.87,270,315,223,447,352,16
1531,0.76,-0.57,0.31,-1.22,-5.86,-2.62,264,314,223,445,349,16
1532,0.73,-0.63,0.36,2.44,-0.43,-3.6,256,311,225,437,339,16
1533,0.74,-0.57,0.33,9.22,-3.36,-0.55,256,314,226,441,345,16
1534,0.76,-0.57,0.34,-3.78,-5.25,-3.97,260,313,227,444,347,16
1535,0.75,-0.58,0.33,3.91,-3.05,-2.01,259,315,226,441,348,16
1536,0.77,-0.58,0.34,-5.07,-5.98,-3.91,260,318,225,454,345,16
1537,0.77,-0.57,0.28,3.11,-4.64,-1.34,255,316,226,446,333,16
1538,0.78,-0.59,0.32,-0.98,-0.61,-3.42,260,319,220,448,329,16
1539,0.76,-0.58,0.29,2.69,-4.94,-3.85,257,321,223,450,331,16
1540,0.76,-0.59,0.29,3.3,-3.23,-0.85,262,318,225,447,332,16
1541,0.78,-0.58,0.31,-1.1,-4.15,-3.05,263,319,225,444,335,16
1542,0.75,-0.67,0.33,-5.31,-1.16,3.42,252,312,217,456,326,16
1543,0.8,-0.53,0.28,11.6,-2.56,-3.3,244,298,218,454,306,16
1544,0.79,-0.58,0.3,-9.46,-2.38,-5.49,243,300,216,454,297,16
1545,0.8,-0.55,0.23,-1.59,-4.15,-3.23,257,303,219,456,294,16
1546,0.8,-0.56,0.25,5.0,0.31,-0.92,244,304,217,456,299,16
1547,0.8,-0.55,0.31,5.25,-4.76,-2.32,250,309,222,451,301,16
1548,0.8,-0.53,0.28,4.09,-2.08,-2.26,252,313,221,448,302,16
1549,0.81,-0.53,0.32,-2.5,-1.71,-3.91,254,314,226,445,306,16
1550,0.79,-0.54,0.3,2.87,-2.99,-2.26,255,311,228,449,309,16
1551,0.8,-0.54,0.33,-1.1,-2.08,-2.38,256,316,227,454,306,16
1552,0.8,-0.53,0.28,1.89,-2.87,-2.14,256,312,225,453,308,16
1553,0.79,-0.53,0.31,-1.65,-2.93,-2.56,256,310,226,456,312,16
1554,0.79,-0.55,0.3,2.56,-3.11,-2.38,256,313,228,457,313,16
1555,0.81,-0.53,0.28,2.81,-1.77,-1.95,256,310,227,452,315,16
1556,0.78,-0.54,0.33,-0.37,-0.43,-2.32,260,315,228,457,315,16
1557,0.8,-0.53,0.3,2.81,-3.11,-2.56,259,314,227,456,314,16
1558,0.79,-0.53,0.32,-0.61,-3.6,-2.44,265,314,231,452,315,16
1559,0.79,-0.54,0.32,1.77,-3.97,-2.14,260,314,228,461,314,16
1560,0.8,-0.52,0.3,0.67,-4.7,-3.3,259,312,230,460,314,16
1561,0.78,-0.54,0.34,0.79,-2.99,-4.03,258,316,226,461,315,16
1562,0.8,-0.54,0.33,-1.95,-3.3,-2.62,271,314,228,462,313,16
1563,0.8,-0.52,0.31,2.08,-2.2,-2.5,256,317,240,453,316,16
1564,0.8,-0.52,0.32,-4.88,-4.15,-3.66,255,315,230,457,315,16
1565,0.81,-0.51,0.28,0.37,-0.92,-2.56,260,317,231,454,316,16
1566,0.81,-0.53,0.3,0.67,-2.62,-3.36,258,318,229,458,318,16
1567,0.78,-0.56,0.33,-1.89,-1.53,-0.61,259,321,234,462,317,16
1568,0.79,-0.52,0.28,1.83,-2.14,-1.65,263,316,232,457,313,16
1569,0.79,-0.54,0.31,-6.77,-2.81,-4.27,262,317,232,459,314,16
1570,0.78,-0.54,0.29,2.26,-3.17,-0.73,258,316,230,458,317,16
1571,0.79,-0.57,0.33,-9.46,-2.38,-2.14,262,318,229,462,320,16
1572,0.79,-0.54,0.3,1.89,-2.56,-2.01,262,315,231,462,320,16
1573,0.78,-0.55,0.31,-0.06,-2.69,-2.26,263,314,229,459,323,16
1574,0.78,-0.54,0.3,1.53,-3.05,-2.38,261,318,230,458,317,16
1575,0.8,-0.54,0.27,10.31,-2.44,0.55,263,317,239,467,314,16
1576,0.79,-0.53,0.3,-2.38,-3.97,-4.03,263,315,231,461,318,16
1577,0.79,-0.55,0.32,-0.61,-4.33,-3.36,261,315,233,461,316,16
1578,0.79,-0.55,0.33,-2.32,-3.48,-2.69,263,316,229,463,318,16
1579,0.79,-0.55,0.31,-1.83,-3.36,-3.36,262,316,234,461,319,16
1580,0.77,-0.55,0.31,0.43,-3.42,-2.2,263,319,230,458,318,16
1581,0.78,-0.56,0.31,-0.24,-3.23,-2.75,263,318,230,460,320,16
1582,0.77,-0.56,0.32,-1.65,-2.5,-3.85,263,317,231,460,319,16
1583,0.78,-0.56,0.32,0.0,-3.17,-2.69,261,315,232,465,321,16
1584,0.8,-0.55,0.29,1.4,-3.97,-2.87,265,317,233,465,321,16
1585,0.78,-0.56,0.3,1.59,-3.66,-2.2,263,316,234,461,317,16
1586,0.79,-0.55,0.28,-2.5,-3.11,-3.3,262,316,235,461,318,16
1587,0.78,-0.55,0.3,1.34,-2.81,-1.77,261,315,235,465,318,16
1588,0.8,-0.56,0.27,1.59,-3.36,-2.81,261,323,234,466,320,16
1589,0.78,-0.57,0.28,0.85,-3.91,-1.4,264,316,229,461,317,16
1590,0.8,-0.53,0.32,-0.37,-0.73,-1.95,262,317,237,457,317,16
1591,0.79,-0.58,0.27,0.43,-5.43,-2.08,264,322,231,468,315,16
1592,0.76,-0.54,0.36,5.19,0.49,-1.4,264,319,236,465,320,16
1593,0.76,-0.57,0.31,-0.85,-0.12,-2.2,263,320,235,464,316,16
1594,0.75,-0.59,0.32,0.79,-2.14,2.26,264,321,231,467,321,16
1595,0.73,-0.57,0.32,-2.87,-6.35,-1.04,263,315,231,464,320,16
1596,0.75,-0.62,0.32,0.31,-4.03,-2.38,262,319,230,461,317,16
1597,0.77,-0.59,0.32,3.05,-5.25,-3.54,265,320,231,462,320,16
1598,0.74,-0.58,0.32,0.79,-2.32,-3.42,263,319,235,466,321,16
1599,0.75,-0.58,0.31,-3.17,-3.78,-3.23,262,317,235,468,321,16
1600,0.75,-0.58,0.31,-0.61,-2.69,-2.62,262,320,232,463,318,16
1601,0.76,-0.59,0.3,-0.85,-3.72,-2.38,263,316,234,464,319,16
1602,0.76,-0.59,0.31,0.18,-2.2,-1.83,270,317,230,465,318,16
1603,0.75,-0.59,0.29,2.2,-3.48,-2.08,264,318,234,462,323,16
1604,0.76,-0.58,0.32,-0.67,-2.69,-3.91,262,317,233,462,318,16
1605,0.77,-0.58,0.28,5.25,-2.32,-1.71,266,318,230,458,321,16
1606,0.76,-0.58,0.32,2.87,-1.65,-1.04,262,322,233,463,324,16
1607,0.75,-0.58,0.3,0.0,-2.26,-3.17,265,319,236,460,323,16
1608,0.76,-0.58,0.3,0.0,-3.36,-3.85,268,322,235,463,321,16
1609,0.77,-0.57,0.32,3.91,-1.71,-1.22,271,319,234,465,322,16
1610,0.74,-0.59,0.32,7.81,-2.14,0.0,264,322,232,466,321,16
1611,0.75,-0.61,0.32,-1.16,-4.33,-1.59,265,322,235,463,320,16
1612,0.74,-0.6,0.34,-0.79,-2.93,-3.97,265,317,237,461,322,16
1613,0.73,-0.6,0.35,-0.85,-1.71,-1.89,265,321,236,460,324,16
1614,0.73,-0.6,0.35,1.89,-3.05,-1.71,264,320,236,468,319,16
1615,0.74,-0.6,0.33,-1.65,-2.44,-2.99,265,319,235,468,323,16
1616,0.74,-0.6,0.3,0.98,-3.72,-2.81,264,322,237,464,318,16
1617,0.74,-0.6,0.35,-3.85,-4.52,-3.05,268,324,236,462,323,16
1618,0.74,-0.6,0.33,0.98,-2.81,-2.56,265,321,236,462,325,16
1619,0.75,-0.6,0.31,0.79,-2.62,-2.5,267,330,238,463,325,16
1620,0.75,-0.6,0.32,0.55,-2.26,-2.26,268,321,236,464,322,16
1621,0.75,-0.59,0.31,1.77,-2.26,-2.75,267,320,238,464,323,16
1622,0.75,-0.59,0.31,0.06,-2.69,-3.05,267,320,236,465,323,16
1623,0.75,-0.59,0.32,-0.24,-2.69,-2.32,266,320,236,469,324,16
1624,0.74,-0.61,0.33,-1.4,-3.48,-2.75,268,320,234,460,324,16
1625,0.74,-0.59,0.31,1.65,-2.75,-1.53,267,321,235,462,323,16
1626,0.76,-0.6,0.31,1.89,-2.93,-1.65,266,320,235,463,323,16
1627,0.74,-0.6,0.31,0.79,-3.05,-2.38,269,320,235,465,321,16
1628,0.76,-0.59,0.32,1.04,-2.32,-1.77,264,320,236,462,322,16
1629,0.75,-0.6,0.32,2.26,-2.93,-2.2,265,320,237,466,323,16
1630,0.76,-0.6,0.33,-0.79,-3.3,-3.3,265,320,239,469,324,16
1631,0.75,-0.6,0.33,-1.16,-3.85,-3.11,267,321,237,463,323,16
1632,0.75,-0.6,0.31,0.0,-3.11,-2.38,268,320,239,465,322,16
1633,0.75,-0.6,0.32,-1.1,-2.01,-4.64,266,320,238,468,327,16
1634,0.74,-0.6,0.33,-3.66,-2.69,-7.26,267,319,241,469,320,16
1635,0.75,-0.6,0.31,1.46,-1.65,-2.2,269,318,237,465,324,16
1636,0.77,-0.6,0.29,-4.64,-3.72,-3.3,269,320,238,463,323,16
1637,0.75,-0.6,0.3,0.06,-4.46,-2.56,263,321,238,460,322,16
1638,0.75,-0.61,0.3,-4.46,-4.27,-5.0,266,320,239,468,325,16
1639,0.76,-0.59,0.3,0.18,-2.99,-2.44,268,318,239,462,324,16
1640,0.75,-0.59,0.3,0.49,-2.93,-2.75,268,321,238,465,324,16
1641,0.76,-0.59,0.29,1.53,-4.21,-2.32,270,323,238,461,326,16
1642,0.75,-0.59,0.31,0.92,-2.99,-2.62,268,322,241,465,324,16
1643,0.75,-0.57,0.31,5.19,-4.09,-1.65,268,320,244,465,324,16
1644,0.77,-0.6,0.32,-2.01,-2.81,-2.62,264,322,239,466,324,16
1645,0.75,-0.58,0.31,0.73,-3.17,-2.99,265,318,241,468,324,16
1646,0.74,-0.59,0.3,-5.19,-5.8,-5.55,269,332,236,469,324,16
1647,0.72,-0.59,0.31,0.55,-2.75,-2.5,265,322,238,464,324,16
1648,0.76,-0.58,0.3,0.24,-3.97,-3.17,264,319,239,468,324,16
1649,0.76,-0.59,0.32,-0.06,-3.3,-2.5,267,322,242,466,326,16
1650,0.75,-0.58,0.31,-0.12,-1.95,-2.38,265,320,241,465,325,16
1651,0.75,-0.58,0.32,0.73,-2.62,-1.77,268,321,241,467,325,16
1652,0.75,-0.59,0.32,1.16,-2.75,-3.11,268,321,240,469,325,16
1653,0.75,-0.59,0.32,0.67,-2.44,-3.11,270,318,242,468,322,16
1654,0.76,-0.59,0.31,-0.24,-4.27,-3.23,264,323,242,468,326,16
1655,0.74,-0.59,0.32,1.28,-2.93,-1.59,263,323,238,465,327,16
1656,0.75,-0.58,0.32,1.34,-2.62,-2.01,266,323,236,466,325,16
1657,0.77,-0.58,0.33,1.71,-0.06,-1.65,263,323,241,466,327,16
1658,0.76,-0.57,0.34,0.18,-2.62,-2.93,266,320,244,465,327,16
1659,0.76,-0.59,0.33,-0.49,-3.97,-0.98,268,320,241,465,322,16
1660,0.74,-0.6,0.35,2.08,-2.81,-3.05,275,325,243,469,327,16
1661,0.75,-0.59,0.36,0.85,-2.14,-2.44,266,321,239,465,328,16
1662,0.75,-0.62,0.32,-1.4,-5.8,-2.93,267,318,240,467,334,16
1663,0.76,-0.59,0.32,-0.06,-5.31,-4.82,266,320,239,468,324,16
1664,0.76,-0.58,0.32,0.12,-4.21,-4.15,266,324,241,464,326,16
1665,0.74,-0.58,0.32,0.18,-2.87,-2.81,266,322,238,465,325,16
1666,0.75,-0.58,0.33,-0.49,-2.38,-3.6,265,322,242,465,327,16
1667,0.75,-0.58,0.35,0.06,-2.32,-3.6,266,320,239,467,328,16
1668,0.75,-0.57,0.34,1.83,-1.77,-1.95,268,318,239,469,329,16
1669,0.74,-0.58,0.34,-0.85,-2.99,-2.44,266,323,240,470,327,16
1670,0.74,-0.58,0.34,0.0,-3.3,-2.62,266,320,240,465,327,16
1671,0.76,-0.57,0.34,0.06,-2.69,-2.81,265,320,242,459,326,16
1672,0.75,-0.58,0.34,0.37,-2.69,-2.75,270,323,238,465,326,16
1673,0.75,-0.57,0.35,1.28,-1.89,-2.2,265,322,240,465,326,16
1674,0.74,-0.58,0.35,0.06,-2.08,-2.56,266,321,238,465,326,16
1675,0.74,-0.58,0.34,-0.37,-3.11,-2.93,266,320,240,464,325,16
1676,0.74,-0.58,0.35,0.24,-4.46,-2.81,267,324,239,465,327,16
1677,0.74,-0.58,0.35,1.1,-2.5,-2.75,268,319,240,462,328,16
1678,0.75,-0.58,0.34,0.85,-3.36,-2.87,266,332,242,463,327,16
1679,0.74,-0.58,0.34,-0.31,-3.05,-2.81,267,325,240,467,329,16
1680,0.74,-0.58,0.33,-0.31,-3.17,-3.05,267,322,241,469,323,16
1681,0.76,-0.58,0.34,-0.24,-4.03,-3.23,267,327,242,467,328,16
1682,0.75,-0.58,0.33,0.12,-3.17,-2.56,266,321,243,468,327,16
1683,0.75,-0.59,0.34,-1.1,-3.17,-2.32,289,320,243,465,329,16
1684,0.75,-0.58,0.34,0.18,-2.87,-1.04,268,319,237,465,327,16
1685,0.74,-0.58,0.36,-0.18,-2.69,-2.56,266,320,242,465,327,16
1686,0.75,-0.58,0.34,1.65,-3.48,-2.5,267,320,243,460,325,16
1687,0.74,-0.58,0.35,0.31,-3.42,-3.6,266,323,240,466,328,16
1688,0.75,-0.57,0.36,1.46,-2.08,-2.26,269,323,240,465,328,16
1689,0.75,-0.58,0.35,-0.49,-2.81,-3.48,263,321,244,465,328,16
1690,0.74,-0.57,0.34,-2.56,-4.76,-3.97,269,320,243,465,325,16
1691,0.78,-0.57,0.34,-3.17,-3.66,-2.62,265,320,240,453,326,16
1692,0.76,-0.57,0.29,4.09,-0.55,-1.59,268,319,240,450,323,16
1693,0.74,-0.59,0.34,-5.62,-2.87,-2.26,270,316,240,451,330,16
1694,0.78,-0.6,0.31,-0.79,-3.05,2.62,270,318,240,460,325,16
1695,0.76,-0.57,0.32,4.52,-2.75,-1.4,267,323,239,460,329,16
1696,0.75,-0.59,0.31,4.52,-2.14,-1.89,269,320,240,462,325,16
1697,0.73,-0.6,0.33,-11.72,2.81,-7.26,270,320,241,451,326,16
1698,0.75,-0.58,0.31,-5.98,-0.85,-4.58,271,323,238,454,327,16
1699,0.79,-0.58,0.24,7.75,-7.26,-0.61,272,321,239,451,327,16
1700,0.76,-0.59,0.27,-0.61,-4.7,-3.85,270,323,240,458,326,16
1701,0.83,-0.61,0.34,2.14,-0.67,-13.61,268,318,243,460,328,16
1702,0.81,-0.54,0.32,1.53,-6.96,-5.31,271,324,237,457,331,16
1703,0.77,-0.5,0.32,5.0,-2.2,5.07,266,321,241,462,330,16
1704,0.77,-0.57,0.34,0.61,-1.71,-2.87,273,322,247,467,327,16
1705,0.79,-0.55,0.31,-1.77,-4.7,-4.46,271,322,241,461,331,16
1706,0.77,-0.54,0.29,1.65,-5.98,-3.42,273,321,242,467,330,16
1707,0.81,-0.53,0.3,0.55,-0.79,-7.32,274,323,239,463,330,16
1708,0.8,-0.51,0.31,5.0,-3.17,-4.21,273,321,243,473,329,16
1709,0.79,-0.52,0.33,-0.06,0.43,-1.77,268,323,244,467,330,16
1710,0.79,-0.5,0.3,-4.94,-2.26,0.31,272,321,244,467,326,16
1711,0.72,-0.55,0.29,3.85,-4.52,15.87,276,327,240,464,338,16
1712,0.81,-0.56,0.4,10.07,1.04,0.92,274,320,245,464,332,16
1713,0.8,-0.52,0.36,5.68,-4.58,-1.28,269,322,242,463,328,16
1714,0.77,-0.54,0.33,2.01,-2.81,-0.79,271,324,243,465,329,16
1715,0.74,-0.53,0.4,-1.59,-3.3,0.43,271,321,243,461,329,16
1716,0.75,-0.57,0.38,-6.65,-1.77,-0.85,273,325,242,465,331,16
1717,0.77,-0.56,0.36,-0.85,-4.21,-2.93,272,325,245,466,332,16
1718,0.77,-0.55,0.38,2.08,-4.03,-2.44,271,324,243,465,328,16
1719,0.77,-0.54,0.37,0.79,-4.64,-2.75,272,324,243,462,333,16
1720,0.76,-0.56,0.35,-0.55,-3.42,-3.97,274,324,243,467,329,16
1721,0.77,-0.53,0.37,-0.43,-3.36,-1.46,275,321,243,467,331,16
1722,0.74,-0.57,0.38,-0.12,-3.17,-1.1,276,324,239,467,331,16
1723,0.75,-0.55,0.36,-1.04,-2.93,-2.62,263,322,241,464,332,16
1724,0.76,-0.55,0.37,0.37,-2.56,-3.05,275,323,243,459,328,16
1725,0.75,-0.57,0.35,4.64,-1.95,-0.98,271,321,248,461,331,16
1726,0.77,-0.55,0.35,-0.24,-3.05,-3.78,271,324,245,468,327,16
1727,0.76,-0.57,0.37,1.28,-3.42,-3.3,272,328,242,467,333,16
1728,0.74,-0.55,0.35,-2.32,-3.85,-4.88,273,325,242,463,330,16
1729,0.75,-0.57,0.38,0.31,-3.23,-2.69,273,322,243,464,331,16
1730,0.74,-0.56,0.37,0.67,-2.32,-1.46,277,324,244,465,334,16
1731,0.74,-0.55,0.36,0.24,-3.17,-1.77,274,325,243,465,330,16
1732,0.76,-0.55,0.35,1.95,-2.56,-2.08,274,325,243,464,333,16
1733,0.76,-0.55,0.35,1.89,-3.23,-2.32,273,322,242,469,335,16
1734,0.77,-0.57,0.36,-0.79,-3.36,-1.95,275,325,243,465,329,16
1735,0.74,-0.57,0.35,0.43,-3.3,-2.75,272,322,254,467,332,16
1736,0.75,-0.56,0.37,1.22,-2.38,-1.95,273,322,246,465,331,16
1737,0.74,-0.56,0.36,-1.4,-0.12,-0.06,286,322,245,468,330,16
1738,0.74,-0.57,0.36,1.1,-1.4,-2.81,270,323,243,465,333,16
1739,0.74,-0.57,0.36,1.34,-2.81,-1.53,300,322,243,458,328,16
1740,0.74,-0.57,0.36,-0.31,-3.6,-3.42,274,326,241,463,333,16
1741,0.74,-0.56,0.36,1.28,-3.54,-1.71,272,322,247,459,331,16
1742,0.72,-0.58,0.38,2.93,-3.54,-0.98,270,325,249,460,331,16
1743,0.74,-0.57,0.35,2.93,-1.59,-0.98,273,323,244,463,328,16
1744,0.74,-0.58,0.38,-2.44,-4.21,-3.91,275,321,243,464,334,16
1745,0.74,-0.56,0.37,0.98,-3.66,-2.38,276,326,242,463,333,16
1746,0.76,-0.57,0.37,0.67,-2.75,-2.56,274,323,259,463,331,16
1747,0.75,-0.57,0.36,1.04,-3.66,-2.62,270,325,243,464,333,16
1748,0.74,-0.57,0.36,-0.24,-2.81,-1.77,275,322,243,464,332,16
1749,0.74,-0.58,0.37,0.31,-1.34,-3.6,273,323,244,464,332,16
1750,0.75,-0.55,0.38,2.5,-4.15,-3.54,273,328,249,458,331,16
1751,0.77,-0.58,0.37,0.92,-1.95,-1.53,274,320,242,468,331,16
1752,0.75,-0.58,0.35,1.83,-3.85,-1.65,275,325,245,465,330,16
1753,0.75,-0.58,0.35,2.99,-1.77,-1.89,273,330,245,464,334,16
1754,0.74,-0.56,0.37,2.56,-2.56,-2.99,273,325,246,465,334,16
1755,0.74,-0.57,0.37,1.1,-3.11,-2.99,273,325,245,464,334,16
1756,0.74,-0.57,0.36,1.34,-2.81,-2.5,273,325,245,465,329,16
1757,0.74,-0.57,0.37,1.59,-2.44,-2.32,276,323,245,470,332,16
1758,0.75,-0.57,0.37,1.4,-2.62,-1.83,276,324,243,465,330,16
1759,0.75,-0.57,0.37,0.43,-2.81,-2.75,275,326,245,469,333,16
1760,0.75,-0.57,0.38,0.92,-3.42,-3.11,274,323,247,469,332,16
1761,0.75,-0.56,0.38,0.85,-2.69,-2.01,272,323,243,463,335,16
1762,0.74,-0.58,0.38,-0.73,-3.23,-4.39,273,321,241,470,333,16
1763,0.76,-0.56,0.36,0.06,-3.85,-2.93,301,325,243,467,332,16
1764,0.74,-0.57,0.36,-0.85,-2.38,-2.38,274,326,246,470,333,16
1765,0.75,-0.57,0.36,1.71,-2.01,-1.89,285,325,244,468,327,16
1766,0.75,-0.56,0.36,0.43,-2.32,-2.14,271,325,243,461,329,16
1767,0.74,-0.58,0.38,-1.83,-3.36,-2.75,275,325,244,465,331,16
1768,0.75,-0.57,0.35,-0.85,-3.23,-2.81,272,327,244,471,330,16
1769,0.74,-0.58,0.37,1.46,-2.81,-1.71,272,323,244,466,335,16
1770,0.75,-0.58,0.36,1.65,-3.11,-2.32,274,325,247,470,333,16
1771,0.74,-0.57,0.37,0.73,-2.75,-2.93,272,324,247,463,334,16
1772,0.74,-0.56,0.39,0.73,-3.11,-2.44,272,322,247,467,332,16
1773,0.74,-0.58,0.39,-0.55,-3.54,-3.78,275,324,247,468,331,16
1774,0.75,-0.57,0.38,0.61,-3.11,-2.44,275,323,246,460,332,16
1775,0.75,-0.57,0.38,0.43,-2.75,-1.77,272,323,245,467,332,16
1776,0.74,-0.58,0.38,1.16,-2.87,-2.2,273,322,247,466,328,16
1777,0.75,-0.57,0.36,1.53,-3.48,-2.38,272,323,247,468,337,16
1778,0.72,-0.58,0.38,0.73,-2.5,-2.75,275,331,246,467,332,16
1779,0.74,-0.57,0.38,0.31,-3.54,-2.26,272,321,248,466,333,16
1780,0.74,-0.58,0.38,0.31,-2.08,-2.14,273,325,245,471,332,16
1781,0.73,-0.58,0.38,-0.43,-2.2,-2.93,272,326,244,465,333,16
1782,0.74,-0.58,0.37,-0.18,-2.56,-2.56,273,324,244,468,332,16
1783,0.74,-0.58,0.38,1.04,-2.75,-2.44,273,322,245,465,334,16
1784,0.74,-0.57,0.39,-0.24,-2.44,-1.95,275,323,241,467,329,16
1785,0.73,-0.58,0.37,1.28,-1.89,-1.22,272,324,245,470,332,16
1786,0.74,-0.58,0.37,-1.46,-4.03,-3.48,270,322,244,465,331,16
1787,0.73,-0.59,0.36,-2.38,-3.3,-2.38,276,324,247,467,334,16
1788,0.73,-0.59,0.35,1.46,-2.75,-2.44,273,322,244,468,334,16
1789,0.73,-0.6,0.36,-0.18,-2.26,-2.26,276,323,248,465,334,16
1790,0.74,-0.59,0.37,0.06,-3.23,-2.5,272,323,243,470,333,16
1791,0.73,-0.58,0.35,1.1,-1.89,-2.01,273,323,246,471,333,16
1792,0.73,-0.59,0.35,0.49,-2.93,-2.5,274,324,245,466,334,16
1793,0.74,-0.59,0.36,1.59,-3.05,-1.77,273,323,245,463,331,16
1794,0.69,-0.61,0.38,2.38,-5.19,1.59,273,324,247,464,331,16
1795,0.72,-0.59,0.34,0.18,-0.31,-2.75,271,325,245,469,336,16
1796,0.73,-0.6,0.33,-0.12,-3.05,-2.44,274,327,242,460,335,16
1797,0.72,-0.61,0.34,-1.77,-3.66,-4.52,271,325,245,466,331,16
1798,0.72,-0.6,0.34,-0.43,-2.44,-2.32,275,324,248,467,333,16
1799,0.73,-0.59,0.34,0.43,-2.32,-2.93,271,324,251,466,335,16
1800,0.73,-0.6,0.33,0.98,-2.44,-1.59,274,324,241,467,340,16
1801,0.75,-0.59,0.34,1.65,-2.87,-2.62,273,327,248,467,331,16
1802,0.73,-0.6,0.34,-1.46,-3.3,-3.48,300,327,248,467,330,16
1803,0.74,-0.59,0.33,0.49,-2.62,-2.87,276,325,244,463,332,16
1804,0.75,-0.59,0.33,1.1,-3.11,-2.01,273,323,247,460,334,16
1805,0.74,-0.59,0.33,1.04,-2.5,-1.22,274,323,243,465,333,16
1806,0.73,-0.61,0.34,-0.12,-3.36,-2.26,264,324,245,467,331,16
1807,0.73,-0.6,0.34,-1.22,-5.13,-3.17,254,323,246,466,333,16
1808,0.74,-0.59,0.32,2.2,-2.32,-2.14,253,323,245,468,330,16
1809,0.73,-0.6,0.35,-1.89,-3.3,-2.87,258,325,244,465,331,16
1810,0.73,-0.6,0.34,-0.43,-2.99,-2.75,255,323,250,464,331,16
1811,0.74,-0.59,0.33,0.12,-3.05,-2.93,257,326,245,468,330,16
1812,0.73,-0.59,0.35,0.24,-3.17,-2.2,257,323,248,462,332,16
1813,0.74,-0.59,0.34,0.98,-3.97,-1.59,258,323,245,465,330,16
1814,0.76,-0.61,0.32,2.08,-2.99,-2.08,259,327,246,461,333,16
1815,0.72,-0.6,0.34,1.34,-2.32,-1.4,266,335,246,466,332,16
1816,0.74,-0.59,0.34,1.34,-2.81,-2.08,263,327,246,467,331,16
1817,0.73,-0.59,0.33,1.1,-3.48,-2.75,259,325,251,469,330,16
1818,0.75,-0.59,0.33,2.32,-2.5,-0.92,262,322,249,467,333,16
1819,0.73,-0.6,0.33,0.12,-3.48,-2.56,259,324,245,467,332,16
1820,0.73,-0.6,0.33,0.92,-2.5,-2.5,261,325,247,466,331,16
1821,0.74,-0.6,0.34,1.16,-1.95,-2.75,260,323,249,466,331,16
1822,0.74,-0.6,0.33,5.25,-2.14,-1.04,262,326,249,466,332,16
1823,0.73,-0.6,0.33,0.31,-3.6,-3.17,260,325,248,467,332,16
1824,0.75,-0.58,0.34,-4.09,-3.11,-4.09,267,326,248,466,332,16
1825,0.73,-0.6,0.36,0.98,-4.09,-2.08,261,326,248,468,331,16
1826,0.74,-0.6,0.33,1.28,-3.11,-2.01,260,326,249,463,335,16
1827,0.73,-0.6,0.33,1.04,-1.46,-1.71,260,321,244,466,334,16
1828,0.74,-0.6,0.33,1.95,-2.26,-1.65,263,324,246,466,332,16
1829,0.73,-0.59,0.33,0.55,-3.36,-2.32,260,327,246,465,332,16
1830,0.73,-0.59,0.34,-1.04,-3.42,-2.99,260,325,247,467,328,16
1831,0.73,-0.6,0.35,0.67,-3.17,-2.26,258,327,245,466,328,16
1832,0.74,-0.6,0.35,-2.81,-3.54,-4.39,258,324,243,466,332,16
1833,0.73,-0.6,0.35,-0.18,-3.11,-3.11,264,324,249,469,333,16
1834,0.74,-0.59,0.35,0.61,-2.01,-2.26,260,328,248,471,332,16
1835,0.73,-0.6,0.34,0.37,-3.11,-2.2,261,324,246,468,334,16
1836,0.74,-0.6,0.35,0.18,-3.23,-2.56,261,323,246,466,332,16
1837,0.74,-0.6,0.33,1.46,-3.17,-2.01,261,327,247,467,333,16
1838,0.74,-0.6,0.35,-1.59,-2.62,-2.75,262,325,249,464,332,16
1839,0.74,-0.6,0.34,2.08,-1.46,-1.53,262,324,249,466,332,16
1840,0.72,-0.6,0.36,-1.22,-3.11,-3.05,257,326,249,470,332,16
1841,0.72,-0.61,0.36,0.31,-2.93,-2.44,262,324,246,468,332,16
1842,0.72,-0.6,0.34,-1.1,-3.23,-2.56,262,328,250,466,332,16
1843,0.73,-0.6,0.34,-0.06,-3.78,-2.93,268,324,249,468,332,16
1844,0.73,-0.61,0.35,-0.61,-3.42,-3.3,263,325,245,468,331,16
1845,0.73,-0.6,0.34,0.67,-2.99,-1.71,263,325,246,466,332,16
1846,0.72,-0.6,0.35,1.4,-2.08,-3.11,263,324,246,469,333,16
1847,0.72,-0.6,0.35,2.2,-2.75,-1.95,260,325,246,467,330,16
1848,0.72,-0.61,0.37,-0.43,-3.42,-3.23,264,325,248,477,330,16
1849,0.75,-0.6,0.36,-0.79,-1.83,-2.62,264,327,246,469,332,16
1850,0.7,-0.61,0.38,0.67,-2.69,-1.59,260,330,247,465,332,16
1851,0.72,-0.59,0.37,2.26,-5.98,1.34,262,324,247,467,332,16
1852,0.74,-0.6,0.34,-0.61,-1.53,-4.27,277,327,247,467,333,16
1853,0.76,-0.6,0.36,-1.89,-3.3,-2.62,262,325,248,469,333,16
1854,0.71,-0.6,0.36,-0.12,-1.95,-0.79,262,325,254,471,334,16
1855,0.73,-0.59,0.36,0.67,-2.87,-2.62,262,325,248,468,331,16
1856,0.74,-0.59,0.37,-0.92,-2.93,-1.1,265,325,249,472,332,16
1857,0.74,-0.59,0.35,1.65,-3.11,-2.44,263,325,247,469,331,16
1858,0.74,-0.6,0.35,-0.61,-3.78,-3.85,265,326,247,465,331,16
1859,0.72,-0.6,0.36,0.43,-2.5,-2.38,263,329,250,468,330,16
1860,0.74,-0.59,0.36,1.4,-2.93,-1.65,277,324,252,461,333,16
1861,0.73,-0.6,0.36,1.77,-2.99,-2.38,265,325,258,464,330,16
1862,0.72,-0.62,0.37,1.1,-3.85,-2.44,266,324,246,469,336,16
1863,0.73,-0.59,0.37,-0.18,-2.81,-2.56,266,326,245,467,336,16
1864,0.73,-0.59,0.37,0.24,-3.36,-2.56,265,328,250,466,332,16
1865,0.72,-0.6,0.36,-1.46,-3.91,-3.72,269,328,250,471,333,16
1866,0.73,-0.6,0.36,-0.49,-3.17,-3.05,265,325,247,470,333,16
1867,0.73,-0.59,0.36,0.12,-3.91,-2.99,266,325,247,472,340,16
1868,0.73,-0.6,0.36,0.49,-2.38,-2.69,265,327,248,466,333,16
1869,0.73,-0.59,0.36,0.12,-3.6,-2.5,263,325,248,468,332,16
1870,0.73,-0.59,0.35,-0.67,-3.72,-3.17,263,326,248,465,336,16
1871,0.73,-0.6,0.35,0.61,-3.42,-2.5,262,328,250,467,329,16
1872,0.71,-0.6,0.36,1.59,-3.66,-2.56,267,332,246,470,330,16
1873,0.72,-0.6,0.34,1.53,-2.69,-2.01,265,326,249,467,333,16
1874,0.73,-0.6,0.36,0.49,-3.23,-2.38,261,325,249,466,334,16
1875,0.73,-0.61,0.34,-0.18,-3.11,-3.6,263,324,245,468,332,16
1876,0.74,-0.6,0.35,0.37,-2.87,-2.93,267,326,250,464,335,16
1877,0.74,-0.6,0.35,-0.24,-3.17,-2.56,266,325,249,471,336,16
1878,0.72,-0.61,0.34,-0.79,-1.89,-2.5,263,327,248,472,330,16
1879,0.74,-0.6,0.35,1.28,-3.66,-2.56,264,329,248,470,330,16
1880,0.74,-0.6,0.35,1.65,-2.75,-2.5,272,324,252,462,329,16
1881,0.73,-0.6,0.34,0.37,-3.72,-2.44,264,324,247,467,335,16
1882,0.74,-0.59,0.36,0.24,-1.59,-2.08,264,327,249,467,333,16
1883,0.73,-0.6,0.36,0.18,-2.38,-1.22,264,326,245,465,325,16
1884,0.72,-0.61,0.35,-0.24,-2.75,-1.89,278,326,250,469,333,16
1885,0.71,-0.61,0.35,1.16,-1.59,-1.59,264,325,249,469,335,16
1886,0.71,-0.61,0.36,-0.12,-3.36,-3.05,263,326,246,464,331,16
1887,0.72,-0.61,0.35,0.92,-2.99,-2.01,265,327,249,468,330,16
1888,0.71,-0.62,0.35,0.98,-2.75,-2.14,266,325,246,468,332,16
1889,0.71,-0.61,0.35,1.1,-3.17,-2.62,265,330,248,470,333,16
1890,0.72,-0.62,0.36,0.0,-3.85,-3.23,264,326,247,468,334,16
1891,0.71,-0.62,0.35,1.77,-2.26,-1.77,265,324,247,461,332,16
1892,0.71,-0.61,0.35,1.4,-2.75,-2.44,277,324,247,472,333,16
1893,0.71,-0.61,0.34,0.61,-2.93,-2.93,265,327,250,472,333,16
1894,0.72,-0.61,0.35,-2.38,-3.3,-3.85,264,328,249,467,329,16
1895,0.71,-0.62,0.35,-1.1,-4.76,-3.72,266,323,246,469,331,16
1896,0.71,-0.61,0.35,2.26,-3.3,-1.71,265,324,253,467,330,16
1897,0.72,-0.62,0.34,0.37,-2.93,-2.56,261,328,248,466,332,16
1898,0.72,-0.62,0.36,-0.06,-2.87,-2.32,267,327,248,466,333,16
1899,0.72,-0.61,0.37,8.54,-4.03,-1.59,262,324,249,468,334,16
1900,0.69,-0.59,0.43,2.44,-2.38,0.98,250,313,241,469,338,16
1901,0.71,-0.6,0.38,-0.37,-4.88,-0.31,249,308,240,456,339,16
1902,0.7,-0.62,0.35,0.73,-3.42,-2.93,255,311,243,462,333,16
1903,0.73,-0.61,0.34,0.06,-2.2,-3.54,253,311,243,462,335,16
1904,0.72,-0.61,0.35,3.66,-3.23,-2.62,256,312,244,465,336,16
1905,0.7,-0.6,0.42,0.92,-3.97,-1.83,257,312,247,462,336,16
1906,0.71,-0.61,0.38,0.98,-3.3,-2.93,258,313,245,466,340,16
1907,0.71,-0.58,0.36,0.18,0.37,-2.14,256,312,245,459,340,16
1908,0.73,-0.6,0.38,0.73,-2.56,-2.56,256,311,246,464,341,16
1909,0.72,-0.6,0.37,3.91,-2.5,-2.38,256,317,243,462,339,16
1910,0.69,-0.6,0.4,-1.83,-3.66,-3.66,263,312,241,474,339,16
1911,0.7,-0.61,0.38,1.53,-2.08,-2.01,258,315,246,468,335,16
1912,0.71,-0.6,0.39,2.01,-2.87,-2.2,259,316,244,467,338,16
1913,0.72,-0.6,0.39,0.12,-3.05,-2.87,261,321,246,469,337,16
1914,0.71,-0.6,0.38,0.0,-3.78,-2.75,259,319,247,463,337,16
1915,0.71,-0.6,0.39,-0.49,-3.3,-1.59,260,317,248,466,337,16
1916,0.72,-0.61,0.38,1.16,-3.85,-2.44,266,316,248,466,335,16
1917,0.72,-0.61,0.37,-1.16,-3.17,-3.72,259,320,246,467,339,16
1918,0.71,-0.61,0.39,0.49,-3.6,-2.87,262,319,245,463,336,16
1919,0.71,-0.6,0.37,2.62,-3.66,-1.4,260,317,244,465,341,16
1920,0.71,-0.61,0.37,-1.1,-2.87,-2.62,262,318,243,470,338,16
1921,0.71,-0.61,0.37,0.49,-3.05,-1.71,259,318,249,467,339,16
1922,0.71,-0.61,0.38,-0.61,-3.78,-2.38,262,320,246,466,339,16
1923,0.7,-0.61,0.37,-0.37,-2.62,-2.99,260,320,251,469,340,16
1924,0.71,-0.61,0.38,0.43,-2.5,-2.32,260,317,251,467,342,16
1925,0.71,-0.61,0.37,1.65,-2.01,-2.62,260,320,246,469,340,16
1926,0.72,-0.61,0.37,2.14,-2.14,-2.08,260,322,247,461,340,16
1927,0.72,-0.61,0.37,0.12,-3.05,-3.17,263,321,247,466,338,16
1928,0.71,-0.6,0.36,0.85,-2.38,-2.08,261,320,248,466,339,16
1929,0.7,-0.61,0.38,0.55,-3.11,-2.87,262,317,248,465,338,16
1930,0.71,-0.61,0.38,0.61,-2.38,-2.08,259,322,245,470,342,16
1931,0.71,-0.61,0.39,-1.04,-2.99,-2.99,261,320,246,468,340,16
1932,0.7,-0.61,0.38,0.43,-3.6,-3.05,259,321,249,463,338,16
1933,0.7,-0.61,0.38,1.28,-2.56,-2.08,263,320,245,467,338,16
1934,0.71,-0.61,0.4,-2.69,-2.08,-3.36,261,318,250,461,340,16
1935,0.7,-0.61,0.38,2.08,-3.54,-2.2,262,322,244,470,339,16
1936,0.71,-0.6,0.37,0.24,-3.48,-2.75,261,322,246,467,343,16
1937,0.71,-0.61,0.38,-0.85,-3.91,-2.44,262,322,249,471,338,16
1938,0.71,-0.61,0.37,0.67,-3.36,-2.32,264,318,247,460,343,16
1939,0.69,-0.61,0.38,-1.04,-2.87,-2.81,263,320,245,464,341,16
1940,0.71,-0.62,0.38,-1.95,-2.75,-3.97,261,326,244,470,340,16
1941,0.7,-0.61,0.38,-2.93,-4.33,-3.42,262,320,249,466,342,16
1942,0.71,-0.61,0.37,1.22,-1.95,-1.95,259,318,247,467,340,16
1943,0.7,-0.61,0.38,0.73,-2.56,-2.44,261,320,247,468,338,16
1944,0.71,-0.61,0.38,0.06,-3.54,-3.17,264,323,251,462,340,16
1945,0.7,-0.61,0.38,-0.24,-3.23,-2.75,267,323,247,467,340,16
1946,0.7,-0.62,0.38,2.38,-2.56,-1.53,263,320,249,471,340,16
1947,0.7,-0.61,0.38,2.99,-2.5,-1.28,265,316,250,470,337,16
1948,0.69,-0.61,0.38,0.55,-2.62,-1.77,261,322,247,472,342,16
1949,0.7,-0.62,0.39,0.73,-2.26,-2.01,261,320,248,481,341,16
1950,0.71,-0.62,0.39,-1.04,-3.3,-2.44,264,318,244,466,340,16
1951,0.71,-0.61,0.38,0.37,-3.42,-2.75,255,321,251,468,339,16
1952,0.71,-0.61,0.38,0.24,-2.99,-1.77,262,323,247,471,341,16
1953,0.7,-0.61,0.39,0.0,-3.54,-2.69,261,321,247,468,340,16
1954,0.7,-0.62,0.39,0.67,-3.54,-2.75,261,322,253,467,343,16
1955,0.7,-0.61,0.38,0.12,-3.66,-2.01,261,317,248,468,341,16
1956,0.7,-0.61,0.39,2.14,-1.89,-1.04,261,322,248,470,340,16
1957,0.7,-0.61,0.38,1.77,-2.56,-2.5,261,321,249,467,342,16
1958,0.68,-0.61,0.4,-0.43,-2.87,-2.08,265,324,246,466,339,16
1959,0.69,-0.61,0.41,-0.79,-2.38,-1.28,262,319,252,469,339,16
1960,0.69,-0.61,0.37,2.01,-2.99,-1.95,260,321,247,461,338,16
1961,0.69,-0.62,0.39,0.67,-3.48,-3.05,263,318,251,470,341,16
1962,0.7,-0.63,0.4,-1.46,-2.87,-2.56,265,321,250,470,342,16
1963,0.69,-0.61,0.39,-1.4,-2.87,-3.85,271,318,249,466,340,16
1964,0.69,-0.62,0.38,1.46,-2.62,-2.69,263,319,254,479,339,16
1965,0.7,-0.62,0.38,1.89,-2.2,-2.38,266,321,250,467,343,16
1966,0.69,-0.62,0.38,-0.37,-2.62,-2.32,266,322,251,462,338,16
1967,0.69,-0.62,0.37,2.81,-2.93,-1.71,261,317,247,465,342,16
1968,0.7,-0.62,0.38,0.85,-2.32,-1.28,262,322,251,464,338,16
1969,0.69,-0.62,0.39,0.79,-5.0,-2.69,263,321,249,469,338,16
1970,0.69,-0.63,0.39,-0.85,-3.66,-4.21,262,321,252,469,338,16
1971,0.7,-0.62,0.38,-1.34,-3.17,-2.69,266,324,246,464,339,16
1972,0.69,-0.61,0.38,2.87,-1.83,-1.77,262,320,248,467,340,16
1973,0.7,-0.62,0.39,0.31,-3.11,-2.75,262,320,247,467,341,16
1974,0.7,-0.63,0.38,0.49,-2.75,-2.93,263,320,250,471,340,16
1975,0.75,-0.63,0.35,6.96,-3.85,-2.44,263,318,249,467,339,16
1976,0.68,-0.59,0.42,2.56,-1.16,1.95,264,336,249,460,337,16
1977,0.69,-0.64,0.38,-0.92,-4.76,-5.25,263,321,249,466,343,16
1978,0.66,-0.63,0.38,-0.85,-0.18,-1.53,265,320,250,461,342,16
1979,0.65,-0.63,0.41,1.28,-4.15,-0.92,266,319,248,466,340,16
1980,0.69,-0.64,0.37,-1.53,-2.2,-3.11,259,320,249,469,340,16
1981,0.68,-0.64,0.38,-0.98,-4.27,-3.11,263,320,248,471,342,16
1982,0.69,-0.64,0.37,0.55,-2.62,-2.62,263,317,251,467,341,16
1983,0.68,-0.64,0.37,0.98,-2.2,-2.69,265,320,250,470,340,16
1984,0.68,-0.64,0.37,1.04,-3.78,-2.62,266,322,248,467,339,16
1985,0.69,-0.64,0.37,1.59,-3.05,-2.62,263,321,250,466,337,16
1986,0.69,-0.63,0.38,1.34,-2.56,-2.56,265,322,251,469,340,16
1987,0.69,-0.64,0.38,1.1,-2.93,-1.95,269,321,246,465,342,16
1988,0.68,-0.65,0.38,0.61,-2.62,-1.65,266,322,249,469,339,16
1989,0.68,-0.63,0.38,-0.31,-2.81,-2.2,263,320,249,466,341,16
1990,0.68,-0.63,0.38,0.06,-3.66,-3.05,264,323,248,471,340,16
1991,0.68,-0.64,0.37,1.53,-2.87,-2.62,263,321,251,472,340,16
