,aX,aY,aZ,gX,gY,gZ,little,ring,middle,index,thumb,number
0,0.88,-0.49,0.0,-0.67,-3.05,-1.95,372,301,240,465,325,26
1,0.86,-0.51,-0.0,4.33,-0.12,-1.65,371,293,237,468,326,26
2,0.87,-0.5,-0.01,-0.55,-1.77,-1.16,372,292,235,468,322,26
3,0.88,-0.5,0.03,2.93,-2.62,-2.32,371,289,231,465,321,26
4,0.86,-0.5,0.0,2.14,-4.03,-1.83,370,290,230,472,322,26
5,0.87,-0.51,0.01,-1.16,-2.14,-2.56,374,288,228,470,324,26
6,0.85,-0.51,0.01,0.12,-5.31,-3.3,375,285,233,470,315,26
7,0.88,-0.49,0.02,1.1,-2.75,-2.56,369,287,236,470,317,26
8,0.87,-0.48,0.02,-0.67,0.24,-4.27,371,282,235,465,315,26
9,0.89,-0.48,0.03,0.0,-1.95,-2.87,377,288,233,469,316,26
10,0.92,-0.45,0.02,0.37,0.55,-3.6,385,282,233,475,317,26
11,0.87,-0.5,0.03,2.62,-3.85,-2.26,372,283,232,469,318,26
12,0.86,-0.5,0.04,-2.32,-5.62,-0.92,378,283,236,471,315,26
13,0.87,-0.5,0.01,-1.34,-3.42,-1.77,377,284,235,469,320,26
14,0.86,-0.51,0.03,0.67,-2.75,-2.5,374,287,233,471,317,26
15,0.87,-0.5,0.03,0.43,-3.6,-1.65,379,289,233,470,319,26
16,0.87,-0.5,0.02,-0.06,-2.99,-3.05,378,286,235,469,317,26
17,0.87,-0.51,0.01,-0.24,-3.42,-3.3,378,285,233,470,316,26
18,0.87,-0.49,0.04,0.92,-3.3,-2.5,378,288,232,469,313,26
19,0.88,-0.5,0.01,0.73,-3.17,-2.26,377,287,233,470,317,26
20,0.87,-0.5,0.01,0.73,-4.39,-3.85,378,288,231,464,317,26
21,0.86,-0.5,0.03,4.27,-1.53,-2.01,378,286,236,471,318,26
22,0.87,-0.49,0.01,-0.85,-3.72,-3.3,379,298,233,474,320,26
23,0.86,-0.5,0.02,0.55,-2.81,-1.89,376,290,235,473,319,26
24,0.88,-0.5,0.02,1.46,-2.87,-2.5,377,289,235,464,319,26
25,0.87,-0.5,0.01,0.92,-3.11,-2.62,376,286,234,472,318,26
26,0.86,-0.51,-0.01,1.95,-1.59,-4.03,378,295,233,470,313,26
27,0.87,-0.49,0.02,0.55,-3.36,-2.56,378,287,232,470,316,26
28,0.87,-0.5,0.01,0.98,-2.08,-2.87,378,286,235,474,315,26
29,0.86,-0.51,0.01,0.49,-4.64,-3.11,375,287,235,464,314,26
30,0.83,-0.49,-0.01,-0.06,-3.6,-6.53,379,286,236,472,316,26
31,0.95,-0.46,-0.02,6.23,-12.27,-2.14,377,290,235,469,315,26
32,0.98,-0.42,0.03,2.14,2.99,-8.18,377,286,234,470,317,26
33,0.93,-0.45,0.0,1.04,1.59,-17.15,380,286,237,464,317,26
34,0.86,-0.44,-0.02,6.41,9.89,-11.41,377,289,235,469,314,26
35,0.89,-0.45,0.1,-1.83,0.61,-1.95,374,285,236,469,314,26
36,0.93,-0.38,0.05,2.5,-8.61,-11.05,395,289,234,470,317,26
37,0.91,-0.43,0.06,-5.74,-7.08,-5.68,376,290,235,469,320,26
38,0.95,-0.41,0.04,7.26,-2.5,-4.03,378,287,234,472,315,26
39,0.9,-0.43,0.04,-1.59,2.14,-2.08,377,289,231,469,320,26
40,0.91,-0.42,0.06,9.58,-8.67,-7.81,378,288,242,470,318,26
41,0.93,-0.37,-0.04,-2.99,-8.0,0.12,379,285,233,470,313,26
42,0.89,-0.43,0.06,-2.62,4.03,0.98,385,283,228,472,315,26
43,0.89,-0.43,0.07,4.03,-0.79,-3.42,377,285,234,471,318,26
44,0.89,-0.41,0.09,3.42,-3.3,-4.7,377,288,235,481,317,26
45,0.93,-0.38,0.15,2.93,9.7,8.42,380,287,233,473,319,26
46,0.77,-0.37,0.07,35.34,-45.53,2.14,377,288,231,475,316,26
47,0.9,-0.35,0.11,3.36,-4.21,6.35,379,290,234,478,320,26
48,0.9,-0.34,0.07,0.98,10.01,-6.53,379,288,234,475,317,26
49,0.95,-0.31,0.2,1.34,-16.36,-8.42,375,287,234,471,318,26
50,0.91,-0.31,0.2,-14.83,-6.96,-2.32,383,284,237,472,318,26
51,0.91,-0.23,-0.02,5.55,3.91,-7.45,405,286,236,471,319,26
52,0.96,-0.27,0.05,-16.3,8.61,10.99,377,289,237,472,317,26
53,0.95,-0.28,0.22,5.0,-35.83,-18.07,380,286,235,471,317,26
54,0.97,-0.27,0.11,-8.36,-13.31,0.37,376,288,236,471,321,26
55,0.92,-0.3,0.16,-5.68,38.88,13.79,401,286,234,473,320,26
56,0.91,-0.35,0.14,-15.14,-11.35,-12.21,377,284,234,473,320,26
57,0.95,-0.33,0.09,1.04,-0.67,-0.31,379,286,231,471,320,26
58,0.95,-0.33,0.18,-2.14,-2.62,-4.27,381,288,234,473,322,26
59,0.96,-0.32,0.13,-6.71,-2.44,-5.62,378,286,234,469,322,26
60,0.94,-0.34,0.09,-1.34,-7.39,1.46,376,287,237,475,321,26
61,0.92,-0.36,0.06,1.1,-3.91,2.62,379,287,237,471,321,26
62,0.93,-0.36,0.1,0.92,-2.62,-3.36,377,300,237,466,323,26
63,0.93,-0.36,0.09,1.59,-2.99,-2.56,380,286,237,471,323,26
64,0.94,-0.36,0.11,-1.22,-4.52,-2.87,379,288,230,470,318,26
65,0.93,-0.36,0.09,1.04,-1.83,-3.97,381,288,234,471,322,26
66,0.94,-0.35,0.11,0.73,-3.05,-3.17,379,288,235,473,319,26
67,0.94,-0.36,0.09,-0.49,-3.23,-2.01,377,290,237,471,321,26
68,0.93,-0.35,0.09,-0.24,-2.81,-2.62,381,288,234,466,317,26
69,0.94,-0.35,0.1,0.43,-2.2,-3.72,380,283,235,474,316,26
70,0.94,-0.35,0.1,-0.31,-2.93,-2.38,379,285,236,467,317,26
71,0.93,-0.36,0.1,0.79,-3.23,-2.38,380,286,234,470,321,26
72,0.93,-0.35,0.09,0.61,-2.99,-2.69,378,284,237,474,321,26
73,0.94,-0.35,0.1,0.43,-2.62,-2.87,381,285,236,470,321,26
74,0.94,-0.35,0.09,0.49,-3.23,-2.5,382,284,236,472,318,26
75,0.93,-0.36,0.09,0.49,-2.93,-2.93,378,290,235,471,324,26
76,0.94,-0.35,0.09,0.61,-2.5,-3.23,381,285,232,476,320,26
77,0.95,-0.34,0.09,2.2,-0.92,-6.96,384,289,237,470,324,26
78,0.94,-0.34,0.1,0.49,-3.36,-1.77,379,285,232,471,324,26
79,0.93,-0.35,0.1,0.55,-3.3,-2.2,380,285,236,470,321,26
80,0.93,-0.35,0.1,0.92,-1.95,-4.94,381,285,235,471,322,26
81,0.94,-0.35,0.11,0.55,-3.17,-2.44,378,288,237,470,323,26
82,0.93,-0.35,0.1,1.04,-2.87,-1.83,382,289,234,476,323,26
83,0.94,-0.35,0.1,0.67,-2.93,-2.2,382,286,235,466,324,26
84,0.93,-0.35,0.1,0.37,-3.3,-2.93,379,287,235,471,323,26
85,0.94,-0.35,0.1,0.49,-3.91,-3.11,378,286,233,472,318,26
86,0.94,-0.35,0.09,0.61,-3.42,-3.48,376,285,234,468,321,26
87,0.93,-0.35,0.08,1.1,-2.75,-1.95,379,288,236,471,324,26
88,0.94,-0.35,0.1,0.85,-2.56,-2.62,382,286,235,470,321,26
89,0.93,-0.35,0.1,0.79,-3.36,-2.01,382,286,250,474,319,26
90,0.94,-0.34,0.1,0.18,-2.87,-2.62,382,286,236,473,315,26
91,0.93,-0.35,0.1,0.55,-2.69,-2.69,378,286,236,472,321,26
92,0.94,-0.34,0.1,0.85,-1.71,-3.3,382,290,235,470,322,26
93,0.91,-0.35,0.1,-0.12,1.28,-2.26,379,285,234,475,321,26
94,0.94,-0.35,0.09,0.55,-2.99,-2.5,380,289,231,470,324,26
95,0.93,-0.35,0.1,0.06,-2.32,-3.78,379,285,242,472,323,26
96,0.93,-0.34,0.1,0.43,-3.23,-2.75,383,285,241,477,321,26
97,0.93,-0.34,0.1,0.49,-2.75,-2.26,379,287,233,471,324,26
98,0.93,-0.34,0.1,0.55,-3.11,-2.99,378,286,235,475,321,26
99,0.93,-0.35,0.1,0.24,-2.56,-2.75,379,283,237,470,323,26
100,0.94,-0.35,0.09,-0.67,-3.23,-3.48,380,283,236,469,324,26
101,0.94,-0.33,0.1,1.34,-3.3,-3.11,380,285,233,472,316,26
102,0.94,-0.34,0.1,0.18,-2.2,-1.95,382,286,234,467,323,26
103,0.93,-0.34,0.11,1.04,-3.05,-2.87,379,284,235,469,322,26
104,0.93,-0.34,0.11,0.79,-3.36,-2.26,376,298,235,471,322,26
105,0.94,-0.33,0.1,1.16,-1.65,-2.93,379,286,237,471,323,26
106,0.94,-0.34,0.11,0.55,-3.42,-2.44,379,286,233,475,326,26
107,0.94,-0.34,0.1,0.24,-3.17,-2.62,381,286,235,472,322,26
108,0.94,-0.34,0.1,-0.61,-3.78,-2.5,380,286,237,475,322,26
109,0.94,-0.34,0.1,-0.61,-3.54,-2.75,378,288,236,466,324,26
110,0.94,-0.34,0.1,0.85,-3.11,-2.44,379,288,237,473,319,26
111,0.94,-0.34,0.11,0.67,-3.05,-2.69,381,283,237,475,321,26
112,0.96,-0.4,0.16,-1.46,-4.58,-1.89,379,284,236,470,319,26
113,0.93,-0.35,0.11,0.49,-2.93,-2.81,379,286,237,471,323,26
114,0.93,-0.34,0.1,0.06,-3.6,-2.32,381,285,236,471,319,26
115,0.95,-0.34,0.1,1.53,-2.75,-2.5,381,287,237,475,323,26
116,0.93,-0.34,0.1,0.43,-3.48,-2.08,381,282,235,470,323,26
117,0.93,-0.34,0.1,0.12,-2.99,-2.5,379,288,236,472,323,26
118,0.94,-0.34,0.1,-0.79,-2.99,-2.93,393,286,235,472,324,26
119,0.94,-0.34,0.1,0.37,-3.23,-2.62,380,286,237,471,320,26
120,0.94,-0.34,0.1,-1.22,-2.5,-4.03,378,287,238,471,320,26
121,0.93,-0.34,0.11,1.83,-2.08,-2.08,381,289,234,469,323,26
122,0.94,-0.34,0.1,-0.79,-3.6,-1.95,379,286,235,466,319,26
123,0.95,-0.34,0.1,-0.55,-2.62,-2.75,384,295,234,469,322,26
124,0.93,-0.34,0.1,0.18,-3.66,-1.89,379,286,234,471,322,26
125,0.94,-0.34,0.1,0.43,-2.69,-2.32,380,286,237,470,320,26
126,0.94,-0.34,0.1,0.18,-2.5,-2.81,379,288,236,472,323,26
127,0.95,-0.34,0.11,-0.79,-2.87,-2.5,376,284,241,474,321,26
128,0.95,-0.34,0.1,-0.18,-3.05,-2.5,381,288,234,469,321,26
129,0.94,-0.34,0.1,1.16,-2.81,-2.62,381,286,234,470,320,26
130,0.94,-0.34,0.11,0.92,-3.3,-2.69,380,287,237,471,321,26
131,0.94,-0.34,0.1,-0.06,-2.56,-2.62,376,286,234,471,322,26
132,0.93,-0.34,0.11,-0.61,-4.09,-2.5,379,288,235,470,323,26
133,0.94,-0.34,0.1,-0.85,-3.72,-3.17,380,288,237,471,325,26
134,0.94,-0.34,0.11,-0.31,-3.42,-3.17,386,286,234,479,321,26
135,0.93,-0.34,0.11,0.55,-2.81,-1.95,379,286,232,470,322,26
136,0.93,-0.34,0.11,0.37,-3.17,-2.08,377,287,236,472,318,26
137,0.92,-0.35,0.11,0.49,-3.66,-2.01,382,289,235,473,321,26
138,0.94,-0.34,0.1,0.43,-3.3,-2.56,385,286,233,472,325,26
139,0.94,-0.34,0.1,0.49,-2.99,-2.69,379,287,235,471,320,26
140,0.93,-0.35,0.11,0.49,-2.69,-1.95,381,287,240,466,321,26
141,0.94,-0.34,0.11,0.61,-3.17,-2.32,378,290,237,471,323,26
142,0.93,-0.35,0.1,0.06,-3.48,-2.01,375,284,232,474,324,26
143,0.93,-0.34,0.11,0.18,-3.42,-2.38,388,285,243,472,320,26
144,0.94,-0.34,0.11,0.18,-2.75,-2.81,381,287,237,470,324,26
145,0.93,-0.35,0.11,0.24,-2.87,-2.69,381,289,233,468,325,26
146,0.93,-0.35,0.1,0.85,-2.81,-2.38,382,289,236,466,319,26
147,0.93,-0.35,0.1,-0.24,-3.3,-2.2,381,284,233,472,323,26
148,0.93,-0.35,0.1,-0.73,-2.81,-3.05,383,287,234,471,322,26
149,0.94,-0.35,0.09,-0.79,-2.44,-3.17,414,288,238,475,325,26
150,0.94,-0.34,0.1,-0.12,-3.11,-2.38,381,294,234,470,323,26
151,0.94,-0.34,0.1,0.24,-2.69,-3.42,382,285,234,476,324,26
152,0.94,-0.35,0.1,0.98,-2.75,-1.83,382,287,237,470,322,26
153,0.94,-0.34,0.1,0.24,-2.75,-2.26,387,288,237,468,323,26
154,0.93,-0.35,0.11,0.06,-3.91,-2.44,380,289,237,474,322,26
155,0.94,-0.35,0.1,-0.18,-3.11,-2.81,381,285,235,474,323,26
156,0.93,-0.35,0.1,0.12,-2.62,-2.44,378,286,238,471,321,26
157,0.94,-0.35,0.1,0.0,-2.5,-2.69,379,286,248,474,328,26
158,0.94,-0.35,0.1,0.18,-2.44,-2.93,379,290,234,475,321,26
159,0.92,-0.35,0.1,0.49,-2.87,-2.32,380,287,235,474,323,26
160,0.94,-0.35,0.11,0.55,-2.5,-2.26,381,286,237,472,324,26
161,0.93,-0.35,0.1,0.92,-2.75,-2.56,380,286,235,474,322,26
162,0.94,-0.34,0.11,0.85,-3.05,-2.32,382,290,235,469,320,26
163,0.93,-0.35,0.11,0.0,-2.5,-2.69,378,286,235,471,322,26
164,0.94,-0.35,0.11,0.67,-2.87,-2.62,380,286,236,475,323,26
165,0.94,-0.35,0.11,-0.18,-3.05,-2.62,380,288,238,476,322,26
166,0.93,-0.35,0.1,0.31,-3.11,-2.99,382,285,235,473,322,26
167,0.94,-0.35,0.1,0.12,-3.05,-2.56,379,288,234,471,323,26
168,0.94,-0.35,0.1,0.43,-2.99,-2.93,382,284,238,471,318,26
169,0.94,-0.35,0.1,0.49,-3.11,-2.81,379,285,232,472,325,26
170,0.93,-0.35,0.1,0.12,-2.75,-2.38,381,294,235,473,320,26
171,0.94,-0.35,0.1,0.24,-3.05,-2.38,378,288,235,469,322,26
172,0.94,-0.34,0.1,1.83,-1.89,-2.32,383,285,235,470,325,26
173,0.93,-0.35,0.1,0.92,-2.99,-2.08,378,289,238,473,323,26
174,0.94,-0.35,0.11,1.22,-3.11,-2.32,377,286,238,473,324,26
175,0.94,-0.34,0.11,0.18,-2.26,-2.56,379,287,238,470,323,26
176,0.93,-0.35,0.11,-0.18,-3.17,-2.69,379,291,234,475,325,26
177,0.94,-0.35,0.1,0.12,-3.05,-2.69,381,285,234,474,324,26
178,0.93,-0.35,0.1,0.06,-2.69,-2.75,379,287,234,475,324,26
179,0.94,-0.35,0.1,0.92,-2.69,-2.38,381,285,239,469,322,26
180,0.93,-0.35,0.1,0.55,-2.99,-2.69,380,285,238,474,325,26
181,0.93,-0.35,0.11,1.04,-3.17,-2.01,377,288,235,470,325,26
182,0.93,-0.35,0.11,0.98,-2.44,-2.2,384,286,238,469,323,26
183,0.94,-0.35,0.11,1.16,-2.32,-1.53,373,288,238,473,325,26
184,0.94,-0.35,0.11,1.16,-2.69,-2.32,380,285,235,474,322,26
185,0.94,-0.35,0.11,1.28,-2.44,-2.38,380,287,237,467,330,26
186,0.93,-0.35,0.11,0.0,-3.11,-1.65,381,285,233,470,321,26
187,0.94,-0.35,0.12,0.85,-3.05,-2.56,381,285,235,471,326,26
188,0.93,-0.36,0.11,0.24,-3.78,-1.53,380,286,234,473,320,26
189,0.94,-0.36,0.1,-0.55,-3.3,-2.5,381,286,233,474,322,26
190,0.93,-0.36,0.11,-0.12,-2.99,-2.44,379,284,236,465,324,26
191,0.93,-0.36,0.1,0.85,-4.21,-1.83,379,286,234,471,324,26
192,0.93,-0.36,0.11,-0.12,-2.75,-2.56,377,288,232,471,322,26
193,0.93,-0.36,0.11,0.49,-3.11,-2.32,378,291,235,474,323,26
194,0.94,-0.36,0.11,0.55,-2.5,-2.62,382,286,234,471,323,26
195,0.93,-0.36,0.11,1.53,-2.75,-2.32,380,287,237,470,322,26
196,0.93,-0.36,0.11,1.16,-2.32,-2.99,381,285,238,474,318,26
197,0.93,-0.36,0.1,1.59,-2.69,-2.32,381,286,237,470,323,26
198,0.93,-0.36,0.11,0.06,-3.42,-1.77,380,286,238,470,325,26
199,0.94,-0.36,0.11,-0.31,-3.42,-3.17,398,286,235,475,323,26
200,0.92,-0.36,0.11,0.12,-3.11,-2.75,376,285,234,465,321,26
201,0.93,-0.36,0.1,0.61,-3.11,-2.75,383,285,232,474,322,26
202,0.93,-0.36,0.1,0.31,-3.17,-2.14,381,284,239,473,324,26
203,0.93,-0.36,0.11,0.43,-2.93,-2.5,382,285,237,474,326,26
204,0.93,-0.36,0.11,0.24,-2.69,-3.6,379,289,237,468,322,26
205,0.92,-0.36,0.1,0.18,-3.3,-2.44,376,286,237,474,322,26
206,0.92,-0.36,0.11,0.31,-3.42,-2.81,379,286,234,465,323,26
207,0.92,-0.36,0.11,1.04,-2.69,-2.32,379,284,238,471,324,26
208,0.92,-0.36,0.11,0.37,-3.23,-2.44,381,287,237,474,322,26
209,0.94,-0.36,0.12,0.55,-3.36,-2.38,381,288,238,471,322,26
210,0.93,-0.36,0.11,0.73,-3.3,-2.5,379,285,235,471,322,26
211,0.93,-0.36,0.11,0.79,-2.75,-2.5,382,287,238,467,322,26
212,0.93,-0.36,0.1,0.43,-2.87,-2.69,379,290,236,471,323,26
213,0.93,-0.36,0.11,0.61,-3.54,-2.01,382,285,236,467,322,26
214,0.93,-0.36,0.1,0.12,-2.75,-2.75,381,285,236,471,324,26
215,0.94,-0.35,0.11,0.98,-1.83,-3.42,376,283,238,470,323,26
216,0.93,-0.36,0.11,0.61,-2.5,-2.81,381,289,237,472,320,26
217,0.93,-0.36,0.11,0.12,-3.42,-2.14,382,288,237,466,310,26
218,0.93,-0.36,0.11,-0.43,-2.62,-2.62,378,292,241,472,325,26
219,0.92,-0.37,0.11,0.37,-3.6,-2.2,378,286,237,471,322,26
220,0.93,-0.36,0.1,0.49,-2.75,-2.56,381,286,237,470,322,26
221,0.93,-0.36,0.11,-0.24,-2.93,-2.5,379,287,235,470,324,26
222,0.94,-0.36,0.1,0.18,-2.87,-2.93,376,285,232,474,321,26
223,0.93,-0.36,0.1,0.79,-2.5,-2.75,381,285,238,470,324,26
224,0.92,-0.36,0.1,0.67,-3.17,-2.56,391,287,237,472,323,26
225,0.93,-0.36,0.11,0.12,-2.26,-2.69,380,285,234,470,325,26
226,0.92,-0.36,0.11,0.0,-2.87,-2.2,382,292,242,472,323,26
227,0.93,-0.36,0.11,0.24,-3.85,-2.26,392,282,236,474,318,26
228,0.93,-0.36,0.1,-0.18,-2.99,-2.38,380,284,235,470,323,26
229,0.93,-0.36,0.11,0.06,-2.81,-2.56,379,289,238,472,322,26
230,0.93,-0.36,0.11,-0.12,-2.26,-2.93,382,285,236,470,323,26
231,0.94,-0.36,0.11,1.04,-2.81,-2.56,379,284,234,468,323,26
232,0.92,-0.37,0.12,0.31,-2.93,-2.2,381,284,236,472,324,26
233,0.94,-0.36,0.11,1.34,-1.77,-1.53,383,285,236,470,323,26
234,0.93,-0.37,0.11,2.14,-2.44,-1.89,380,285,235,466,320,26
235,0.93,-0.36,0.12,0.73,-2.32,-1.83,394,288,235,465,325,26
236,0.93,-0.37,0.12,-0.31,-3.17,-2.44,379,285,238,469,323,26
237,0.93,-0.36,0.12,0.12,-2.56,-2.69,380,286,236,472,324,26
238,0.93,-0.36,0.11,-0.12,-3.23,-2.56,379,286,235,474,324,26
239,0.93,-0.36,0.11,1.1,-3.3,-2.62,380,286,237,470,323,26
240,0.94,-0.37,0.11,0.73,-2.5,-2.44,380,289,234,472,324,26
241,0.93,-0.36,0.11,0.67,-3.11,-2.81,381,285,234,472,326,26
242,0.93,-0.37,0.11,1.83,-2.87,-2.81,372,289,236,465,323,26
243,0.93,-0.37,0.11,0.43,-3.17,-2.5,379,288,237,474,323,26
244,0.93,-0.36,0.1,0.85,-2.81,-2.56,376,285,235,470,322,26
245,0.92,-0.37,0.11,0.18,-3.11,-2.93,382,285,234,468,321,26
246,0.93,-0.36,0.11,0.37,-3.05,-2.44,382,289,234,470,323,26
247,0.93,-0.36,0.11,0.37,-2.69,-2.69,380,289,239,469,325,26
248,0.92,-0.37,0.12,-0.43,-3.48,-2.38,382,295,235,470,321,26
249,0.92,-0.37,0.1,-0.43,-3.23,-2.87,382,288,235,474,321,26
250,0.93,-0.37,0.11,0.12,-3.42,-2.56,378,288,236,470,323,26
251,0.92,-0.37,0.1,0.06,-3.3,-2.32,377,285,238,473,324,26
252,0.93,-0.36,0.12,-0.12,-3.23,-2.99,393,287,236,469,326,26
253,0.93,-0.37,0.11,0.49,-3.36,-2.08,382,286,239,471,323,26
254,0.93,-0.37,0.11,0.0,-3.6,-2.56,380,291,235,466,325,26
255,0.93,-0.37,0.12,0.24,-2.38,-2.99,381,288,236,472,325,26
256,0.92,-0.37,0.12,0.12,-2.99,-2.62,380,287,232,472,322,26
257,0.93,-0.36,0.11,0.49,-3.6,-2.14,380,286,237,473,323,26
258,0.92,-0.37,0.11,-0.12,-2.69,-3.48,382,289,238,470,323,26
259,0.93,-0.37,0.12,0.12,-3.3,-1.89,382,298,239,477,323,26
260,0.92,-0.37,0.11,0.85,-2.99,-1.83,381,286,237,465,326,26
261,0.92,-0.36,0.1,0.85,-3.17,-1.95,381,286,236,470,324,26
262,0.93,-0.37,0.11,0.43,-2.62,-2.14,382,287,234,470,326,26
263,0.92,-0.37,0.11,0.79,-2.08,-3.48,381,285,239,471,321,26
264,0.94,-0.36,0.12,0.49,-3.17,-2.56,382,283,239,471,323,26
265,0.93,-0.36,0.11,0.49,-2.69,-2.26,384,289,237,471,330,26
266,0.93,-0.36,0.11,0.92,-2.56,-2.69,381,285,234,474,324,26
267,0.92,-0.37,0.11,0.31,-2.44,-2.38,382,287,238,470,324,26
268,0.92,-0.37,0.11,0.37,-3.17,-2.2,380,289,233,469,325,26
269,0.92,-0.37,0.11,-0.24,-3.17,-2.62,381,288,236,473,330,26
270,0.92,-0.37,0.11,0.06,-2.81,-2.14,378,282,238,474,325,26
271,0.93,-0.37,0.11,-0.12,-2.87,-2.69,383,288,238,470,321,26
272,0.93,-0.37,0.12,1.22,-3.23,-2.32,382,283,236,472,323,26
273,0.93,-0.37,0.11,0.67,-2.87,-2.62,381,289,239,474,321,26
274,0.93,-0.36,0.11,0.18,-2.99,-2.26,383,283,234,466,325,26
275,0.93,-0.36,0.12,0.55,-2.5,-2.81,381,286,237,466,324,26
276,0.92,-0.36,0.12,0.79,-2.81,-2.69,381,287,239,472,323,26
277,0.92,-0.37,0.12,0.31,-2.87,-2.81,381,288,236,470,324,26
278,0.92,-0.37,0.11,0.31,-2.99,-2.81,382,285,233,474,324,26
279,0.93,-0.36,0.12,-0.67,-3.54,-2.62,383,289,237,471,325,26
280,0.92,-0.37,0.11,-0.98,-2.62,-3.11,383,289,238,474,321,26
281,0.92,-0.37,0.11,-0.37,-2.99,-2.69,382,286,238,472,323,26
282,0.92,-0.37,0.11,0.61,-3.48,-2.26,382,287,236,476,325,26
283,0.92,-0.37,0.1,0.12,-3.6,-2.2,381,285,236,465,322,26
284,0.93,-0.36,0.11,0.92,-2.5,-2.5,383,283,237,473,322,26
285,0.93,-0.37,0.12,0.37,-2.69,-2.87,381,286,237,471,327,26
286,0.93,-0.36,0.12,0.31,-3.17,-2.75,382,287,240,474,320,26
287,0.93,-0.37,0.12,0.0,-2.87,-3.3,378,287,233,468,318,26
288,0.93,-0.37,0.12,0.49,-2.93,-2.87,381,287,239,472,323,26
289,0.92,-0.37,0.11,1.1,-2.75,-2.32,383,288,237,469,325,26
290,0.92,-0.37,0.11,0.55,-2.81,-2.5,380,286,236,469,322,26
291,0.92,-0.37,0.1,0.49,-2.62,-3.36,379,286,237,470,322,26
292,0.94,-0.37,0.1,0.06,-2.99,-1.89,382,289,238,468,324,26
293,0.92,-0.37,0.1,1.1,-3.05,-2.26,384,285,236,465,318,26
294,0.93,-0.37,0.11,0.24,-3.17,-2.26,384,287,234,470,323,26
295,0.94,-0.36,0.12,0.24,-2.75,-3.05,384,287,238,468,324,26
296,0.93,-0.36,0.11,0.18,-1.95,-3.42,381,287,234,473,324,26
297,0.93,-0.37,0.11,0.12,-2.69,-2.75,397,286,239,470,318,26
298,0.93,-0.37,0.11,0.06,-3.36,-2.87,376,289,233,471,322,26
299,0.93,-0.36,0.11,0.49,-2.87,-2.87,383,286,238,466,324,26
300,0.92,-0.37,0.12,-0.31,-3.36,-2.32,381,283,236,473,326,26
301,0.92,-0.37,0.12,-0.85,-3.6,-2.75,381,289,234,470,331,26
302,0.93,-0.37,0.11,-0.06,-2.75,-2.87,381,289,239,474,324,26
303,0.93,-0.37,0.12,0.61,-2.93,-2.14,382,286,234,471,323,26
304,0.93,-0.37,0.11,0.31,-2.5,-2.2,380,286,238,474,326,26
305,0.93,-0.38,0.12,0.79,-2.69,0.12,386,286,238,467,324,26
306,0.91,-0.38,0.13,0.92,-1.95,-3.05,383,286,236,466,324,26
307,0.92,-0.38,0.13,0.73,-3.05,-2.44,382,286,237,471,320,26
308,0.92,-0.38,0.13,0.61,-2.56,-2.56,382,283,242,474,323,26
309,0.92,-0.39,0.12,-0.18,-1.71,-2.87,378,284,236,474,321,26
310,0.92,-0.38,0.13,-0.55,-3.23,-2.62,382,286,245,471,326,26
311,0.91,-0.39,0.13,0.67,-2.87,-2.26,379,286,239,470,327,26
312,0.91,-0.39,0.13,0.49,-2.5,-2.56,379,286,236,470,320,26
313,0.91,-0.38,0.13,-0.37,-2.81,-3.54,382,286,237,470,325,26
314,0.92,-0.38,0.14,0.18,-4.09,-2.26,380,286,230,471,325,26
315,0.91,-0.39,0.14,0.98,-2.69,-2.08,383,286,238,467,326,26
316,0.91,-0.39,0.13,0.79,-2.99,-2.75,379,288,238,470,327,26
317,0.92,-0.39,0.13,0.06,-2.99,-2.5,380,288,237,472,323,26
318,0.92,-0.39,0.12,1.34,-3.48,-2.69,378,297,236,466,322,26
319,0.91,-0.39,0.12,-0.31,-3.78,-3.36,382,283,239,473,323,26
320,0.91,-0.39,0.14,1.28,-1.95,-2.62,400,284,236,471,321,26
321,0.91,-0.39,0.14,2.14,-2.01,-2.75,376,287,236,471,321,26
322,0.91,-0.38,0.14,0.79,-3.11,-2.38,379,289,234,473,325,26
323,0.92,-0.38,0.13,0.49,-2.93,-2.08,384,287,234,474,331,26
324,0.91,-0.39,0.14,-0.18,-3.23,-2.38,378,287,236,471,324,26
325,0.92,-0.38,0.12,-0.98,-2.56,-2.99,382,286,233,475,323,26
326,0.92,-0.39,0.12,0.67,-3.17,-2.38,378,289,236,469,324,26
327,0.93,-0.38,0.13,0.61,-3.17,-2.01,379,290,238,471,323,26
328,0.92,-0.39,0.13,0.12,-3.48,-2.08,386,286,238,468,324,26
329,0.91,-0.39,0.13,0.0,-3.42,-2.62,380,285,238,470,324,26
330,0.91,-0.39,0.12,0.06,-3.11,-3.05,380,286,234,481,326,26
331,0.91,-0.39,0.12,0.67,-2.99,-2.56,377,286,234,472,324,26
332,0.91,-0.39,0.12,1.28,-2.69,-2.38,395,289,242,476,324,26
333,0.92,-0.39,0.13,0.55,-3.48,-1.95,381,285,237,471,323,26
334,0.92,-0.39,0.12,0.43,-3.72,-3.11,378,287,234,470,324,26
335,0.91,-0.39,0.12,-0.12,-3.54,-2.2,378,286,237,471,325,26
336,0.9,-0.4,0.12,1.34,-2.14,-3.42,378,287,235,472,325,26
337,0.92,-0.39,0.12,0.0,-2.62,-2.62,385,285,239,471,325,26
338,0.92,-0.39,0.12,0.06,-3.3,-2.5,381,292,237,471,323,26
339,0.92,-0.39,0.12,0.55,-3.05,-2.5,381,291,239,474,323,26
340,0.91,-0.39,0.13,0.73,-3.23,-2.26,400,286,239,475,326,26
341,0.92,-0.39,0.13,-0.06,-2.62,-2.69,383,286,238,466,326,26
342,0.92,-0.39,0.13,-0.73,-3.05,-3.17,383,286,236,470,326,26
343,0.92,-0.39,0.13,-0.55,-3.48,-2.62,383,285,242,475,324,26
344,0.92,-0.39,0.12,0.31,-3.11,-2.99,380,286,236,472,324,26
345,0.92,-0.39,0.12,0.18,-2.93,-2.44,381,286,234,470,323,26
346,0.91,-0.39,0.12,-0.12,-2.93,-2.81,383,286,238,470,324,26
347,0.92,-0.39,0.12,0.67,-3.72,-2.01,376,287,237,466,320,26
348,0.92,-0.39,0.13,0.67,-2.75,-2.32,383,286,238,470,324,26
349,0.91,-0.39,0.12,0.49,-2.75,-3.3,381,285,233,469,324,26
350,0.91,-0.39,0.12,0.37,-2.38,-3.54,379,287,236,472,325,26
351,0.92,-0.39,0.12,0.55,-3.42,-2.26,381,288,233,474,321,26
352,0.92,-0.39,0.12,0.55,-3.54,-1.71,376,285,238,473,325,26
353,0.92,-0.39,0.13,0.92,-1.77,-3.36,381,287,237,471,324,26
354,0.92,-0.39,0.12,0.43,-3.05,-2.2,379,287,237,472,321,26
355,0.92,-0.39,0.11,0.18,-2.62,-2.38,376,285,234,469,324,26
356,0.86,-0.39,0.17,7.45,0.24,-5.55,378,287,239,470,326,26
357,0.92,-0.39,0.13,1.34,-6.84,-0.98,380,288,239,471,324,26
358,0.93,-0.4,0.1,0.24,-5.55,-2.69,380,284,239,470,326,26
359,0.91,-0.4,0.12,1.1,-1.1,-3.66,381,288,236,473,324,26
360,0.9,-0.4,0.14,-1.04,-3.91,-2.38,381,286,240,472,327,26
361,0.91,-0.4,0.13,0.67,-2.87,-2.08,381,287,239,472,324,26
362,0.91,-0.4,0.13,0.92,-2.08,-2.14,381,286,236,466,325,26
363,0.9,-0.39,0.14,0.0,-3.78,-2.38,382,288,242,469,324,26
364,0.91,-0.4,0.1,-0.98,-0.37,-4.52,378,289,237,475,320,26
365,0.94,-0.4,0.16,2.87,-1.34,-2.5,381,287,237,467,323,26
366,0.93,-0.4,0.15,1.28,-0.12,-2.56,383,288,237,472,325,26
367,0.92,-0.41,0.18,5.37,-15.26,2.44,381,286,239,470,325,26
368,0.9,-0.42,0.13,-3.3,-5.8,-3.23,382,289,233,470,320,26
369,0.9,-0.41,0.12,1.71,-2.99,-4.58,381,286,238,466,321,26
370,0.91,-0.41,0.13,2.2,-2.2,-2.32,381,288,239,474,325,26
371,0.91,-0.41,0.14,0.85,-2.81,-2.5,388,286,236,466,321,26
372,0.9,-0.4,0.13,-1.34,-2.93,-2.69,377,284,238,475,321,26
373,0.91,-0.41,0.12,0.31,-3.6,-2.44,381,285,237,475,326,26
374,0.9,-0.41,0.13,1.28,-2.69,-2.26,380,285,235,474,320,26
375,0.9,-0.41,0.14,0.06,-2.38,-2.62,383,291,234,470,322,26
376,0.91,-0.41,0.15,0.73,-2.5,-1.77,383,287,239,471,324,26
377,0.91,-0.41,0.14,-0.18,-2.26,-3.17,381,288,238,472,324,26
378,0.9,-0.41,0.14,0.79,-3.23,-2.14,383,286,237,470,322,26
379,0.91,-0.4,0.14,0.85,-2.81,-3.17,384,285,244,475,324,26
380,0.92,-0.4,0.13,0.37,-3.3,-2.81,383,288,236,466,326,26
381,0.91,-0.41,0.14,0.12,-2.93,-2.44,380,286,237,471,323,26
382,0.91,-0.41,0.13,-0.12,-3.54,-2.38,381,298,237,472,326,26
383,0.91,-0.41,0.14,0.0,-2.81,-2.99,382,286,237,468,326,26
384,0.92,-0.4,0.13,0.37,-2.99,-3.3,381,286,237,471,324,26
385,0.91,-0.41,0.12,0.85,-3.3,-2.32,380,288,237,471,322,26
386,0.9,-0.41,0.12,-0.12,-2.87,-2.44,379,286,237,474,318,26
387,0.9,-0.41,0.13,0.31,-3.36,-2.32,388,285,239,471,323,26
388,0.9,-0.41,0.13,0.73,-3.3,-2.75,380,285,239,471,322,26
389,0.91,-0.41,0.12,0.43,-3.54,-1.95,384,291,239,470,323,26
390,0.91,-0.41,0.12,-0.12,-2.87,-2.69,381,287,237,474,324,26
391,0.9,-0.41,0.13,0.24,-2.44,-2.81,406,288,237,474,326,26
392,0.92,-0.41,0.13,0.18,-2.93,-2.5,381,290,239,473,323,26
393,0.9,-0.41,0.13,0.31,-2.99,-2.26,382,286,235,471,326,26
394,0.92,-0.4,0.13,0.85,-2.99,-2.69,381,288,239,470,322,26
395,0.9,-0.41,0.12,0.0,-2.87,-2.93,379,287,236,472,320,26
396,0.92,-0.41,0.12,0.31,-3.11,-2.26,380,285,237,466,320,26
397,0.9,-0.41,0.12,0.18,-2.99,-2.38,380,282,236,470,324,26
398,0.9,-0.41,0.11,-0.12,-4.21,-2.75,381,285,240,472,321,26
399,0.91,-0.41,0.12,0.37,-4.03,-2.69,381,282,236,471,323,26
400,0.91,-0.42,0.12,-1.04,-5.74,-2.81,383,288,238,470,324,26
401,0.92,-0.41,0.07,3.85,-1.89,-4.82,381,287,234,470,324,26
402,0.93,-0.4,0.09,0.79,-3.11,-3.78,381,289,238,470,324,26
403,0.92,-0.4,0.1,-1.46,-2.14,-3.48,381,286,239,467,324,26
404,0.92,-0.4,0.1,-0.24,-3.85,-2.99,382,286,236,467,325,26
405,0.91,-0.41,0.09,2.14,-4.52,-2.38,383,284,236,466,324,26
406,0.87,-0.4,0.07,2.81,0.37,-2.62,384,289,239,466,324,26
407,0.93,-0.42,0.1,3.72,-14.95,4.33,382,285,237,472,323,26
408,0.93,-0.41,0.01,-8.91,-8.3,-1.04,383,287,236,475,321,26
409,0.9,-0.43,0.04,2.2,-1.65,-2.2,381,286,240,473,324,26
410,0.9,-0.43,0.02,3.23,0.92,1.83,382,286,238,469,326,26
411,0.87,-0.47,0.1,3.11,0.18,-1.59,377,287,240,466,328,26
412,0.91,-0.44,0.1,1.1,-8.54,2.32,383,287,237,475,324,26
413,0.91,-0.45,0.09,-2.69,-6.53,-2.32,389,288,240,475,323,26
414,0.85,-0.47,0.03,7.45,5.07,-5.8,382,287,236,475,323,26
415,0.91,-0.43,0.04,-12.57,-13.12,-0.37,379,290,236,471,318,26
416,0.91,-0.47,0.02,4.15,-1.1,-4.52,383,289,239,474,321,26
417,0.85,-0.49,0.04,0.92,-2.01,-5.8,381,288,239,470,316,26
418,0.88,-0.46,0.06,0.31,-3.36,-1.28,380,288,238,472,318,26
419,0.89,-0.47,0.04,4.27,-2.2,-2.2,389,289,239,469,319,26
420,0.88,-0.48,0.05,4.15,-6.84,-4.03,380,289,237,466,321,26
421,0.89,-0.46,0.07,3.3,-0.92,-1.71,383,284,235,475,322,26
422,0.89,-0.46,0.06,1.16,0.55,-4.7,380,291,239,474,317,26
423,0.91,-0.46,0.1,2.93,-1.16,-1.71,394,288,237,473,321,26
424,0.87,-0.47,0.09,0.12,-5.74,-1.53,381,286,238,473,316,26
425,0.92,-0.47,0.04,-5.19,-18.43,-3.6,380,288,237,469,320,26
426,0.9,-0.44,0.01,-15.38,-3.85,-1.4,381,289,239,471,320,26
427,0.83,-0.45,-0.04,-2.62,-6.41,0.55,378,289,237,474,322,26
428,0.84,-0.47,-0.03,5.55,4.94,5.86,382,289,237,472,318,26
429,0.95,-0.43,0.05,4.7,2.38,-5.25,402,287,238,476,324,26
430,0.93,-0.41,0.07,1.1,1.22,-4.03,382,290,238,473,321,26
431,0.92,-0.42,0.07,2.93,1.77,-4.7,379,291,239,467,318,26
432,0.88,-0.45,0.08,-1.1,-8.18,0.85,378,287,236,476,318,26
433,0.9,-0.44,0.03,-2.08,-5.0,-1.59,380,291,236,476,320,26
434,0.91,-0.42,0.05,2.56,1.34,-3.48,375,288,237,467,321,26
435,0.91,-0.42,0.06,-1.16,-5.19,-2.75,381,290,235,476,318,26
436,0.93,-0.41,0.09,0.12,-5.86,-2.14,374,290,239,474,324,26
437,0.93,-0.43,0.07,-0.31,-7.57,4.33,380,288,238,466,324,26
438,0.91,-0.42,0.02,-0.73,-7.02,-2.99,379,289,236,471,322,26
439,0.89,-0.44,0.03,2.69,-2.32,-0.98,379,287,239,470,323,26
440,0.87,-0.45,0.05,2.01,-0.67,-1.4,376,286,238,473,326,26
441,0.91,-0.43,0.07,0.24,-3.78,-2.62,376,288,235,472,325,26
442,0.9,-0.43,0.05,0.73,-1.53,-2.62,377,285,239,475,324,26
443,0.9,-0.42,0.07,0.06,-3.11,-3.66,381,287,233,476,324,26
444,0.91,-0.42,0.07,-2.26,-4.46,-2.32,378,284,237,470,325,26
445,0.87,-0.44,0.04,0.24,-1.28,-6.04,382,288,239,475,324,26
446,0.91,-0.45,0.04,2.01,-3.42,2.01,392,290,237,469,325,26
447,0.87,-0.46,0.07,1.04,-1.77,-0.31,373,290,236,472,324,26
448,0.89,-0.43,0.1,2.38,-3.78,-2.87,376,286,235,469,322,26
449,0.91,-0.41,0.08,0.37,-1.83,-3.91,377,286,240,470,323,26
450,0.9,-0.43,0.07,1.46,-1.95,-1.1,378,287,239,476,326,26
451,0.91,-0.42,0.09,-0.73,-2.99,-2.75,377,287,234,471,325,26
452,0.91,-0.42,0.09,0.18,-3.3,-2.75,379,288,236,475,326,26
453,0.89,-0.43,0.07,-0.12,-3.36,-4.58,376,285,237,476,325,26
454,0.92,-0.41,0.11,0.49,0.31,-5.07,377,289,235,484,327,26
455,0.92,-0.42,0.1,-0.73,-3.85,-2.75,377,286,239,475,327,26
456,0.92,-0.42,0.08,-0.18,-4.09,-3.05,380,285,241,468,327,26
457,0.9,-0.42,0.07,0.98,-0.85,-2.99,377,287,237,472,323,26
458,0.9,-0.42,0.09,0.85,-2.26,-2.38,377,288,235,467,324,26
459,0.91,-0.42,0.08,0.37,-2.87,-3.05,378,289,235,476,323,26
460,0.89,-0.43,0.08,0.0,-2.93,-3.85,378,284,240,472,322,26
461,0.91,-0.42,0.08,-1.04,-3.6,-2.38,380,290,236,473,322,26
462,0.93,-0.42,0.02,1.46,1.28,-6.35,377,289,237,473,324,26
463,0.94,-0.4,0.13,-2.81,-2.44,-0.98,373,286,237,467,321,26
464,0.84,-0.43,0.08,-12.82,-3.48,4.03,378,289,234,471,325,26
465,0.93,-0.39,0.06,5.92,-6.9,0.92,374,289,235,475,325,26
466,0.91,-0.41,0.03,-8.24,-7.32,-2.75,379,288,243,473,325,26
467,0.87,-0.43,0.12,9.09,1.89,-2.14,377,289,236,473,325,26
468,0.88,-0.39,0.17,-2.2,-6.96,-4.09,374,288,237,472,324,26
469,0.93,-0.41,0.05,-3.17,-3.36,-5.55,378,287,233,470,323,26
470,0.85,-0.43,0.01,0.31,-4.82,1.22,383,286,235,472,335,26
471,0.91,-0.42,0.03,1.04,-3.6,-2.2,380,286,234,474,323,26
472,0.9,-0.42,0.03,-0.24,-5.31,-4.21,377,285,241,474,324,26
473,0.91,-0.41,0.02,0.24,-3.42,-2.81,378,286,237,467,327,26
474,0.91,-0.42,0.03,2.44,-4.03,-1.34,377,287,236,471,324,26
475,0.92,-0.41,0.02,0.06,-3.11,-2.32,379,284,245,476,326,26
476,0.93,-0.4,0.04,0.55,-2.75,-2.93,385,300,237,472,322,26
477,0.9,-0.42,0.02,-0.06,-3.3,-2.62,375,289,237,472,326,26
478,0.91,-0.42,0.01,0.55,-2.81,-2.32,367,283,240,475,322,26
479,0.91,-0.41,0.01,0.98,-3.17,-2.14,379,289,238,466,323,26
480,0.9,-0.42,0.01,0.55,-2.56,-2.87,380,286,237,473,323,26
481,0.94,-0.4,0.03,-6.16,-6.71,-2.08,379,284,238,470,320,26
482,0.96,-0.41,-0.01,3.97,-2.38,-5.74,378,286,240,474,323,26
483,0.88,-0.42,0.02,5.92,-1.95,1.04,381,286,239,466,323,26
484,0.92,-0.42,0.07,0.85,-3.97,-1.71,378,285,237,473,325,26
485,0.92,-0.41,0.02,-1.34,-4.52,-2.93,376,286,240,473,323,26
486,0.9,-0.41,0.01,-0.37,-3.91,-1.89,381,287,239,468,320,26
487,0.91,-0.41,0.01,0.31,-1.83,-2.99,378,287,239,471,326,26
488,0.87,-0.42,-0.0,-1.1,-3.17,-5.25,376,287,241,471,324,26
489,0.89,-0.42,0.02,-0.98,-5.19,-3.91,377,288,238,472,319,26
490,0.9,-0.4,0.03,-2.62,-3.3,-0.73,380,286,237,466,325,26
491,0.95,-0.37,0.01,2.87,0.98,-5.25,380,287,238,467,323,26
492,0.97,-0.38,0.06,3.91,1.04,-4.88,382,290,239,474,323,26
493,0.89,-0.41,-0.02,0.61,-4.82,0.49,378,286,240,471,327,26
494,0.91,-0.42,0.04,0.0,-2.56,-3.72,377,289,239,471,323,26
495,0.9,-0.41,0.03,4.33,3.72,-5.98,381,289,239,471,325,26
496,0.79,-0.45,0.22,-0.37,-1.83,-2.08,381,287,238,466,322,26
497,0.87,-0.38,-0.11,-8.79,3.85,-5.62,379,285,239,472,324,26
498,0.91,-0.37,0.14,18.68,2.14,2.38,378,286,236,472,326,26
499,0.91,-0.38,-0.02,-8.06,-14.95,3.17,382,288,238,471,326,26
500,0.91,-0.25,-0.02,-0.61,1.59,-1.59,379,286,239,475,326,26
501,0.91,-0.38,0.04,-0.06,0.55,-4.7,379,287,237,468,321,26
502,0.92,-0.39,0.05,2.01,-3.23,-3.78,379,286,239,474,328,26
503,0.92,-0.43,0.01,-2.5,-9.64,10.5,379,283,239,471,325,26
504,0.92,-0.41,0.02,4.94,-2.14,-2.87,377,287,239,466,325,26
505,0.92,-0.39,-0.0,3.23,3.78,-4.82,381,287,238,473,326,26
506,0.93,-0.4,0.06,8.73,1.53,-9.64,378,287,237,474,325,26
507,0.85,-0.4,0.11,-1.89,-8.24,-10.07,382,286,238,471,325,26
508,1.0,-0.33,-0.11,-1.89,-3.72,-4.58,380,290,237,473,324,26
509,0.96,-0.33,-0.06,2.5,3.42,-3.05,379,289,237,473,335,26
510,0.92,-0.36,-0.03,-0.06,-1.89,-2.99,380,287,239,474,323,26
511,0.95,-0.34,-0.05,1.71,-5.62,-5.43,382,286,237,472,327,26
512,0.94,-0.35,0.04,3.48,-2.14,0.67,392,284,237,471,327,26
513,0.93,-0.35,-0.02,3.42,-0.18,-5.49,378,289,237,472,322,26
514,0.9,-0.39,-0.01,-0.37,-2.14,-4.64,379,302,237,469,321,26
515,0.95,-0.35,-0.01,1.22,0.79,-5.92,379,287,240,469,327,26
516,0.93,-0.37,0.04,2.56,-2.62,-1.59,379,289,240,470,327,26
517,0.93,-0.37,0.02,-1.34,-2.99,-2.14,379,289,237,470,331,26
518,0.98,-0.18,-0.1,1.95,-3.11,-3.23,393,278,199,454,328,26
519,0.98,-0.18,-0.1,1.71,-2.81,-2.26,396,277,200,453,326,26
520,0.98,-0.19,-0.1,-0.98,-3.23,-1.77,394,280,200,459,327,26
521,0.98,-0.18,-0.1,1.95,-2.81,-2.38,395,278,189,453,323,26
522,0.98,-0.19,-0.1,-0.73,-3.54,-2.44,392,275,198,458,321,26
523,0.98,-0.19,-0.1,-0.61,-3.23,-2.93,395,281,201,457,322,26
524,0.98,-0.18,-0.1,-0.73,-3.36,-2.69,400,273,204,455,326,26
525,0.99,-0.18,-0.11,0.79,-3.05,-3.36,393,278,202,455,323,26
526,0.98,-0.18,-0.1,-1.53,-2.93,-3.11,390,276,199,449,324,26
527,0.98,-0.18,-0.1,0.06,-2.38,-2.81,393,278,206,451,325,26
528,0.98,-0.18,-0.1,0.0,-3.66,-2.87,392,279,200,456,327,26
529,0.98,-0.18,-0.1,1.4,-2.81,-3.36,393,281,193,454,326,26
530,0.98,-0.18,-0.1,0.18,-2.32,-2.81,397,283,201,457,321,26
531,0.98,-0.18,-0.09,0.24,-1.83,-3.23,392,283,201,456,326,26
532,0.97,-0.18,-0.09,-0.18,-2.01,-2.01,397,284,199,459,326,26
533,0.98,-0.17,-0.08,-0.06,-3.3,-1.71,394,283,201,457,326,26
534,0.97,-0.18,-0.1,0.24,-2.99,-2.5,394,281,199,454,321,26
535,0.98,-0.18,-0.1,-0.31,-2.99,-1.59,396,279,198,455,325,26
536,0.98,-0.19,-0.1,0.61,-4.33,-1.95,392,280,202,453,327,26
537,0.98,-0.19,-0.11,-0.31,-3.97,-1.89,392,275,203,455,328,26
538,0.98,-0.19,-0.1,0.24,-2.87,-2.2,389,288,203,453,327,26
539,0.98,-0.19,-0.1,0.73,-3.78,-2.99,387,282,206,459,326,26
540,0.98,-0.19,-0.1,0.31,-3.36,-2.2,396,281,203,453,323,26
541,0.98,-0.19,-0.11,0.55,-2.99,-2.99,391,283,208,455,324,26
542,0.98,-0.19,-0.11,2.2,-3.97,-2.44,390,282,198,456,327,26
543,0.98,-0.19,-0.11,-0.24,-2.93,-2.2,390,285,203,454,330,26
544,0.98,-0.19,-0.11,1.89,-2.5,-2.69,387,280,203,459,321,26
545,0.98,-0.2,-0.11,1.59,-3.42,-1.71,391,282,206,460,328,26
546,0.98,-0.19,-0.12,3.3,-3.54,-3.42,386,284,201,458,327,26
547,0.98,-0.19,-0.11,0.12,-2.08,-2.62,389,283,194,452,328,26
548,0.97,-0.18,-0.1,0.98,-3.05,-2.99,390,285,201,453,326,26
549,0.98,-0.19,-0.1,0.31,-3.23,-2.69,389,281,207,457,329,26
550,0.98,-0.19,-0.12,0.55,-3.97,-2.87,386,292,198,456,325,26
551,0.99,-0.19,-0.12,0.37,-3.66,-2.62,385,283,205,457,321,26
552,0.98,-0.18,-0.12,0.85,-3.42,-2.2,389,285,195,454,328,26
553,0.98,-0.18,-0.12,2.01,-2.99,-3.48,388,283,202,458,326,26
554,0.98,-0.18,-0.12,1.95,-4.15,-0.98,390,281,193,455,327,26
555,0.98,-0.19,-0.12,-0.31,-2.69,-3.36,388,280,193,457,324,26
556,0.98,-0.18,-0.12,1.04,-2.38,-2.69,389,284,199,460,328,26
557,0.98,-0.19,-0.11,1.16,-2.99,-3.66,389,279,201,456,325,26
558,0.98,-0.17,-0.11,-0.79,-2.2,-1.95,388,283,205,455,322,26
559,0.98,-0.18,-0.11,0.18,-2.62,-3.72,394,285,204,457,328,26
560,0.98,-0.18,-0.11,0.92,-3.17,-3.54,385,283,205,469,323,26
561,0.97,-0.18,-0.12,-0.18,-2.81,-1.95,388,277,202,452,327,26
562,0.98,-0.18,-0.11,0.85,-2.81,-1.89,389,285,207,459,328,26
563,0.98,-0.19,-0.11,0.49,-2.75,-2.2,385,283,209,453,330,26
564,0.99,-0.18,-0.11,1.04,-2.93,-2.81,387,286,191,452,329,26
565,0.98,-0.18,-0.11,0.18,-2.93,-2.32,385,283,208,459,326,26
566,0.99,-0.19,-0.12,2.01,-3.54,-2.2,383,280,209,454,323,26
567,0.97,-0.18,-0.12,-0.43,-3.17,-2.08,387,283,204,456,327,26
568,0.98,-0.18,-0.12,0.0,-4.52,-2.87,388,281,205,455,331,26
569,0.98,-0.18,-0.13,-0.61,-3.36,-2.99,388,280,210,459,327,26
570,0.99,-0.17,-0.13,-1.4,-3.11,-2.87,385,283,207,451,324,26
571,0.98,-0.18,-0.14,1.77,-3.23,-1.53,386,285,203,454,322,26
572,0.97,-0.18,-0.12,-0.55,-2.32,-1.95,387,282,207,442,328,26
573,0.97,-0.19,-0.12,-0.06,-4.03,-1.95,389,282,201,457,328,26
574,0.98,-0.19,-0.14,0.12,-4.58,-1.34,389,283,192,455,337,26
575,0.98,-0.18,-0.14,1.46,-2.44,-2.69,388,283,206,456,328,26
576,0.97,-0.18,-0.13,1.16,-2.56,-2.81,385,287,209,454,330,26
577,0.98,-0.17,-0.13,-1.83,-2.32,-3.05,388,283,202,454,329,26
578,0.97,-0.17,-0.15,-0.67,-3.48,-2.69,380,281,212,453,315,26
579,0.98,-0.18,-0.14,1.71,-2.75,-4.15,387,276,193,452,330,26
580,0.98,-0.15,-0.13,2.01,-1.46,-2.99,386,288,204,451,324,26
581,0.97,-0.17,-0.14,0.31,-2.26,-2.99,389,286,205,455,326,26
582,0.98,-0.16,-0.13,-0.31,-2.81,-3.3,386,280,204,452,312,26
583,0.96,-0.18,-0.15,3.78,-5.0,-2.44,387,281,203,450,328,26
584,0.97,-0.16,-0.11,7.02,-1.59,-0.67,383,277,205,459,326,26
585,1.02,-0.16,-0.11,12.33,0.06,-8.91,389,282,202,452,328,26
586,1.0,-0.15,-0.09,5.37,-2.5,-3.85,390,287,204,454,326,26
587,1.0,-0.16,-0.07,2.32,0.06,-1.46,388,284,204,459,324,26
588,1.0,-0.16,-0.07,-2.08,-1.4,-0.92,397,284,203,454,327,26
589,0.98,-0.18,-0.07,0.06,-1.95,-0.67,387,281,202,454,328,26
590,0.98,-0.18,-0.06,2.56,-4.27,-1.95,387,281,203,454,330,26
591,0.99,-0.18,-0.05,-1.34,-0.61,-2.56,388,287,206,455,326,26
592,0.98,-0.19,-0.07,2.38,-3.72,-1.1,385,278,199,454,332,26
593,0.98,-0.18,-0.07,-0.12,-3.66,-3.78,393,285,207,451,328,26
594,0.97,-0.19,-0.08,1.89,-4.33,-1.77,388,283,203,454,323,26
595,0.98,-0.17,-0.06,0.49,-2.62,-2.01,414,283,208,458,327,26
596,0.98,-0.18,-0.06,-4.27,-0.98,-1.22,388,284,205,458,331,26
597,0.98,-0.19,-0.05,1.04,-1.59,-3.11,388,282,207,452,326,26
598,0.98,-0.21,-0.06,-1.04,-2.01,-3.23,384,285,206,453,327,26
599,0.99,-0.2,-0.14,-12.39,-21.61,3.48,389,283,205,462,330,26
600,0.97,-0.18,-0.09,-0.98,-5.37,-1.65,384,287,216,454,327,26
601,0.96,-0.18,-0.1,-0.61,-6.84,-0.12,386,282,204,453,326,26
602,0.98,-0.19,-0.1,-0.92,-1.46,-0.49,390,285,206,460,327,26
603,0.97,-0.16,-0.09,2.44,-2.32,-2.14,389,283,199,453,328,26
604,0.98,-0.18,-0.08,-4.09,-1.59,-2.14,389,285,208,454,329,26
605,0.96,-0.2,-0.1,-1.34,-3.17,-2.56,388,285,209,455,327,26
606,0.94,-0.17,-0.09,9.52,-23.32,-3.91,386,282,208,453,323,26
607,0.96,-0.12,-0.09,-13.12,-3.48,4.27,388,277,208,453,328,26
608,0.99,-0.16,-0.08,3.23,-1.1,0.37,386,279,196,454,332,26
609,0.96,-0.23,-0.12,2.2,-10.68,6.16,384,287,212,459,329,26
610,0.98,-0.2,-0.09,5.74,3.17,-1.46,388,286,197,453,325,26
611,0.99,-0.24,-0.06,-2.99,-0.73,-3.91,388,276,206,452,331,26
612,0.94,-0.24,-0.07,2.93,-5.8,-0.49,385,280,208,446,328,26
613,0.98,-0.22,-0.06,-0.37,-3.97,-3.6,386,283,206,449,327,26
614,0.95,-0.23,-0.09,-0.31,-5.19,-2.62,387,278,202,446,329,26
615,0.97,-0.24,-0.09,-3.23,-5.07,-0.98,389,285,207,455,326,26
616,0.99,-0.26,-0.12,0.55,-15.99,7.45,383,282,209,452,324,26
617,0.98,-0.25,-0.09,4.39,0.55,-7.14,387,285,206,452,328,26
618,0.95,-0.24,-0.1,1.16,-1.16,-3.23,386,288,205,459,327,26
619,0.97,-0.23,-0.1,1.04,-2.44,-3.91,388,282,208,451,329,26
620,0.97,-0.23,-0.09,1.22,-2.93,-2.99,389,285,205,453,324,26
621,0.97,-0.22,-0.09,0.43,-3.48,-3.11,387,285,209,453,331,26
622,0.98,-0.23,-0.09,1.4,-2.69,-4.46,385,280,210,459,327,26
623,0.98,-0.2,-0.08,1.77,0.24,-5.8,393,285,208,454,331,26
624,0.96,-0.22,-0.08,-9.16,-5.37,-1.71,391,283,203,459,330,26
625,0.99,-0.19,-0.17,-0.12,-21.12,-5.31,386,286,206,456,331,26
626,0.99,-0.21,-0.14,-5.43,14.71,-3.54,387,282,202,453,329,26
627,0.95,-0.17,-0.05,1.71,-2.44,-4.52,387,287,207,454,328,26
628,0.96,-0.19,-0.07,3.85,0.0,-6.04,390,291,196,453,327,26
629,0.99,-0.18,-0.03,3.91,-0.43,-7.39,388,285,204,449,329,26
630,0.98,-0.18,-0.03,4.27,-3.36,-3.48,387,285,204,452,326,26
631,0.99,-0.16,-0.01,2.87,-1.1,-2.62,386,284,210,455,331,26
632,0.98,-0.17,-0.01,1.95,-1.95,-2.32,389,283,210,458,321,26
633,0.98,-0.17,-0.02,0.24,-2.62,-1.65,387,280,207,455,329,26
634,1.0,-0.18,-0.01,1.1,-2.81,-1.71,389,287,207,450,326,26
635,0.98,-0.18,-0.01,-1.34,-3.36,-3.05,386,288,213,449,324,26
636,0.98,-0.17,-0.01,2.56,-2.81,-2.69,387,285,206,450,329,26
637,0.98,-0.18,-0.02,-0.98,-2.5,-2.5,384,285,204,450,326,26
638,0.99,-0.18,-0.02,1.1,-4.09,-1.89,383,280,207,450,326,26
639,0.98,-0.17,-0.01,0.98,-2.14,-2.93,388,287,195,448,331,26
640,0.98,-0.17,-0.01,1.28,-3.05,-2.75,388,284,208,455,315,26
641,0.99,-0.18,-0.01,0.55,-3.36,-2.93,387,282,197,455,328,26
642,1.0,-0.17,-0.01,0.61,-2.56,-3.17,389,288,211,454,326,26
643,0.99,-0.17,-0.02,1.04,-5.49,-0.49,388,285,211,454,331,26
644,0.99,-0.17,-0.02,-1.34,-3.36,-2.5,386,285,211,451,328,26
645,0.99,-0.17,-0.02,0.79,-2.93,-2.81,385,280,210,458,328,26
646,1.0,-0.16,-0.01,1.59,-3.97,-2.32,386,288,196,452,324,26
647,0.98,-0.17,-0.02,-2.5,-1.89,-2.93,384,286,211,460,329,26
648,1.0,-0.16,-0.02,-2.56,-1.65,-2.26,387,284,203,452,331,26
649,1.0,-0.18,0.01,-8.0,-2.38,3.17,385,282,206,452,327,26
650,1.0,-0.19,-0.02,3.78,-3.6,-4.15,389,288,214,455,323,26
651,1.0,-0.19,-0.02,-0.98,-2.44,-3.91,397,289,210,449,330,26
652,0.98,-0.17,-0.02,4.76,-3.3,-4.33,388,295,208,459,328,26
653,0.98,-0.16,0.0,-1.34,-5.19,-1.4,387,289,204,456,318,26
654,1.02,-0.19,-0.06,-1.71,-3.66,-3.36,382,288,208,457,332,26
655,1.04,-0.22,-0.06,-2.99,-1.04,-2.38,388,286,207,449,329,26
656,0.97,-0.21,-0.02,-1.77,-6.65,0.49,383,283,205,454,328,26
657,0.97,-0.22,-0.03,1.53,-8.97,-0.55,385,284,209,458,329,26
658,0.93,-0.13,-0.06,-6.53,0.37,-6.71,383,287,209,458,331,26
659,1.0,-0.17,-0.08,-9.77,-8.61,0.06,386,283,211,456,330,26
660,0.99,-0.16,-0.06,2.62,-2.5,-4.15,386,287,210,450,327,26
661,0.97,-0.15,-0.1,-2.75,-5.31,-2.2,384,286,212,453,327,26
662,0.99,-0.14,-0.09,-2.26,-2.14,-2.75,381,288,192,454,330,26
663,0.98,-0.15,-0.08,0.12,-1.89,-1.83,387,287,213,455,329,26
664,0.99,-0.13,-0.07,2.93,-2.2,-3.66,384,288,209,454,331,26
665,0.99,-0.13,-0.07,-2.87,-3.85,-2.69,382,289,210,453,332,26
666,0.99,-0.15,-0.08,1.77,-3.23,-1.89,380,291,197,454,328,26
667,0.99,-0.12,-0.07,1.53,-3.66,-3.3,386,285,206,457,329,26
668,0.99,-0.13,-0.08,1.22,-3.3,-3.36,384,288,206,445,330,26
669,0.99,-0.13,-0.09,1.53,-3.36,-2.44,383,286,205,455,322,26
670,1.0,-0.12,-0.08,-0.79,-2.2,-1.46,384,286,201,457,327,26
671,1.0,-0.13,-0.08,-0.24,-2.08,-2.69,384,286,205,459,332,26
672,0.98,-0.13,-0.08,-0.43,-2.38,-1.22,393,287,208,452,329,26
673,0.98,-0.13,-0.07,0.49,-2.32,-2.08,384,279,213,451,332,26
674,1.0,-0.13,-0.07,0.98,-2.93,-4.21,387,283,206,459,331,26
675,0.99,-0.12,-0.08,1.04,-3.3,-2.38,384,284,212,461,332,26
676,1.0,-0.12,-0.07,-2.93,-2.56,-2.01,384,290,211,454,330,26
677,0.99,-0.13,-0.08,-1.34,-2.87,-2.62,375,277,210,452,325,26
678,0.99,-0.13,-0.08,0.12,-2.56,-1.89,386,286,203,454,331,26
679,0.99,-0.13,-0.07,1.04,-2.99,-2.32,382,285,212,456,328,26
680,0.99,-0.13,-0.08,0.06,-2.32,-2.99,381,288,208,453,328,26
681,1.0,-0.13,-0.08,-1.65,-2.08,-3.97,384,281,209,449,331,26
682,0.99,-0.13,-0.08,0.61,-2.87,-2.14,386,286,211,456,330,26
683,0.99,-0.12,-0.07,0.24,-2.38,-2.87,386,289,207,453,329,26
684,1.0,-0.12,-0.07,0.31,-3.6,-3.3,384,286,206,448,328,26
685,0.99,-0.12,-0.07,1.77,-3.54,-2.14,384,279,211,457,325,26
686,0.99,-0.12,-0.07,0.06,-3.42,-2.26,381,288,209,455,325,26
687,0.99,-0.12,-0.08,-0.31,-2.81,-1.34,386,289,207,456,330,26
688,0.99,-0.13,-0.08,-0.18,-3.23,-2.62,383,290,205,453,333,26
689,0.99,-0.13,-0.08,0.85,-2.26,-3.05,384,289,212,452,331,26
690,0.99,-0.12,-0.08,0.37,-2.62,-2.01,408,285,211,455,329,26
691,0.98,-0.13,-0.07,0.61,-2.62,-2.93,384,286,213,454,327,26
692,0.99,-0.12,-0.07,-0.85,-0.98,-2.62,381,288,205,454,328,26
693,0.99,-0.13,-0.07,0.18,-2.01,-2.01,382,291,208,456,325,26
694,0.99,-0.13,-0.06,0.98,-2.08,-2.2,383,288,210,457,329,26
695,0.98,-0.11,-0.04,2.01,-3.3,-5.55,391,286,209,455,326,26
696,0.99,-0.11,-0.05,0.18,-3.17,-2.75,382,287,208,445,329,26
697,0.99,-0.13,-0.06,0.18,-3.11,-1.71,382,284,208,458,326,26
698,0.99,-0.13,-0.06,-0.31,-3.48,-3.11,383,299,201,457,329,26
699,0.99,-0.12,-0.07,3.23,-2.81,-2.99,385,292,214,454,328,26
700,0.99,-0.11,-0.07,-0.49,-2.56,-2.56,384,283,210,460,329,26
701,1.0,-0.12,-0.07,-0.43,-2.44,-2.2,381,290,210,453,331,26
702,0.99,-0.12,-0.06,1.89,-1.71,-3.05,376,290,211,451,330,26
703,1.0,-0.12,-0.06,3.72,-3.05,-2.87,393,288,214,453,328,26
704,0.99,-0.11,-0.06,-0.06,-2.62,-1.95,389,284,213,454,331,26
705,0.99,-0.12,-0.06,-1.53,-3.72,-1.65,391,291,211,456,325,26
706,0.99,-0.12,-0.05,0.98,-2.44,-2.26,387,292,210,453,327,26
707,0.99,-0.13,-0.06,1.65,-2.56,-3.23,389,292,210,456,329,26
708,0.99,-0.13,-0.05,1.77,-3.66,-2.32,387,293,214,455,329,26
709,0.99,-0.11,-0.05,0.31,-2.87,-2.81,381,292,214,451,329,26
710,0.99,-0.11,-0.04,0.49,-2.75,-3.05,388,290,211,451,330,26
711,0.99,-0.1,-0.05,-0.67,-3.42,-3.97,390,286,208,451,329,26
712,0.99,-0.11,-0.05,2.08,-3.72,-2.56,387,294,208,448,322,26
713,1.0,-0.11,-0.06,-1.16,-2.2,-2.5,387,288,210,450,329,26
714,1.0,-0.11,-0.05,-0.49,-2.93,-2.69,384,297,211,451,329,26
715,0.99,-0.11,-0.05,0.0,-3.72,-3.78,379,290,209,457,325,26
716,1.0,-0.11,-0.06,0.73,-3.6,-2.44,385,292,202,449,329,26
717,1.0,-0.12,-0.06,0.73,-2.69,-1.95,387,291,209,456,329,26
718,0.99,-0.11,-0.05,1.77,-2.93,-1.83,377,290,209,456,328,26
719,0.99,-0.14,-0.06,1.4,-2.93,-1.16,388,292,200,448,331,26
720,1.0,-0.12,-0.05,-2.26,-1.22,-3.85,386,296,212,448,329,26
721,1.0,-0.12,-0.05,-0.61,-2.69,-1.95,383,292,210,454,325,26
722,0.98,-0.11,-0.06,1.22,-2.81,-1.89,388,283,207,455,329,26
723,0.99,-0.11,-0.05,1.77,-4.03,-2.81,384,293,209,451,329,26
724,0.99,-0.11,-0.03,-0.43,-2.32,-2.62,388,291,198,455,328,26
725,1.0,-0.11,-0.05,-0.49,-4.64,-2.08,386,297,217,450,331,26
726,0.99,-0.11,-0.06,0.67,-2.14,-2.75,385,288,208,453,329,26
727,1.0,-0.1,-0.04,0.24,-0.79,-1.77,385,291,210,451,327,26
728,1.0,-0.12,-0.05,0.12,-3.97,-3.97,387,290,199,452,330,26
729,0.99,-0.11,-0.05,1.53,-2.87,-2.38,381,295,213,458,326,26
730,1.0,-0.11,-0.06,0.0,-3.91,-2.26,385,294,210,452,329,26
731,0.99,-0.11,-0.06,0.0,-1.95,-3.11,384,291,218,457,328,26
732,0.99,-0.11,-0.06,1.53,-2.2,-3.3,382,292,212,456,329,26
733,1.0,-0.11,-0.06,1.65,-3.11,-2.44,385,294,211,452,332,26
734,1.0,-0.11,-0.06,2.38,-3.11,-4.03,380,290,213,457,327,26
735,1.0,-0.1,-0.05,-0.49,-2.01,-2.01,381,288,212,457,329,26
736,1.0,-0.11,-0.06,0.18,-2.62,-3.23,382,294,209,452,330,26
737,1.0,-0.11,-0.06,0.92,-3.11,-2.32,382,290,213,454,329,26
738,1.0,-0.11,-0.06,1.04,-3.23,-2.69,385,283,201,453,325,26
739,0.99,-0.11,-0.05,-0.18,-2.93,-2.87,379,292,210,455,320,26
740,1.0,-0.11,-0.06,0.55,-2.87,-2.81,383,291,209,451,330,26
741,1.0,-0.11,-0.05,3.11,-4.46,-3.42,385,296,212,451,328,26
742,1.01,-0.1,-0.04,1.28,-2.69,-2.08,385,285,218,456,332,26
743,1.0,-0.1,-0.05,0.12,-3.11,-3.6,379,292,220,452,328,26
744,0.99,-0.11,-0.06,-0.24,-3.23,-2.26,383,293,214,453,331,26
745,0.99,-0.11,-0.06,0.06,-2.87,-2.62,380,292,206,458,330,26
746,1.0,-0.1,-0.05,1.65,-1.65,-2.69,379,295,220,447,331,26
747,1.0,-0.11,-0.05,1.65,-2.2,-3.3,383,296,215,449,334,26
748,0.99,-0.1,-0.05,-0.31,-2.32,-2.99,378,293,215,451,331,26
749,0.99,-0.1,-0.06,-0.06,-2.81,-2.99,384,278,206,454,330,26
750,1.0,-0.11,-0.05,0.85,-2.69,-2.62,381,293,211,448,327,26
751,1.0,-0.1,-0.06,-0.67,-3.11,-1.22,381,293,213,452,330,26
752,0.99,-0.11,-0.06,0.24,-3.3,-2.08,383,285,205,453,334,26
753,1.0,-0.1,-0.05,1.46,-3.36,-1.22,375,291,214,457,325,26
754,0.99,-0.11,-0.05,0.61,-3.3,-2.38,377,297,213,451,333,26
755,0.99,-0.11,-0.05,0.67,-2.14,-2.38,382,298,206,443,332,26
756,0.99,-0.12,-0.05,-0.12,-2.93,-2.93,382,295,214,446,333,26
757,0.99,-0.11,-0.05,1.28,-2.5,-1.77,383,292,215,452,331,26
758,0.99,-0.13,-0.07,1.4,-3.42,-2.2,382,295,210,456,329,26
759,0.98,-0.13,-0.07,1.46,-6.65,2.93,379,293,210,451,329,26
760,0.98,-0.15,-0.06,-1.04,-3.85,1.71,386,291,210,453,331,26
761,1.07,-0.13,-0.06,-1.1,3.6,-11.11,386,285,226,454,329,26
762,1.0,-0.14,-0.03,4.09,-0.24,-2.26,384,300,213,448,330,26
763,1.07,-0.15,-0.07,-2.44,-2.01,-4.03,383,294,212,452,330,26
764,1.0,-0.15,-0.04,3.36,1.22,-5.8,377,291,215,455,338,26
765,0.99,-0.14,-0.06,-1.53,-2.14,-2.93,381,295,215,456,328,26
766,0.99,-0.17,-0.05,-1.16,-0.18,-2.44,382,296,214,450,329,26
767,0.99,-0.14,-0.02,-1.89,-10.25,0.31,409,297,207,450,329,26
768,0.99,-0.13,-0.02,2.44,-2.26,-2.56,377,295,214,456,331,26
769,1.01,-0.12,-0.05,-3.42,-1.1,-7.14,381,293,199,448,327,26
770,1.0,-0.11,-0.03,1.65,-4.94,-2.99,384,284,212,448,333,26
771,0.99,-0.12,-0.05,0.18,-4.27,-3.3,371,297,211,457,329,26
772,0.99,-0.13,-0.06,-1.77,-4.03,-3.85,382,291,216,452,329,26
773,0.99,-0.12,-0.05,-2.26,-2.14,-2.44,380,290,216,457,332,26
774,0.99,-0.11,-0.06,-1.04,-3.66,-1.59,380,289,214,450,333,26
775,0.99,-0.11,-0.06,-0.24,-1.83,-3.11,378,292,214,452,329,26
776,1.0,-0.11,-0.04,1.65,-2.69,-1.95,381,297,208,456,327,26
777,0.99,-0.11,-0.03,0.67,-0.98,-2.08,376,293,213,454,326,26
778,0.99,-0.12,-0.03,-0.12,-2.26,-2.56,383,296,209,455,332,26
779,0.99,-0.11,-0.03,1.83,-2.87,-2.56,383,293,214,452,330,26
780,0.99,-0.11,-0.03,1.59,-2.32,-2.93,378,291,210,452,331,26
781,0.99,-0.11,-0.02,-0.85,-2.5,-1.95,374,291,211,454,322,26
782,0.99,-0.11,-0.04,2.01,-3.23,-2.44,381,292,213,457,331,26
783,1.0,-0.1,-0.03,1.46,-3.54,-3.23,378,293,218,450,330,26
784,0.99,-0.11,-0.03,0.18,-4.46,-3.85,380,295,215,452,330,26
785,1.0,-0.11,-0.04,0.67,-3.54,-2.81,379,294,214,450,327,26
786,0.99,-0.11,-0.05,-0.43,-2.62,-2.5,378,289,216,453,329,26
787,1.0,-0.11,-0.04,1.1,-2.99,-2.38,378,295,216,448,332,26
788,0.99,-0.11,-0.04,-0.61,-3.36,-1.71,380,292,215,453,332,26
789,0.98,-0.11,-0.04,-0.06,-4.03,-2.69,372,294,213,452,327,26
790,0.99,-0.11,-0.05,-0.61,-3.91,-1.53,375,299,208,454,332,26
791,1.0,-0.11,-0.03,-0.12,-1.65,-4.58,379,297,214,452,329,26
792,0.99,-0.11,-0.04,0.55,-2.93,-2.14,379,294,214,449,330,26
793,0.99,-0.11,-0.03,0.43,-3.48,-2.93,378,297,200,451,333,26
794,0.99,-0.1,-0.04,0.43,-3.23,-2.99,379,296,215,458,330,26
795,0.99,-0.11,-0.04,-1.04,-2.81,-2.08,380,298,211,451,331,26
796,0.99,-0.11,-0.05,-0.12,-2.14,-1.46,379,294,209,451,332,26
797,0.99,-0.11,-0.04,-2.08,-4.15,-1.83,396,295,216,454,329,26
798,0.99,-0.12,-0.03,-0.12,-2.99,-3.23,378,301,206,452,333,26
799,1.0,-0.13,-0.05,1.1,-2.99,-3.11,378,290,216,454,331,26
800,1.0,-0.11,-0.03,1.16,-2.69,-3.48,378,302,219,452,326,26
801,1.0,-0.12,-0.03,1.59,-2.99,-3.23,378,293,208,448,333,26
802,0.99,-0.1,-0.04,0.61,-3.66,-2.26,379,300,205,451,331,26
803,0.99,-0.1,-0.05,0.98,-3.3,-2.38,380,296,214,460,331,26
804,0.99,-0.09,-0.05,-1.4,-3.05,-2.08,381,297,217,446,326,26
805,0.99,-0.11,-0.06,0.85,-2.81,-1.89,379,293,220,453,332,26
806,0.99,-0.1,-0.05,1.28,-3.42,-2.87,377,296,214,448,331,26
807,1.0,-0.12,-0.04,0.73,-3.23,-2.44,381,311,216,453,333,26
808,0.99,-0.11,-0.05,0.98,-2.62,-1.22,377,297,210,451,329,26
809,0.99,-0.11,-0.05,0.85,-2.44,-3.72,381,299,217,452,332,26
810,1.0,-0.1,-0.04,0.31,-2.38,-2.44,379,299,216,452,331,26
811,0.99,-0.11,-0.04,-0.37,-2.62,-2.62,381,297,213,453,329,26
812,0.99,-0.1,-0.03,0.73,-2.38,-2.38,374,294,216,453,327,26
813,1.0,-0.11,-0.04,-1.34,-2.87,-1.77,382,295,226,449,332,26
814,1.0,-0.11,-0.04,-0.12,-2.56,-1.95,376,297,213,457,325,26
815,0.99,-0.11,-0.04,-0.06,-2.38,-2.87,377,298,219,452,332,26
816,1.0,-0.11,-0.04,0.06,-4.46,-1.77,377,293,216,457,332,26
817,0.99,-0.11,-0.04,0.24,-2.62,-2.56,378,299,211,450,330,26
818,0.99,-0.1,-0.04,1.71,-3.66,-3.54,381,291,217,446,331,26
819,0.99,-0.1,-0.04,0.31,-3.17,-2.08,382,292,216,452,328,26
820,0.99,-0.11,-0.05,0.18,-3.66,-1.77,380,284,211,450,328,26
821,1.0,-0.11,-0.05,0.73,-4.64,-1.89,378,301,211,454,329,26
822,0.99,-0.11,-0.05,-0.37,-2.87,-3.11,379,301,208,451,335,26
823,1.0,-0.11,-0.06,0.37,-3.17,-2.75,378,298,214,451,333,26
824,0.99,-0.11,-0.06,-0.55,-3.3,-2.32,385,298,216,454,330,26
825,0.99,-0.11,-0.06,-0.06,-4.15,-1.95,377,296,215,445,330,26
826,0.99,-0.11,-0.06,0.73,-2.5,-1.89,388,295,221,453,324,26
827,1.0,-0.11,-0.06,-0.12,-4.09,-3.48,377,299,213,450,327,26
828,1.0,-0.11,-0.06,0.98,-3.05,-2.81,380,296,219,451,331,26
829,0.99,-0.1,-0.06,0.43,-3.23,-3.48,376,304,213,451,333,26
830,0.99,-0.1,-0.05,1.28,-2.38,-3.3,378,305,211,457,332,26
831,1.0,-0.1,-0.05,-0.31,-2.75,-4.15,377,297,215,449,334,26
832,1.0,-0.09,-0.06,0.31,-1.83,-3.05,374,297,218,441,333,26
833,0.99,-0.1,-0.06,0.06,-3.3,-1.95,377,295,220,448,337,26
834,0.99,-0.11,-0.06,0.43,-4.15,-1.1,376,296,216,456,333,26
835,0.99,-0.1,-0.07,-0.06,-2.01,-2.14,375,297,204,451,331,26
836,0.99,-0.11,-0.05,-1.71,-1.34,-2.2,374,298,212,453,326,26
837,1.0,-0.11,-0.05,-2.14,-2.44,-2.62,378,295,213,451,334,26
838,1.0,-0.11,-0.04,-0.18,-2.32,-3.05,379,295,210,453,331,26
839,0.99,-0.1,-0.04,1.4,-3.17,-3.05,378,293,213,453,333,26
840,0.99,-0.1,-0.03,6.1,-3.36,-3.85,378,294,216,452,324,26
841,1.0,-0.08,-0.04,3.17,-2.99,-2.87,377,294,215,454,331,26
842,0.99,-0.09,-0.04,-0.92,-4.21,-2.44,376,301,214,453,334,26
843,1.0,-0.09,-0.03,-4.03,-1.83,-1.1,376,299,215,447,332,26
844,1.0,-0.11,-0.03,-3.85,-2.44,-2.56,380,289,217,453,329,26
845,1.0,-0.13,-0.04,-5.92,-2.38,0.31,373,297,214,447,331,26
846,1.0,-0.14,-0.04,2.75,-1.65,-2.81,376,294,219,450,335,26
847,1.0,-0.1,-0.04,11.17,-4.15,-3.78,379,300,213,453,329,26
848,1.0,-0.08,-0.03,6.1,-4.76,-4.21,381,298,206,451,328,26
849,1.01,-0.08,-0.04,-2.5,-3.6,-3.97,377,298,215,445,331,26
850,1.0,-0.07,-0.05,-14.59,0.92,0.12,379,301,209,453,333,26
851,1.0,-0.11,-0.05,-10.74,-2.26,-0.55,376,296,217,454,334,26
852,0.99,-0.11,-0.05,2.44,-5.13,0.43,375,301,203,455,333,26
853,1.0,-0.14,-0.07,8.97,-3.42,-2.2,378,297,214,448,331,26
854,1.0,-0.11,-0.05,19.23,-4.39,-7.26,377,296,216,453,331,26
855,1.0,-0.07,-0.04,7.57,-4.7,-8.12,374,296,211,449,328,26
856,1.01,-0.08,-0.05,-3.05,-1.89,-4.76,374,296,220,455,332,26
857,1.0,-0.07,-0.05,-11.23,-1.59,-1.1,378,299,218,457,329,26
858,0.99,-0.09,-0.05,-3.6,-3.3,-2.08,375,297,225,456,332,26
859,1.0,-0.07,-0.05,4.58,-4.15,-2.93,378,296,212,462,332,26
860,1.0,-0.08,-0.05,-3.66,-2.08,-2.87,379,298,216,451,330,26
861,0.99,-0.1,-0.06,2.5,-3.17,-2.81,379,294,214,454,328,26
862,1.01,-0.06,-0.05,3.66,-3.3,-2.5,388,304,213,450,334,26
863,1.0,-0.09,-0.05,-2.56,-4.64,-3.05,376,287,209,451,327,26
864,1.0,-0.07,-0.05,0.92,-1.65,-2.81,378,292,214,455,332,26
865,1.0,-0.08,-0.05,-0.55,-2.81,-1.28,370,298,215,445,331,26
866,0.99,-0.07,-0.06,-1.04,-2.69,-1.46,411,296,211,452,334,26
867,1.0,-0.08,-0.06,0.06,-1.65,-2.62,406,296,211,448,332,26
868,1.0,-0.08,-0.03,-0.06,-0.73,0.67,376,297,217,449,327,26
869,1.01,-0.08,-0.06,-0.98,-4.39,-4.27,377,299,216,453,335,26
870,0.97,-0.1,-0.05,0.67,-4.7,-1.46,382,294,214,454,331,26
871,1.0,-0.09,-0.06,0.37,-1.83,-4.88,376,294,218,451,335,26
872,1.0,-0.1,-0.06,2.75,-6.71,-4.27,376,295,205,451,333,26
873,1.0,-0.1,-0.08,-0.55,-0.12,-0.37,373,298,211,447,331,26
874,0.99,-0.06,-0.04,-0.31,-4.58,-0.79,376,298,214,453,332,26
875,0.97,-0.08,-0.07,-2.87,-3.05,-1.95,376,296,202,454,332,26
876,1.0,-0.09,-0.05,-1.34,-1.53,-2.38,377,297,206,455,331,26
877,1.0,-0.08,-0.04,-0.92,-1.4,-2.26,378,296,205,451,335,26
878,1.0,-0.09,-0.04,1.53,-4.52,-2.93,376,293,218,456,334,26
879,1.0,-0.1,-0.05,-1.16,-2.75,-1.4,377,294,218,445,336,26
880,0.99,-0.1,-0.05,1.04,-3.23,-2.56,377,298,208,450,331,26
881,1.0,-0.09,-0.05,-2.38,-3.97,-3.23,379,300,216,451,332,26
882,1.0,-0.11,-0.06,-0.61,-2.26,-2.44,377,299,207,450,334,26
883,1.0,-0.09,-0.05,0.85,-3.11,-2.5,379,294,213,447,332,26
884,1.0,-0.08,-0.06,1.53,-3.3,-3.48,378,298,218,445,333,26
885,1.0,-0.08,-0.05,1.77,-3.54,-3.78,402,299,214,448,328,26
886,0.99,-0.07,-0.06,0.0,-3.42,-1.89,377,290,219,449,334,26
887,0.99,-0.07,-0.07,0.49,-4.82,-2.99,378,296,214,443,332,26
888,0.99,-0.07,-0.07,2.87,-2.93,-2.75,376,295,210,445,330,26
889,0.99,-0.08,-0.06,-0.73,-1.34,-2.38,374,296,217,451,332,26
890,1.0,-0.08,-0.06,1.77,-3.11,-3.3,374,300,210,455,336,26
891,1.0,-0.08,-0.07,-0.67,-1.28,-1.83,375,295,219,453,330,26
892,0.99,-0.08,-0.06,1.77,-3.78,-3.11,375,298,210,452,332,26
893,1.01,-0.07,-0.06,1.53,-1.83,-2.38,372,297,219,449,331,26
894,1.0,-0.05,-0.08,6.35,-8.12,-4.39,377,298,211,452,334,26
895,0.99,-0.08,-0.12,0.92,-1.77,-5.92,386,296,217,450,332,26
896,1.01,-0.1,-0.14,5.13,-8.06,-4.94,380,297,218,451,333,26
897,0.99,-0.11,-0.13,-4.76,-3.11,-0.49,376,296,212,452,332,26
898,0.98,-0.07,-0.1,4.82,-4.7,-2.99,376,298,206,449,333,26
899,1.0,-0.06,-0.09,4.64,-1.04,-1.95,378,298,219,451,332,26
900,1.0,-0.07,-0.08,2.99,-2.56,-3.91,374,294,206,452,335,26
901,1.01,-0.07,-0.06,2.81,-1.95,-2.81,375,287,218,452,329,26
902,1.0,-0.09,-0.09,-0.79,-6.47,-5.13,378,290,212,452,332,26
903,0.96,-0.09,-0.08,0.12,-0.06,-4.03,373,296,221,451,334,26
904,1.0,-0.09,-0.07,3.66,-4.15,1.46,380,295,198,455,327,26
905,1.0,-0.07,-0.09,1.77,-5.55,-1.83,376,294,217,445,332,26
906,0.97,-0.1,-0.08,-6.96,-1.22,1.16,379,296,213,453,331,26
907,0.99,-0.08,-0.08,0.18,-3.05,-1.65,376,299,215,446,333,26
908,0.99,-0.09,-0.08,0.49,-2.69,-1.83,373,294,208,453,325,26
909,1.0,-0.09,-0.08,0.12,-2.62,-1.77,383,298,219,451,333,26
910,0.99,-0.08,-0.08,0.67,-2.44,-2.99,374,298,211,450,335,26
911,1.0,-0.09,-0.08,1.59,-3.17,-1.65,373,301,217,450,336,26
912,1.0,-0.08,-0.07,8.79,0.85,-5.98,377,298,214,452,332,26
913,1.02,-0.08,-0.07,4.15,-2.75,-1.59,384,299,209,458,332,26
914,0.97,-0.13,-0.01,-1.16,16.05,-1.34,388,299,224,454,331,26
915,1.0,-0.08,-0.01,4.27,-4.46,-5.37,389,300,216,450,321,26
916,0.99,-0.12,-0.06,5.25,-2.62,-3.97,394,296,217,450,326,26
917,0.98,-0.08,-0.05,3.66,-7.45,-1.46,397,297,215,447,328,26
918,0.98,-0.09,-0.06,-0.43,-3.48,-2.69,397,295,221,451,330,26
919,0.98,-0.11,-0.04,0.85,-12.88,6.29,412,290,213,451,329,26
920,1.0,-0.12,-0.05,2.62,-3.54,3.36,414,296,209,447,330,26
921,0.97,-0.13,-0.06,-0.79,0.43,-0.31,416,297,216,456,330,26
922,1.01,-0.18,-0.05,-2.44,-3.3,-1.22,420,294,221,451,331,26
923,0.98,-0.12,-0.06,-2.26,-1.53,-4.15,419,295,218,451,321,26
924,1.0,-0.15,-0.06,-1.4,-3.05,-3.3,418,298,212,447,325,26
925,0.98,-0.14,-0.06,-1.22,-2.81,-4.39,418,297,214,449,320,26
926,0.99,-0.12,-0.06,4.21,-3.6,-2.81,445,297,212,452,333,26
927,0.97,-0.1,-0.06,-10.19,-1.16,-7.81,414,299,214,448,333,26
928,1.0,-0.09,-0.07,1.46,-2.26,1.83,414,296,205,452,322,26
929,0.97,-0.13,-0.05,-6.77,1.04,-2.5,413,299,203,450,332,26
930,0.98,-0.1,-0.05,-2.2,-1.4,-4.09,412,297,215,450,330,26
931,1.0,-0.11,-0.05,-1.1,-2.62,-4.09,412,296,212,452,330,26
932,0.99,-0.09,-0.06,-2.2,-7.14,-3.48,405,295,215,448,329,26
933,1.0,-0.1,-0.07,-4.27,-3.17,-2.87,401,292,215,450,323,26
934,0.99,-0.06,-0.05,7.57,2.69,-8.54,426,299,206,447,327,26
935,1.02,-0.06,-0.06,-6.77,-2.26,-7.08,402,298,214,452,324,26
936,1.02,-0.03,-0.05,8.18,-1.65,-3.97,393,294,213,455,328,26
937,1.0,-0.03,-0.05,3.54,0.55,-4.58,391,300,217,453,329,26
938,1.0,-0.01,-0.03,7.57,-1.89,-4.76,388,296,218,446,328,26
939,0.99,0.03,-0.01,-5.92,1.1,5.0,385,302,220,452,325,26
940,1.03,-0.03,-0.02,-7.02,-3.72,-1.34,389,296,216,448,329,26
941,0.99,-0.07,-0.05,-5.62,4.58,1.77,390,296,219,454,330,26
942,1.01,-0.12,-0.03,1.22,-1.95,3.91,391,298,217,446,329,26
943,0.98,-0.12,0.01,18.31,0.24,-4.64,392,291,205,456,328,26
944,0.94,-0.03,0.16,-1.59,-8.97,13.37,384,299,213,456,325,26
945,0.93,-0.15,0.09,15.32,0.12,1.89,383,299,210,455,329,26
946,0.97,-0.17,0.03,-5.19,-8.24,1.34,380,302,216,451,329,26
947,1.01,-0.13,0.0,3.91,-5.0,-5.74,383,300,214,451,329,26
948,0.99,-0.15,-0.0,-4.82,-2.93,-4.46,385,298,216,451,327,26
949,1.03,-0.12,-0.01,-6.59,-1.89,-4.58,383,301,215,452,327,26
950,1.05,-0.16,-0.04,-4.64,-2.08,-2.69,383,311,221,452,328,26
951,1.01,-0.15,-0.04,-4.15,-3.72,2.5,382,296,216,451,330,26
952,0.97,-0.18,-0.02,5.92,-0.67,0.73,382,295,215,450,329,26
953,0.98,-0.15,0.01,3.05,-7.02,-3.23,375,299,218,454,330,26
954,0.98,-0.16,-0.03,0.98,-7.87,-3.85,380,296,214,444,329,26
955,0.99,-0.16,-0.09,-2.75,-13.98,-3.72,378,300,215,455,329,26
956,0.99,-0.13,-0.13,-2.2,-6.77,-3.54,373,307,214,449,328,26
957,0.99,-0.14,-0.15,-0.18,-4.82,-2.81,380,299,213,453,332,26
958,0.99,-0.13,-0.14,-2.26,-5.19,-5.37,381,298,218,450,332,26
959,0.97,-0.11,-0.19,-0.98,-10.99,-3.85,379,294,218,451,332,26
960,1.0,-0.11,-0.21,-2.2,-9.52,-0.43,402,293,211,451,332,26
961,0.97,-0.12,-0.28,7.39,0.37,-6.9,381,298,218,450,330,26
962,0.96,-0.13,-0.21,17.03,-1.16,-0.92,383,297,217,453,334,26
963,0.98,-0.14,-0.22,8.54,-4.39,-3.97,380,299,202,455,331,26
964,0.97,-0.11,-0.14,10.56,14.89,-4.7,383,289,213,449,328,26
965,1.0,-0.16,-0.11,-4.88,6.65,1.59,386,292,217,455,329,26
966,0.99,-0.13,0.01,-9.83,3.85,-2.38,381,290,224,456,325,26
967,1.0,-0.15,0.01,5.37,-0.24,-7.32,384,297,217,455,330,26
968,0.99,-0.12,0.05,0.79,-0.06,-3.54,380,293,215,454,328,26
969,0.99,-0.12,0.04,0.12,-4.27,-2.14,378,299,217,446,332,26
970,1.0,-0.12,0.04,0.12,-2.81,-3.36,383,300,214,451,325,26
971,1.0,-0.1,0.03,2.32,-2.69,-2.75,382,295,215,454,332,26
972,1.0,-0.11,0.03,1.71,-1.71,-3.11,380,297,219,452,325,26
973,0.99,-0.1,0.05,-0.31,-2.99,-3.6,377,302,218,448,329,26
974,1.01,-0.11,0.05,1.22,-3.6,-5.19,380,302,216,452,331,26
975,1.01,-0.09,0.05,-2.87,-2.32,-5.86,382,291,216,446,334,26
976,0.99,-0.11,0.08,-2.5,7.32,-9.03,381,298,219,452,330,26
977,1.0,-0.12,0.11,9.28,2.08,2.56,377,300,216,451,334,26
978,1.01,-0.09,0.1,2.69,-7.51,-5.62,376,296,218,449,327,26
979,0.99,-0.12,0.01,2.38,-8.85,-0.37,380,299,218,451,337,26
980,0.99,-0.09,0.03,9.95,-8.48,-2.44,379,300,217,448,329,26
981,1.01,-0.11,0.02,-4.09,-0.85,0.98,380,300,221,449,333,26
982,1.0,-0.12,0.01,-0.61,-2.56,-2.93,373,298,216,452,330,26
983,0.98,-0.15,0.02,-1.04,0.55,0.37,379,299,221,455,331,26
984,1.04,-0.15,0.02,-4.94,-0.06,-2.81,377,303,216,450,335,26
985,1.0,-0.15,0.06,-2.93,-3.97,-1.95,377,300,217,448,328,26
986,0.98,-0.16,0.04,-8.79,0.18,-3.66,374,300,215,448,333,26
987,1.0,-0.13,0.07,-7.63,-3.66,-1.1,377,290,216,451,327,26
988,1.01,-0.16,0.05,-6.9,-3.17,-3.3,379,299,214,449,329,26
989,1.01,-0.15,0.05,-9.46,-0.79,-0.98,372,300,216,450,330,26
990,0.97,-0.22,-0.01,-6.04,-2.26,-3.42,379,294,215,444,329,26
991,0.99,-0.21,0.01,13.85,-8.18,4.09,377,295,214,449,332,26
992,0.97,-0.21,-0.03,17.09,4.39,-12.21,387,295,216,450,329,26
993,1.0,-0.19,-0.02,-1.95,-2.81,0.55,391,301,216,454,330,26
994,0.99,-0.15,0.04,1.65,0.12,-3.72,381,301,220,447,333,26
995,1.0,-0.16,0.01,-3.72,-2.32,-2.56,379,297,214,450,332,26
996,0.99,-0.18,-0.0,2.5,-4.33,-2.44,380,302,217,455,337,26
997,1.0,-0.18,-0.0,3.54,-3.05,-2.2,390,304,214,451,330,26
998,0.98,-0.17,0.0,10.86,-6.16,-2.14,390,305,219,450,327,26
999,0.99,-0.18,0.01,-2.01,-2.75,0.49,393,307,213,451,331,26
1000,1.0,-0.21,0.02,4.94,-1.4,-3.66,396,308,207,449,330,26
1001,1.01,-0.18,-0.01,-2.2,5.68,-10.86,397,304,219,446,329,26
1002,1.01,-0.2,-0.02,6.77,16.3,-1.16,399,305,218,449,325,26
1003,0.97,-0.23,0.02,5.31,5.92,-2.62,388,302,214,448,331,26
1004,0.98,-0.19,0.02,6.65,-7.39,-5.55,395,301,216,455,328,26
1005,0.99,-0.19,0.06,0.06,-0.61,-3.3,396,305,220,452,333,26
1006,1.0,-0.17,0.01,-1.53,-6.41,-4.21,397,306,225,454,326,26
1007,0.99,-0.21,-0.01,-3.78,-1.71,-1.89,394,302,223,450,332,26
1008,0.99,-0.18,0.02,-1.04,-3.23,-5.43,394,303,220,449,330,26
1009,1.0,-0.18,0.0,0.12,-4.46,-3.36,388,305,220,442,332,26
1010,1.01,-0.15,-0.03,0.0,-6.04,-9.7,388,306,219,455,332,26
1011,1.0,-0.16,-0.06,-1.89,-6.41,-3.54,392,307,217,452,334,26
1012,0.97,-0.11,0.06,7.2,15.93,2.44,388,312,218,447,329,26
1013,0.98,-0.09,0.07,-2.32,-1.22,-0.49,391,301,221,448,330,26
1014,1.0,-0.19,-0.01,3.54,-5.98,6.41,390,306,215,450,334,26
1015,1.06,-0.15,0.11,3.97,-3.48,-7.26,390,300,216,451,332,26
1016,0.96,-0.16,0.07,0.92,-4.94,0.92,387,301,219,448,331,26
1017,0.98,-0.14,0.11,3.6,0.73,-3.17,389,300,215,450,333,26
1018,0.99,-0.18,0.07,-1.4,-5.25,-1.77,387,308,215,449,333,26
1019,0.98,-0.16,0.08,-0.06,-2.93,-1.34,390,297,218,448,330,26
1020,0.99,-0.17,0.1,-1.16,-2.14,-4.82,422,303,218,449,330,26
1021,0.99,-0.16,0.08,7.51,-4.15,-2.14,383,299,216,454,326,26
1022,0.99,-0.14,0.08,0.31,-9.09,-3.72,386,304,216,452,330,26
1023,0.99,-0.16,0.03,-7.39,-6.9,0.73,425,304,218,446,334,26
1024,1.0,-0.18,0.07,-2.44,4.27,0.31,386,304,222,446,332,26
1025,0.99,-0.21,0.05,-2.32,-3.6,-4.46,390,308,212,445,325,26
1026,0.99,-0.16,0.09,-0.67,0.61,-2.26,393,307,220,446,330,26
1027,0.97,-0.2,0.07,-1.95,-2.56,-1.1,390,306,229,451,323,26
1028,0.98,-0.2,0.09,0.24,-2.5,-1.83,394,311,218,450,331,26
1029,0.97,-0.2,0.08,-3.42,-3.72,-0.37,394,309,225,447,322,26
1030,0.8,-0.4,-0.39,-18.68,17.09,-2.99,414,229,170,448,360,26
1031,0.83,-0.4,-0.39,-6.04,-2.5,1.1,415,226,169,450,359,26
1032,0.8,-0.43,-0.38,-0.37,-3.85,-2.2,419,227,169,446,359,26
1033,0.82,-0.4,-0.42,-5.8,-0.24,0.24,416,226,171,445,358,26
1034,0.8,-0.42,-0.41,-3.11,-1.1,-1.89,416,236,167,451,359,26
1035,0.82,-0.4,-0.43,-2.01,-3.78,0.18,417,228,169,453,359,26
1036,0.82,-0.41,-0.39,-2.38,2.62,-0.79,415,232,170,448,355,26
1037,0.83,-0.4,-0.4,0.18,-2.87,-1.53,415,231,173,447,359,26
1038,0.81,-0.41,-0.39,-0.73,-1.71,-2.08,415,231,173,452,359,26
1039,0.81,-0.4,-0.39,-0.24,-5.0,-4.09,419,239,166,448,361,26
1040,0.81,-0.38,-0.41,0.43,-2.14,-2.32,414,229,173,446,359,26
1041,0.82,-0.39,-0.42,-0.18,-3.17,-0.12,416,229,174,449,359,26
1042,0.83,-0.4,-0.41,-1.53,-2.93,-4.64,417,230,173,452,359,26
1043,0.82,-0.42,-0.39,0.85,-2.14,-1.89,416,229,174,453,356,26
1044,0.81,-0.43,-0.39,0.24,-2.26,-2.01,412,233,169,450,360,26
1045,0.81,-0.44,-0.36,-6.29,5.0,2.62,417,233,175,450,361,26
1046,0.84,-0.41,-0.38,-5.8,3.85,1.46,414,232,175,450,359,26
1047,0.86,-0.37,-0.34,-1.59,-2.62,-6.59,413,236,171,445,361,26
1048,0.87,-0.36,-0.34,-1.34,-1.83,1.59,412,231,175,450,359,26
1049,0.85,-0.38,-0.34,-0.73,-3.05,-2.44,411,237,175,449,359,26
1050,0.86,-0.37,-0.36,1.16,-2.87,-3.48,419,232,175,453,357,26
1051,0.84,-0.39,-0.35,2.38,-2.62,-1.04,411,235,177,453,359,26
1052,0.84,-0.39,-0.38,1.65,-1.83,-3.6,412,235,176,450,360,26
1053,0.85,-0.39,-0.36,2.01,-3.11,-1.59,418,234,174,444,359,26
1054,0.84,-0.4,-0.42,20.08,-33.45,-8.3,414,234,175,449,358,26
1055,0.83,-0.4,-0.42,0.67,-4.15,-5.43,410,236,170,444,349,26
1056,0.8,-0.39,-0.39,-1.59,-0.73,-2.75,412,235,176,450,358,26
1057,0.83,-0.4,-0.41,1.83,-2.5,-1.04,414,236,173,447,357,26
1058,0.81,-0.41,-0.41,0.31,-1.53,-2.81,412,234,175,445,359,26
1059,0.82,-0.41,-0.4,1.28,-2.32,-1.1,412,234,174,452,359,26
1060,0.82,-0.42,-0.39,0.98,-2.38,-1.83,414,234,173,453,360,26
1061,0.81,-0.42,-0.39,0.06,-2.87,-1.59,410,240,169,450,362,26
1062,0.82,-0.42,-0.4,-1.77,-1.22,-1.83,413,237,176,452,361,26
1063,0.82,-0.41,-0.39,-1.1,-2.93,-3.48,409,237,171,448,360,26
1064,0.83,-0.39,-0.4,0.0,-2.44,-1.83,413,234,176,452,360,26
1065,0.83,-0.4,-0.39,-0.55,-2.5,-1.83,411,237,173,450,361,26
1066,0.82,-0.42,-0.39,1.16,-2.62,-1.65,407,236,177,445,359,26
1067,0.81,-0.43,-0.39,2.5,-1.89,-1.1,410,236,175,451,360,26
1068,0.8,-0.44,-0.37,-0.37,-3.23,-2.5,407,234,177,446,362,26
1069,0.81,-0.42,-0.38,-0.37,-3.36,-3.3,411,232,174,453,361,26
1070,0.81,-0.43,-0.39,0.31,-3.66,-4.03,410,237,177,452,357,26
1071,0.82,-0.4,-0.4,0.43,-2.81,-3.17,408,234,177,452,360,26
1072,0.81,-0.39,-0.39,2.14,-1.46,-1.4,410,235,175,452,358,26
1073,0.82,-0.41,-0.39,-0.12,-1.89,-1.65,409,238,177,449,362,26
1074,0.8,-0.44,-0.37,1.4,-3.78,-2.08,409,238,175,449,360,26
1075,0.83,-0.39,-0.4,1.1,-3.36,-3.42,409,239,177,448,358,26
1076,0.83,-0.4,-0.4,1.1,-2.38,-3.54,409,238,174,450,360,26
1077,0.83,-0.4,-0.39,-1.4,-2.99,-3.72,406,235,178,451,361,26
1078,0.83,-0.39,-0.39,-0.79,-1.4,-4.09,411,235,179,449,360,26
1079,0.85,-0.36,-0.42,-0.12,-0.79,-6.47,407,236,173,450,358,26
1080,0.83,-0.4,-0.38,-0.67,-3.91,-1.95,412,237,179,456,361,26
1081,0.83,-0.39,-0.38,0.61,-1.89,-3.05,411,236,178,449,361,26
1082,0.82,-0.41,-0.38,1.53,-2.01,-2.01,404,239,177,450,360,26
1083,0.83,-0.41,-0.38,0.18,-2.87,-2.38,408,235,175,449,363,26
1084,0.81,-0.41,-0.36,0.85,-3.72,-2.75,410,239,177,460,361,26
1085,0.84,-0.39,-0.38,0.49,-3.72,-4.15,409,237,180,449,360,26
1086,0.84,-0.38,-0.38,0.12,-3.66,-3.72,414,243,176,451,361,26
1087,0.84,-0.38,-0.38,0.85,-2.14,-1.89,408,239,180,452,352,26
1088,0.84,-0.39,-0.38,0.43,-2.26,-2.56,409,237,181,454,359,26
1089,0.84,-0.39,-0.38,0.55,-2.81,-2.87,407,253,179,447,359,26
1090,0.82,-0.4,-0.36,0.79,-3.72,-2.75,407,238,177,451,361,26
1091,0.84,-0.39,-0.37,-1.1,-3.42,-4.33,407,237,175,446,360,26
1092,0.84,-0.38,-0.38,-1.16,-2.99,-3.72,407,239,180,449,361,26
1093,0.83,-0.39,-0.38,1.65,-2.93,-1.34,413,237,179,454,361,26
1094,0.84,-0.39,-0.37,-0.24,-1.16,-1.4,406,241,179,452,363,26
1095,0.84,-0.39,-0.38,0.73,-2.5,-1.04,405,238,174,449,362,26
1096,0.85,-0.38,-0.37,0.61,-2.62,-3.05,407,240,180,455,362,26
1097,0.84,-0.39,-0.37,0.12,-2.75,-2.99,408,237,181,452,361,26
1098,0.84,-0.37,-0.37,-1.53,-3.66,-3.23,407,236,177,454,361,26
1099,0.84,-0.38,-0.38,0.55,-3.36,-3.3,406,236,178,450,370,26
1100,0.83,-0.38,-0.39,1.1,-2.38,-1.22,400,238,177,450,360,26
1101,0.83,-0.39,-0.38,-0.67,-2.62,-2.2,408,240,181,462,360,26
1102,0.84,-0.39,-0.38,-0.24,-2.44,-2.08,410,235,178,446,361,26
1103,0.84,-0.39,-0.38,-0.37,-2.93,-1.46,406,241,178,451,361,26
1104,0.84,-0.39,-0.37,-0.24,-2.75,-2.14,405,241,179,451,362,26
1105,0.84,-0.39,-0.38,0.0,-3.11,-2.08,406,240,179,451,363,26
1106,0.84,-0.38,-0.37,1.1,-2.87,-2.26,408,236,179,451,362,26
1107,0.83,-0.38,-0.37,2.08,-2.44,-1.53,405,238,177,455,361,26
1108,0.84,-0.39,-0.37,2.01,-4.33,-1.77,445,242,182,451,360,26
1109,0.84,-0.39,-0.38,-0.79,-3.17,-1.59,402,241,179,451,361,26
1110,0.85,-0.38,-0.38,-0.18,-3.6,-2.99,406,241,183,446,361,26
1111,0.84,-0.37,-0.39,0.61,-2.93,-1.59,406,241,178,444,361,26
1112,0.83,-0.39,-0.38,-0.06,-2.08,-1.89,406,236,178,450,360,26
1113,0.83,-0.4,-0.37,-1.22,-1.83,-2.93,406,240,181,448,361,26
1114,0.83,-0.4,-0.37,0.55,-2.56,-1.95,406,238,176,452,363,26
1115,0.83,-0.42,-0.38,1.04,-3.23,-2.69,407,236,180,453,363,26
1116,0.83,-0.41,-0.37,0.18,-3.11,-3.91,406,239,179,451,364,26
1117,0.83,-0.4,-0.37,0.73,-3.42,-3.05,400,239,179,448,359,26
1118,0.83,-0.39,-0.38,-0.67,-3.36,-2.69,405,239,185,451,363,26
1119,0.83,-0.39,-0.38,1.04,-2.44,-1.59,406,237,180,455,361,26
1120,0.83,-0.39,-0.38,1.1,-2.26,-2.32,407,238,180,451,364,26
1121,0.83,-0.4,-0.38,0.73,-2.62,-1.59,407,239,181,452,363,26
1122,0.82,-0.41,-0.38,1.04,-2.38,-2.14,407,240,180,455,362,26
1123,0.83,-0.41,-0.37,0.79,-2.81,-2.32,405,241,179,450,364,26
1124,0.83,-0.41,-0.38,0.06,-3.85,-3.42,403,236,180,453,359,26
1125,0.83,-0.4,-0.38,0.31,-4.27,-5.0,402,242,182,451,359,26
1126,0.84,-0.39,-0.38,0.79,-2.87,-2.99,408,238,180,452,364,26
1127,0.83,-0.39,-0.37,0.61,-1.22,-1.34,405,240,180,455,361,26
1128,0.83,-0.39,-0.38,1.1,-2.62,-2.08,404,239,179,450,352,26
1129,0.83,-0.41,-0.37,0.37,-2.44,-1.1,406,240,178,451,362,26
1130,0.83,-0.41,-0.37,0.06,-2.56,-2.08,405,240,182,452,364,26
1131,0.84,-0.4,-0.37,0.0,-2.5,-1.46,410,238,182,455,361,26
1132,0.83,-0.4,-0.37,0.12,-2.93,-2.69,403,239,178,455,363,26
1133,0.83,-0.4,-0.37,-0.73,-2.69,-3.48,406,240,181,449,362,26
1134,0.84,-0.38,-0.37,0.67,-3.48,-3.6,406,239,181,452,363,26
1135,0.85,-0.38,-0.38,0.55,-2.62,-2.62,410,242,181,455,362,26
1136,0.84,-0.39,-0.38,1.83,-2.93,-2.08,407,238,182,452,363,26
1137,0.83,-0.39,-0.39,0.24,-2.38,-1.1,406,240,182,449,362,26
1138,0.83,-0.41,-0.38,-0.37,-2.32,-0.79,406,242,180,451,363,26
1139,0.82,-0.41,-0.37,0.37,-2.38,-0.55,408,239,180,454,362,26
1140,0.84,-0.41,-0.38,0.0,-3.17,-2.32,405,240,182,447,361,26
1141,0.84,-0.4,-0.38,-0.37,-3.97,-2.69,407,240,180,456,364,26
1142,0.84,-0.4,-0.37,0.55,-3.42,-3.66,405,243,182,450,362,26
1143,0.84,-0.38,-0.38,0.49,-3.3,-3.42,406,242,185,451,365,26
1144,0.83,-0.39,-0.38,1.89,-2.14,-1.34,405,240,180,446,362,26
1145,0.83,-0.4,-0.38,0.43,-2.14,-1.59,409,239,185,447,366,26
1146,0.82,-0.41,-0.37,0.79,-2.81,-2.14,406,243,184,449,358,26
1147,0.84,-0.41,-0.37,0.18,-3.05,-1.71,406,243,185,451,363,26
1148,0.83,-0.41,-0.37,0.18,-3.72,-3.48,402,243,182,450,364,26
1149,0.84,-0.4,-0.37,0.31,-4.09,-4.39,408,238,182,451,361,26
1150,0.84,-0.39,-0.39,1.16,-3.42,-4.58,405,238,184,446,364,26
1151,0.84,-0.39,-0.38,1.16,-2.38,-2.08,442,242,181,450,366,26
1152,0.83,-0.4,-0.37,1.46,-2.87,-2.81,406,241,179,452,362,26
1153,0.83,-0.4,-0.38,0.24,-2.5,-1.95,414,244,180,451,361,26
1154,0.83,-0.41,-0.38,-0.06,-2.32,-2.01,409,241,181,457,364,26
1155,0.83,-0.41,-0.37,0.61,-2.93,-2.32,405,239,180,446,360,26
1156,0.84,-0.4,-0.38,-0.31,-3.23,-3.66,406,243,183,455,364,26
1157,0.84,-0.4,-0.37,-0.79,-3.85,-3.66,407,241,185,451,364,26
1158,0.84,-0.39,-0.38,0.12,-3.54,-3.72,405,244,181,455,363,26
1159,0.84,-0.39,-0.38,1.77,-2.14,-1.22,406,241,185,447,365,26
1160,0.83,-0.4,-0.37,1.04,-2.75,-2.08,406,241,184,450,363,26
1161,0.82,-0.4,-0.38,1.28,-2.32,-1.46,403,242,184,451,363,26
1162,0.82,-0.42,-0.37,-0.24,-2.99,-3.23,405,244,184,455,364,26
1163,0.82,-0.41,-0.38,-0.43,-3.97,-3.36,407,242,183,448,363,26
1164,0.83,-0.39,-0.39,0.12,-3.23,-3.66,404,243,182,451,363,26
1165,0.84,-0.39,-0.39,0.61,-2.26,-0.31,406,245,182,450,366,26
1166,0.83,-0.4,-0.38,-0.37,-2.38,-1.04,406,245,185,450,363,26
1167,0.83,-0.41,-0.38,1.34,-3.11,-2.01,405,239,196,451,360,26
1168,0.83,-0.41,-0.37,0.12,-2.56,-2.38,407,242,183,452,363,26
1169,0.82,-0.41,-0.37,-0.18,-2.38,-2.69,407,245,183,455,359,26
1170,0.82,-0.41,-0.37,0.79,-3.48,-3.17,406,244,184,447,366,26
1171,0.82,-0.41,-0.38,0.31,-3.17,-3.23,407,243,185,451,361,26
1172,0.83,-0.4,-0.38,-0.49,-2.99,-3.78,405,243,179,453,362,26
1173,0.84,-0.39,-0.38,0.49,-2.69,-2.08,409,240,185,455,369,26
1174,0.84,-0.39,-0.38,0.55,-2.62,-1.34,405,242,183,446,361,26
1175,0.83,-0.4,-0.38,1.89,-2.5,-2.14,406,243,182,451,362,26
1176,0.83,-0.41,-0.37,0.18,-2.93,-2.5,405,246,184,452,359,26
1177,0.82,-0.41,-0.37,0.43,-2.75,-1.34,406,245,190,450,363,26
1178,0.82,-0.41,-0.37,0.12,-2.69,-2.14,407,241,183,449,362,26
1179,0.82,-0.41,-0.38,0.49,-3.36,-3.97,406,244,185,456,365,26
1180,0.83,-0.4,-0.37,-0.55,-3.23,-2.62,405,246,187,450,364,26
1181,0.84,-0.39,-0.39,0.79,-2.87,-2.26,404,243,181,451,364,26
1182,0.84,-0.39,-0.37,-0.67,-2.56,-1.65,406,245,184,455,363,26
1183,0.83,-0.4,-0.37,0.67,-2.87,-1.71,404,243,188,446,361,26
1184,0.83,-0.41,-0.37,0.55,-2.93,-2.5,408,240,187,456,360,26
1185,0.84,-0.4,-0.37,0.43,-2.81,-2.56,402,246,185,451,363,26
1186,0.83,-0.41,-0.37,1.46,-3.6,-3.48,405,244,197,449,359,26
1187,0.83,-0.41,-0.38,-0.49,-3.42,-4.15,403,246,185,451,363,26
1188,0.82,-0.4,-0.38,-0.18,-2.99,-2.32,405,246,183,446,362,26
1189,0.83,-0.4,-0.39,0.49,-2.56,-0.79,407,246,189,455,364,26
1190,0.83,-0.4,-0.37,1.46,-2.26,-2.81,406,243,188,452,362,26
1191,0.83,-0.4,-0.37,0.85,-2.93,-2.5,400,243,186,450,363,26
1192,0.84,-0.41,-0.37,-0.37,-2.56,-3.48,426,245,184,452,373,26
1193,0.84,-0.41,-0.37,0.98,-3.11,-2.93,407,241,186,456,362,26
1194,0.83,-0.4,-0.37,0.12,-3.48,-4.21,405,244,190,453,365,26
1195,0.83,-0.39,-0.37,0.43,-3.6,-3.72,407,247,181,455,363,26
1196,0.84,-0.39,-0.38,-0.12,-3.72,-3.91,406,244,188,453,361,26
1197,0.83,-0.39,-0.37,0.79,-2.32,-1.59,408,242,187,452,363,26
1198,0.83,-0.4,-0.37,0.67,-2.38,-1.83,405,244,186,452,363,26
1199,0.83,-0.41,-0.37,0.85,-2.44,-2.01,406,246,186,452,363,26
1200,0.83,-0.41,-0.38,0.24,-2.75,-1.89,411,245,187,451,375,26
1201,0.82,-0.42,-0.37,0.24,-2.81,-2.62,405,252,186,454,363,26
1202,0.83,-0.4,-0.39,-0.98,-4.03,-4.03,406,244,185,450,363,26
1203,0.83,-0.4,-0.37,1.53,-4.46,-4.76,408,246,187,456,361,26
1204,0.83,-0.4,-0.37,0.79,-2.93,1.46,406,244,184,453,363,26
1205,0.84,-0.39,-0.39,2.62,-1.89,-1.71,405,244,185,446,365,26
1206,0.84,-0.39,-0.38,0.49,-3.17,-2.08,405,244,187,456,362,26
1207,0.82,-0.41,-0.37,1.46,-3.78,-2.44,406,246,186,453,365,26
1208,0.82,-0.4,-0.38,0.0,-3.72,-4.03,405,246,187,448,366,26
1209,0.81,-0.43,-0.4,0.18,-2.75,0.0,408,243,187,446,364,26
1210,0.82,-0.42,-0.38,0.61,-2.44,-2.14,407,244,187,457,363,26
1211,0.83,-0.42,-0.37,0.24,-2.5,-1.46,400,241,182,448,360,26
1212,0.83,-0.4,-0.38,0.31,-2.56,-2.44,403,244,188,453,367,26
1213,0.83,-0.41,-0.37,-0.24,-2.56,-2.56,407,246,186,450,363,26
1214,0.83,-0.41,-0.37,0.06,-2.38,-1.59,405,242,187,448,361,26
1215,0.82,-0.42,-0.38,0.67,-3.11,-3.05,404,245,186,453,361,26
1216,0.82,-0.41,-0.38,-0.24,-3.17,-3.6,404,247,188,463,366,26
1217,0.82,-0.4,-0.38,-0.85,-2.5,-3.11,405,244,194,455,365,26
1218,0.83,-0.39,-0.39,0.79,-2.99,-1.95,407,244,188,451,362,26
1219,0.83,-0.41,-0.37,2.01,-2.56,0.31,412,247,191,451,375,26
1220,0.81,-0.42,-0.37,-2.99,-2.69,-2.93,405,243,185,449,364,26
1221,0.81,-0.42,-0.37,1.46,-3.85,-2.5,414,242,188,453,362,26
1222,0.83,-0.41,-0.37,1.59,-2.56,-3.66,393,245,187,456,362,26
1223,0.83,-0.41,-0.38,-0.06,-2.87,-2.01,403,246,187,457,364,26
1224,0.83,-0.41,-0.37,-0.18,-4.15,-2.99,407,252,188,452,364,26
1225,0.86,-0.37,-0.41,-3.48,-3.91,-3.42,412,248,188,452,363,26
1226,0.82,-0.4,-0.38,-1.22,-2.44,-0.49,405,244,188,454,366,26
1227,0.81,-0.43,-0.37,2.99,-3.42,-4.09,405,245,187,452,362,26
1228,0.82,-0.41,-0.38,2.38,-1.89,-0.37,402,247,189,449,364,26
1229,0.82,-0.42,-0.38,0.98,-2.44,-0.92,405,244,186,453,363,26
1230,0.81,-0.42,-0.38,-0.12,-2.69,-1.77,405,248,188,457,366,26
1231,0.82,-0.42,-0.38,-0.24,-2.75,-2.08,408,245,188,457,360,26
1232,0.82,-0.42,-0.37,0.92,-3.17,-2.44,405,244,187,457,363,26
1233,0.82,-0.42,-0.39,0.92,-3.3,-2.26,403,245,189,451,363,26
1234,0.81,-0.41,-0.37,1.22,-3.05,-2.26,405,244,185,453,361,26
1235,0.83,-0.41,-0.38,0.49,-3.3,-3.66,405,245,190,448,361,26
1236,0.83,-0.41,-0.38,0.18,-2.99,-2.62,410,247,192,454,363,26
1237,0.82,-0.41,-0.38,1.16,-2.81,-2.32,403,245,189,448,366,26
1238,0.82,-0.42,-0.38,0.92,-2.75,-2.87,407,245,183,452,359,26
1239,0.83,-0.42,-0.39,-0.06,-1.71,0.55,406,246,186,456,364,26
1240,0.82,-0.42,-0.37,-2.01,-1.71,-1.46,408,246,189,455,363,26
1241,0.83,-0.42,-0.37,1.1,-3.36,-2.81,408,245,185,452,364,26
1242,0.82,-0.42,-0.38,3.78,-3.3,-3.17,405,246,187,454,364,26
1243,0.85,-0.4,-0.35,-0.49,-1.77,-2.87,408,247,190,453,364,26
1244,0.84,-0.4,-0.37,0.98,-2.38,-1.53,407,246,189,448,361,26
1245,0.83,-0.41,-0.36,1.59,-2.75,-2.38,405,242,188,450,364,26
1246,0.83,-0.42,-0.38,0.06,-3.3,-4.33,405,245,184,451,363,26
1247,0.82,-0.41,-0.37,-0.92,-3.05,-3.97,407,245,184,453,360,26
1248,0.83,-0.4,-0.38,-0.06,-2.93,-2.32,421,245,186,453,361,26
1249,0.83,-0.4,-0.39,0.98,-2.56,-1.34,404,246,187,456,365,26
1250,0.82,-0.41,-0.39,2.38,-2.56,-1.34,407,246,186,456,362,26
1251,0.83,-0.41,-0.38,-0.31,-2.5,-1.28,406,245,189,450,362,26
1252,0.82,-0.41,-0.37,0.79,-3.23,-2.2,406,245,185,457,360,26
1253,0.83,-0.41,-0.37,0.0,-2.38,-1.89,405,245,185,454,364,26
1254,0.83,-0.41,-0.37,0.49,-2.99,-2.26,405,246,186,452,371,26
1255,0.82,-0.42,-0.37,0.12,-3.66,-3.36,404,246,187,452,363,26
1256,0.83,-0.4,-0.37,1.59,-3.91,-3.54,405,246,190,453,363,26
1257,0.84,-0.4,-0.37,-0.79,-1.71,0.49,405,256,189,457,365,26
1258,0.82,-0.42,-0.36,0.31,-2.14,-1.77,404,249,188,453,363,26
1259,0.84,-0.41,-0.37,-1.22,-3.36,-2.38,400,245,189,451,363,26
1260,0.84,-0.41,-0.37,0.79,-4.46,-5.25,401,250,190,445,360,26
1261,0.87,-0.37,-0.39,-1.1,-4.27,-4.94,401,248,188,456,363,26
1262,0.84,-0.39,-0.37,-4.82,-2.26,-7.87,398,245,185,450,366,26
1263,0.84,-0.39,-0.38,0.31,-4.03,-5.07,407,249,189,447,364,26
1264,0.85,-0.37,-0.38,0.49,-2.56,-4.52,401,249,188,456,363,26
1265,0.85,-0.37,-0.38,1.53,-3.85,-3.3,397,250,188,452,363,26
1266,0.84,-0.37,-0.37,2.26,-3.6,-3.05,397,247,189,452,362,26
1267,0.84,-0.39,-0.37,-0.85,-1.4,-1.53,396,248,193,451,363,26
1268,0.84,-0.39,-0.38,0.61,-2.2,-0.61,396,249,189,452,366,26
1269,0.84,-0.39,-0.38,0.61,-2.5,-2.32,397,249,189,448,363,26
1270,0.83,-0.4,-0.37,0.92,-2.56,-0.85,397,248,190,447,363,26
1271,0.85,-0.38,-0.36,0.18,-3.05,-3.78,398,249,189,451,363,26
1272,0.86,-0.36,-0.38,1.28,-2.75,-1.16,399,248,187,456,362,26
1273,0.83,-0.39,-0.36,0.18,-3.6,0.18,398,248,184,462,363,26
1274,0.81,-0.41,-0.38,1.46,-2.44,-0.55,397,246,187,457,366,26
1275,0.83,-0.4,-0.37,0.0,-2.32,-1.95,399,256,190,454,363,26
1276,0.83,-0.4,-0.37,0.12,-2.38,-1.95,393,243,188,457,364,26
1277,0.84,-0.39,-0.38,0.37,-4.03,-4.33,397,246,189,453,365,26
1278,0.83,-0.38,-0.38,0.73,-4.21,-1.83,396,247,190,453,365,26
1279,0.86,-0.37,-0.38,2.81,-1.89,0.12,395,252,187,449,367,26
1280,0.84,-0.4,-0.37,0.61,-2.87,-3.17,400,247,184,452,362,26
1281,0.84,-0.4,-0.37,-0.37,-2.5,-2.26,398,246,188,454,361,26
1282,0.84,-0.4,-0.37,0.73,-2.81,-3.05,398,248,187,450,367,26
1283,0.83,-0.4,-0.37,0.0,-4.03,-2.99,399,248,190,448,364,26
1284,0.86,-0.39,-0.38,-3.05,-1.77,-6.71,400,252,187,452,363,26
1285,0.84,-0.39,-0.37,1.71,-4.15,-2.38,397,251,196,453,363,26
1286,0.83,-0.41,-0.36,0.24,-2.38,-2.99,401,246,187,448,363,26
1287,0.83,-0.4,-0.37,-1.1,-3.97,-0.31,396,251,191,454,363,26
1288,0.83,-0.42,-0.37,1.95,-3.17,-2.81,400,248,192,457,365,26
1289,0.81,-0.44,-0.37,2.81,-4.21,0.98,399,249,192,451,362,26
1290,0.8,-0.46,-0.37,0.73,-2.93,-2.81,401,249,186,455,366,26
1291,0.8,-0.45,-0.38,0.0,-2.62,-2.44,399,246,191,455,364,26
1292,0.82,-0.45,-0.37,0.79,-2.62,-2.87,395,250,189,454,362,26
1293,0.8,-0.45,-0.37,0.49,-3.11,-1.28,399,250,191,452,367,26
1294,0.8,-0.46,-0.37,0.49,-2.99,-2.01,401,245,192,457,363,26
1295,0.8,-0.45,-0.37,-0.18,-3.36,-3.6,399,246,187,456,364,26
1296,0.8,-0.45,-0.37,-0.61,-3.6,-4.33,400,250,192,452,364,26
1297,0.81,-0.43,-0.38,1.1,-1.71,-1.53,398,251,192,455,364,26
1298,0.82,-0.45,-0.36,-0.61,-2.14,-2.56,399,248,186,453,369,26
1299,0.82,-0.44,-0.36,-0.31,-2.87,-2.5,395,258,188,452,363,26
1300,0.82,-0.44,-0.37,0.73,-3.3,-2.81,396,247,191,453,364,26
1301,0.8,-0.45,-0.37,2.01,-3.11,-1.65,397,246,192,449,366,26
1302,0.82,-0.44,-0.38,-0.55,-2.01,-3.48,397,247,195,454,365,26
1303,0.8,-0.45,-0.35,4.82,-2.99,-6.65,397,251,187,448,365,26
1304,0.8,-0.46,-0.36,-0.67,-2.99,-2.38,397,249,192,447,366,26
1305,0.84,-0.42,-0.35,-0.55,-2.14,0.18,397,248,188,451,363,26
1306,0.83,-0.41,-0.39,-6.16,-6.1,-4.82,400,248,191,452,365,26
1307,0.79,-0.42,-0.38,0.12,-3.97,-6.47,396,246,191,456,361,26
1308,0.85,-0.4,-0.36,2.69,0.85,-0.37,398,250,188,456,364,26
1309,0.81,-0.43,-0.39,0.0,-1.53,1.53,398,251,187,457,363,26
1310,0.83,-0.41,-0.34,2.32,0.98,-1.59,398,250,190,456,364,26
1311,0.82,-0.43,-0.35,4.33,-3.72,-2.14,398,246,190,456,364,26
1312,0.82,-0.44,-0.35,-1.28,-2.01,-1.77,397,252,190,456,366,26
1313,0.83,-0.44,-0.33,2.5,-2.44,-0.31,397,246,188,455,365,26
1314,0.81,-0.44,-0.37,2.08,-4.46,-5.13,398,253,192,456,364,26
1315,0.79,-0.47,-0.35,1.65,-0.55,0.73,399,252,189,455,364,26
1316,0.85,-0.42,-0.36,0.31,-6.29,-5.49,394,250,189,452,364,26
1317,0.81,-0.44,-0.37,-2.5,-5.43,-4.64,399,246,187,449,365,26
1318,0.82,-0.44,-0.35,3.17,-3.66,-2.93,400,249,189,452,365,26
1319,0.8,-0.46,-0.35,-1.1,-3.17,-1.22,397,245,191,456,362,26
1320,0.85,-0.42,-0.35,4.64,0.55,-1.28,397,250,192,453,365,26
1321,0.81,-0.44,-0.29,0.0,-3.3,-3.78,400,246,189,452,364,26
1322,0.82,-0.45,-0.37,0.24,-3.85,-3.11,399,251,192,456,360,26
1323,0.82,-0.45,-0.33,-0.98,-3.66,-2.81,396,250,187,452,364,26
1324,0.82,-0.44,-0.34,0.55,-2.38,-2.32,388,249,191,455,365,26
1325,0.82,-0.46,-0.34,0.24,-2.01,-1.83,397,249,187,453,365,26
1326,0.81,-0.46,-0.34,15.44,-2.5,-2.38,396,251,193,452,365,26
1327,0.81,-0.47,-0.34,0.92,-2.62,-2.44,395,248,190,456,361,26
1328,0.82,-0.47,-0.34,0.67,-2.87,-1.83,397,247,192,449,365,26
1329,0.8,-0.46,-0.33,0.55,-2.2,-2.14,395,252,189,451,365,26
1330,0.83,-0.45,-0.33,0.98,-3.85,-3.54,396,252,190,454,366,26
1331,0.82,-0.44,-0.34,-0.61,-2.69,-3.97,396,249,189,446,364,26
1332,0.82,-0.45,-0.33,2.01,-2.75,-0.61,398,249,193,447,364,26
1333,0.81,-0.46,-0.34,0.31,-3.36,-4.15,396,249,191,455,363,26
1334,0.81,-0.46,-0.34,1.34,-2.26,-1.59,397,247,190,451,363,26
1335,0.8,-0.47,-0.33,-0.55,-2.62,-2.5,398,252,194,450,366,26
1336,0.82,-0.47,-0.32,-0.79,-2.93,-1.65,398,249,190,454,361,26
1337,0.81,-0.47,-0.34,-0.06,-2.93,-2.75,398,253,189,453,364,26
1338,0.81,-0.46,-0.33,0.67,-3.6,-4.58,397,251,192,451,365,26
1339,0.82,-0.46,-0.34,-0.49,-3.6,-4.33,410,251,193,454,365,26
1340,0.82,-0.45,-0.34,-0.18,-2.81,-3.11,392,250,187,448,365,26
1341,0.82,-0.45,-0.34,0.31,-2.5,-1.46,396,249,184,453,366,26
1342,0.83,-0.46,-0.34,1.53,-2.56,-1.89,393,250,190,451,367,26
1343,0.82,-0.46,-0.34,0.06,-2.32,-3.36,394,248,190,447,366,26
1344,0.82,-0.46,-0.33,-0.43,-4.58,-5.0,398,265,193,456,364,26
1345,0.82,-0.44,-0.36,-0.37,-3.72,-5.55,397,251,192,446,365,26
1346,0.82,-0.44,-0.35,1.83,-3.6,-6.23,397,250,194,453,364,26
1347,0.82,-0.44,-0.34,-0.12,-3.97,-4.09,398,248,189,453,366,26
1348,0.82,-0.45,-0.35,0.18,-2.38,-1.59,399,249,193,451,365,26
1349,0.83,-0.44,-0.34,1.46,-2.99,-1.16,399,250,190,455,364,26
1350,0.82,-0.44,-0.37,1.1,-4.21,-4.88,397,250,193,450,365,26
1351,0.83,-0.43,-0.36,1.04,-2.62,-2.2,396,251,187,452,361,26
1352,0.81,-0.46,-0.34,0.37,-2.56,-1.89,396,249,192,452,366,26
1353,0.81,-0.45,-0.35,0.98,-2.32,-1.04,399,249,189,453,367,26
1354,0.82,-0.45,-0.35,-0.61,-2.81,-2.38,395,249,190,451,373,26
1355,0.83,-0.45,-0.35,-0.12,-2.93,-2.14,397,251,191,451,367,26
1356,0.82,-0.45,-0.35,0.73,-2.62,-2.75,397,251,196,455,365,26
1357,0.82,-0.45,-0.34,0.0,-2.69,-2.44,397,252,191,453,367,26
1358,0.81,-0.46,-0.33,0.85,-4.03,-2.44,400,248,194,456,372,26
1359,0.82,-0.44,-0.36,-0.61,-3.17,-4.03,397,252,190,452,364,26
1360,0.83,-0.44,-0.35,0.85,-2.44,-0.73,397,252,189,447,365,26
1361,0.83,-0.43,-0.35,0.0,-2.38,-1.16,398,255,193,457,364,26
1362,0.82,-0.45,-0.35,1.16,-2.26,-1.53,398,250,193,450,364,26
1363,0.82,-0.45,-0.34,0.18,-2.62,-2.26,397,263,190,451,365,26
1364,0.82,-0.45,-0.34,0.24,-2.75,-2.87,397,251,193,455,361,26
1365,0.82,-0.46,-0.33,1.22,-2.69,-4.46,399,251,193,455,363,26
1366,0.83,-0.44,-0.37,2.26,-4.15,-1.83,398,255,196,452,364,26
1367,0.81,-0.46,-0.35,0.73,-2.75,-2.69,403,252,193,456,365,26
1368,0.82,-0.46,-0.3,-1.46,-3.91,-2.87,397,252,193,450,366,26
1369,0.82,-0.45,-0.36,-1.04,-3.66,-2.69,397,250,190,454,365,26
1370,0.82,-0.44,-0.35,0.12,-2.44,-2.2,397,248,192,455,362,26
1371,0.82,-0.44,-0.35,-0.24,-2.5,-2.5,397,251,190,453,365,26
1372,0.82,-0.44,-0.35,0.43,-3.48,-3.3,394,249,190,446,365,26
1373,0.8,-0.46,-0.33,1.53,-1.83,0.85,394,253,193,456,367,26
1374,0.81,-0.46,-0.34,0.12,-2.81,-2.08,438,252,193,447,364,26
1375,0.82,-0.46,-0.34,0.85,-3.17,-4.27,396,249,187,455,365,26
1376,0.84,-0.44,-0.35,-0.24,-2.87,-4.15,396,252,191,448,363,26
1377,0.81,-0.46,-0.35,-0.24,-2.75,-3.17,392,252,193,448,364,26
1378,0.82,-0.46,-0.33,0.49,-2.69,-2.01,403,251,192,455,365,26
1379,0.83,-0.45,-0.35,-0.49,-3.23,-5.68,398,250,190,453,363,26
1380,0.84,-0.44,-0.34,-0.98,-3.05,-2.93,406,250,193,452,364,26
1381,0.84,-0.45,-0.34,0.43,-2.2,0.67,398,253,193,453,366,26
1382,0.82,-0.46,-0.33,-0.24,-2.26,-2.56,395,253,194,456,368,26
1383,0.82,-0.46,-0.33,2.75,-2.32,-2.44,402,248,189,455,365,26
1384,0.83,-0.46,-0.33,-0.79,-3.3,-3.97,397,251,190,453,364,26
1385,0.83,-0.45,-0.34,0.43,-2.87,-3.42,391,251,192,456,363,26
1386,0.84,-0.44,-0.32,0.12,-3.72,-2.87,391,247,190,455,364,26
1387,0.83,-0.44,-0.35,0.43,-3.72,0.18,396,251,191,452,365,26
1388,0.83,-0.44,-0.34,-1.16,-2.32,-0.49,396,249,190,456,360,26
1389,0.82,-0.45,-0.34,-0.79,-2.08,-1.34,397,250,189,448,366,26
1390,0.82,-0.45,-0.34,-0.92,-2.93,-1.04,404,250,190,455,362,26
1391,0.83,-0.45,-0.33,-0.18,-2.81,-1.22,399,253,192,449,366,26
1392,0.83,-0.45,-0.34,-1.1,-3.11,-3.36,400,253,191,453,364,26
1393,0.82,-0.45,-0.34,0.12,-3.54,-3.54,396,250,193,456,364,26
1394,0.82,-0.45,-0.35,1.22,-3.54,-3.17,397,253,193,451,366,26
1395,0.83,-0.44,-0.33,-0.24,-2.01,-1.1,398,251,194,448,365,26
1396,0.81,-0.46,-0.34,2.2,-2.38,-1.4,398,252,190,456,368,26
1397,0.83,-0.45,-0.33,0.92,-2.2,-2.69,397,250,189,456,365,26
1398,0.83,-0.45,-0.34,0.55,-2.75,-2.2,399,252,194,453,365,26
1399,0.78,-0.48,-0.34,1.04,-3.66,-6.1,399,255,193,452,364,26
1400,0.78,-0.48,-0.33,1.95,-2.87,-2.81,399,253,194,454,365,26
1401,0.81,-0.46,-0.36,1.89,-2.2,-1.46,401,252,195,452,364,26
1402,0.82,-0.46,-0.33,0.73,-1.95,-2.32,397,251,192,452,366,26
1403,0.81,-0.46,-0.35,-1.1,-4.46,-1.34,397,248,193,453,361,26
1404,0.81,-0.46,-0.36,0.24,-4.09,-4.03,398,258,194,453,365,26
1405,0.82,-0.45,-0.36,-0.18,-2.62,-2.75,400,252,193,450,365,26
1406,0.82,-0.46,-0.34,0.12,-2.56,-1.34,397,252,196,453,367,26
1407,0.83,-0.45,-0.33,1.22,-2.44,-2.38,396,251,192,451,365,26
1408,0.83,-0.45,-0.35,-1.83,-2.87,-3.3,396,255,192,457,365,26
1409,0.81,-0.47,-0.33,0.18,-2.75,-2.14,405,254,194,457,365,26
1410,0.81,-0.47,-0.33,0.85,-3.3,-2.87,408,252,192,453,365,26
1411,0.8,-0.48,-0.34,2.01,-2.87,-3.97,403,251,191,453,365,26
1412,0.83,-0.45,-0.33,3.3,-1.59,-2.62,398,251,190,452,364,26
1413,0.82,-0.45,-0.31,3.85,-2.2,-3.17,396,251,194,452,366,26
1414,0.84,-0.44,-0.32,-0.24,-2.2,-2.01,398,252,192,453,363,26
1415,0.82,-0.46,-0.32,-0.12,-3.23,-2.5,399,252,192,456,366,26
1416,0.83,-0.46,-0.33,0.0,-3.78,-3.91,397,254,194,452,365,26
1417,0.83,-0.45,-0.34,1.04,-3.05,-3.17,397,252,189,457,365,26
1418,0.82,-0.46,-0.33,0.61,-2.32,-2.08,397,253,193,453,364,26
1419,0.81,-0.47,-0.33,1.22,-3.17,-2.38,395,254,193,456,364,26
1420,0.82,-0.46,-0.33,-0.18,-2.14,-3.11,398,254,191,454,365,26
1421,0.83,-0.47,-0.32,1.46,-2.99,-1.59,400,250,194,456,367,26
1422,0.83,-0.49,-0.32,-0.49,-2.75,-3.72,396,253,192,453,366,26
1423,0.81,-0.47,-0.32,0.37,-3.48,-2.38,397,253,195,449,366,26
1424,0.83,-0.46,-0.32,-0.67,-3.42,-2.99,399,250,192,456,363,26
1425,0.82,-0.46,-0.33,1.77,-2.14,-1.83,396,255,192,457,368,26
1426,0.83,-0.46,-0.32,-0.12,-2.26,-3.85,399,254,195,453,371,26
1427,0.81,-0.48,-0.33,1.59,-3.11,-2.69,397,252,194,453,366,26
1428,0.81,-0.48,-0.31,0.79,-3.42,-3.48,398,250,195,453,361,26
1429,0.82,-0.48,-0.32,-0.31,-3.85,-3.54,397,254,194,454,362,26
1430,0.8,-0.48,-0.32,1.71,-3.05,-1.95,399,251,196,454,366,26
1431,0.84,-0.45,-0.35,-0.85,-2.81,-0.98,395,251,195,454,365,26
1432,0.81,-0.48,-0.32,-3.17,-1.83,-0.92,394,253,195,451,366,26
1433,0.81,-0.47,-0.31,1.83,-2.44,-1.1,396,253,198,457,356,26
1434,0.82,-0.47,-0.32,-0.37,-2.5,-1.89,400,254,189,457,365,26
1435,0.83,-0.46,-0.32,0.18,-2.56,-2.32,397,251,194,456,364,26
1436,0.82,-0.47,-0.31,1.16,-2.81,-2.5,399,249,191,455,365,26
1437,0.82,-0.47,-0.32,-0.12,-3.78,-4.33,397,254,194,447,364,26
1438,0.83,-0.46,-0.31,0.73,-2.75,-1.22,397,252,194,449,363,26
1439,0.82,-0.46,-0.33,1.1,-2.44,-1.53,397,253,189,453,365,26
1440,0.82,-0.47,-0.32,1.28,-1.65,-0.43,398,250,196,455,364,26
1441,0.82,-0.47,-0.32,0.55,-3.05,-2.14,396,252,193,453,366,26
1442,0.82,-0.47,-0.32,-0.43,-4.09,-3.23,398,251,195,456,367,26
1443,0.83,-0.46,-0.33,1.34,-2.75,-2.87,395,254,196,454,362,26
1444,0.81,-0.47,-0.32,-0.31,-2.2,-1.1,397,254,194,453,364,26
1445,0.8,-0.47,-0.32,0.67,-2.32,-2.08,397,252,191,447,363,26
1446,0.83,-0.47,-0.32,1.28,-2.69,-2.08,398,253,192,452,365,26
1447,0.83,-0.47,-0.32,0.73,-2.62,-1.89,396,253,195,454,365,26
1448,0.81,-0.48,-0.32,0.12,-2.5,-0.98,398,250,192,452,365,26
1449,0.82,-0.48,-0.32,0.06,-2.5,-2.26,394,252,193,455,363,26
1450,0.82,-0.48,-0.31,-0.06,-3.48,-2.69,397,254,195,456,364,26
1451,0.83,-0.48,-0.32,-1.22,-3.72,-4.39,396,250,196,456,363,26
1452,0.78,-0.5,-0.31,-1.4,-3.05,0.31,398,251,206,455,364,26
1453,0.81,-0.48,-0.34,-0.43,-2.08,-1.71,399,251,193,449,369,26
1454,0.82,-0.47,-0.32,1.53,-2.38,-1.1,397,252,195,455,362,26
1455,0.81,-0.48,-0.32,1.04,-3.23,-1.71,396,254,192,448,365,26
1456,0.81,-0.48,-0.33,-1.34,-3.66,-2.87,393,253,196,456,364,26
1457,0.83,-0.45,-0.33,1.59,-1.83,0.18,399,254,194,456,366,26
1458,0.82,-0.47,-0.34,-2.14,-2.75,-1.65,396,254,194,451,365,26
1459,0.82,-0.46,-0.34,2.32,-2.44,-1.46,400,253,193,448,363,26
1460,0.81,-0.48,-0.31,0.12,-3.17,-3.36,397,253,196,453,365,26
1461,0.81,-0.48,-0.32,-0.24,-2.81,-2.01,398,255,193,447,365,26
1462,0.82,-0.48,-0.31,0.67,-2.26,-2.38,397,252,192,452,365,26
1463,0.85,-0.45,-0.32,0.43,-2.44,-1.22,399,252,193,453,363,26
1464,0.8,-0.49,-0.33,2.93,-2.01,-0.79,398,255,193,452,362,26
1465,0.76,-0.53,-0.27,-0.12,2.38,-2.56,398,252,195,451,366,26
1466,0.8,-0.51,-0.29,0.37,-3.42,-2.56,399,254,197,452,353,26
1467,0.81,-0.49,-0.31,0.18,-3.42,-3.11,397,254,195,454,365,26
1468,0.81,-0.49,-0.3,1.77,-2.2,-1.71,394,251,195,453,365,26
1469,0.82,-0.49,-0.31,-0.31,-1.65,-1.22,398,254,196,451,364,26
1470,0.81,-0.5,-0.3,-0.98,-2.2,-1.46,394,254,194,452,362,26
1471,0.81,-0.49,-0.3,0.92,-1.77,-1.83,400,252,196,453,365,26
1472,0.81,-0.5,-0.3,-0.12,-1.89,-1.4,399,256,196,453,363,26
1473,0.81,-0.5,-0.29,0.12,-2.93,-2.44,395,255,193,447,363,26
1474,0.81,-0.5,-0.29,0.18,-2.62,-1.22,393,255,193,453,372,26
1475,0.82,-0.49,-0.3,1.1,-3.17,-3.11,396,256,196,455,367,26
1476,0.82,-0.49,-0.31,-0.92,-4.46,-3.23,396,254,192,451,363,26
1477,0.82,-0.49,-0.31,0.43,-2.87,-2.26,397,254,190,452,369,26
1478,0.83,-0.49,-0.28,2.99,-2.26,-2.01,389,256,197,452,366,26
1479,0.74,-0.56,-0.27,3.78,-4.82,-1.89,397,261,194,453,370,26
1480,0.8,-0.5,-0.3,-0.18,-1.4,-2.93,394,251,191,449,365,26
1481,0.82,-0.49,-0.29,0.61,-2.32,-2.5,394,254,200,452,367,26
1482,0.85,-0.45,-0.33,-0.61,-5.74,-10.8,400,253,197,449,366,26
1483,0.84,-0.45,-0.31,0.18,-3.23,-2.32,395,256,195,451,368,26
1484,0.83,-0.47,-0.3,0.61,-2.2,-0.79,395,256,195,452,365,26
1485,0.82,-0.48,-0.3,-0.06,-3.17,-1.22,394,254,197,452,366,26
1486,0.82,-0.48,-0.31,1.65,-3.05,-3.23,396,256,192,454,367,26
1487,0.83,-0.47,-0.3,0.73,-2.93,-4.46,394,255,197,456,368,26
1488,0.85,-0.45,-0.27,0.49,-1.71,3.23,396,256,192,453,365,26
1489,0.85,-0.45,-0.31,-1.83,-5.92,-0.06,422,256,194,449,365,26
1490,0.81,-0.49,-0.3,3.05,-3.36,-2.93,397,254,199,459,369,26
1491,0.82,-0.48,-0.3,-0.92,-2.26,-1.1,397,254,195,448,367,26
1492,0.82,-0.48,-0.3,1.65,-4.58,-4.21,398,257,195,453,367,26
1493,0.83,-0.46,-0.29,-1.04,-4.52,-3.54,396,254,197,453,366,26
1494,0.82,-0.48,-0.29,0.61,-2.87,-1.71,395,257,194,447,366,26
1495,0.84,-0.46,-0.28,0.24,-2.75,-1.95,392,256,197,456,367,26
1496,0.83,-0.48,-0.3,-1.22,-2.2,0.0,394,253,198,447,368,26
1497,0.82,-0.47,-0.3,0.18,-2.56,-2.01,397,254,197,457,369,26
1498,0.81,-0.49,-0.27,9.95,-3.23,3.36,394,257,194,453,366,26
1499,0.82,-0.51,-0.28,-0.49,-1.77,-1.95,395,254,192,455,369,26
1500,0.83,-0.49,-0.27,1.46,-3.05,-0.61,398,253,192,453,368,26
1501,0.83,-0.49,-0.28,-1.22,-2.32,-2.01,393,256,197,455,366,26
1502,0.81,-0.5,-0.28,-0.61,-3.23,-2.87,394,256,197,456,368,26
1503,0.82,-0.49,-0.28,1.22,-1.59,-2.62,391,252,196,452,365,26
1504,0.82,-0.5,-0.27,-0.49,-2.93,-3.3,396,256,196,456,369,26
1505,0.82,-0.49,-0.28,-0.31,-2.81,-2.62,396,256,194,453,368,26
1506,0.82,-0.49,-0.27,1.04,-3.11,-4.46,396,254,198,455,367,26
1507,0.81,-0.5,-0.28,-1.4,-3.54,-2.38,396,255,195,455,367,26
1508,0.82,-0.48,-0.29,0.0,-3.3,-3.97,396,253,196,452,365,26
1509,0.83,-0.48,-0.28,0.92,-2.81,-2.87,397,253,197,455,368,26
1510,0.82,-0.48,-0.29,0.24,-1.53,-1.71,396,258,191,455,368,26
1511,0.82,-0.48,-0.27,1.77,-3.05,-2.08,394,252,198,464,369,26
1512,0.84,-0.47,-0.3,0.24,-3.3,-3.3,395,256,197,457,368,26
1513,0.8,-0.49,-0.27,0.79,-1.46,0.61,397,253,194,453,369,26
1514,0.83,-0.48,-0.28,-0.12,-2.2,-0.43,395,257,197,456,368,26
1515,0.83,-0.48,-0.29,1.16,-2.26,-2.26,400,254,197,453,371,26
1516,0.83,-0.48,-0.28,-0.98,-2.5,-2.08,392,254,196,448,366,26
1517,0.83,-0.48,-0.27,1.04,-2.5,-2.2,392,258,196,452,370,26
1518,0.83,-0.49,-0.28,0.79,-2.69,-2.44,392,257,199,453,370,26
1519,0.82,-0.49,-0.28,0.06,-2.99,-2.2,408,257,197,457,368,26
1520,0.82,-0.48,-0.28,0.98,-3.17,-2.62,392,255,199,456,369,26
1521,0.82,-0.49,-0.29,-0.18,-2.75,-2.75,393,256,199,452,371,26
1522,0.83,-0.48,-0.27,-0.24,-3.78,-3.66,393,255,196,453,372,26
1523,0.84,-0.46,-0.29,1.28,-2.62,-2.75,393,254,196,453,367,26
1524,0.83,-0.48,-0.29,-0.43,-2.26,-2.44,395,256,195,452,372,26
1525,0.83,-0.49,-0.27,0.37,-2.32,-1.95,395,257,195,456,374,26
1526,0.82,-0.49,-0.27,-1.22,-2.99,-1.83,395,258,195,451,370,26
1527,0.82,-0.5,-0.27,1.53,-2.99,-2.01,392,256,196,452,373,26
1528,0.82,-0.49,-0.28,0.06,-4.39,-4.03,395,254,204,451,368,26
1529,0.83,-0.48,-0.28,-0.79,-2.08,-1.53,392,258,192,451,371,26
1530,0.81,-0.48,-0.28,1.71,-2.99,-1.4,394,256,196,454,371,26
1531,0.81,-0.5,-0.28,1.89,-2.56,-2.01,391,258,201,454,367,26
1532,0.83,-0.49,-0.28,0.43,-2.62,-3.91,393,255,199,452,373,26
1533,0.82,-0.48,-0.28,-0.37,-2.81,-2.93,428,257,202,456,371,26
1534,0.82,-0.49,-0.28,0.85,-2.56,-1.65,397,255,197,452,370,26
1535,0.83,-0.48,-0.27,0.85,-2.99,-2.14,396,258,197,455,369,26
1536,0.83,-0.48,-0.28,0.18,-3.23,-2.5,395,259,207,453,371,26
1537,0.83,-0.49,-0.27,-0.49,-3.23,-2.44,392,259,194,453,367,26
1538,0.83,-0.48,-0.28,0.12,-3.05,-3.78,393,258,195,448,370,26
1539,0.83,-0.47,-0.29,0.67,-2.38,-2.32,393,256,198,449,370,26
1540,0.83,-0.48,-0.28,1.95,-2.5,-5.31,395,254,195,447,370,26
1541,0.78,-0.51,-0.31,-4.27,-4.46,0.37,393,258,194,452,367,26
1542,0.79,-0.51,-0.28,-2.2,-2.62,-15.08,391,255,199,456,371,26
1543,0.82,-0.5,-0.3,0.12,-3.91,-0.67,393,256,202,456,371,26
1544,0.81,-0.49,-0.3,-0.61,-3.36,-3.11,393,258,195,452,370,26
1545,0.84,-0.48,-0.31,0.55,-2.14,-2.38,392,259,199,452,371,26
1546,0.84,-0.47,-0.32,-1.04,-3.11,-2.2,393,259,200,453,368,26
1547,0.2,-0.51,0.17,-44.56,-37.11,-147.83,454,282,236,454,319,26
1548,0.8,-0.57,0.38,3.23,12.02,3.36,454,284,237,461,320,26
1549,0.75,-0.55,0.31,0.73,-27.16,-3.6,453,283,237,457,322,26
1550,0.79,-0.51,0.19,-7.69,6.29,9.22,453,288,235,457,321,26
1551,0.83,-0.57,0.24,-2.87,-4.33,-0.24,451,283,237,460,324,26
1552,0.77,-0.58,0.27,5.43,-5.07,-5.07,453,285,240,458,321,26
1553,0.8,-0.57,0.25,-1.1,-4.7,-7.14,451,285,237,453,323,26
1554,0.82,-0.55,0.26,-3.66,-3.05,-7.63,452,287,239,460,325,26
1555,0.81,-0.55,0.26,3.11,-3.85,-4.21,465,287,238,456,325,26
1556,0.81,-0.54,0.26,-1.77,-3.72,-4.39,452,286,236,456,324,26
1557,0.8,-0.54,0.25,4.46,-2.75,-1.83,451,290,240,459,323,26
1558,0.79,-0.53,0.3,-2.93,0.12,-4.39,455,281,239,465,322,26
1559,0.8,-0.53,0.31,1.04,-1.22,-3.48,451,284,239,461,311,26
1560,0.83,-0.5,0.28,-8.12,-6.35,-13.73,451,281,240,456,313,26
1561,0.82,-0.55,0.38,-11.47,8.54,15.26,451,309,247,464,330,26
1562,0.81,-0.56,0.22,1.16,-25.88,9.22,435,333,236,463,353,26
1563,0.83,-0.54,0.07,17.09,-15.08,-2.69,438,363,229,462,374,26
1564,0.99,-0.46,-0.11,-48.28,-14.47,-21.36,449,322,230,459,314,26
1565,0.92,-0.42,0.05,13.85,-15.5,5.31,421,291,225,453,324,26
1566,0.7,-0.45,0.12,73.06,25.02,31.8,459,281,220,449,306,26
1567,0.9,-0.45,0.3,9.77,8.48,-3.72,443,293,223,454,311,26
1568,0.9,-0.47,0.38,-12.15,2.56,-13.37,443,292,224,457,314,26
1569,0.85,-0.45,0.23,-17.88,-3.11,-7.39,444,291,229,459,310,26
1570,0.83,-0.43,0.27,3.17,-2.32,-3.3,446,289,226,461,320,26
1571,0.89,-0.44,0.23,-2.26,-6.41,-4.58,447,287,228,461,314,26
1572,0.88,-0.43,0.24,0.67,-3.11,-0.92,447,294,226,462,315,26
1573,0.89,-0.43,0.25,-6.23,-2.01,-1.83,448,289,233,456,317,26
1574,0.86,-0.44,0.23,2.87,-1.83,0.37,446,306,234,462,318,26
1575,1.07,-0.37,0.14,-20.26,19.23,8.73,446,291,228,462,316,26
1576,0.76,-0.55,0.26,2.26,-0.49,-10.44,449,291,230,456,317,26
1577,0.78,-0.6,0.25,-1.16,-7.51,15.75,448,297,231,463,315,26
1578,0.76,-0.59,0.29,-0.37,-2.56,-5.13,448,292,233,462,311,26
1579,0.79,-0.6,0.25,2.44,-6.59,-2.14,445,294,236,462,316,26
1580,0.76,-0.59,0.25,3.11,-4.94,-2.26,451,295,234,460,318,26
1581,0.77,-0.58,0.26,2.93,-2.56,0.49,446,296,239,459,318,26
1582,0.78,-0.59,0.24,4.7,-3.48,-2.26,448,294,236,459,314,26
1583,0.78,-0.58,0.25,0.24,-1.46,-2.93,446,291,234,459,314,26
1584,0.78,-0.59,0.25,-2.01,-3.78,-2.87,445,293,238,463,314,26
1585,0.78,-0.59,0.25,1.1,-3.11,-1.89,447,296,235,460,317,26
1586,0.78,-0.59,0.23,1.71,-2.87,-1.77,447,309,237,460,320,26
1587,0.78,-0.58,0.25,0.67,-2.38,-1.1,446,294,239,458,314,26
1588,0.68,-0.6,0.28,-7.87,-2.08,-1.22,449,292,233,459,316,26
1589,0.75,-0.63,0.24,-0.43,-5.43,1.89,451,295,241,458,317,26
1590,0.73,-0.62,0.24,1.34,-3.3,-3.78,446,295,237,454,319,26
1591,0.78,-0.62,0.22,3.3,-3.85,-2.5,445,298,240,461,316,26
1592,0.75,-0.62,0.23,1.71,-4.46,-2.14,445,298,238,458,315,26
1593,0.76,-0.62,0.23,-2.01,-0.37,-3.78,445,302,239,460,318,26
1594,0.78,-0.6,0.25,-0.55,-2.08,-3.72,446,300,236,455,318,26
1595,0.78,-0.6,0.23,1.65,-3.42,-2.62,444,297,240,459,318,26
1596,0.77,-0.59,0.23,3.17,-4.39,-1.1,445,295,240,457,317,26
1597,0.76,-0.6,0.23,0.73,-3.66,-2.56,446,301,243,460,316,26
1598,0.76,-0.6,0.22,2.14,-2.5,-0.98,444,296,241,459,314,26
1599,0.76,-0.6,0.23,0.49,-2.62,0.12,444,296,243,453,314,26
1600,0.78,-0.6,0.24,4.76,0.37,-2.08,444,302,239,469,316,26
1601,0.74,-0.58,0.28,-4.58,17.88,0.43,451,297,239,460,318,26
1602,0.72,-0.64,0.23,0.43,3.54,6.41,444,302,240,457,315,26
1603,0.7,-0.65,0.29,-3.6,-4.94,-1.59,446,298,241,459,318,26
1604,0.66,-0.65,0.29,-6.65,-2.87,-7.45,443,299,241,460,320,26
1605,0.78,-0.63,0.31,-3.97,-1.71,-3.48,446,297,242,459,317,26
1606,0.74,-0.63,0.24,1.77,-8.67,-1.46,444,303,244,464,321,26
1607,0.75,-0.63,0.26,0.43,-1.53,-3.3,445,301,243,458,316,26
1608,0.73,-0.62,0.27,-0.06,-1.22,-2.93,447,301,242,457,318,26
1609,0.74,-0.61,0.28,0.98,-2.44,-1.16,441,302,241,458,319,26
1610,0.7,-0.63,0.24,1.16,-0.92,-2.08,448,301,241,462,320,26
1611,0.71,-0.63,0.26,-1.16,-0.67,-2.32,444,302,240,458,319,26
1612,0.72,-0.67,0.24,0.0,-3.91,-5.25,446,299,242,455,319,26
1613,0.74,-0.62,0.23,1.34,-3.6,-2.38,440,301,244,459,323,26
1614,0.73,-0.63,0.24,0.55,-4.27,-1.59,445,300,246,453,315,26
1615,0.73,-0.65,0.23,3.91,-3.42,-2.75,443,301,243,460,316,26
1616,0.74,-0.64,0.23,-0.31,-2.32,-3.48,442,304,240,463,320,26
1617,0.73,-0.64,0.22,0.18,-1.65,-2.38,444,301,245,457,320,26
1618,0.73,-0.64,0.23,6.35,-3.05,2.14,443,302,246,461,317,26
1619,0.73,-0.65,0.24,-2.14,-2.56,-3.54,442,304,246,459,318,26
1620,0.73,-0.66,0.21,2.2,-4.39,-2.62,441,302,244,472,317,26
1621,0.74,-0.65,0.22,0.79,-2.2,-4.09,442,305,245,453,317,26
1622,0.72,-0.64,0.24,0.37,-3.54,-6.35,443,306,246,453,317,26
1623,0.74,-0.63,0.23,-5.13,-1.46,-5.37,440,304,249,460,317,26
1624,0.74,-0.65,0.22,-1.46,-0.73,-4.58,450,305,241,456,321,26
1625,0.76,-0.63,0.23,-1.16,-2.62,-3.66,444,306,246,457,328,26
1626,0.75,-0.63,0.24,0.37,-3.66,-2.87,440,306,258,456,317,26
1627,0.76,-0.63,0.25,0.31,-2.2,-3.85,441,306,244,453,322,26
1628,0.76,-0.62,0.25,-0.37,-1.04,-4.46,441,303,247,453,320,26
1629,0.76,-0.6,0.23,1.4,-6.16,-2.14,438,311,245,457,322,26
1630,0.73,-0.62,0.23,-1.22,-1.65,-1.89,439,303,249,460,320,26
1631,0.77,-0.63,0.23,-0.06,-3.17,-4.27,442,306,246,456,320,26
1632,0.76,-0.61,0.22,0.79,-6.23,-4.33,441,305,246,453,321,26
1633,0.82,-0.56,0.25,1.83,3.85,-6.29,449,305,244,457,319,26
1634,0.77,-0.6,0.23,11.47,-5.49,1.77,443,306,247,460,322,26
1635,0.78,-0.58,0.28,-0.43,-0.61,-3.3,443,304,244,456,318,26
1636,0.78,-0.61,0.22,2.01,0.49,-1.53,443,305,248,455,318,26
1637,0.74,-0.6,0.29,0.49,3.23,-3.85,442,303,250,458,320,26
1638,0.81,-0.62,0.23,3.17,-10.19,1.95,441,305,248,459,318,26
1639,0.79,-0.61,0.22,2.75,-3.11,-4.09,439,306,249,453,318,26
1640,0.79,-0.6,0.24,-0.73,0.24,-4.58,466,304,246,455,319,26
1641,0.77,-0.61,0.25,0.85,-2.75,-2.26,441,305,251,452,319,26
1642,0.76,-0.6,0.25,1.77,-2.38,-4.03,438,306,248,461,318,26
1643,0.79,-0.6,0.25,1.77,-4.03,-2.44,440,302,252,459,320,26
1644,0.78,-0.59,0.24,-0.18,-3.6,-2.81,438,304,247,460,320,26
1645,0.78,-0.6,0.24,0.92,-2.69,-3.05,440,304,246,460,320,26
1646,0.77,-0.59,0.25,0.73,-2.08,-2.32,442,304,247,458,320,26
1647,0.7,-0.6,0.25,3.48,-4.33,2.2,437,304,249,453,320,26
1648,0.71,-0.64,0.26,2.2,-8.61,1.34,438,304,247,460,320,26
1649,0.68,-0.67,0.23,3.3,5.8,-0.92,440,307,248,455,320,26
1650,0.75,-0.62,0.25,-0.61,-3.42,-5.62,439,304,247,458,323,26
1651,0.77,-0.6,0.28,-0.31,-5.19,-3.54,438,307,247,459,320,26
1652,0.76,-0.62,0.25,-1.28,-3.42,-2.87,439,307,250,455,318,26
1653,0.76,-0.61,0.24,0.73,-3.91,-2.38,442,306,246,455,321,26
1654,0.75,-0.61,0.24,0.18,-3.11,-3.17,440,309,249,462,321,26
1655,0.76,-0.6,0.25,0.31,-3.11,-2.56,476,303,251,457,320,26
1656,0.74,-0.67,0.21,-1.95,-0.61,-5.19,439,304,251,459,318,26
1657,0.72,-0.59,0.25,0.12,-5.31,2.01,438,317,249,458,318,26
1658,0.76,-0.61,0.24,5.55,-1.89,1.59,437,306,260,454,321,26
1659,0.72,-0.63,0.27,-3.3,1.65,-1.89,438,306,251,455,319,26
1660,0.72,-0.65,0.31,6.53,-11.84,4.94,436,305,249,458,320,26
1661,0.71,-0.68,0.25,-0.55,-2.2,2.14,434,307,252,459,322,26
1662,0.69,-0.68,0.27,3.78,-6.59,-2.01,437,302,250,460,321,26
1663,0.71,-0.66,0.28,1.04,-3.91,-5.8,436,305,249,459,319,26
1664,0.71,-0.67,0.25,0.24,-3.11,-2.87,438,304,248,454,321,26
1665,0.69,-0.66,0.27,-3.97,-2.14,-2.14,438,308,250,455,321,26
1666,0.68,-0.68,0.23,-2.2,3.05,-4.76,434,306,255,462,317,26
1667,0.71,-0.66,0.24,1.83,-1.95,-2.87,436,306,249,460,321,26
1668,0.72,-0.66,0.26,1.65,-2.44,-1.77,440,306,247,456,314,26
1669,0.71,-0.67,0.25,1.65,-3.6,-2.81,433,313,251,463,319,26
1670,0.68,-0.68,0.27,-1.59,-3.72,-4.88,438,305,251,462,320,26
1671,0.69,-0.67,0.28,-1.4,-3.72,-3.05,437,304,252,463,317,26
1672,0.71,-0.68,0.25,-0.67,-2.81,-2.38,434,305,249,465,319,26
1673,0.69,-0.67,0.27,-0.12,-2.56,-2.81,429,308,246,460,317,26
1674,0.7,-0.67,0.26,-1.04,-2.87,-1.65,439,307,252,465,321,26
1675,0.7,-0.66,0.27,-7.14,-0.06,-15.56,437,303,248,460,318,26
1676,0.72,-0.66,0.24,-0.31,-3.91,-2.87,435,306,249,460,315,26
1677,0.71,-0.66,0.24,0.61,-3.42,-2.62,436,307,255,461,318,26
1678,0.72,-0.66,0.26,-1.77,-2.14,-3.54,437,307,250,461,320,26
1679,0.72,-0.66,0.25,1.16,-2.87,-1.77,434,309,251,466,317,26
1680,0.72,-0.66,0.25,2.44,-2.99,-2.26,462,307,250,461,317,26
1681,0.72,-0.66,0.26,0.98,-3.36,-1.95,434,306,251,461,320,26
1682,0.72,-0.66,0.25,1.95,-2.62,-2.62,438,306,252,465,318,26
1683,0.72,-0.66,0.27,-0.06,-2.81,-2.5,436,306,249,465,321,26
1684,0.7,-0.65,0.27,-0.12,-4.39,-2.69,439,307,251,461,318,26
1685,0.72,-0.66,0.25,-0.12,-3.23,-2.44,433,306,255,464,319,26
1686,0.71,-0.66,0.25,2.01,-2.44,-2.14,436,305,251,467,320,26
1687,0.71,-0.66,0.25,0.43,-3.05,-1.65,440,309,250,461,321,26
1688,0.72,-0.66,0.25,0.18,-3.11,-2.5,435,306,251,464,320,26
1689,0.71,-0.67,0.26,-1.04,-3.72,-3.6,436,303,249,466,321,26
1690,0.71,-0.66,0.24,0.67,-2.01,-1.59,433,308,250,460,319,26
1691,0.71,-0.67,0.25,1.1,-2.69,-2.56,435,306,249,466,319,26
1692,0.7,-0.65,0.26,-0.18,-3.23,-2.81,434,307,249,461,317,26
1693,0.72,-0.66,0.25,1.22,-3.6,-2.5,436,306,249,466,319,26
1694,0.72,-0.66,0.25,0.31,-2.62,-2.62,436,307,249,460,320,26
1695,0.72,-0.66,0.28,0.55,-1.34,-3.42,433,307,255,463,322,26
1696,0.71,-0.65,0.27,2.01,-2.87,-1.59,435,305,250,463,318,26
1697,0.7,-0.66,0.28,0.06,-3.3,-2.38,434,306,253,462,321,26
1698,0.71,-0.66,0.27,-1.4,-2.62,-2.2,451,308,255,457,321,26
1699,0.72,-0.67,0.26,0.06,-3.91,-1.77,434,311,251,466,318,26
1700,0.71,-0.66,0.26,0.98,-3.6,-3.05,438,307,250,466,316,26
1701,0.71,-0.66,0.25,1.28,-3.17,-2.2,435,310,253,462,317,26
1702,0.72,-0.66,0.26,-0.43,-3.3,-2.81,437,308,253,466,318,26
1703,0.71,-0.66,0.25,0.67,-2.56,-2.01,437,309,252,470,318,26
1704,0.71,-0.65,0.27,-0.55,-3.66,-2.99,433,307,254,466,318,26
1705,0.71,-0.66,0.27,5.68,-2.62,-1.71,435,306,251,462,318,26
1706,0.72,-0.65,0.25,2.14,-3.17,-3.36,435,307,252,465,321,26
1707,0.72,-0.66,0.26,0.98,-2.81,-2.87,437,308,247,459,322,26
1708,0.73,-0.66,0.25,0.06,-3.05,-2.56,434,306,249,463,319,26
1709,0.71,-0.66,0.26,-0.06,-2.75,-2.81,439,308,252,464,315,26
1710,0.71,-0.65,0.26,-0.24,-3.54,-3.42,435,305,254,462,320,26
1711,0.71,-0.65,0.26,-0.49,-2.87,-2.38,434,310,251,463,320,26
1712,0.73,-0.65,0.25,0.12,-2.56,-2.56,435,308,250,457,325,26
1713,0.71,-0.66,0.26,0.49,-2.87,-2.38,435,312,247,463,319,26
1714,0.72,-0.66,0.26,-0.37,-2.87,-2.81,435,307,252,462,319,26
1715,0.72,-0.65,0.26,-0.55,-2.56,-3.11,432,308,250,463,319,26
1716,0.72,-0.65,0.25,0.92,-3.48,-2.2,434,316,252,462,317,26
1717,0.71,-0.66,0.26,0.79,-3.36,-2.01,435,307,250,464,320,26
1718,0.72,-0.65,0.26,3.17,-2.26,-1.1,436,310,253,457,319,26
1719,0.72,-0.65,0.27,0.18,-2.62,-2.2,434,307,251,463,323,26
1720,0.72,-0.65,0.25,0.61,-2.32,-1.95,435,305,250,462,320,26
1721,0.72,-0.66,0.26,0.55,-3.36,-2.38,436,308,249,457,318,26
1722,0.71,-0.65,0.26,-0.18,-2.56,-2.2,435,307,252,465,321,26
1723,0.71,-0.65,0.25,1.04,-2.44,-2.69,433,307,249,465,318,26
1724,0.72,-0.65,0.26,-0.06,-3.3,-2.87,437,310,253,459,322,26
1725,0.72,-0.66,0.26,-0.18,-3.23,-2.44,430,307,249,459,319,26
1726,0.72,-0.66,0.24,0.18,-2.75,-2.62,435,308,250,463,322,26
1727,0.72,-0.65,0.25,0.0,-2.75,-2.69,435,307,247,462,319,26
1728,0.72,-0.66,0.25,0.98,-3.17,-1.95,435,309,250,459,318,26
1729,0.72,-0.66,0.24,0.67,-2.69,-2.87,436,310,259,457,320,26
1730,0.72,-0.66,0.25,0.85,-3.17,-2.32,428,308,251,464,317,26
1731,0.72,-0.66,0.24,0.92,-2.2,-2.69,434,307,249,462,320,26
1732,0.72,-0.65,0.25,1.04,-3.3,-2.32,434,309,253,462,322,26
1733,0.72,-0.65,0.25,1.71,-2.26,-2.01,434,309,251,464,321,26
1734,0.71,-0.66,0.26,0.18,-2.38,-2.75,437,308,251,467,321,26
1735,0.72,-0.65,0.25,2.32,-2.93,-1.28,437,308,252,462,321,26
1736,0.72,-0.65,0.25,0.43,-3.23,-1.95,432,307,249,464,323,26
1737,0.72,-0.66,0.25,-0.18,-3.78,-3.05,432,307,251,461,319,26
1738,0.72,-0.65,0.26,0.49,-2.5,-2.56,439,307,250,459,322,26
1739,0.73,-0.66,0.26,0.92,-3.36,-2.56,436,306,253,472,322,26
1740,0.72,-0.66,0.26,-0.43,-2.99,-2.56,435,308,252,466,321,26
1741,0.71,-0.66,0.24,0.49,-3.11,-3.05,434,314,255,469,321,26
1742,0.72,-0.65,0.25,-0.06,-3.78,-3.78,436,306,253,462,321,26
1743,0.73,-0.66,0.25,-0.31,-3.23,-2.26,434,313,253,466,320,26
1744,0.73,-0.66,0.25,1.16,-2.69,-1.53,436,310,253,465,320,26
1745,0.73,-0.65,0.25,1.28,-2.08,-2.62,433,309,251,463,318,26
1746,0.72,-0.66,0.24,0.92,-2.69,-2.08,435,309,254,466,323,26
1747,0.72,-0.65,0.25,0.61,-1.77,-2.5,436,307,251,460,319,26
1748,0.71,-0.65,0.26,0.85,-3.6,-1.83,432,308,253,467,321,26
1749,0.71,-0.66,0.24,-0.92,-4.46,-0.79,433,311,251,462,323,26
1750,0.71,-0.66,0.24,1.83,-3.11,-2.08,434,306,250,466,316,26
1751,0.72,-0.66,0.25,0.31,-3.36,-2.44,433,307,252,463,322,26
1752,0.71,-0.66,0.24,0.92,-2.81,-2.62,437,308,254,460,319,26
1753,0.71,-0.66,0.25,1.1,-2.62,-2.56,434,310,266,461,319,26
1754,0.72,-0.66,0.24,-0.12,-3.23,-2.99,437,307,254,457,320,26
1755,0.71,-0.66,0.24,-0.43,-3.11,-2.69,433,306,254,462,321,26
1756,0.72,-0.66,0.25,-0.24,-2.38,-2.81,435,308,258,462,320,26
1757,0.72,-0.66,0.25,0.43,-3.72,-2.5,431,305,253,458,318,26
1758,0.72,-0.66,0.25,-0.61,-3.17,-3.23,430,309,253,463,316,26
1759,0.72,-0.66,0.23,-0.06,-2.87,-2.56,431,307,251,469,317,26
1760,0.72,-0.66,0.24,1.65,-2.99,-2.56,434,309,253,463,321,26
1761,0.73,-0.66,0.24,0.06,-2.2,-3.42,436,308,249,458,323,26
1762,0.71,-0.64,0.25,3.05,-4.52,-1.65,433,310,248,462,321,26
1763,0.72,-0.66,0.24,-1.4,-3.3,-4.88,435,308,249,460,320,26
1764,0.72,-0.64,0.26,-0.12,-3.11,-2.81,431,308,255,462,322,26
1765,0.73,-0.63,0.25,1.65,-2.44,-2.26,434,308,251,466,321,26
1766,0.74,-0.64,0.26,-0.61,-2.62,-3.11,431,308,251,463,320,26
1767,0.73,-0.65,0.25,-0.12,-4.09,-2.62,432,309,253,464,320,26
1768,0.72,-0.64,0.25,0.92,-4.15,-2.62,438,308,253,463,318,26
1769,0.73,-0.64,0.23,0.79,-3.23,-3.23,431,307,260,463,319,26
1770,0.73,-0.63,0.26,0.55,-3.54,-2.38,433,310,252,457,317,26
1771,0.72,-0.63,0.25,-0.92,-2.99,-2.38,435,306,249,460,320,26
1772,0.74,-0.64,0.24,0.06,-4.21,-3.17,430,309,253,464,322,26
1773,0.74,-0.64,0.26,-0.06,-2.32,-2.38,433,313,247,467,322,26
1774,0.74,-0.62,0.25,-0.06,-2.75,-2.56,433,307,250,461,322,26
1775,0.73,-0.63,0.25,0.85,-3.66,-1.95,435,309,249,459,318,26
1776,0.74,-0.65,0.25,-1.16,-3.05,-2.14,434,307,250,461,322,26
1777,0.73,-0.64,0.25,0.73,-2.32,-2.93,435,307,251,466,321,26
1778,0.75,-0.63,0.24,1.16,-2.69,-2.14,453,309,252,462,319,26
1779,0.74,-0.64,0.26,1.71,-3.3,-1.65,432,317,251,462,322,26
1780,0.73,-0.63,0.25,-0.55,-1.28,-2.62,433,306,252,464,322,26
1781,0.73,-0.64,0.24,-0.61,-3.11,-2.93,432,308,252,464,317,26
1782,0.74,-0.64,0.25,1.1,-3.85,-3.48,430,308,247,464,321,26
1783,0.74,-0.64,0.24,0.18,-1.16,-2.2,434,309,248,467,322,26
1784,0.75,-0.64,0.23,-0.06,-1.83,-2.5,433,309,251,463,323,26
1785,0.75,-0.65,0.23,-0.61,-2.26,-2.93,433,309,252,465,324,26
1786,0.72,-0.64,0.24,1.28,-3.91,-2.08,433,311,249,466,321,26
1787,0.74,-0.65,0.23,0.98,-3.05,-3.66,433,309,251,463,322,26
1788,0.75,-0.64,0.25,0.92,-2.75,-4.39,432,310,246,463,319,26
1789,0.74,-0.63,0.24,1.1,-2.93,-2.44,433,309,249,462,322,26
1790,0.75,-0.63,0.25,0.92,-3.48,-2.26,432,311,248,465,324,26
1791,0.74,-0.63,0.24,-1.16,-3.3,-3.23,434,311,248,462,318,26
1792,0.74,-0.63,0.24,0.98,-1.95,-1.65,423,311,252,459,319,26
1793,0.74,-0.64,0.24,0.24,-2.99,-3.42,433,312,246,462,321,26
1794,0.74,-0.63,0.25,0.0,-3.05,-2.26,431,308,249,462,324,26
1795,0.76,-0.62,0.25,0.43,-3.54,-2.44,434,320,251,467,322,26
1796,0.75,-0.64,0.24,-1.28,-4.52,-2.2,431,308,251,462,323,26
1797,0.74,-0.63,0.23,0.43,-3.11,-1.59,432,309,255,464,322,26
1798,0.75,-0.63,0.24,0.43,-3.48,-2.87,429,309,250,460,323,26
1799,0.74,-0.63,0.24,1.89,-3.78,-2.69,432,312,249,466,318,26
1800,0.75,-0.62,0.24,2.32,-4.09,-3.11,429,309,248,462,322,26
1801,0.74,-0.63,0.24,0.49,-2.87,-2.32,433,305,250,458,322,26
1802,0.74,-0.63,0.24,-0.18,-3.17,-2.14,430,305,253,461,321,26
1803,0.74,-0.64,0.23,-0.37,-3.05,-2.32,432,311,249,459,321,26
1804,0.74,-0.63,0.23,0.06,-2.62,-2.2,444,311,252,462,324,26
1805,0.74,-0.63,0.24,0.61,-2.14,-2.62,435,309,249,463,324,26
1806,0.74,-0.63,0.24,0.18,-2.81,-2.81,429,312,251,462,322,26
1807,0.74,-0.63,0.24,0.73,-2.93,-2.14,432,315,248,461,322,26
1808,0.74,-0.63,0.24,0.49,-3.48,-2.08,430,311,252,466,324,26
1809,0.74,-0.63,0.23,1.65,-4.27,-0.85,444,322,251,463,320,26
1810,0.74,-0.64,0.23,1.16,-3.23,-2.08,432,310,250,464,322,26
1811,0.74,-0.64,0.24,-0.67,-2.99,-2.93,435,310,252,463,325,26
1812,0.74,-0.64,0.23,0.49,-2.69,-2.5,435,312,250,461,323,26
1813,0.74,-0.63,0.25,-1.1,-2.93,-3.17,431,312,252,462,322,26
1814,0.75,-0.63,0.23,1.59,-2.93,-1.65,433,309,248,462,323,26
1815,0.75,-0.63,0.24,0.49,-2.93,-2.38,431,309,247,462,321,26
1816,0.75,-0.64,0.22,0.43,-2.99,-2.81,430,309,254,461,324,26
1817,0.74,-0.63,0.24,0.55,-2.5,-1.89,432,310,248,456,323,26
1818,0.74,-0.63,0.25,0.61,-3.54,-2.44,435,309,250,461,323,26
1819,0.74,-0.64,0.24,0.31,-2.75,-2.38,434,310,251,464,323,26
1820,0.74,-0.63,0.24,0.31,-3.54,-3.17,431,313,248,461,323,26
1821,0.74,-0.63,0.24,0.06,-2.69,-1.95,431,312,248,461,323,26
1822,0.74,-0.64,0.23,-0.12,-2.81,-2.99,428,310,250,461,321,26
1823,0.75,-0.64,0.22,1.77,-3.72,-2.56,429,310,250,462,323,26
1824,0.74,-0.63,0.24,0.12,-3.23,-2.44,432,314,251,463,322,26
1825,0.75,-0.63,0.24,1.59,-4.09,-2.75,434,309,249,459,321,26
1826,0.73,-0.63,0.25,0.12,-2.38,-2.69,431,317,249,459,324,26
1827,0.74,-0.64,0.25,-0.98,-3.17,-2.87,433,310,253,461,320,26
1828,0.75,-0.63,0.24,-1.46,-3.48,-3.36,431,309,249,456,325,26
1829,0.74,-0.63,0.24,-0.43,-2.75,-2.75,433,310,249,464,322,26
1830,0.75,-0.64,0.23,-0.06,-3.17,-2.44,432,311,250,462,323,26
1831,0.75,-0.63,0.24,1.22,-2.99,-1.95,431,314,251,456,319,26
1832,0.74,-0.63,0.23,2.38,-2.44,-1.83,434,311,249,465,321,26
1833,0.75,-0.63,0.23,1.83,-2.75,-2.32,433,313,249,454,325,26
1834,0.75,-0.63,0.25,0.43,-3.17,-2.75,433,311,248,460,318,26
1835,0.75,-0.63,0.24,-0.98,-2.99,-2.75,429,311,252,454,324,26
1836,0.74,-0.63,0.25,0.67,-2.44,-2.38,430,310,249,463,324,26
1837,0.73,-0.64,0.23,1.46,-3.05,-2.62,434,316,249,460,325,26
1838,0.75,-0.62,0.23,0.79,-2.75,-3.17,431,310,251,464,322,26
1839,0.75,-0.63,0.24,-0.24,-5.13,-2.14,430,309,252,464,324,26
1840,0.75,-0.62,0.23,0.24,-3.6,-2.69,431,311,249,460,324,26
1841,0.74,-0.63,0.24,2.26,-3.36,-2.01,431,309,249,462,326,26
1842,0.75,-0.62,0.23,1.83,-2.69,-2.08,432,308,250,460,324,26
1843,0.73,-0.62,0.26,-0.92,-2.32,-2.44,431,310,248,460,318,26
1844,0.75,-0.63,0.25,-1.65,-2.2,-3.91,431,309,252,459,324,26
1845,0.74,-0.63,0.24,-1.95,-3.23,-3.54,431,311,248,464,320,26
1846,0.75,-0.62,0.24,-1.04,-2.62,-2.08,430,310,250,463,326,26
1847,0.75,-0.63,0.23,0.18,-2.99,-2.32,433,310,250,460,326,26
1848,0.75,-0.63,0.23,-0.85,-3.11,-2.38,432,313,250,466,321,26
1849,0.75,-0.63,0.23,1.71,-2.14,-2.01,433,311,251,466,323,26
1850,0.74,-0.63,0.23,1.28,-2.32,-2.56,435,307,250,464,321,26
1851,0.75,-0.63,0.23,1.04,-2.56,-1.95,434,312,251,463,322,26
1852,0.75,-0.63,0.23,0.43,-2.99,-2.08,434,312,253,465,323,26
1853,0.75,-0.63,0.22,1.77,-2.69,-2.26,432,313,250,467,323,26
1854,0.75,-0.63,0.23,-0.37,-3.48,-2.81,447,311,250,463,325,26
1855,0.75,-0.63,0.24,-1.04,-3.85,-2.99,433,309,250,462,322,26
1856,0.75,-0.63,0.24,0.73,-3.36,-2.38,434,310,263,464,324,26
1857,0.74,-0.63,0.25,-2.81,-0.37,-5.19,433,314,253,458,323,26
1858,0.74,-0.64,0.25,-0.49,-3.48,-2.44,434,310,252,458,325,26
1859,0.74,-0.63,0.23,0.12,-3.23,-3.05,430,312,252,458,323,26
1860,0.74,-0.63,0.22,-0.43,-3.11,-3.48,433,314,248,460,324,26
1861,0.75,-0.63,0.22,0.31,-3.3,-3.36,435,308,252,460,331,26
1862,0.76,-0.62,0.23,-0.85,-3.48,-3.54,445,311,247,464,323,26
1863,0.75,-0.62,0.24,-0.18,-2.14,-2.38,430,311,252,463,324,26
1864,0.75,-0.63,0.24,-0.43,-2.99,-2.56,435,311,257,463,321,26
1865,0.74,-0.63,0.23,1.4,-1.53,-0.73,433,311,256,460,321,26
1866,0.74,-0.63,0.22,0.31,-2.08,0.18,429,310,253,468,325,26
1867,0.73,-0.63,0.22,0.37,-2.5,-2.81,433,309,251,463,323,26
1868,0.74,-0.64,0.23,0.06,-2.93,-2.99,431,312,248,461,325,26
1869,0.74,-0.63,0.24,1.65,-2.56,-1.46,432,311,250,463,320,26
1870,0.74,-0.64,0.26,2.99,-2.62,-1.46,433,312,254,463,325,26
1871,0.74,-0.64,0.24,-0.98,-3.97,-2.75,436,311,250,463,320,26
1872,0.74,-0.64,0.23,0.92,-3.54,-2.69,434,313,254,458,324,26
1873,0.75,-0.63,0.23,-0.43,-3.6,-3.36,435,314,253,465,323,26
1874,0.75,-0.63,0.23,0.37,-3.11,-2.44,434,314,253,460,320,26
1875,0.74,-0.63,0.23,0.43,-2.81,-2.44,433,310,247,462,325,26
1876,0.75,-0.63,0.24,-1.16,-2.62,-2.56,433,313,250,478,319,26
1877,0.73,-0.63,0.22,-3.54,0.0,-3.72,422,313,251,467,326,26
1878,0.77,-0.62,0.23,0.49,-2.2,-2.69,432,312,250,462,324,26
1879,0.75,-0.64,0.21,0.18,-1.83,-2.08,430,312,253,467,324,26
1880,0.75,-0.63,0.23,0.37,-2.08,-2.93,434,312,249,462,323,26
1881,0.76,-0.63,0.21,4.21,-4.7,-3.48,435,312,248,464,322,26
1882,0.75,-0.62,0.23,-0.24,-1.71,-3.3,430,312,250,464,325,26
1883,0.74,-0.62,0.22,-0.18,-2.69,-2.5,435,310,251,467,324,26
1884,0.73,-0.64,0.21,-0.31,-2.44,-3.11,434,313,248,458,326,26
1885,0.75,-0.62,0.22,0.73,-2.38,-2.01,434,312,250,458,324,26
1886,0.75,-0.62,0.23,-0.43,-3.17,-3.11,436,314,251,463,323,26
1887,0.75,-0.63,0.22,-1.46,-2.56,-2.5,431,314,249,460,325,26
1888,0.76,-0.62,0.21,0.43,-3.11,-2.38,430,314,250,464,326,26
1889,0.75,-0.63,0.23,0.31,-3.3,-2.5,433,313,251,458,324,26
1890,0.76,-0.62,0.22,0.0,-2.01,-2.81,434,313,248,461,325,26
1891,0.76,-0.62,0.21,1.53,-2.99,-2.38,430,315,251,460,324,26
1892,0.76,-0.62,0.21,0.61,-3.48,-2.5,434,312,250,459,327,26
1893,0.75,-0.63,0.2,-0.79,-2.81,-3.11,432,312,251,465,324,26
1894,0.77,-0.6,0.24,0.24,-2.2,-2.44,433,315,250,463,325,26
1895,0.76,-0.61,0.23,1.4,-3.36,-1.95,435,313,251,459,325,26
1896,0.77,-0.61,0.23,1.59,-2.44,-1.77,433,314,248,462,325,26
1897,0.76,-0.62,0.22,2.2,-4.33,-2.2,431,310,247,459,324,26
1898,0.76,-0.62,0.23,-0.12,-4.46,-3.42,432,314,250,463,326,26
1899,0.76,-0.62,0.23,-0.49,-3.23,-2.81,433,312,248,464,326,26
1900,0.77,-0.62,0.22,1.16,-2.81,-2.01,433,311,253,465,324,26
1901,0.76,-0.62,0.22,1.65,-2.14,-1.28,432,313,254,464,321,26
1902,0.76,-0.62,0.21,0.92,-3.11,-2.5,433,311,248,463,327,26
1903,0.75,-0.62,0.22,-0.31,-2.93,-3.05,434,309,249,462,324,26
1904,0.75,-0.62,0.22,-0.31,-3.42,-3.23,433,314,252,463,325,26
1905,0.76,-0.62,0.21,0.0,-2.44,-2.44,433,314,259,457,324,26
1906,0.77,-0.61,0.23,1.95,-3.36,-2.08,432,310,252,460,326,26
1907,0.76,-0.62,0.22,1.46,-3.91,-0.85,433,313,253,466,327,26
1908,0.76,-0.62,0.22,2.38,-2.93,-1.71,434,311,252,464,322,26
1909,0.75,-0.62,0.23,1.77,-4.7,-1.34,430,311,253,464,324,26
1910,0.74,-0.62,0.22,0.85,-4.03,-2.56,433,314,252,467,320,26
1911,0.76,-0.6,0.27,3.11,-1.89,0.37,436,313,252,465,324,26
1912,0.78,-0.61,0.24,-1.65,-0.55,-3.17,435,312,251,465,324,26
1913,0.78,-0.62,0.26,1.83,-4.33,-2.99,433,313,252,461,327,26
1914,0.76,-0.64,0.24,-1.53,-1.83,-3.54,434,311,253,464,326,26
1915,0.76,-0.62,0.23,0.06,-2.75,-2.38,445,313,253,463,324,26
1916,0.75,-0.63,0.23,-2.44,-3.23,-3.3,434,313,254,464,317,26
1917,0.75,-0.63,0.22,0.0,-3.23,-2.62,441,313,250,457,323,26
1918,0.75,-0.63,0.22,-1.28,-2.2,-2.14,433,312,257,464,322,26
1919,0.75,-0.63,0.21,2.69,-3.72,-2.01,435,312,248,459,324,26
1920,0.76,-0.62,0.24,0.12,-1.34,-3.3,431,312,251,460,324,26
1921,0.75,-0.62,0.23,0.24,-3.85,-2.75,436,313,252,462,326,26
1922,0.75,-0.64,0.22,0.0,-2.99,-2.26,433,310,253,464,332,26
1923,0.74,-0.64,0.21,-0.61,-3.3,-3.17,430,313,254,459,325,26
1924,0.75,-0.64,0.21,-0.12,-2.08,-2.75,435,311,252,464,326,26
1925,0.75,-0.64,0.21,0.55,-2.75,-3.17,435,312,253,457,325,26
1926,0.74,-0.63,0.22,-0.06,-3.3,-3.97,431,311,255,461,327,26
1927,0.75,-0.65,0.21,-0.24,-2.87,-2.08,435,314,250,464,325,26
1928,0.76,-0.63,0.22,0.31,-3.36,-2.08,434,315,252,465,324,26
1929,0.75,-0.64,0.21,2.26,-2.69,-2.14,433,312,250,463,325,26
1930,0.74,-0.64,0.22,1.4,-2.87,-2.44,434,312,253,461,324,26
1931,0.74,-0.63,0.2,3.6,-2.75,-1.89,430,315,261,462,324,26
1932,0.76,-0.62,0.23,4.15,-3.3,-2.38,433,315,257,464,324,26
1933,0.72,-0.64,0.23,-0.73,-1.95,-1.22,431,311,249,459,325,26
1934,0.73,-0.64,0.25,-0.67,-2.2,-3.05,433,312,252,464,324,26
1935,0.74,-0.65,0.23,-1.16,-2.75,-4.64,435,320,253,462,320,26
1936,0.74,-0.63,0.23,0.49,-3.17,-3.42,433,315,249,466,326,26
1937,0.75,-0.63,0.23,0.18,-3.6,-3.11,437,313,249,458,326,26
1938,0.74,-0.64,0.24,0.18,-3.3,-2.26,431,324,253,467,325,26
1939,0.75,-0.63,0.23,0.85,-3.11,-2.44,435,311,264,463,322,26
1940,0.74,-0.63,0.23,0.85,-2.75,-2.75,433,311,250,462,325,26
1941,0.75,-0.62,0.23,-0.18,-2.69,-2.62,434,312,253,467,323,26
1942,0.76,-0.64,0.24,1.34,-2.01,-0.79,435,311,254,462,325,26
1943,0.75,-0.64,0.23,-1.28,-1.77,0.37,432,314,251,465,324,26
1944,0.7,-0.65,0.25,2.87,-4.15,-3.17,430,312,252,467,324,26
1945,0.73,-0.65,0.26,2.44,-3.36,-1.95,432,314,249,462,323,26
1946,0.72,-0.66,0.22,-1.34,-3.97,-2.5,435,314,250,466,325,26
1947,0.74,-0.66,0.2,5.55,-5.74,-4.64,434,314,251,462,316,26
1948,0.78,-0.62,0.22,0.79,-3.6,-3.85,436,314,250,458,324,26
1949,0.76,-0.62,0.21,-0.67,-3.23,-3.23,433,321,253,466,322,26
1950,0.76,-0.61,0.21,-1.4,-3.42,-3.36,433,314,253,463,324,26
1951,0.75,-0.62,0.21,1.59,-4.82,-2.38,433,311,253,463,327,26
1952,0.76,-0.62,0.2,2.5,-2.38,-2.01,432,310,254,463,325,26
1953,0.77,-0.61,0.22,0.73,-3.36,-2.75,433,313,252,465,320,26
1954,0.76,-0.61,0.21,1.1,-2.87,-2.44,434,312,253,466,320,26
1955,0.77,-0.6,0.22,-0.18,-2.26,-3.11,433,312,248,457,327,26
1956,0.77,-0.61,0.22,-0.49,-3.11,-2.87,434,311,254,464,324,26
1957,0.76,-0.61,0.22,-0.31,-2.81,-2.62,435,313,254,462,325,26
1958,0.78,-0.61,0.21,0.06,-3.05,-2.44,432,310,252,463,327,26
1959,0.77,-0.61,0.21,0.37,-2.75,-2.69,434,312,248,463,323,26
1960,0.77,-0.61,0.21,-2.08,-1.65,-3.11,434,309,253,469,322,26
1961,0.77,-0.61,0.21,0.98,-2.5,-2.01,428,314,250,467,325,26
1962,0.76,-0.61,0.21,-0.73,-3.42,-2.56,435,313,247,458,326,26
1963,0.77,-0.61,0.21,1.71,-2.87,-2.5,433,310,251,467,326,26
1964,0.77,-0.61,0.21,-0.55,-2.93,-2.87,427,312,252,465,325,26
1965,0.78,-0.61,0.21,1.83,-3.36,-2.26,432,313,255,463,323,26
1966,0.77,-0.61,0.19,0.67,-2.26,-2.81,434,312,248,458,325,26
1967,0.77,-0.61,0.25,-4.82,-1.95,-5.19,430,311,248,466,325,26
1968,0.77,-0.6,0.21,2.2,-4.03,-2.99,431,312,251,464,323,26
1969,0.76,-0.61,0.21,-3.91,-2.44,-3.48,421,314,251,463,325,26
1970,0.78,-0.61,0.21,0.67,-4.27,-2.81,428,311,251,469,326,26
1971,0.77,-0.61,0.21,-0.79,-3.05,-2.75,445,312,252,464,328,26
1972,0.78,-0.6,0.2,-0.31,-3.05,-3.11,433,315,250,466,324,26
1973,0.78,-0.61,0.2,0.43,-2.99,-2.32,430,313,251,463,324,26
1974,0.77,-0.6,0.21,-0.73,-3.05,-3.11,431,315,253,467,325,26
1975,0.78,-0.6,0.21,-1.53,-1.83,-2.56,434,315,253,461,324,26
1976,0.77,-0.6,0.2,-1.22,-2.38,-3.48,428,314,256,467,327,26
1977,0.78,-0.6,0.2,0.43,-2.62,-2.5,429,313,258,461,325,26
