,aX,aY,aZ,gX,gY,gZ,little,ring,middle,index,thumb,number
0,0.94,-0.32,0.15,-1.22,-1.89,-5.07,233,300,411,473,308,17
1,0.94,-0.34,0.12,3.48,-3.05,-2.2,230,302,414,476,309,17
2,0.9,-0.36,0.14,5.49,-2.56,-0.31,259,299,411,477,308,17
3,0.94,-0.35,0.15,-4.09,-6.59,-6.47,230,301,413,479,303,17
4,0.94,-0.34,0.17,4.52,2.01,0.55,231,299,414,477,307,17
5,0.93,-0.26,0.36,3.66,-4.64,6.35,231,301,411,474,304,17
6,0.97,-0.33,0.22,-12.33,-6.04,-1.77,232,300,417,477,310,17
7,0.98,-0.25,0.2,18.55,5.86,-1.1,234,298,412,476,307,17
8,1.05,-0.2,0.27,-2.38,-0.31,-16.24,232,299,413,472,312,17
9,0.88,-0.32,0.15,-4.7,-4.88,3.66,240,301,410,468,310,17
10,0.89,-0.33,0.18,6.96,-3.66,-8.24,229,301,410,477,311,17
11,0.97,-0.26,0.2,-9.03,-10.44,-7.57,232,300,413,473,310,17
12,0.95,-0.33,0.11,2.99,2.08,4.64,234,302,414,473,304,17
13,0.91,-0.33,0.23,9.83,2.69,-2.08,234,303,415,471,310,17
14,0.9,-0.35,0.24,4.09,-1.46,-4.27,232,300,409,468,307,17
15,0.94,-0.27,0.25,-17.64,1.4,-14.59,232,299,411,470,309,17
16,0.92,-0.28,0.24,9.46,2.01,1.1,232,301,409,467,311,17
17,0.94,-0.23,0.32,4.03,3.36,-5.98,234,301,410,467,308,17
18,0.86,-0.29,0.29,-7.81,-10.93,4.15,232,302,408,472,310,17
19,0.92,-0.27,0.3,0.61,-5.31,2.81,233,301,411,468,309,17
20,0.98,-0.27,0.14,-5.92,-4.21,-5.19,234,300,411,471,310,17
21,0.95,-0.28,0.2,1.95,0.85,-5.49,231,301,412,475,311,17
22,0.84,-0.35,0.22,-4.09,-0.55,6.04,231,306,411,471,310,17
23,0.87,-0.36,0.16,-8.3,6.16,-9.95,233,300,411,477,308,17
24,0.9,-0.31,0.25,6.65,-0.98,-6.16,234,302,412,472,308,17
25,0.98,-0.3,0.24,-10.99,-10.01,11.9,233,299,411,477,311,17
26,0.98,-0.3,0.21,1.28,0.73,0.92,234,306,411,475,311,17
27,0.86,-0.4,0.27,-17.33,-11.41,-14.89,232,301,410,477,307,17
28,0.93,-0.37,0.17,-5.92,2.32,-7.26,234,300,408,469,308,17
29,0.94,-0.34,0.22,6.53,-0.79,-6.9,227,297,409,477,306,17
30,0.97,-0.31,0.28,2.75,-1.4,-3.85,234,306,414,477,311,17
31,0.89,-0.38,0.26,-2.69,5.07,-7.08,231,302,411,477,310,17
32,0.9,-0.35,0.25,1.34,-2.5,-4.46,232,300,412,475,310,17
33,0.91,-0.34,0.22,0.0,-4.58,-0.73,232,301,410,472,310,17
34,0.86,-0.4,0.22,-4.09,-1.46,-9.34,231,301,409,477,312,17
35,0.91,-0.37,0.21,-3.97,-2.2,-5.8,234,302,411,474,306,17
36,0.91,-0.36,0.23,3.97,-0.55,-1.95,229,302,414,482,311,17
37,0.91,-0.36,0.24,0.49,-2.26,-0.85,231,302,413,469,309,17
38,0.9,-0.37,0.22,-0.85,-3.91,-3.23,232,300,414,473,309,17
39,0.92,-0.36,0.24,-0.79,-2.69,-3.05,228,298,407,473,314,17
40,0.89,-0.37,0.25,0.85,-5.37,-3.3,231,303,410,472,312,17
41,0.89,-0.39,0.18,7.57,-7.57,-1.22,235,304,406,472,308,17
42,0.93,-0.37,0.18,-14.28,-5.92,-7.57,234,299,411,476,311,17
43,0.93,-0.37,0.14,4.27,-2.81,-0.73,229,301,410,472,310,17
44,0.89,-0.39,0.14,8.85,-0.06,-0.98,233,300,412,474,309,17
45,0.91,-0.36,0.18,-4.64,2.14,-4.94,231,302,413,472,309,17
46,0.91,-0.37,0.21,3.17,-0.06,-2.44,232,302,407,474,309,17
47,0.9,-0.38,0.23,1.34,-4.82,-1.65,231,304,412,473,307,17
48,0.91,-0.37,0.23,-0.12,-3.91,-1.46,257,301,409,473,312,17
49,0.91,-0.37,0.21,-0.12,-2.56,-1.59,231,298,409,472,309,17
50,0.88,-0.38,0.21,0.24,-1.53,-5.37,235,302,410,467,311,17
51,0.91,-0.36,0.21,15.56,-3.66,-2.75,234,301,412,471,310,17
52,0.93,-0.35,0.22,-3.05,-6.53,-1.1,235,304,412,477,308,17
53,0.91,-0.37,0.18,-2.56,-3.23,-2.75,232,298,411,475,307,17
54,0.92,-0.35,0.2,1.1,-1.46,0.24,234,299,410,477,309,17
55,0.91,-0.36,0.18,4.09,2.87,-4.09,233,303,412,474,316,17
56,0.92,-0.35,0.33,27.83,-2.01,3.54,231,301,411,468,306,17
57,0.77,-0.45,0.22,-3.23,-20.26,14.89,233,298,412,474,306,17
58,0.89,-0.37,0.29,9.58,-5.49,-2.5,230,305,410,472,309,17
59,0.88,-0.48,0.3,0.12,-3.97,11.23,232,301,409,473,309,17
60,0.89,-0.42,0.3,-1.4,4.94,-12.82,234,300,406,473,309,17
61,0.86,-0.46,0.23,-7.08,-2.26,-5.92,232,302,410,477,308,17
62,0.85,-0.44,0.26,-1.65,0.0,-1.04,232,299,412,473,308,17
63,0.88,-0.42,0.3,1.16,-1.22,-1.46,232,299,407,473,306,17
64,0.89,-0.4,0.34,8.12,2.62,-0.73,233,302,410,474,311,17
65,0.86,-0.42,0.33,2.56,-8.73,-0.18,235,299,411,473,312,17
66,0.83,-0.43,0.32,-3.6,1.77,-6.29,233,302,409,473,308,17
67,0.89,-0.42,0.29,-0.24,-0.67,-5.19,228,301,412,473,311,17
68,0.83,-0.43,0.33,0.06,-3.72,0.31,233,300,411,473,313,17
69,0.85,-0.44,0.31,-0.55,-2.99,-1.83,233,301,408,472,306,17
70,0.87,-0.42,0.34,-0.67,-2.44,-3.3,235,303,408,473,310,17
71,0.85,-0.43,0.32,1.22,-2.26,-2.75,233,301,407,477,314,17
72,0.87,-0.44,0.27,0.67,0.06,-5.68,234,304,408,472,310,17
73,0.68,-0.5,0.33,13.79,-16.42,-5.68,234,304,410,472,312,17
74,0.91,-0.35,0.3,-3.05,-4.58,-3.3,235,302,409,468,309,17
75,0.88,-0.36,0.31,-1.28,-1.53,-3.11,234,300,410,468,310,17
76,0.85,-0.38,0.34,1.89,-1.1,0.67,229,302,411,473,308,17
77,0.91,-0.34,0.32,-2.14,-13.73,-0.67,233,300,409,470,312,17
78,0.9,-0.33,0.29,-0.98,-2.01,-8.85,259,297,408,475,312,17
79,0.88,-0.36,0.27,-0.37,1.16,-1.77,236,299,408,468,310,17
80,0.91,-0.35,0.31,-3.42,1.65,-4.33,235,301,410,475,307,17
81,0.88,-0.35,0.34,2.99,-2.26,1.22,232,300,407,477,310,17
82,0.88,-0.36,0.33,-1.46,-3.42,-2.69,235,297,410,472,306,17
83,0.89,-0.34,0.36,-0.31,-3.91,3.54,233,301,410,472,312,17
84,0.9,-0.37,0.3,-2.5,-5.74,-4.7,235,299,408,472,309,17
85,0.89,-0.35,0.32,2.01,-0.61,-4.03,236,301,406,477,312,17
86,0.88,-0.37,0.3,-3.42,-3.85,-3.66,233,302,409,471,308,17
87,0.9,-0.34,0.34,3.85,-3.48,-3.3,235,300,406,474,310,17
88,0.91,-0.36,0.29,0.73,-0.43,-1.04,231,297,410,475,312,17
89,0.88,-0.36,0.3,1.53,-7.87,2.93,233,302,413,472,309,17
90,0.91,-0.38,0.24,7.69,-13.67,-14.22,232,297,409,476,308,17
91,0.9,-0.39,0.21,0.98,1.53,-2.44,236,297,413,475,308,17
92,0.89,-0.38,0.28,5.19,1.77,1.1,235,302,408,473,312,17
93,0.89,-0.39,0.28,0.12,-2.08,-3.11,237,298,411,474,308,17
94,0.86,-0.4,0.3,0.49,-0.73,-5.19,232,301,410,471,310,17
95,0.88,-0.39,0.26,-3.23,-4.46,-3.17,234,298,408,472,312,17
96,0.91,-0.37,0.28,3.36,-2.87,-2.62,236,302,406,474,309,17
97,0.87,-0.4,0.25,-0.49,-3.23,-4.58,231,300,410,476,306,17
98,0.87,-0.39,0.29,-0.37,-2.08,-0.18,232,306,412,478,312,17
99,0.9,-0.38,0.29,-1.04,-2.32,-4.46,234,299,409,473,311,17
100,0.87,-0.4,0.27,-0.43,-4.46,-2.93,233,302,408,473,310,17
101,0.9,-0.38,0.28,-0.79,-1.77,-3.66,236,299,408,476,310,17
102,0.89,-0.38,0.27,1.65,-2.01,-3.54,237,302,413,474,309,17
103,0.9,-0.4,0.28,1.95,-8.97,-1.95,235,298,406,474,309,17
104,0.87,-0.27,0.28,4.39,-4.33,-16.17,235,301,411,472,307,17
105,0.94,-0.3,0.21,0.98,-12.82,-3.6,240,300,409,468,310,17
106,0.91,-0.19,0.26,-10.68,-2.69,4.76,234,302,406,473,310,17
107,0.91,-0.27,0.24,-5.62,-4.7,-5.19,232,302,410,474,310,17
108,0.94,-0.27,0.28,-2.32,-2.69,-1.53,231,301,410,473,310,17
109,0.96,-0.26,0.22,-6.84,-13.06,-2.01,233,301,409,478,311,17
110,0.95,-0.29,0.23,-6.41,20.87,-2.01,237,301,406,472,309,17
111,0.95,-0.31,0.2,2.01,1.1,-2.75,232,302,409,477,311,17
112,0.95,-0.29,0.24,-1.89,-2.81,-5.37,234,301,411,472,311,17
113,0.92,-0.3,0.26,6.77,-1.4,-1.53,233,300,411,472,309,17
114,0.95,-0.29,0.23,14.28,-5.07,-0.49,235,306,408,474,309,17
115,0.91,-0.31,0.28,-6.77,-4.03,-4.52,237,299,409,473,308,17
116,0.93,-0.36,0.1,28.38,-11.84,-15.75,238,297,407,473,309,17
117,1.01,-0.19,0.19,-28.38,13.37,-2.01,234,303,411,477,309,17
118,0.89,-0.31,0.3,-0.79,-2.2,-7.51,237,299,408,476,307,17
119,0.93,-0.28,0.3,6.1,0.18,-4.58,235,302,414,469,309,17
120,0.91,-0.28,0.28,22.16,3.11,13.92,235,298,407,473,308,17
121,0.87,-0.34,0.39,-13.24,-1.34,1.95,234,299,406,472,311,17
122,0.93,-0.32,0.31,-7.81,-11.41,-7.75,236,302,410,473,300,17
123,0.89,-0.44,0.18,-8.61,14.28,-26.06,236,300,410,474,305,17
124,0.94,-0.23,0.35,-7.26,7.75,11.29,234,300,411,471,306,17
125,0.93,-0.31,0.3,-3.85,14.77,5.98,236,301,406,475,307,17
126,0.97,-0.23,0.35,6.41,-8.61,-4.7,235,300,413,469,308,17
127,0.85,-0.3,0.35,0.98,-3.3,-0.73,233,300,407,473,306,17
128,0.89,-0.28,0.38,4.09,-2.44,-3.48,236,300,413,473,308,17
129,0.9,-0.27,0.38,7.08,-8.24,0.67,233,303,408,471,308,17
130,0.9,-0.29,0.35,3.11,-4.76,-2.99,265,300,410,473,308,17
131,0.87,-0.29,0.34,7.69,-5.25,0.12,237,303,409,474,310,17
132,0.89,-0.3,0.32,1.34,-3.42,2.56,234,302,409,472,307,17
133,0.92,-0.33,0.36,-2.44,9.64,-1.59,233,296,410,471,306,17
134,0.88,-0.34,0.36,-5.43,-4.64,-3.54,235,296,409,473,307,17
135,0.85,-0.33,0.37,4.82,-7.02,0.49,237,299,408,468,309,17
136,0.89,-0.29,0.33,-1.65,-2.56,-3.97,234,302,408,474,308,17
137,0.89,-0.28,0.31,-0.73,-4.39,0.43,238,299,408,475,308,17
138,0.92,-0.27,0.34,-0.18,-3.6,-1.1,234,297,407,469,308,17
139,0.86,-0.32,0.36,2.62,-1.34,-0.67,238,299,406,477,308,17
140,0.88,-0.34,0.34,-3.54,-4.27,-0.79,238,299,411,474,310,17
141,0.88,-0.35,0.36,2.69,-2.62,-3.23,233,300,406,473,305,17
142,0.89,-0.34,0.34,-1.4,-2.2,-4.09,237,297,409,473,302,17
143,0.85,-0.33,0.34,-0.43,-6.53,-2.26,235,295,408,477,309,17
144,0.88,-0.31,0.38,-3.36,-1.89,-3.42,239,295,409,474,306,17
145,0.87,-0.34,0.29,-1.22,-10.19,-2.08,237,298,409,475,308,17
146,0.88,-0.33,0.35,4.52,-10.56,1.22,235,301,407,473,308,17
147,0.9,-0.35,0.22,12.76,-11.72,-0.49,236,298,408,473,310,17
148,0.85,-0.25,0.35,2.56,-8.61,2.38,236,299,406,477,307,17
149,0.85,-0.31,0.26,-7.87,-7.02,1.28,239,294,408,474,309,17
150,0.93,-0.27,0.37,-17.64,-5.86,-10.38,238,299,408,478,304,17
151,0.86,-0.36,0.24,1.77,8.42,-1.59,238,302,407,474,310,17
152,0.9,-0.31,0.26,0.61,0.06,-7.14,237,296,408,478,305,17
153,0.9,-0.3,0.3,-0.55,-1.95,3.3,236,299,420,473,307,17
154,0.93,-0.31,0.26,-1.89,-6.96,-1.83,234,299,408,474,308,17
155,0.9,-0.34,0.24,7.02,2.01,4.39,236,304,408,473,307,17
156,0.91,-0.34,0.28,-3.48,-5.31,-2.93,233,299,409,473,305,17
157,0.87,-0.34,0.34,3.91,-9.22,-1.59,236,297,408,477,308,17
158,0.91,-0.34,0.3,1.77,-4.21,-1.34,236,303,408,474,308,17
159,0.9,-0.33,0.28,0.0,-2.62,-3.6,239,301,409,470,308,17
160,0.91,-0.34,0.27,0.49,-3.05,-3.05,236,299,407,477,302,17
161,0.9,-0.34,0.29,-0.55,-2.93,-2.81,234,297,408,481,308,17
162,0.91,-0.34,0.27,-1.16,-3.85,-2.87,239,296,409,471,308,17
163,0.91,-0.33,0.29,-0.06,-3.42,-2.38,236,296,408,469,308,17
164,0.92,-0.33,0.28,0.0,-3.54,-2.69,238,300,407,469,307,17
165,0.88,-0.34,0.28,-0.92,0.0,-6.35,236,301,409,474,309,17
166,0.93,-0.32,0.31,1.77,5.68,-1.53,236,297,410,476,308,17
167,0.9,-0.35,0.2,4.21,-17.64,-8.91,238,302,420,485,309,17
168,0.91,-0.32,0.27,-7.14,-2.26,-6.9,233,302,409,487,311,17
169,0.9,-0.33,0.25,-2.87,1.22,-1.53,239,299,407,469,307,17
170,0.91,-0.33,0.26,-0.73,-5.31,-3.11,236,298,410,473,310,17
171,0.94,-0.3,0.25,0.85,-4.76,-0.98,234,298,409,473,308,17
172,0.93,-0.33,0.15,-0.85,-5.37,-2.32,238,296,407,472,306,17
173,0.95,-0.32,0.18,-1.53,-0.43,-3.54,238,301,407,476,309,17
174,0.86,-0.37,0.21,-5.0,-2.01,5.62,238,301,406,477,310,17
175,0.94,-0.32,0.15,-14.95,-4.64,-6.04,232,297,404,472,314,17
176,0.91,-0.4,0.12,8.97,-1.4,3.17,239,297,414,473,308,17
177,0.98,-0.27,0.25,19.96,-10.5,4.15,240,297,407,474,308,17
178,0.71,-0.45,0.19,6.41,-3.6,21.3,238,297,407,477,308,17
179,0.86,-0.46,0.25,0.18,-1.22,-13.0,237,299,408,473,309,17
180,0.94,-0.33,0.23,5.55,0.43,5.43,235,297,407,476,308,17
181,0.88,-0.36,0.33,11.41,-1.1,6.29,234,298,409,474,307,17
182,0.84,-0.4,0.3,-7.02,2.14,-7.63,236,296,408,471,309,17
183,0.94,-0.34,0.27,-3.23,-2.38,-3.72,236,296,408,472,307,17
184,0.89,-0.37,0.27,-2.75,-2.01,-4.94,236,298,407,473,303,17
185,0.9,-0.37,0.26,0.98,-3.17,-1.16,236,292,406,477,306,17
186,0.9,-0.38,0.26,3.23,-4.82,0.55,237,300,405,477,307,17
187,0.86,-0.39,0.29,-0.12,-1.95,-2.14,238,296,407,468,309,17
188,0.9,-0.37,0.31,1.89,-0.61,-3.17,238,299,407,471,305,17
189,0.88,-0.4,0.26,3.54,-1.04,-1.1,275,300,405,473,308,17
190,0.85,-0.39,0.35,4.82,-1.53,-2.62,234,300,406,471,306,17
191,0.85,-0.39,0.3,-1.22,-6.96,-9.16,239,303,409,472,307,17
192,0.88,-0.36,0.3,-1.59,-4.15,0.79,239,297,406,476,307,17
193,0.89,-0.37,0.3,1.53,-4.15,-1.83,236,296,404,473,308,17
194,0.88,-0.37,0.31,-0.24,-2.93,-3.54,238,297,411,468,306,17
195,0.89,-0.36,0.3,-1.53,-3.72,-1.34,236,298,407,477,302,17
196,0.88,-0.38,0.27,0.49,-1.59,-3.17,236,299,406,475,308,17
197,0.9,-0.38,0.28,3.54,-1.34,-2.99,237,295,404,473,308,17
198,0.87,-0.38,0.32,1.95,-3.97,0.67,240,300,406,472,314,17
199,0.9,-0.37,0.3,3.97,-1.22,0.49,240,296,407,474,305,17
200,0.86,-0.38,0.33,0.31,-4.58,-5.37,238,302,405,471,305,17
201,0.88,-0.38,0.29,-0.61,-2.2,-8.0,236,308,419,473,308,17
202,0.9,-0.35,0.28,3.42,-2.01,-2.87,237,298,407,475,306,17
203,0.84,-0.36,0.38,2.87,-1.4,-2.44,237,300,404,472,309,17
204,0.89,-0.34,0.34,2.2,-3.23,0.06,237,298,408,471,303,17
205,0.87,-0.34,0.33,4.15,-1.46,-8.79,236,298,410,474,308,17
206,0.88,-0.34,0.36,-4.88,-2.56,-1.28,239,300,408,472,309,17
207,0.86,-0.36,0.31,-2.56,-2.56,-0.49,238,299,412,474,309,17
208,0.9,-0.31,0.4,-5.43,-5.25,-9.22,239,299,407,475,308,17
209,0.93,-0.36,0.22,1.71,-3.72,-0.67,245,299,411,476,307,17
210,0.91,-0.34,0.3,4.39,-9.46,-2.01,236,301,408,474,307,17
211,0.96,-0.39,0.29,0.37,2.2,-0.37,239,302,403,472,310,17
212,0.85,-0.41,0.2,-5.0,-0.31,2.56,239,300,409,475,307,17
213,0.93,-0.44,0.32,11.72,27.4,-5.98,238,298,408,474,306,17
214,0.93,-0.44,0.21,-4.21,0.0,-6.65,240,300,408,471,305,17
215,0.85,-0.43,0.21,2.99,12.76,-11.96,237,306,408,478,307,17
216,0.89,-0.4,0.27,9.52,-0.12,2.99,239,300,407,477,298,17
217,0.86,-0.42,0.25,-1.95,-8.18,-2.99,237,301,407,474,310,17
218,0.84,-0.43,0.3,3.17,-3.91,-1.77,238,302,409,478,303,17
219,0.88,-0.4,0.31,-12.02,14.4,-17.82,246,299,403,469,305,17
220,0.9,-0.38,0.29,1.65,-3.17,-2.26,245,299,407,475,307,17
221,0.88,-0.38,0.33,1.46,-2.69,-1.65,235,303,406,473,306,17
222,0.88,-0.38,0.3,1.71,-3.78,-5.37,238,301,404,475,309,17
223,0.87,-0.37,0.35,3.54,-0.12,-0.43,241,302,407,477,307,17
224,0.89,-0.35,0.3,-9.16,-6.71,-5.19,244,302,416,474,307,17
225,0.91,-0.35,0.28,-3.91,-2.99,-4.88,238,302,413,477,309,17
226,0.9,-0.35,0.32,-1.34,-4.15,-2.44,238,304,407,473,307,17
227,0.86,-0.37,0.29,7.69,-6.84,3.78,237,298,407,473,302,17
228,0.87,-0.36,0.41,-1.28,-0.85,-6.23,236,301,406,469,308,17
229,0.88,-0.35,0.33,-0.67,-2.38,-2.81,236,298,407,471,309,17
230,0.86,-0.36,0.35,-0.67,-1.46,-3.48,234,302,407,474,306,17
231,0.9,-0.34,0.34,-1.95,-1.4,-7.45,237,299,407,474,307,17
232,0.89,-0.37,0.32,-1.34,-1.53,-6.1,239,302,408,474,308,17
233,0.86,-0.35,0.35,1.4,-1.95,-0.79,238,302,407,474,307,17
234,0.91,-0.34,0.32,-3.36,-3.72,-6.41,239,301,407,474,306,17
235,0.89,-0.34,0.32,0.31,-3.42,-1.65,234,301,407,474,309,17
236,0.89,-0.34,0.33,1.1,-2.56,-1.89,235,299,412,475,308,17
237,0.88,-0.35,0.32,0.31,-2.38,-2.08,235,301,407,474,308,17
238,0.9,-0.34,0.31,0.24,-3.66,-3.78,235,299,405,476,308,17
239,0.88,-0.34,0.32,1.04,-1.95,-2.5,238,311,407,475,308,17
240,0.89,-0.33,0.32,0.24,-2.93,-2.87,236,300,406,469,308,17
241,0.93,-0.34,0.32,0.92,-1.83,0.06,235,300,408,474,305,17
242,0.94,-0.33,0.26,-10.5,2.81,-13.55,235,304,407,473,308,17
243,0.87,-0.33,0.32,9.22,-10.07,-1.4,240,297,406,473,310,17
244,0.98,-0.34,0.32,0.0,6.96,-2.38,236,303,406,474,308,17
245,0.86,-0.35,0.37,-7.2,-0.98,2.75,237,299,405,474,308,17
246,0.87,-0.33,0.37,5.43,-8.3,-1.59,234,302,409,472,308,17
247,0.79,-0.39,0.38,-0.73,-3.72,3.17,236,305,397,473,309,17
248,0.88,-0.36,0.35,-3.91,-4.7,-5.74,237,305,406,474,308,17
249,0.86,-0.37,0.36,-0.12,-4.15,-3.05,237,300,407,477,308,17
250,0.9,-0.34,0.37,0.92,-4.58,-3.36,238,314,406,468,304,17
251,0.91,-0.35,0.33,-0.55,-2.81,-2.75,233,300,408,473,307,17
252,0.86,-0.35,0.37,-0.49,-2.32,-2.14,236,300,407,476,309,17
253,0.87,-0.36,0.36,-0.06,-2.14,-1.46,238,301,406,469,307,17
254,0.87,-0.35,0.37,10.5,9.16,12.33,237,303,409,477,306,17
255,0.84,-0.39,0.42,-9.22,-6.71,-11.96,235,301,406,474,307,17
256,0.85,-0.38,0.38,2.32,-4.7,-0.85,238,299,406,474,309,17
257,0.84,-0.39,0.4,0.24,-2.08,-3.42,236,303,403,473,310,17
258,0.84,-0.39,0.39,-0.43,-2.69,-2.2,237,304,404,478,307,17
259,0.84,-0.39,0.39,1.22,-3.3,-1.59,237,311,402,469,318,17
260,0.84,-0.39,0.38,-1.46,-3.3,-4.09,241,304,407,477,310,17
261,0.84,-0.37,0.43,3.78,-2.87,-2.75,239,297,403,475,308,17
262,0.87,-0.38,0.39,0.85,-3.36,-3.17,239,299,406,473,307,17
263,0.85,-0.37,0.39,-0.67,-3.23,-4.21,238,303,405,471,307,17
264,0.85,-0.38,0.39,1.28,-3.3,-2.69,239,309,403,475,309,17
265,0.85,-0.38,0.39,-0.49,-2.38,-2.99,233,301,405,476,307,17
266,0.84,-0.38,0.4,2.26,-4.52,0.18,236,303,405,477,305,17
267,0.84,-0.37,0.42,-0.55,-2.01,-4.33,235,304,408,475,306,17
268,0.87,-0.37,0.39,-1.71,-4.03,-4.15,237,299,404,477,306,17
269,0.87,-0.36,0.4,-0.31,-3.05,-3.23,235,303,405,473,307,17
270,0.88,-0.35,0.4,0.43,-14.04,-1.28,238,303,408,477,308,17
271,0.87,-0.36,0.35,7.39,2.2,-7.39,239,301,407,476,311,17
272,0.9,-0.32,0.32,-3.36,-4.27,-4.03,236,298,409,474,308,17
273,0.84,-0.34,0.41,11.41,-0.61,7.26,238,301,405,473,308,17
274,0.91,-0.35,0.34,7.57,-4.7,1.89,237,300,407,477,308,17
275,0.88,-0.26,0.44,-0.24,10.44,-6.71,240,300,406,477,307,17
276,0.89,-0.36,0.42,-32.29,15.44,-38.94,236,301,409,472,311,17
277,0.84,-0.31,0.38,-7.75,18.62,23.44,239,300,405,473,308,17
278,0.87,-0.35,0.4,6.65,1.83,1.59,237,300,404,476,309,17
279,0.87,-0.31,0.42,3.85,2.08,-4.58,238,301,405,474,310,17
280,0.87,-0.29,0.46,3.6,-3.91,2.38,237,301,406,472,308,17
281,0.83,-0.33,0.41,-5.13,-16.72,-6.35,237,300,406,471,308,17
282,0.93,-0.31,0.33,-5.07,-8.97,-19.29,236,303,407,474,307,17
283,0.94,-0.3,0.25,-1.22,-0.37,-2.32,237,301,408,467,307,17
284,0.87,-0.31,0.35,1.04,5.19,-10.31,268,298,403,476,308,17
285,0.91,-0.29,0.37,26.55,5.0,31.98,238,303,408,474,307,17
286,0.88,-0.29,0.38,-21.79,-4.76,-21.48,238,300,407,476,308,17
287,0.97,-0.21,0.33,-8.0,-0.85,-7.81,240,300,406,473,307,17
288,0.9,-0.24,0.36,-0.73,-3.3,-1.4,237,302,406,474,308,17
289,0.91,-0.24,0.35,0.73,-1.89,-1.83,236,301,405,474,306,17
290,0.9,-0.24,0.35,-0.67,-2.32,-3.91,240,300,408,476,308,17
291,0.92,-0.23,0.35,0.85,-2.69,-3.36,238,302,405,473,304,17
292,0.91,-0.24,0.33,-2.2,-2.32,-3.48,238,304,407,471,307,17
293,0.92,-0.23,0.36,0.06,-2.14,-3.6,237,302,406,476,306,17
294,0.92,-0.23,0.35,-0.67,-4.58,-2.81,245,300,406,473,310,17
295,0.92,-0.23,0.35,-1.53,-3.42,-2.32,240,301,405,469,304,17
296,0.92,-0.23,0.34,-1.16,-3.42,-2.87,240,300,412,475,304,17
297,0.91,-0.24,0.34,0.24,-3.48,-2.5,237,301,404,473,309,17
298,0.91,-0.23,0.35,-0.18,-2.75,-1.34,237,302,411,477,308,17
299,0.91,-0.23,0.35,1.53,-3.36,-0.43,244,304,406,474,306,17
300,0.93,-0.23,0.34,-0.18,-3.05,-2.87,246,303,406,472,308,17
301,0.92,-0.23,0.34,-0.18,-3.05,-2.56,233,302,405,475,310,17
302,0.92,-0.23,0.34,0.06,-2.26,-2.01,238,303,412,474,306,17
303,0.91,-0.24,0.35,-0.92,-3.11,-1.89,239,299,409,474,308,17
304,0.91,-0.25,0.35,1.95,-3.23,-2.5,235,303,403,474,308,17
305,0.91,-0.24,0.34,0.06,-3.23,-2.56,238,304,408,471,304,17
306,0.93,-0.23,0.35,-1.59,-2.99,-2.44,240,305,402,478,306,17
307,0.91,-0.25,0.32,0.24,-3.17,-2.93,237,301,411,478,308,17
308,0.91,-0.24,0.34,-0.43,-2.75,-2.81,236,303,404,473,306,17
309,0.91,-0.25,0.34,0.79,-3.3,-2.38,242,302,405,474,308,17
310,0.92,-0.24,0.34,1.83,-3.17,-3.05,238,302,402,473,306,17
311,0.92,-0.25,0.33,1.65,-3.6,-2.99,237,303,405,469,307,17
312,0.92,-0.23,0.34,1.34,-1.95,-2.2,238,297,405,477,308,17
313,0.91,-0.24,0.34,1.16,-2.69,-2.75,237,301,417,476,310,17
314,0.92,-0.22,0.35,0.67,-2.44,-3.85,237,299,407,474,307,17
315,0.92,-0.24,0.35,3.05,-3.48,-4.27,240,303,407,476,307,17
316,0.92,-0.23,0.35,1.46,-2.38,-4.58,237,300,408,474,307,17
317,0.92,-0.23,0.35,0.92,-3.23,-2.5,238,301,405,477,304,17
318,0.92,-0.23,0.34,1.1,-2.38,-2.14,238,302,405,481,307,17
319,0.92,-0.24,0.34,-2.62,-3.3,-3.72,240,301,405,475,308,17
320,0.92,-0.24,0.35,0.49,-3.36,-1.59,237,302,409,474,306,17
321,0.92,-0.24,0.34,0.85,-3.36,-2.14,237,302,421,474,305,17
322,0.91,-0.24,0.34,0.98,-2.69,-2.26,236,301,404,475,310,17
323,0.91,-0.24,0.34,1.28,-2.56,-2.69,234,302,407,473,306,17
324,0.92,-0.24,0.35,0.24,-3.42,-2.69,240,302,407,474,310,17
325,0.92,-0.24,0.35,0.61,-3.23,-1.34,239,301,406,473,308,17
326,0.9,-0.28,0.33,1.16,-1.77,-2.44,236,302,403,477,309,17
327,0.91,-0.28,0.32,2.69,-3.17,-2.08,238,302,406,474,306,17
328,0.91,-0.28,0.31,-0.49,-3.23,-1.65,236,302,408,470,307,17
329,0.92,-0.28,0.32,0.18,-2.93,-2.62,239,303,407,469,307,17
330,0.91,-0.28,0.31,-0.61,-3.6,-2.56,238,304,409,476,310,17
331,0.91,-0.29,0.31,-0.43,-2.69,-3.23,237,302,407,473,308,17
332,0.92,-0.28,0.32,-1.65,-2.93,-2.5,234,300,410,473,306,17
333,0.91,-0.29,0.31,0.85,-2.56,-1.83,236,305,405,468,298,17
334,0.9,-0.31,0.31,1.65,-2.81,-2.5,236,299,407,473,309,17
335,0.91,-0.3,0.31,0.79,-2.93,-2.56,238,301,408,487,307,17
336,0.91,-0.29,0.31,1.1,-4.27,-2.44,235,300,403,477,307,17
337,0.91,-0.29,0.31,2.32,-3.36,-1.89,232,301,404,474,308,17
338,0.91,-0.29,0.31,0.61,-2.99,-2.44,235,298,406,474,309,17
339,0.92,-0.29,0.31,0.31,-3.48,-2.62,233,301,406,477,307,17
340,0.92,-0.28,0.32,-0.12,-3.05,-2.01,236,301,408,468,305,17
341,0.92,-0.29,0.31,-0.49,-3.05,-3.11,235,300,407,468,305,17
342,0.91,-0.29,0.3,-0.18,-4.03,-2.32,239,300,406,474,305,17
343,0.91,-0.29,0.3,0.18,-3.11,-2.62,237,298,402,477,307,17
344,0.92,-0.29,0.3,-0.24,-2.81,-2.69,234,302,406,474,305,17
345,0.91,-0.29,0.3,0.06,-3.23,-2.38,238,301,411,477,306,17
346,0.91,-0.29,0.31,0.49,-2.75,-2.26,238,303,406,477,307,17
347,0.91,-0.29,0.3,1.77,-2.44,-2.44,236,297,405,475,306,17
348,0.91,-0.29,0.31,0.24,-2.75,-2.69,241,298,408,482,308,17
349,0.91,-0.29,0.31,0.61,-2.62,-2.93,236,306,407,474,305,17
350,0.92,-0.29,0.31,0.55,-3.6,-2.14,236,302,404,475,303,17
351,0.93,-0.29,0.3,0.85,-3.05,-2.69,238,301,409,477,306,17
352,0.91,-0.29,0.31,0.85,-2.99,-2.2,239,302,409,476,307,17
353,0.92,-0.3,0.3,0.55,-2.93,-3.11,236,300,408,471,306,17
354,0.92,-0.29,0.3,-0.24,-3.23,-2.62,237,297,401,467,305,17
355,0.92,-0.29,0.31,-0.43,-2.75,-2.93,235,301,407,472,307,17
356,0.92,-0.3,0.3,1.22,-3.17,-1.95,236,304,408,474,306,17
357,0.92,-0.29,0.31,1.16,-2.62,-2.69,239,304,404,469,306,17
358,0.91,-0.3,0.31,1.16,-2.93,-2.2,238,303,407,477,307,17
359,0.91,-0.3,0.31,0.98,-2.99,-2.32,249,303,403,472,307,17
360,0.91,-0.3,0.32,3.48,-4.88,1.53,237,304,403,474,307,17
361,0.79,-0.35,0.44,11.05,-21.0,10.01,238,301,406,473,308,17
362,0.94,-0.32,0.26,-2.14,-2.2,-2.14,234,299,404,473,308,17
363,0.9,-0.33,0.28,-1.46,-1.65,-3.17,237,300,406,473,306,17
364,0.91,-0.32,0.28,0.49,-1.83,-2.01,242,302,408,470,306,17
365,0.91,-0.32,0.28,0.06,-2.93,-2.99,237,301,406,471,304,17
366,0.91,-0.32,0.29,-0.18,-2.81,-3.17,236,299,406,477,305,17
367,0.92,-0.31,0.28,1.28,-0.79,-1.95,239,296,402,473,307,17
368,0.9,-0.32,0.32,1.83,2.62,0.37,236,303,407,468,307,17
369,0.89,-0.33,0.35,3.6,0.98,-1.4,239,302,407,472,303,17
370,0.89,-0.34,0.35,0.73,-0.79,-1.71,239,303,405,469,304,17
371,0.88,-0.34,0.37,1.1,-1.71,-1.04,236,300,403,473,308,17
372,0.88,-0.34,0.37,1.16,-2.5,-2.5,235,300,406,477,306,17
373,0.88,-0.34,0.37,-1.53,-0.06,-3.54,236,299,405,477,306,17
374,0.87,-0.36,0.36,4.03,-7.69,5.07,238,303,405,477,309,17
375,0.9,-0.4,0.22,20.63,-31.01,9.95,240,300,413,472,305,17
376,0.97,-0.4,-0.07,-7.08,-100.83,0.24,238,298,407,477,305,17
377,0.91,-0.38,0.19,-12.45,10.31,-2.69,239,304,406,475,306,17
378,0.91,-0.38,0.19,1.95,1.95,0.0,239,301,407,471,303,17
379,0.88,-0.41,0.2,5.0,-3.42,-1.77,236,301,405,476,306,17
380,0.9,-0.41,0.21,1.46,-2.26,-1.77,235,303,406,475,309,17
381,0.88,-0.41,0.24,-0.85,-3.11,-1.65,237,299,412,474,305,17
382,0.87,-0.4,0.2,-0.55,-2.38,-2.14,237,301,411,476,308,17
383,0.88,-0.42,0.23,-0.24,-1.77,-2.87,234,302,407,473,306,17
384,0.87,-0.42,0.24,-1.16,-2.44,-2.26,237,304,406,474,304,17
385,0.88,-0.42,0.25,-4.09,-2.38,-6.16,235,298,407,468,305,17
386,0.95,-0.36,0.22,0.0,-1.59,-8.97,238,300,408,472,307,17
387,0.89,-0.39,0.25,1.71,-2.14,0.79,237,301,402,478,306,17
388,0.89,-0.39,0.25,-0.06,-2.81,-2.56,237,301,404,468,304,17
389,0.88,-0.4,0.25,0.98,-3.48,-2.75,236,302,405,468,304,17
390,0.89,-0.4,0.26,-0.37,-2.75,-2.44,238,301,402,477,303,17
391,0.89,-0.4,0.27,0.55,-2.93,-2.08,246,302,406,489,306,17
392,0.89,-0.4,0.26,1.53,-2.5,-2.08,238,303,407,473,306,17
393,0.88,-0.4,0.26,0.61,-2.44,-2.26,237,301,407,473,306,17
394,0.87,-0.41,0.27,0.18,-2.93,-1.71,237,300,406,474,309,17
395,0.88,-0.4,0.27,1.34,-2.93,-1.95,239,304,407,475,304,17
396,0.89,-0.4,0.27,0.49,-2.93,-2.62,235,301,406,471,303,17
397,0.88,-0.4,0.27,0.49,-9.7,-3.66,235,301,406,477,306,17
398,0.96,-0.36,0.19,14.59,-6.65,-2.01,239,298,404,475,308,17
399,0.91,-0.38,0.23,-6.53,2.75,-8.91,237,304,405,474,309,17
400,0.87,-0.4,0.26,-0.79,-1.95,-2.93,265,303,405,473,300,17
401,0.88,-0.39,0.27,2.38,-2.08,-1.28,233,301,407,473,305,17
402,0.89,-0.39,0.27,0.31,-0.98,-2.87,240,313,404,477,303,17
403,0.88,-0.39,0.28,-1.04,-2.44,-2.93,237,303,406,473,307,17
404,0.88,-0.39,0.27,0.18,-3.3,-2.2,236,302,405,473,306,17
405,0.87,-0.39,0.3,4.33,-2.44,-0.31,236,304,403,469,306,17
406,0.89,-0.39,0.29,3.48,-2.62,-1.16,239,301,405,473,308,17
407,0.89,-0.39,0.28,-2.32,-3.05,-3.17,236,304,407,475,305,17
408,0.87,-0.39,0.3,0.55,-3.54,-2.26,236,304,406,474,309,17
409,0.87,-0.4,0.28,-2.2,-5.8,-4.46,238,299,407,473,306,17
410,0.87,-0.4,0.26,2.32,-0.49,-1.65,235,305,403,473,308,17
411,0.9,-0.39,0.27,-1.53,-2.14,-2.62,236,303,405,470,308,17
412,0.88,-0.39,0.29,-2.44,-3.54,-2.5,240,304,407,474,307,17
413,0.87,-0.4,0.28,-1.28,-3.17,-1.77,237,300,404,472,305,17
414,0.87,-0.4,0.28,-1.28,-2.87,-3.17,235,302,403,474,303,17
415,0.89,-0.39,0.29,1.16,-2.26,-4.15,237,302,407,468,303,17
416,0.88,-0.4,0.28,-0.24,-3.3,-2.87,237,303,401,476,307,17
417,0.89,-0.4,0.25,-1.46,-5.25,-4.64,235,299,405,473,304,17
418,0.82,-0.42,0.36,-2.56,-13.12,4.46,236,302,408,474,306,17
419,0.88,-0.41,0.23,-4.46,-2.44,-8.24,254,304,404,478,305,17
420,0.91,-0.39,0.22,-0.55,-2.26,-5.31,239,298,404,473,307,17
421,0.88,-0.41,0.23,-2.99,3.36,-0.61,236,301,404,468,302,17
422,0.88,-0.38,0.29,0.55,1.71,0.92,240,305,402,469,309,17
423,0.88,-0.37,0.34,-7.81,7.14,-5.43,238,302,407,468,307,17
424,0.87,-0.42,0.24,1.83,-13.55,-8.91,237,301,402,472,306,17
425,0.93,-0.34,0.3,38.94,-29.24,16.11,242,300,402,475,303,17
426,0.9,-0.37,0.12,-12.57,0.55,-1.95,239,302,403,476,305,17
427,0.89,-0.42,0.15,-24.41,20.81,-1.16,239,303,405,470,306,17
428,0.8,-0.42,0.39,10.62,0.92,2.2,235,305,403,468,302,17
429,0.87,-0.38,0.34,7.02,-19.53,15.26,239,305,403,469,308,17
430,0.89,-0.39,0.28,-2.32,-13.92,0.92,237,300,401,472,305,17
431,0.93,-0.39,0.1,-10.01,-0.18,-12.57,236,302,404,476,303,17
432,0.85,-0.38,0.26,-0.61,-0.31,-3.48,239,316,403,474,307,17
433,0.91,-0.38,0.21,-6.16,-4.82,1.4,235,304,403,473,306,17
434,0.89,-0.39,0.24,0.18,-2.01,-2.38,240,302,403,473,307,17
435,0.91,-0.38,0.21,-1.77,-3.3,-7.51,237,303,406,472,307,17
436,0.91,-0.38,0.24,4.39,-1.71,-1.59,239,305,407,470,306,17
437,0.9,-0.38,0.23,-1.04,-2.56,-4.15,237,307,401,472,309,17
438,0.91,-0.38,0.22,0.98,-2.99,-2.14,235,304,409,467,304,17
439,0.9,-0.38,0.23,-0.79,-2.81,-3.3,258,298,406,476,306,17
440,0.91,-0.37,0.23,1.16,-3.97,-1.65,238,305,404,474,306,17
441,0.9,-0.38,0.22,-0.55,-2.26,-3.66,239,302,401,470,307,17
442,0.91,-0.37,0.23,-1.34,-2.75,-4.21,237,301,405,472,307,17
443,0.9,-0.37,0.23,0.12,-3.05,-2.56,237,301,402,478,307,17
444,0.91,-0.37,0.22,0.12,-2.75,-2.69,234,301,404,473,304,17
445,0.92,-0.36,0.22,-1.04,-2.2,-3.48,237,301,400,472,302,17
446,0.9,-0.36,0.25,1.65,-2.93,-2.44,238,301,407,468,306,17
447,0.91,-0.36,0.24,0.55,-2.87,-2.44,236,302,405,472,307,17
448,0.91,-0.36,0.24,1.65,-3.17,-2.01,232,300,405,473,309,17
449,0.9,-0.36,0.25,0.0,-2.81,-3.6,234,301,405,468,306,17
450,0.91,-0.36,0.24,-0.24,-2.75,-3.11,237,302,401,472,305,17
451,0.91,-0.37,0.24,0.79,-2.81,-2.81,237,301,404,470,307,17
452,0.91,-0.36,0.24,0.18,-2.99,-3.05,248,304,404,475,305,17
453,0.9,-0.37,0.23,-0.18,-2.56,-2.69,239,303,403,474,304,17
454,0.91,-0.37,0.24,-0.31,-2.93,-2.62,239,303,405,474,307,17
455,0.91,-0.36,0.24,0.67,-3.3,-2.75,239,301,406,474,308,17
456,0.9,-0.36,0.24,0.49,-2.32,-1.59,236,303,401,471,308,17
457,0.92,-0.35,0.23,-2.01,-4.88,-3.78,245,306,403,473,307,17
458,0.9,-0.36,0.23,2.62,-3.91,-0.06,238,301,403,477,308,17
459,0.92,-0.35,0.23,-0.12,-0.73,-2.26,243,299,408,475,305,17
460,0.91,-0.36,0.24,-1.46,-2.62,-2.01,239,301,405,477,306,17
461,0.92,-0.36,0.24,1.28,-3.36,-2.2,236,304,404,473,301,17
462,0.89,-0.37,0.24,-2.2,-2.26,-2.62,237,302,403,472,304,17
463,0.91,-0.35,0.25,2.08,-2.2,-1.28,237,301,406,477,307,17
464,0.91,-0.36,0.25,0.98,-2.32,-2.5,238,302,407,476,305,17
465,0.91,-0.35,0.24,-1.46,-2.87,-3.11,240,305,404,473,309,17
466,0.9,-0.36,0.25,-0.61,-3.6,-2.56,241,304,404,477,304,17
467,0.9,-0.36,0.25,0.43,-4.09,-2.62,237,302,405,474,308,17
468,0.89,-0.37,0.24,0.92,-5.13,-1.22,238,304,401,474,309,17
469,0.94,-0.36,0.2,1.28,-5.62,-7.32,237,301,405,472,306,17
470,0.88,-0.37,0.22,11.6,-3.42,5.43,240,305,405,474,307,17
471,0.93,-0.36,0.2,-2.08,-0.73,-5.62,240,301,401,477,306,17
472,0.9,-0.36,0.24,-1.16,-2.01,-4.03,235,304,404,476,306,17
473,0.9,-0.35,0.24,-2.2,-1.65,-2.56,238,302,402,473,306,17
474,0.93,-0.33,0.2,23.44,14.89,-6.53,239,301,403,477,307,17
475,0.98,-0.28,0.31,-3.36,7.45,-8.3,235,300,404,478,307,17
476,0.95,-0.31,0.35,-1.77,-5.98,-2.14,235,302,404,475,302,17
477,0.96,-0.32,0.28,2.93,-1.28,-6.71,234,301,408,474,304,17
478,0.86,-0.39,0.23,-12.51,-1.22,-6.47,240,301,404,472,305,17
479,0.89,-0.36,0.31,6.35,-5.92,7.08,237,301,401,469,307,17
480,0.92,-0.36,0.26,-2.81,-2.62,-4.21,239,299,403,470,309,17
481,0.89,-0.37,0.29,1.04,-2.5,-2.75,240,301,399,475,307,17
482,0.9,-0.36,0.28,1.77,-3.36,-1.71,238,301,404,473,307,17
483,0.9,-0.36,0.29,0.0,-2.87,-1.04,237,299,400,479,310,17
484,0.88,-0.38,0.29,-0.12,-4.39,-0.61,237,300,402,473,304,17
485,0.9,-0.36,0.27,2.2,-3.48,-2.26,237,300,404,473,307,17
486,0.86,-0.36,0.32,-15.44,-6.16,-14.4,238,303,409,473,308,17
487,0.95,-0.32,0.18,0.92,-5.74,-1.53,240,303,403,469,308,17
488,0.92,-0.33,0.22,0.37,0.92,-2.56,239,303,404,468,309,17
489,0.91,-0.33,0.28,4.88,-3.91,-2.14,237,303,405,475,309,17
490,0.92,-0.33,0.22,-3.23,-3.05,-4.15,241,298,405,476,305,17
491,0.91,-0.34,0.23,-0.18,-3.23,-2.93,238,299,402,473,309,17
492,0.92,-0.32,0.26,-2.32,0.55,-2.38,240,300,408,473,308,17
493,0.92,-0.34,0.24,9.46,1.1,1.95,239,298,399,474,307,17
494,0.9,-0.35,0.26,-1.77,-1.28,-5.68,241,301,404,473,309,17
495,0.91,-0.34,0.27,-0.61,-4.46,-1.28,237,302,402,474,307,17
496,0.9,-0.34,0.27,1.89,-3.05,-1.04,236,300,405,473,305,17
497,0.91,-0.35,0.26,0.61,-2.69,-2.62,238,305,403,470,309,17
498,0.92,-0.35,0.25,-1.1,-2.75,-3.78,250,303,403,472,304,17
499,0.91,-0.34,0.25,0.31,-3.17,-3.05,240,302,406,476,305,17
500,0.91,-0.35,0.25,1.83,-2.87,-1.71,240,302,403,471,307,17
501,0.91,-0.35,0.25,0.18,-3.3,-2.08,240,302,402,473,303,17
502,0.91,-0.35,0.26,0.55,-3.3,-2.38,237,299,405,468,309,17
503,0.91,-0.35,0.26,1.59,-2.81,-2.26,241,301,402,475,307,17
504,0.9,-0.35,0.26,0.85,-3.36,-2.08,246,301,400,472,303,17
505,0.9,-0.36,0.26,-0.49,-3.54,-2.75,240,312,405,474,309,17
506,0.9,-0.36,0.27,0.49,-3.48,-2.2,240,304,405,473,302,17
507,0.9,-0.36,0.26,0.31,-2.44,-2.32,239,303,405,472,302,17
508,0.9,-0.36,0.26,-0.49,-3.78,-2.14,238,303,401,470,307,17
509,0.9,-0.36,0.25,0.31,-2.62,-2.69,242,301,401,470,302,17
510,0.94,-0.29,0.23,0.85,-2.5,-3.05,283,257,447,456,295,17
511,0.94,-0.28,0.26,0.73,-2.08,-4.94,280,256,450,452,290,17
512,0.94,-0.27,0.25,0.0,-0.67,-3.23,282,261,447,455,287,17
513,0.94,-0.27,0.25,2.32,-3.42,-1.53,283,255,448,457,295,17
514,0.94,-0.26,0.25,4.46,-5.8,-4.09,288,256,445,462,295,17
515,0.95,-0.25,0.22,2.93,-2.93,-2.75,288,259,445,459,296,17
516,0.94,-0.25,0.25,1.53,-3.36,-1.95,292,267,442,458,293,17
517,0.95,-0.25,0.24,-2.01,-3.48,-2.99,296,257,445,457,293,17
518,0.95,-0.26,0.21,0.85,-2.93,-3.36,294,257,439,455,296,17
519,0.95,-0.26,0.25,3.54,-3.23,-0.85,294,260,441,468,291,17
520,0.94,-0.27,0.23,0.43,-3.72,-1.04,295,261,439,459,298,17
521,0.95,-0.26,0.24,-2.14,-3.85,-4.21,298,261,434,464,296,17
522,0.94,-0.27,0.23,1.65,-1.95,-2.44,296,262,437,456,297,17
523,0.95,-0.26,0.24,2.01,-3.48,-1.59,294,259,440,461,298,17
524,0.93,-0.28,0.24,0.12,-2.01,-1.28,295,261,443,461,295,17
525,0.94,-0.28,0.25,0.18,-2.69,-2.14,298,257,437,456,289,17
526,0.94,-0.27,0.24,1.65,-3.48,-2.75,295,264,448,457,293,17
527,0.94,-0.26,0.26,1.16,-2.93,-3.23,293,263,437,461,299,17
528,0.95,-0.29,0.24,-0.43,-4.33,-0.12,294,267,439,459,294,17
529,0.93,-0.28,0.26,4.15,-3.23,-2.14,295,259,437,457,292,17
530,0.95,-0.26,0.23,1.22,-3.6,-4.94,294,263,429,456,295,17
531,0.96,-0.25,0.23,2.5,-2.56,-1.65,291,262,439,456,301,17
532,0.96,-0.24,0.25,0.92,-4.27,-2.87,295,259,440,452,300,17
533,0.95,-0.25,0.23,-0.85,-2.69,-3.23,291,262,435,456,296,17
534,0.96,-0.24,0.25,2.38,-1.65,-2.99,293,255,433,459,299,17
535,0.95,-0.25,0.21,1.22,-4.21,-2.99,289,264,434,461,296,17
536,0.94,-0.25,0.24,2.26,-2.08,-2.08,291,268,436,458,302,17
537,0.94,-0.24,0.25,0.61,-2.38,-1.83,291,268,431,460,299,17
538,0.94,-0.25,0.25,-5.0,-2.32,-2.08,294,262,431,462,301,17
539,0.93,-0.26,0.24,0.67,-2.81,-1.77,292,269,431,456,301,17
540,0.95,-0.27,0.25,-1.34,-3.23,-2.2,292,259,433,470,302,17
541,0.94,-0.27,0.26,-5.92,-2.75,-2.2,330,265,432,462,298,17
542,0.94,-0.28,0.21,3.23,-6.04,0.49,294,261,435,457,300,17
543,0.94,-0.28,0.23,-4.82,-3.36,-4.33,294,263,430,458,296,17
544,0.95,-0.27,0.2,1.65,-4.58,-4.21,292,260,431,466,295,17
545,0.94,-0.26,0.21,4.46,-1.95,-4.09,295,265,429,459,295,17
546,0.95,-0.24,0.24,3.48,-1.95,-3.42,291,263,432,461,300,17
547,0.95,-0.25,0.24,2.93,-1.53,-2.32,320,260,434,457,300,17
548,0.95,-0.23,0.26,0.49,-3.3,-1.77,293,267,429,457,303,17
549,0.94,-0.26,0.23,-2.08,-2.99,-1.04,295,265,425,457,303,17
550,0.95,-0.25,0.26,1.1,-3.11,-2.99,291,262,427,462,301,17
551,0.95,-0.25,0.25,-0.73,-2.44,-2.99,293,265,427,461,300,17
552,0.93,-0.27,0.24,-1.28,-2.01,-3.78,291,267,426,461,298,17
553,0.95,-0.26,0.25,-0.67,-2.81,-0.67,293,268,425,460,302,17
554,0.93,-0.25,0.27,5.13,-2.26,-3.48,289,264,428,464,301,17
555,0.94,-0.24,0.28,4.64,-2.08,-2.44,290,262,424,457,302,17
556,0.94,-0.25,0.26,-4.64,-2.87,-2.2,297,265,423,456,297,17
557,0.94,-0.25,0.27,4.09,-1.89,-0.67,295,265,425,460,304,17
558,0.94,-0.24,0.28,1.34,-3.6,-3.72,293,254,427,459,303,17
559,0.94,-0.24,0.27,-1.59,-2.87,-2.26,296,269,428,460,305,17
560,0.95,-0.26,0.25,0.98,-3.3,-1.4,292,258,422,458,303,17
561,0.93,-0.27,0.26,-0.92,-3.11,-1.22,297,265,427,459,299,17
562,0.94,-0.26,0.27,-1.89,-3.6,-3.05,298,263,430,460,304,17
563,0.93,-0.26,0.26,1.77,-2.75,-2.32,298,262,425,461,297,17
564,0.93,-0.26,0.26,-1.28,-2.81,-2.69,293,263,423,456,299,17
565,0.95,-0.26,0.26,-1.22,-3.36,-2.44,294,267,426,458,301,17
566,0.94,-0.26,0.27,0.12,-2.99,-2.5,289,267,426,454,300,17
567,0.94,-0.27,0.25,0.37,-2.38,-2.08,295,265,427,460,303,17
568,0.93,-0.28,0.26,0.67,-3.05,-1.46,293,265,419,462,303,17
569,0.92,-0.28,0.26,3.17,-3.66,-2.69,293,264,426,460,305,17
570,0.94,-0.27,0.25,0.43,-4.15,-3.72,293,265,424,469,300,17
571,0.94,-0.26,0.25,0.12,-3.85,-3.11,294,265,423,455,302,17
572,0.94,-0.27,0.24,-1.65,-3.3,-2.38,294,267,432,462,298,17
573,0.93,-0.26,0.25,-0.49,-2.5,-3.05,294,269,422,462,306,17
574,0.94,-0.27,0.25,0.61,-2.99,-2.56,291,266,425,462,306,17
575,0.94,-0.27,0.25,0.73,-2.62,-2.62,293,268,422,458,301,17
576,0.94,-0.28,0.25,0.31,-2.62,-1.65,294,264,420,456,299,17
577,0.93,-0.28,0.25,0.43,-2.99,-1.77,294,262,422,459,302,17
578,0.93,-0.27,0.25,0.92,-3.48,-3.42,295,265,424,461,299,17
579,0.94,-0.27,0.24,0.37,-2.87,-3.17,292,265,423,459,301,17
580,0.94,-0.27,0.25,0.24,-1.95,-2.99,297,258,425,461,298,17
581,0.95,-0.27,0.24,1.04,-2.56,-2.75,293,260,423,463,302,17
582,0.94,-0.27,0.25,1.04,-3.11,-2.75,295,265,422,456,299,17
583,0.93,-0.27,0.25,0.31,-2.93,-2.75,283,256,426,453,301,17
584,0.94,-0.27,0.25,0.49,-3.48,-2.38,294,270,421,460,299,17
585,0.92,-0.29,0.22,0.67,-4.52,0.61,294,267,425,454,295,17
586,0.97,-0.26,0.31,-3.6,7.02,-11.29,294,265,422,458,297,17
587,1.0,-0.12,0.2,3.66,-15.99,-10.86,288,265,420,458,303,17
588,0.94,-0.24,0.2,-12.7,-11.41,-9.28,292,278,418,456,302,17
589,0.97,-0.19,0.19,-0.24,-6.9,-0.12,290,258,426,459,303,17
590,0.94,-0.19,0.17,3.3,0.92,-7.69,296,268,423,463,310,17
591,0.98,-0.16,0.22,7.45,1.71,-3.6,293,261,421,461,302,17
592,0.96,-0.17,0.2,5.98,-0.92,-2.38,293,265,421,455,303,17
593,0.95,-0.18,0.27,-8.42,-0.73,3.97,294,263,417,459,308,17
594,0.98,-0.2,0.21,-0.79,-5.92,0.98,317,262,420,457,302,17
595,0.95,-0.24,0.2,-3.54,-3.91,0.49,292,265,419,462,302,17
596,0.95,-0.25,0.21,2.32,-2.56,-1.59,295,262,415,460,301,17
597,0.96,-0.24,0.21,-0.43,-3.23,-1.28,291,255,418,461,303,17
598,0.95,-0.26,0.21,-0.61,-2.69,-1.34,288,266,421,456,304,17
599,0.95,-0.26,0.22,2.26,-3.36,-1.4,294,263,421,454,305,17
600,0.95,-0.27,0.21,-0.73,-2.32,-2.81,295,262,417,466,306,17
601,0.94,-0.27,0.23,0.85,-3.23,-3.72,291,266,414,461,303,17
602,0.95,-0.26,0.22,-0.61,-3.78,-2.14,290,265,414,453,304,17
603,0.95,-0.27,0.21,3.6,-2.5,-1.89,296,266,419,457,305,17
604,0.95,-0.26,0.23,-2.08,-3.72,-3.05,295,264,418,454,297,17
605,0.96,-0.26,0.22,0.49,-2.32,-2.87,293,267,421,461,302,17
606,0.94,-0.26,0.22,0.0,-2.81,-2.75,293,263,421,460,302,17
607,0.95,-0.27,0.22,-0.24,-1.95,-2.08,319,262,411,459,306,17
608,0.93,-0.28,0.22,-0.49,-4.03,0.43,294,264,415,462,300,17
609,0.94,-0.29,0.23,-1.46,-3.78,-1.4,292,262,416,460,303,17
610,0.94,-0.29,0.22,-1.1,-2.2,-2.99,294,266,416,458,304,17
611,0.94,-0.29,0.22,0.18,-3.17,-3.11,292,265,414,462,305,17
612,0.93,-0.29,0.22,1.89,-3.54,-2.56,292,264,419,459,301,17
613,0.93,-0.3,0.2,-1.28,-3.11,-2.44,296,258,416,460,303,17
614,0.94,-0.3,0.21,-0.24,-3.66,-2.75,293,266,421,459,296,17
615,0.94,-0.3,0.21,-2.32,-3.72,-1.1,293,266,417,455,304,17
616,0.93,-0.31,0.19,-0.67,-2.08,-3.85,297,267,421,456,298,17
617,0.95,-0.31,0.21,0.43,-4.09,-2.75,280,266,416,457,301,17
618,0.94,-0.31,0.18,1.28,-3.23,-2.81,294,266,414,461,293,17
619,0.94,-0.3,0.2,2.01,-2.44,-2.62,295,263,414,460,306,17
620,0.93,-0.3,0.22,1.4,-2.69,-1.95,292,267,420,462,296,17
621,0.94,-0.31,0.2,-0.06,-2.01,-2.62,292,264,411,461,306,17
622,0.94,-0.31,0.22,5.49,-1.34,-1.65,292,265,412,465,307,17
623,0.93,-0.3,0.24,-1.59,-2.44,-1.04,292,263,410,461,302,17
624,0.93,-0.31,0.23,-1.04,-2.5,-1.65,289,261,418,460,303,17
625,0.93,-0.32,0.22,0.55,-2.32,-3.6,292,265,417,456,301,17
626,0.92,-0.31,0.24,0.79,-2.01,-3.36,293,262,416,459,303,17
627,0.93,-0.31,0.24,1.59,-2.87,-1.83,294,269,417,455,303,17
628,0.92,-0.32,0.23,1.4,-2.62,-2.14,294,270,414,456,314,17
629,0.92,-0.31,0.23,0.67,-2.44,-2.38,293,264,417,459,303,17
630,0.93,-0.31,0.23,-0.43,-3.17,-2.2,292,267,412,464,306,17
631,0.93,-0.32,0.23,-0.43,-3.36,-2.38,293,261,417,461,297,17
632,0.92,-0.32,0.24,1.46,-2.69,-1.65,293,265,415,460,304,17
633,0.93,-0.32,0.23,-1.4,-2.93,-1.83,287,272,413,461,305,17
634,0.92,-0.33,0.24,1.34,-3.11,-2.32,295,262,416,465,304,17
635,0.92,-0.32,0.24,-0.92,-1.71,-2.69,295,267,415,461,302,17
636,0.93,-0.32,0.24,-0.85,-2.38,-2.81,314,268,413,461,300,17
637,0.93,-0.33,0.24,-0.55,-1.77,-2.2,289,264,415,461,305,17
638,0.92,-0.33,0.24,-0.12,-2.75,-2.2,294,269,417,463,306,17
639,0.91,-0.33,0.25,1.1,-2.44,-2.14,293,265,417,463,304,17
640,0.92,-0.33,0.24,0.55,-2.01,-2.81,298,264,411,459,304,17
641,0.92,-0.33,0.26,0.85,-3.11,-1.22,294,270,414,466,307,17
642,0.92,-0.34,0.23,-1.89,-3.48,-0.85,294,263,409,460,303,17
643,0.9,-0.36,0.23,3.05,0.98,-1.53,289,266,411,460,300,17
644,0.88,-0.37,0.24,-2.62,-2.69,-3.48,293,269,413,456,303,17
645,0.93,-0.35,0.26,3.42,1.46,-0.98,293,263,414,464,302,17
646,0.89,-0.35,0.28,0.79,-5.55,-0.37,294,262,411,463,303,17
647,0.9,-0.37,0.29,0.61,-1.28,2.5,290,262,412,460,304,17
648,0.92,-0.37,0.3,4.39,-4.27,-0.61,290,262,415,456,304,17
649,0.89,-0.39,0.27,-0.98,-2.56,-4.03,291,267,410,464,305,17
650,0.94,-0.34,0.28,8.12,-5.68,-6.16,289,260,409,472,306,17
651,0.93,-0.34,0.29,-3.23,6.16,-5.07,294,266,412,464,302,17
652,0.88,-0.39,0.28,-0.49,-4.09,5.07,290,267,413,456,300,17
653,0.84,-0.38,0.25,0.37,-7.26,-2.01,296,264,409,464,302,17
654,0.9,-0.37,0.28,-0.37,-6.04,-6.9,294,262,413,461,304,17
655,0.92,-0.37,0.24,-3.85,-4.46,-7.32,293,260,415,462,303,17
656,0.94,-0.31,0.25,-3.36,-4.58,-7.93,293,271,413,460,304,17
657,0.92,-0.31,0.24,-5.13,-2.2,-5.8,295,264,414,461,300,17
658,0.94,-0.29,0.25,-2.62,-2.08,-5.19,290,267,412,465,304,17
659,0.94,-0.29,0.24,1.89,-2.87,-3.17,290,265,409,458,300,17
660,0.93,-0.29,0.22,-0.73,-3.6,-2.44,293,267,413,461,304,17
661,0.94,-0.28,0.25,4.52,-3.54,-1.53,291,276,412,457,305,17
662,0.93,-0.3,0.23,1.34,-3.91,-1.34,293,259,427,457,305,17
663,0.93,-0.29,0.25,2.99,-3.6,-1.83,292,264,412,459,305,17
664,0.93,-0.3,0.23,3.66,-4.52,-2.5,290,264,414,458,307,17
665,0.93,-0.3,0.23,-3.54,-5.86,-5.25,293,270,412,462,302,17
666,0.93,-0.3,0.2,-1.04,-2.01,-3.6,290,266,410,461,307,17
667,0.93,-0.3,0.18,-1.77,-4.27,-2.08,294,259,410,456,300,17
668,0.94,-0.29,0.23,-2.62,-2.5,-2.69,299,263,411,455,304,17
669,0.93,-0.3,0.2,-3.05,-2.56,-3.11,293,264,412,459,300,17
670,0.95,-0.35,0.2,0.0,-3.48,2.2,288,259,409,463,304,17
671,0.93,-0.33,0.23,5.0,-3.11,-4.03,287,256,412,461,301,17
672,0.95,-0.32,0.2,4.64,-4.27,-2.44,290,265,412,463,304,17
673,0.92,-0.33,0.21,-3.11,-3.36,-1.4,298,271,412,465,298,17
674,0.93,-0.34,0.19,0.0,-3.36,-2.38,289,257,413,462,301,17
675,0.92,-0.34,0.21,-1.16,-1.59,-0.06,282,268,409,462,299,17
676,0.91,-0.37,0.18,-1.95,-3.78,-2.69,287,268,411,466,305,17
677,0.94,-0.35,0.17,0.24,-8.42,-6.84,290,272,411,455,309,17
678,0.91,-0.35,0.22,0.73,-1.1,-1.16,303,265,411,460,300,17
679,0.94,-0.32,0.19,2.81,-2.08,-2.26,292,270,408,467,302,17
680,0.93,-0.34,0.19,-3.48,-2.5,-1.89,296,265,410,456,299,17
681,0.91,-0.35,0.2,3.85,-2.93,-2.08,293,265,410,458,303,17
682,0.92,-0.34,0.22,0.12,-2.69,-2.38,292,267,414,464,303,17
683,0.94,-0.33,0.2,1.22,-3.48,-3.48,289,268,408,464,306,17
684,0.93,-0.34,0.19,-1.22,-2.69,-2.69,287,264,411,456,305,17
685,0.92,-0.34,0.2,0.24,-2.01,-2.99,290,268,413,462,305,17
686,0.93,-0.33,0.2,-0.85,-2.75,-2.56,292,267,411,458,307,17
687,0.93,-0.35,0.2,-3.11,-2.5,-1.71,297,266,411,461,305,17
688,0.9,-0.37,0.17,8.54,-4.03,-6.23,295,264,408,462,297,17
689,0.91,-0.34,0.16,-2.69,-5.8,-8.85,303,264,407,460,305,17
690,0.97,-0.3,0.18,0.73,-1.77,-5.25,295,267,410,455,304,17
691,0.96,-0.34,0.23,-0.31,5.31,-1.77,287,263,406,466,305,17
692,0.93,-0.33,0.21,-3.05,0.0,-2.01,295,268,410,465,308,17
693,0.85,-0.31,0.21,-14.71,-5.25,-7.75,291,264,412,457,305,17
694,0.95,-0.29,0.23,-2.2,-2.26,-4.15,289,262,412,461,305,17
695,1.03,-0.3,0.28,7.57,1.95,-3.6,293,268,412,456,315,17
696,0.95,-0.29,0.19,-7.45,-10.19,-7.2,288,268,407,463,306,17
697,0.95,-0.28,0.22,5.74,-0.24,3.85,294,264,405,460,303,17
698,0.9,-0.29,0.24,-4.15,-1.16,-1.04,292,265,409,462,306,17
699,0.94,-0.29,0.23,5.37,-2.69,-2.93,292,269,408,460,303,17
700,0.94,-0.29,0.23,2.08,-3.78,-1.53,294,267,411,459,307,17
701,0.93,-0.28,0.24,0.31,-3.36,-3.3,290,267,407,460,302,17
702,0.94,-0.28,0.24,-1.16,-2.26,-1.53,286,258,408,464,307,17
703,0.94,-0.29,0.24,-0.06,-2.5,-3.42,292,264,404,459,302,17
704,0.94,-0.29,0.26,0.55,-2.56,-2.38,294,270,406,461,306,17
705,0.93,-0.28,0.25,1.4,-2.75,-2.75,295,266,409,464,306,17
706,0.92,-0.28,0.25,0.92,-2.93,-2.14,294,266,409,465,307,17
707,0.95,-0.28,0.24,-0.73,-3.36,-2.01,293,267,406,456,301,17
708,0.94,-0.27,0.24,0.06,-3.3,-2.93,291,267,406,459,305,17
709,0.94,-0.28,0.24,0.61,-3.23,-2.62,296,268,404,463,309,17
710,0.94,-0.28,0.23,-0.73,-2.99,-3.05,294,266,405,460,307,17
711,0.93,-0.29,0.24,1.53,-4.27,-1.16,294,263,408,455,313,17
712,0.93,-0.28,0.24,-0.55,-2.5,-1.83,293,270,407,464,309,17
713,0.93,-0.29,0.24,0.98,-2.38,-2.56,294,270,413,459,308,17
714,0.93,-0.28,0.23,1.65,-2.69,-3.17,291,266,405,455,315,17
715,0.93,-0.28,0.23,-0.31,-3.42,-2.2,299,268,407,462,306,17
716,0.94,-0.28,0.22,-0.67,-2.38,-4.27,296,262,407,455,305,17
717,0.94,-0.28,0.23,3.48,-2.26,-2.5,289,267,407,465,306,17
718,0.94,-0.27,0.26,-0.43,-1.77,-3.05,290,265,407,464,299,17
719,0.93,-0.28,0.25,-0.43,-3.72,-1.83,295,266,409,465,307,17
720,0.93,-0.28,0.25,1.46,-3.48,-3.3,301,269,403,464,307,17
721,0.94,-0.27,0.24,-0.85,-2.75,-2.5,290,265,405,460,307,17
722,0.94,-0.28,0.24,0.12,-2.32,-2.44,294,264,404,456,305,17
723,0.93,-0.27,0.24,0.24,-2.5,-3.17,282,263,407,461,307,17
724,0.94,-0.28,0.24,1.77,-2.87,-2.14,292,266,403,459,306,17
725,0.94,-0.27,0.27,0.0,-1.77,-2.32,292,268,406,456,305,17
726,0.94,-0.26,0.26,0.12,-2.99,-2.87,293,261,406,460,310,17
727,0.93,-0.26,0.26,-2.5,-3.42,-2.5,299,269,405,459,303,17
728,0.93,-0.27,0.26,0.49,-3.66,-1.89,290,266,407,462,308,17
729,0.94,-0.27,0.25,0.49,-2.5,-2.75,291,271,403,456,303,17
730,0.94,-0.26,0.24,1.53,-2.62,-2.99,293,263,407,461,305,17
731,0.93,-0.26,0.25,1.22,-2.44,-2.62,295,269,408,462,307,17
732,0.94,-0.26,0.24,1.53,-3.05,-2.87,294,269,405,456,305,17
733,0.94,-0.27,0.23,-1.65,-2.69,-2.93,292,265,408,462,304,17
734,0.94,-0.27,0.25,0.98,-2.01,-2.2,296,267,405,456,308,17
735,0.94,-0.26,0.25,-1.22,-3.11,-2.5,292,266,406,464,304,17
736,0.94,-0.26,0.25,-0.06,-3.3,-2.81,295,266,408,461,306,17
737,0.94,-0.26,0.26,-2.2,-3.91,-2.93,284,265,401,460,300,17
738,0.94,-0.26,0.24,4.52,-1.83,-1.59,295,262,403,457,303,17
739,0.94,-0.26,0.23,-1.04,-3.11,-3.23,296,266,406,463,303,17
740,0.94,-0.26,0.25,2.01,-3.11,-2.2,293,260,404,457,310,17
741,0.94,-0.27,0.24,0.06,-2.26,-2.99,294,269,401,459,305,17
742,0.94,-0.26,0.24,0.67,-3.17,-2.26,295,266,405,455,306,17
743,0.94,-0.27,0.25,0.61,-3.85,-2.44,290,267,404,459,308,17
744,0.94,-0.25,0.26,3.91,-3.05,-0.79,289,268,407,460,306,17
745,0.94,-0.26,0.24,0.49,-2.62,-3.36,288,268,400,456,305,17
746,0.95,-0.25,0.25,0.79,-3.42,-3.6,294,267,406,460,305,17
747,0.95,-0.25,0.25,-1.71,-2.99,-3.54,294,271,403,462,307,17
748,0.95,-0.25,0.23,-0.61,-2.99,-2.26,294,266,405,464,305,17
749,0.94,-0.26,0.24,-2.69,-3.42,-1.83,294,265,405,463,304,17
750,0.95,-0.26,0.24,1.59,-2.69,-1.77,293,266,402,460,304,17
751,0.94,-0.26,0.25,1.77,-3.23,-1.4,291,271,404,465,306,17
752,0.92,-0.28,0.24,0.98,-1.22,-2.81,294,273,403,461,305,17
753,0.94,-0.27,0.26,0.0,-2.32,-2.14,294,264,405,457,304,17
754,0.95,-0.26,0.25,2.56,-3.48,-2.01,292,274,405,457,304,17
755,0.94,-0.26,0.24,-2.2,-4.46,-2.62,294,269,398,461,308,17
756,0.95,-0.26,0.25,0.06,-3.42,-2.87,289,266,399,455,307,17
757,0.95,-0.26,0.22,1.1,-3.78,-1.83,289,264,405,463,304,17
758,0.95,-0.27,0.22,-0.12,-2.32,-2.44,294,265,405,460,307,17
759,0.94,-0.26,0.25,0.06,-2.5,-2.26,292,268,405,459,307,17
760,0.94,-0.27,0.25,-0.06,-2.5,-4.09,294,270,403,464,305,17
761,0.94,-0.25,0.26,0.79,-2.62,-3.85,295,260,402,459,307,17
762,0.93,-0.25,0.27,-0.06,-3.3,-2.38,290,264,404,464,307,17
763,0.94,-0.25,0.26,0.79,-4.39,-2.08,296,269,405,458,306,17
764,0.95,-0.25,0.22,-1.89,-3.97,-2.14,294,265,401,455,307,17
765,0.95,-0.26,0.23,1.1,-2.93,-2.5,291,266,403,460,304,17
766,0.95,-0.25,0.23,0.06,-3.11,-3.3,296,270,403,459,309,17
767,0.94,-0.26,0.24,-0.06,-2.93,-1.28,293,267,404,458,308,17
768,0.94,-0.25,0.23,1.95,-2.32,-3.23,294,266,405,460,306,17
769,0.94,-0.25,0.24,1.59,-3.05,-2.69,296,267,403,456,309,17
770,0.94,-0.26,0.25,2.08,-2.81,-2.01,291,270,402,462,314,17
771,0.93,-0.26,0.25,-0.55,-3.3,-2.5,291,268,402,459,308,17
772,0.94,-0.26,0.24,0.31,-3.97,-2.5,296,269,406,463,306,17
773,0.94,-0.26,0.24,-1.95,-2.99,-2.32,296,266,398,463,308,17
774,0.95,-0.27,0.23,0.92,-3.42,-2.08,291,268,403,460,308,17
775,0.94,-0.26,0.24,0.0,-2.81,-3.17,289,265,402,460,308,17
776,0.94,-0.25,0.24,2.01,-3.23,-2.5,292,269,401,455,309,17
777,0.95,-0.26,0.24,2.32,-2.69,-2.26,295,268,395,458,308,17
778,0.94,-0.26,0.25,2.14,-2.5,-2.01,292,266,403,460,311,17
779,0.94,-0.26,0.25,0.55,-2.87,-2.75,292,265,401,459,309,17
780,0.95,-0.26,0.24,0.79,-3.72,-3.17,294,270,401,454,309,17
781,0.95,-0.26,0.23,-0.06,-3.11,-2.62,290,269,404,454,310,17
782,0.93,-0.25,0.25,-1.95,-3.66,-3.05,292,272,400,457,310,17
783,0.94,-0.25,0.24,0.92,-2.14,-2.56,293,269,398,463,302,17
784,0.94,-0.26,0.24,-0.55,-2.81,-1.89,316,268,405,463,306,17
785,0.94,-0.26,0.25,-0.24,-3.11,-1.83,284,270,400,463,311,17
786,0.95,-0.26,0.23,2.01,-2.81,-2.69,294,271,403,460,308,17
787,0.94,-0.26,0.25,0.92,-2.81,-2.56,292,269,403,461,310,17
788,0.95,-0.26,0.25,-0.67,-3.66,-2.01,293,268,402,466,310,17
789,0.94,-0.25,0.25,-0.24,-3.85,-2.2,296,272,397,462,310,17
790,0.94,-0.26,0.23,-0.85,-4.15,-2.38,328,263,398,460,311,17
791,0.95,-0.26,0.23,0.18,-2.44,-2.69,291,272,402,455,310,17
792,0.95,-0.27,0.24,1.71,-1.59,-2.87,293,269,398,462,308,17
793,0.94,-0.26,0.24,1.4,-3.11,-2.32,292,269,399,459,310,17
794,0.94,-0.26,0.24,0.24,-2.44,-2.87,291,272,400,459,312,17
795,0.94,-0.27,0.23,1.59,-3.85,-2.75,292,271,399,461,312,17
796,0.94,-0.26,0.25,1.04,-3.23,-2.2,292,269,402,460,307,17
797,0.94,-0.27,0.24,-1.46,-2.26,-2.99,296,272,399,464,312,17
798,0.94,-0.27,0.25,-0.12,-2.99,-2.26,293,266,403,466,312,17
799,0.93,-0.27,0.25,-1.46,-3.97,-0.98,298,273,401,461,306,17
800,0.93,-0.28,0.23,0.12,-1.83,-2.5,292,266,405,467,304,17
801,0.93,-0.29,0.23,-0.67,-2.75,-3.05,296,270,406,462,308,17
802,0.94,-0.29,0.24,1.95,-2.26,-2.99,292,268,417,466,311,17
803,0.93,-0.29,0.25,0.98,-2.14,-1.34,296,269,402,456,310,17
804,0.93,-0.29,0.25,2.93,-3.17,-3.78,296,271,407,462,309,17
805,0.94,-0.28,0.23,-0.12,-2.56,-5.49,294,270,403,461,309,17
806,0.94,-0.28,0.25,2.14,-3.42,-2.5,293,268,403,458,308,17
807,0.93,-0.27,0.26,-2.5,-2.75,-0.49,291,265,404,461,311,17
808,0.9,-0.27,0.23,-1.04,-4.09,-1.77,296,271,403,465,312,17
809,0.95,-0.27,0.25,-2.5,-2.99,-5.13,292,270,401,464,311,17
810,0.93,-0.27,0.25,7.32,-2.38,-2.44,297,270,401,460,310,17
811,0.94,-0.28,0.26,1.1,-2.38,-1.22,293,270,402,458,310,17
812,0.94,-0.29,0.25,2.62,-2.75,-0.98,294,271,401,467,306,17
813,0.92,-0.29,0.26,-1.16,-3.17,-1.59,297,270,404,464,321,17
814,0.94,-0.27,0.24,3.91,-4.7,-6.65,292,270,402,464,312,17
815,0.93,-0.27,0.27,-1.59,-1.4,-1.71,293,284,402,463,305,17
816,0.93,-0.26,0.22,-7.75,-3.17,-3.54,294,268,406,465,310,17
817,0.97,-0.27,0.23,-1.59,-0.43,-5.13,295,265,400,462,312,17
818,0.94,-0.26,0.26,10.5,-1.83,1.04,293,264,401,467,311,17
819,0.93,-0.28,0.24,2.26,-7.14,3.36,286,272,403,461,310,17
820,0.96,-0.32,0.22,-2.69,-2.93,-5.92,292,268,406,461,308,17
821,0.95,-0.3,0.19,3.42,-4.21,-3.78,295,273,402,462,309,17
822,0.94,-0.3,0.21,-3.36,-1.04,-4.39,296,264,403,458,309,17
823,0.94,-0.29,0.21,0.67,-2.44,-5.19,295,270,402,460,312,17
824,0.95,-0.28,0.21,0.37,-2.56,-2.56,296,270,403,460,308,17
825,0.94,-0.28,0.21,1.53,-2.87,-3.3,288,267,403,464,310,17
826,0.95,-0.29,0.22,2.14,-2.44,-2.01,293,262,401,464,311,17
827,0.94,-0.28,0.22,-0.18,-2.08,-2.75,292,272,398,464,311,17
828,0.94,-0.28,0.21,-1.22,-2.69,-3.48,295,271,403,465,314,17
829,0.94,-0.28,0.21,0.37,-2.62,-2.14,294,268,403,458,310,17
830,0.94,-0.28,0.21,-0.61,-2.87,-2.44,321,269,401,456,312,17
831,0.94,-0.27,0.23,-1.04,-1.89,-3.3,287,271,405,465,311,17
832,0.95,-0.27,0.22,1.04,-2.56,-3.36,294,262,403,470,310,17
833,0.95,-0.27,0.22,-0.18,-2.81,-3.48,295,272,405,461,311,17
834,0.94,-0.27,0.22,1.04,-2.81,-1.89,294,268,402,457,311,17
835,0.94,-0.28,0.21,3.23,-3.11,-2.81,296,271,399,464,307,17
836,0.95,-0.26,0.22,1.89,-3.11,-2.14,292,272,405,465,306,17
837,0.95,-0.26,0.22,1.22,-3.6,-3.3,290,270,398,465,309,17
838,0.95,-0.26,0.22,0.98,-3.42,-2.32,297,273,400,466,306,17
839,0.95,-0.25,0.22,0.24,-3.42,-3.23,295,267,402,458,309,17
840,0.96,-0.26,0.21,0.67,-2.93,-2.01,296,270,400,463,314,17
841,0.95,-0.26,0.22,0.43,-2.75,-2.26,290,265,401,464,313,17
842,0.94,-0.27,0.22,0.49,-2.62,-1.28,296,270,399,461,314,17
843,0.95,-0.26,0.21,0.24,-3.3,-1.89,296,267,399,462,316,17
844,0.94,-0.26,0.22,-0.49,-2.75,-2.56,293,268,399,462,313,17
845,0.94,-0.27,0.22,0.37,-3.05,-3.36,294,267,400,461,311,17
846,0.95,-0.26,0.23,0.06,-3.11,-2.81,293,268,401,464,310,17
847,0.93,-0.25,0.21,-1.95,-3.23,-3.11,294,269,399,465,312,17
848,0.97,-0.25,0.23,1.22,-3.11,-3.05,294,269,404,462,312,17
849,0.94,-0.25,0.22,0.31,-3.11,-1.46,295,267,402,463,310,17
850,0.94,-0.26,0.21,0.31,-2.56,-2.38,295,267,401,456,313,17
851,0.96,-0.26,0.22,-0.12,-2.69,-0.92,293,270,397,464,309,17
852,0.94,-0.26,0.22,1.77,-2.69,-2.08,300,266,399,464,312,17
853,0.94,-0.25,0.22,2.26,-2.5,-2.38,288,264,401,457,312,17
854,0.95,-0.27,0.22,1.65,-2.87,-1.77,294,270,401,463,313,17
855,0.94,-0.26,0.23,0.18,-3.36,-1.77,296,270,397,459,311,17
856,0.95,-0.27,0.22,-0.67,-3.23,-1.65,297,267,399,461,312,17
857,0.95,-0.27,0.23,0.24,-2.75,-2.32,293,266,401,465,311,17
858,0.93,-0.28,0.23,0.18,-2.87,-1.22,291,266,398,464,312,17
859,0.94,-0.28,0.23,0.12,-2.32,-2.62,294,273,403,461,315,17
860,0.95,-0.27,0.23,-0.12,-2.5,-2.75,295,271,400,458,311,17
861,0.94,-0.27,0.22,0.98,-3.3,-3.36,293,271,402,458,313,17
862,0.94,-0.26,0.23,1.89,-3.05,-2.38,294,270,396,458,309,17
863,0.95,-0.27,0.23,1.1,-3.23,-1.83,293,268,401,462,311,17
864,0.94,-0.27,0.21,0.12,-3.23,-2.87,294,270,398,462,313,17
865,0.95,-0.27,0.21,-0.73,-3.54,-2.69,296,272,401,463,312,17
866,0.94,-0.27,0.21,-0.98,-2.99,-3.17,296,272,399,464,309,17
867,0.95,-0.26,0.21,-0.31,-2.93,-3.17,295,269,399,462,315,17
868,0.95,-0.27,0.22,0.85,-2.87,-2.2,291,268,403,460,314,17
869,0.94,-0.27,0.22,0.31,-2.38,-2.69,295,261,403,466,316,17
870,0.94,-0.27,0.22,2.81,-2.2,-2.93,294,267,400,463,313,17
871,0.94,-0.27,0.24,0.49,-2.87,-1.71,296,272,400,460,315,17
872,0.94,-0.26,0.24,-0.12,-2.93,-2.75,296,268,396,462,315,17
873,0.95,-0.26,0.23,0.85,-3.78,-2.81,295,270,400,461,315,17
874,0.95,-0.26,0.21,1.04,-3.42,-2.5,292,267,398,460,308,17
875,0.95,-0.26,0.22,0.06,-2.62,-2.75,296,270,403,460,322,17
876,0.94,-0.27,0.22,-0.37,-1.95,-2.2,290,269,401,459,312,17
877,0.95,-0.26,0.24,0.61,-2.08,-2.56,294,266,399,462,312,17
878,0.93,-0.27,0.23,-0.67,-3.11,-1.95,294,274,412,461,316,17
879,0.94,-0.27,0.22,-0.18,-3.3,-2.56,295,264,398,466,311,17
880,0.95,-0.27,0.23,1.53,-2.87,-2.26,296,269,395,465,315,17
881,0.94,-0.26,0.24,1.16,-2.99,-3.36,299,269,400,464,317,17
882,0.94,-0.26,0.24,1.1,-2.87,-3.85,297,272,404,462,316,17
883,0.95,-0.26,0.22,-1.4,-3.3,-3.54,293,268,401,460,312,17
884,0.95,-0.25,0.22,-0.12,-3.78,-3.36,295,271,399,463,313,17
885,0.95,-0.25,0.21,-0.92,-3.11,-3.17,331,270,412,464,316,17
886,0.95,-0.24,0.22,-0.31,-2.56,-2.56,294,273,402,461,317,17
887,0.95,-0.25,0.22,-1.34,-2.62,-2.5,294,273,400,463,317,17
888,0.95,-0.25,0.22,0.43,-2.56,-2.5,290,273,400,461,316,17
889,0.96,-0.24,0.21,0.37,-2.5,-2.81,299,272,402,460,316,17
890,0.95,-0.25,0.23,1.59,-3.6,-1.83,293,268,400,462,315,17
891,0.95,-0.24,0.23,-0.24,-2.87,-2.69,296,272,399,466,317,17
892,0.95,-0.25,0.22,0.18,-3.36,-2.81,297,270,398,462,315,17
893,0.95,-0.25,0.23,-0.37,-2.69,-2.38,297,273,400,467,317,17
894,0.95,-0.25,0.23,0.73,-2.44,-2.81,294,274,396,458,316,17
895,0.95,-0.25,0.23,-1.59,-2.38,-1.65,295,271,402,460,317,17
896,0.95,-0.26,0.23,0.37,-2.75,-2.62,293,273,399,464,315,17
897,0.95,-0.25,0.21,0.06,0.92,-2.26,296,268,397,465,317,17
898,0.94,-0.26,0.24,-0.06,-1.95,-3.11,295,269,397,464,314,17
899,0.95,-0.25,0.23,1.71,-3.42,-2.81,298,271,400,464,317,17
900,0.96,-0.22,0.16,14.1,-5.86,-10.19,294,275,397,462,312,17
901,0.94,-0.19,0.22,6.04,-7.14,-1.95,293,272,398,460,310,17
902,1.0,-0.17,0.16,-9.34,-2.14,-1.34,293,268,398,460,309,17
903,0.97,-0.21,0.2,-10.56,2.56,-3.48,294,270,400,466,315,17
904,0.97,-0.22,0.18,-4.58,-2.44,-5.55,292,271,400,462,314,17
905,0.98,-0.19,0.21,0.31,-2.14,-2.56,293,271,397,465,315,17
906,0.97,-0.2,0.2,-2.62,-2.62,-1.53,296,270,398,457,315,17
907,0.96,-0.21,0.19,3.91,-3.11,-1.22,296,270,401,462,317,17
908,0.97,-0.2,0.19,-0.55,-1.83,-2.75,294,269,394,465,315,17
909,0.94,-0.23,0.18,1.46,-3.48,-1.46,298,270,398,460,315,17
910,0.94,-0.21,0.17,-1.89,-4.21,-1.34,297,268,400,461,315,17
911,0.96,-0.24,0.18,3.11,0.79,-2.08,299,273,399,460,315,17
912,0.98,-0.23,0.2,1.59,1.22,4.39,294,269,398,464,313,17
913,0.93,-0.22,0.18,1.1,-4.21,-0.43,310,274,400,460,316,17
914,0.95,-0.25,0.2,-2.32,-2.32,-3.54,294,270,397,453,316,17
915,1.0,-0.25,0.2,2.44,-1.59,-2.99,295,272,393,464,317,17
916,0.95,-0.25,0.18,-2.75,-3.85,-3.42,295,274,396,459,316,17
917,0.94,-0.28,0.22,-2.01,-0.61,-1.65,323,271,397,465,311,17
918,0.95,-0.28,0.15,-1.95,-5.07,-3.72,301,271,396,465,311,17
919,0.95,-0.26,0.22,-1.4,-5.19,-10.56,293,274,397,457,320,17
920,0.92,-0.23,0.2,-1.89,-0.92,-0.79,292,270,397,462,313,17
921,0.92,-0.24,0.18,2.5,-2.62,-2.32,294,273,397,460,313,17
922,0.93,-0.27,0.21,-1.04,-10.31,-4.27,295,273,397,461,315,17
923,0.96,-0.23,0.2,0.18,-3.42,1.46,295,273,396,460,315,17
924,0.91,-0.23,0.14,-6.29,-5.31,-1.77,297,270,398,456,315,17
925,0.98,-0.26,0.2,2.26,-2.01,-5.8,294,268,404,461,316,17
926,0.99,-0.25,0.16,-0.12,-3.66,-4.21,295,274,396,457,310,17
927,0.84,-0.22,0.25,-10.99,-16.85,-8.91,293,277,399,460,314,17
928,0.99,-0.19,0.22,4.88,-10.99,0.12,292,275,397,462,306,17
929,0.93,-0.21,0.19,-4.52,-10.8,2.14,296,270,397,465,298,17
930,0.94,-0.26,0.14,-2.08,-5.68,-9.89,292,272,398,463,293,17
931,0.98,-0.22,0.16,-2.2,-2.69,-2.01,304,276,393,461,299,17
932,0.95,-0.2,0.11,4.15,-2.87,-2.44,295,274,393,462,302,17
933,0.96,-0.23,0.13,-5.68,0.79,-6.1,295,276,398,474,305,17
934,0.98,-0.18,0.14,3.11,-0.43,-2.32,294,275,396,459,306,17
935,0.98,-0.21,0.16,2.87,-0.73,-4.27,293,275,398,462,305,17
936,0.97,-0.22,0.14,-4.46,-7.14,2.75,302,278,397,462,301,17
937,0.95,-0.24,0.12,-3.85,0.85,2.14,291,271,395,461,309,17
938,0.98,-0.3,0.14,3.23,0.43,1.4,293,278,396,461,306,17
939,0.95,-0.27,0.12,-2.44,-7.93,-7.57,297,277,391,462,308,17
940,0.99,-0.27,0.14,0.61,-3.36,-3.6,312,278,407,459,307,17
941,0.95,-0.27,0.11,-2.81,-1.04,-3.72,292,275,396,463,303,17
942,0.97,-0.26,0.11,1.89,-4.33,-3.78,292,270,391,463,303,17
943,0.96,-0.24,0.13,-0.92,-3.6,1.1,293,280,388,461,307,17
944,0.96,-0.22,0.11,-1.16,-2.38,-2.44,293,276,394,474,308,17
945,0.98,-0.24,0.11,1.34,-2.99,-3.3,290,273,392,461,306,17
946,0.97,-0.23,0.15,4.03,-2.01,-2.26,295,278,395,462,307,17
947,0.97,-0.24,0.12,3.11,-2.5,-7.26,292,273,393,461,304,17
948,0.98,-0.25,0.12,0.92,-2.5,-1.16,294,278,395,462,307,17
949,0.96,-0.26,0.1,-2.87,-0.92,-4.64,290,277,394,461,307,17
950,0.96,-0.22,0.13,-2.99,-0.37,-5.31,295,274,395,457,306,17
951,0.96,-0.22,0.13,5.13,-5.74,-5.37,294,273,390,462,306,17
952,0.97,-0.22,0.12,-5.74,-1.04,0.37,286,279,392,460,305,17
953,0.99,-0.23,0.15,6.59,-0.12,-1.46,290,277,393,460,309,17
954,0.95,-0.23,0.14,1.16,-4.46,2.62,294,280,393,465,301,17
955,0.98,-0.27,0.14,-1.71,-4.52,0.67,295,278,392,456,305,17
956,0.95,-0.31,0.13,1.28,-4.52,-3.3,289,275,394,459,308,17
957,0.98,-0.27,0.13,-2.93,-2.93,-2.81,291,271,394,460,310,17
958,0.94,-0.26,0.14,2.62,-1.04,-5.43,297,270,396,469,305,17
959,0.97,-0.25,0.14,0.43,-6.35,-1.71,300,264,400,460,305,17
960,0.96,-0.23,0.09,7.81,-7.2,2.87,305,270,403,459,305,17
961,1.01,-0.25,0.09,-2.87,1.22,-10.31,306,268,404,459,303,17
962,0.93,-0.26,0.14,-3.97,-0.85,-4.15,310,270,397,463,305,17
963,0.95,-0.22,0.14,-1.28,-0.98,-7.75,304,275,401,461,302,17
964,0.98,-0.21,0.17,7.32,-2.01,0.37,301,272,417,454,297,17
965,0.97,-0.23,0.18,-6.9,-7.87,1.4,298,271,396,461,295,17
966,0.99,-0.23,0.16,-16.54,-6.04,-1.65,294,270,398,456,283,17
967,0.96,-0.22,0.14,-7.32,0.43,0.61,281,262,399,456,278,17
968,1.0,-0.28,0.13,22.71,-0.98,-10.86,273,260,398,455,272,17
969,1.01,-0.24,0.08,5.68,-6.9,-2.14,277,260,399,453,278,17
970,0.96,-0.22,0.12,4.09,-4.21,-2.38,281,269,399,452,284,17
971,0.95,-0.17,0.14,-8.97,10.62,-9.7,280,268,404,457,279,17
972,0.94,-0.22,0.22,23.19,2.44,-10.07,282,266,401,453,284,17
973,0.98,-0.1,0.16,-0.92,0.67,-6.53,283,269,400,452,284,17
974,0.96,-0.06,0.19,18.13,-60.3,-13.67,287,268,399,453,284,17
975,0.96,-0.07,0.1,-16.05,1.95,-0.37,280,266,401,456,294,17
976,1.0,-0.09,0.13,4.94,-1.4,3.97,281,267,403,455,286,17
977,0.98,-0.12,0.16,-6.53,-2.38,-1.34,283,268,400,455,289,17
978,1.0,-0.15,0.17,-3.6,-0.37,-3.54,285,264,401,457,287,17
979,1.01,-0.1,0.21,10.5,-4.76,2.14,285,264,399,459,286,17
980,1.01,-0.24,0.15,-17.03,-11.96,-4.64,285,266,401,457,285,17
981,0.97,-0.26,0.13,-10.31,-10.44,-0.92,288,266,393,455,286,17
982,0.96,-0.24,0.08,5.68,-15.14,-5.31,286,267,397,459,291,17
983,1.01,-0.21,-0.03,-22.77,-8.42,-2.32,297,268,392,457,289,17
984,1.0,-0.33,0.06,17.09,10.44,4.64,286,267,399,462,290,17
985,0.94,-0.27,0.1,13.12,-2.32,0.37,288,269,398,458,293,17
986,0.88,-0.39,0.03,7.26,-9.77,-8.61,286,267,391,461,297,17
987,1.03,-0.27,0.07,14.77,14.4,4.46,290,272,399,460,294,17
988,1.04,-0.12,0.02,2.69,-10.8,-22.64,290,267,400,458,296,17
989,1.02,-0.12,0.05,-3.23,11.9,-1.16,290,272,404,457,298,17
990,0.94,-0.18,0.13,-13.61,5.98,1.04,291,264,388,455,293,17
991,0.94,-0.2,0.22,13.06,2.26,-3.11,290,271,393,455,296,17
992,0.94,-0.21,0.09,3.42,-5.62,-4.39,290,271,394,458,294,17
993,0.97,-0.15,0.13,4.76,-1.71,-2.2,290,269,396,454,299,17
994,0.95,-0.2,0.13,-9.22,-2.62,11.54,291,271,398,452,296,17
995,0.97,-0.22,0.14,0.12,-2.14,-1.1,292,266,396,461,294,17
996,1.01,-0.19,0.13,10.31,0.0,-4.52,284,272,395,459,297,17
997,0.93,-0.18,0.14,7.14,-1.71,-2.99,290,267,399,460,295,17
998,0.94,-0.21,0.15,-5.92,-5.98,-0.24,289,272,396,453,298,17
999,0.99,-0.23,0.17,0.0,-1.77,-0.31,292,270,398,461,296,17
1000,0.95,-0.24,0.16,-2.44,-3.78,2.69,290,268,398,459,296,17
1001,1.04,-0.23,0.21,-7.87,-7.02,-22.89,292,270,401,458,299,17
1002,0.9,-0.24,0.15,-2.62,-7.08,2.75,290,270,397,462,297,17
1003,0.98,-0.2,0.15,8.85,2.01,-1.95,293,267,401,458,297,17
1004,1.0,-0.25,0.12,-3.54,-6.41,-1.1,291,263,398,458,299,17
1005,0.94,-0.23,0.13,-0.43,-2.44,0.43,288,268,394,461,298,17
1006,0.97,-0.27,0.13,11.05,2.08,-6.41,290,266,400,458,295,17
1007,1.01,-0.23,0.09,0.43,-2.44,-2.5,290,264,397,462,299,17
1008,0.93,-0.24,0.13,1.53,-4.09,2.2,291,267,396,460,298,17
1009,0.96,-0.35,0.2,3.42,-4.15,-7.32,293,269,398,458,293,17
1010,1.04,-0.23,0.1,-7.87,10.56,-13.37,293,269,399,459,298,17
1011,0.91,-0.19,0.15,-5.49,5.74,10.62,290,268,394,457,299,17
1012,1.01,-0.26,0.25,4.03,-12.88,1.16,288,269,396,459,298,17
1013,0.97,-0.25,0.2,7.32,-7.14,-8.54,291,269,397,458,297,17
1014,0.98,-0.28,0.05,-8.36,-0.49,3.72,294,271,396,460,296,17
1015,0.99,-0.27,0.23,3.66,-18.43,-12.21,296,269,400,456,295,17
1016,0.82,-0.19,0.04,-12.27,-9.16,-1.95,293,272,396,459,305,17
1017,1.17,-0.26,0.13,5.55,9.89,-10.44,295,269,395,458,303,17
1018,0.87,-0.46,0.1,1.34,-3.3,-5.92,194,277,437,461,343,17
1019,0.9,-0.43,0.1,4.52,-1.53,-7.14,198,274,438,466,344,17
1020,0.9,-0.41,0.13,-0.06,-0.73,-4.46,192,266,437,459,340,17
1021,0.91,-0.41,0.14,-0.67,-1.77,-2.62,198,270,433,453,342,17
1022,0.92,-0.39,0.14,0.67,-2.38,-3.05,197,277,436,463,343,17
1023,0.91,-0.4,0.13,-1.16,-3.3,-2.2,202,271,433,457,351,17
1024,0.89,-0.41,0.13,0.31,-3.72,-2.38,194,268,433,453,343,17
1025,0.9,-0.4,0.1,0.73,-2.56,-2.5,198,266,434,454,345,17
1026,0.91,-0.41,0.13,-1.16,-4.09,-1.89,194,271,433,458,342,17
1027,0.9,-0.42,0.12,-0.12,-1.95,-0.67,200,267,431,456,340,17
1028,0.89,-0.43,0.11,0.92,-5.43,1.22,194,275,432,457,344,17
1029,0.92,-0.41,0.11,-0.06,-2.08,-1.4,198,270,432,464,344,17
1030,0.9,-0.42,0.1,-0.85,-3.17,-1.04,199,270,431,455,344,17
1031,0.9,-0.42,0.12,2.32,-0.06,-3.91,214,270,430,449,343,17
1032,0.92,-0.41,0.11,-0.43,-2.44,-2.44,198,269,430,463,342,17
1033,0.9,-0.42,0.12,0.43,-3.6,-2.5,191,273,433,459,347,17
1034,0.91,-0.4,0.11,-1.28,-2.32,-2.5,202,275,431,460,346,17
1035,0.87,-0.44,0.11,-1.1,-2.75,-3.85,198,271,432,458,342,17
1036,0.9,-0.42,0.12,-0.18,-1.95,-5.31,200,276,432,460,348,17
1037,0.88,-0.43,0.13,-3.23,-1.1,-1.16,200,273,427,455,347,17
1038,0.9,-0.41,0.11,-2.08,-3.05,0.73,199,277,430,459,345,17
1039,0.91,-0.42,0.12,1.65,-4.09,-2.93,199,278,430,460,342,17
1040,0.89,-0.44,0.1,1.53,-3.91,-0.73,201,275,425,458,344,17
1041,0.88,-0.45,0.1,-2.26,-2.87,0.37,198,274,428,455,343,17
1042,0.89,-0.43,0.09,0.12,-4.46,-1.04,206,274,427,467,345,17
1043,0.91,-0.43,0.1,3.48,-3.91,-5.55,200,278,431,462,344,17
1044,0.91,-0.42,0.11,3.85,-3.54,-3.36,200,275,429,461,341,17
1045,0.89,-0.44,0.1,0.43,-3.54,-2.26,203,277,425,465,340,17
1046,0.9,-0.42,0.12,5.31,-3.72,-4.21,200,277,434,463,343,17
1047,0.9,-0.42,0.1,1.1,-1.22,-5.49,200,280,431,460,345,17
1048,0.91,-0.44,0.1,2.44,-2.5,-1.16,204,278,428,462,343,17
1049,0.89,-0.42,0.1,0.43,-3.78,-3.42,206,273,426,464,342,17
1050,0.9,-0.44,0.09,-0.31,-3.17,-3.42,202,279,422,460,344,17
1051,0.9,-0.42,0.1,0.31,-3.05,-1.1,208,276,431,465,344,17
1052,0.9,-0.49,0.11,-1.4,-2.75,-4.33,203,279,427,458,343,17
1053,0.9,-0.44,0.1,-2.56,-4.27,-1.89,205,276,430,461,349,17
1054,0.9,-0.44,0.1,-1.95,-0.37,-2.62,208,276,422,455,342,17
1055,0.9,-0.42,0.09,3.05,-3.05,-2.99,203,278,421,460,342,17
1056,0.89,-0.45,0.09,-0.79,-2.93,-2.81,203,277,423,459,339,17
1057,0.9,-0.43,0.1,3.36,-4.76,-3.3,200,273,420,449,341,17
1058,0.9,-0.44,0.1,0.0,-2.62,-2.81,203,279,424,457,342,17
1059,0.9,-0.44,0.09,2.38,-2.62,-3.85,200,279,422,460,341,17
1060,0.89,-0.44,0.1,0.49,-2.14,-2.08,203,273,419,456,341,17
1061,0.89,-0.45,0.1,0.61,-4.64,-2.99,198,282,425,449,341,17
1062,0.89,-0.45,0.1,-1.77,-3.36,-3.85,199,279,421,458,343,17
1063,0.9,-0.45,0.09,0.49,-3.05,-1.89,205,287,420,459,339,17
1064,0.88,-0.46,0.07,0.85,-2.08,-3.91,205,277,424,459,344,17
1065,0.89,-0.45,0.09,-1.46,-2.62,-0.92,201,279,424,466,343,17
1066,0.9,-0.43,0.1,1.65,-3.11,-2.62,196,281,423,459,345,17
1067,0.9,-0.44,0.09,-1.04,-3.23,-2.5,208,278,424,464,344,17
1068,0.91,-0.44,0.1,0.49,-2.93,-2.5,203,279,422,462,338,17
1069,0.9,-0.44,0.11,2.38,-1.89,-3.85,202,278,422,462,342,17
1070,0.9,-0.43,0.1,-2.44,-1.53,-3.54,205,276,424,462,347,17
1071,0.9,-0.43,0.11,0.61,-2.99,-3.05,203,277,423,464,343,17
1072,0.89,-0.43,0.09,-0.67,-3.42,-4.39,204,278,422,465,343,17
1073,0.91,-0.43,0.1,0.06,-2.5,-3.05,206,279,422,462,346,17
1074,0.91,-0.41,0.1,2.87,-3.11,-4.03,203,275,422,461,341,17
1075,0.91,-0.42,0.11,0.0,-2.14,-2.38,204,278,422,460,343,17
1076,0.9,-0.42,0.1,-0.55,-0.31,-2.56,204,280,422,463,340,17
1077,0.91,-0.41,0.12,1.34,-2.93,-2.69,198,277,424,464,339,17
1078,0.9,-0.41,0.11,0.31,-2.32,-1.95,203,274,423,461,345,17
1079,0.91,-0.41,0.11,-0.06,-2.38,-2.81,202,283,422,464,344,17
1080,0.91,-0.41,0.11,-0.18,-2.44,-3.23,201,277,422,458,343,17
1081,0.91,-0.41,0.1,0.98,-3.05,-2.87,202,278,414,460,343,17
1082,0.91,-0.41,0.11,1.34,-4.09,-2.56,205,277,425,459,343,17
1083,0.91,-0.41,0.11,0.61,-2.81,-2.26,197,276,421,463,343,17
1084,0.91,-0.42,0.11,0.43,-2.2,-2.99,203,278,421,464,341,17
1085,0.91,-0.41,0.11,0.0,-2.38,-3.48,201,279,417,459,342,17
1086,0.91,-0.4,0.12,-0.79,-2.5,-3.05,203,278,419,455,343,17
1087,0.92,-0.39,0.09,2.2,-3.3,-8.48,204,280,423,462,341,17
1088,0.91,-0.39,0.12,1.4,-3.85,-6.04,204,277,418,461,341,17
1089,0.9,-0.39,0.12,1.1,-2.62,-2.44,198,277,415,465,342,17
1090,0.94,-0.36,0.13,-0.73,-1.83,-2.62,219,280,418,464,341,17
1091,0.91,-0.38,0.13,-3.91,2.2,-2.2,205,276,421,462,343,17
1092,0.93,-0.35,0.16,4.39,-3.17,-0.43,211,280,416,459,338,17
1093,0.99,-0.3,0.11,-5.49,-10.07,-2.69,202,280,418,462,341,17
1094,0.89,-0.42,0.1,-2.2,0.31,-5.07,209,278,419,464,339,17
1095,0.94,-0.36,0.09,4.27,-1.34,-2.44,214,274,416,463,343,17
1096,0.95,-0.37,0.09,2.75,-2.93,-2.87,204,273,419,459,342,17
1097,0.9,-0.4,0.14,2.2,-5.31,-0.73,205,279,417,460,344,17
1098,0.93,-0.4,0.12,2.14,-1.89,-0.31,203,276,414,461,343,17
1099,0.89,-0.44,0.1,3.66,-5.43,-1.83,206,280,421,462,335,17
1100,0.92,-0.41,0.11,-0.06,-2.62,-3.3,200,271,417,460,350,17
1101,0.88,-0.44,0.13,-0.73,-3.48,-2.69,204,280,418,468,344,17
1102,0.89,-0.44,0.17,1.28,-4.7,-0.92,203,277,419,465,345,17
1103,0.91,-0.43,0.08,0.12,-0.73,-1.95,205,279,422,454,340,17
1104,0.93,-0.41,0.16,-4.46,-3.72,5.31,203,278,420,455,343,17
1105,0.88,-0.47,0.14,2.01,-5.13,0.31,197,276,421,464,339,17
1106,0.85,-0.5,0.12,1.77,-5.68,-3.11,212,278,422,462,341,17
1107,0.85,-0.46,0.16,-7.02,-10.13,-6.65,201,278,418,457,341,17
1108,0.87,-0.49,0.02,-5.31,-8.97,1.89,209,278,418,462,345,17
1109,0.91,-0.48,-0.05,-4.03,-0.79,-5.68,202,277,416,460,341,17
1110,0.91,-0.46,-0.04,2.5,-5.43,-3.91,203,277,412,457,341,17
1111,0.87,-0.46,-0.02,1.46,-7.32,-2.5,201,280,416,461,344,17
1112,0.83,-0.49,-0.1,-3.36,3.78,-5.07,205,281,417,459,343,17
1113,0.9,-0.44,-0.03,-3.05,-1.95,-2.75,204,279,411,460,342,17
1114,0.93,-0.42,-0.01,-0.24,-2.62,-4.76,203,278,415,460,341,17
1115,0.86,-0.49,-0.04,-1.95,-3.85,-3.48,207,278,416,459,342,17
1116,0.91,-0.43,-0.05,0.06,-1.83,-3.48,203,280,412,457,342,17
1117,0.89,-0.44,-0.05,2.99,-4.82,-1.04,204,281,417,454,344,17
1118,0.89,-0.45,-0.06,0.67,-3.17,-2.14,206,280,413,455,338,17
1119,0.89,-0.45,-0.05,-0.24,-2.81,-1.89,204,274,415,446,345,17
1120,0.89,-0.44,-0.05,-0.92,-2.14,-1.22,204,281,420,463,339,17
1121,0.89,-0.44,-0.05,0.0,-2.56,-3.48,205,275,415,443,341,17
1122,0.9,-0.44,-0.05,-1.1,-3.6,-2.26,205,283,416,460,333,17
1123,0.89,-0.44,-0.04,-1.1,-2.69,-1.95,203,282,414,459,346,17
1124,0.9,-0.44,-0.05,-0.12,-3.05,-1.89,203,279,408,453,340,17
1125,0.9,-0.44,-0.05,0.06,-3.3,-2.5,202,276,415,448,343,17
1126,0.9,-0.43,-0.05,0.06,-3.11,-2.69,202,275,416,460,344,17
1127,0.91,-0.43,-0.03,0.37,-2.44,-1.83,203,280,413,458,346,17
1128,0.9,-0.44,-0.04,0.92,-3.91,-2.01,204,282,413,458,339,17
1129,0.91,-0.43,-0.04,-0.31,-2.69,-2.01,206,279,417,458,344,17
1130,0.92,-0.43,-0.03,0.06,-2.56,-1.71,209,281,425,449,339,17
1131,0.89,-0.46,-0.02,0.55,-2.87,-2.87,204,276,411,457,342,17
1132,0.87,-0.47,-0.04,-1.34,1.77,-5.0,209,279,415,462,341,17
1133,0.91,-0.45,-0.04,-1.16,-2.87,-1.4,201,281,414,455,343,17
1134,0.88,-0.47,-0.05,1.34,-3.48,-2.44,209,279,407,456,343,17
1135,0.89,-0.46,-0.04,0.24,-2.75,-3.3,198,278,415,461,340,17
1136,0.9,-0.45,-0.02,-0.31,-3.3,-1.53,202,274,415,459,341,17
1137,0.9,-0.44,-0.05,4.46,-3.42,-4.88,201,281,417,454,344,17
1138,0.9,-0.45,-0.04,1.4,-4.76,-2.99,202,280,414,456,345,17
1139,0.88,-0.46,-0.03,0.67,-2.32,-2.5,207,277,412,457,343,17
1140,0.9,-0.44,-0.03,-1.04,-1.53,-3.11,207,281,412,457,341,17
1141,0.91,-0.43,-0.03,0.12,-2.26,-5.62,231,279,413,459,344,17
1142,0.88,-0.46,-0.05,-0.98,-4.76,-3.91,198,282,414,462,338,17
1143,0.92,-0.41,0.0,3.42,-2.2,-7.26,204,282,411,456,343,17
1144,0.89,-0.4,-0.04,-2.5,0.67,-4.03,205,281,411,458,341,17
1145,0.85,-0.44,-0.0,-5.49,0.55,-1.83,209,282,410,455,343,17
1146,0.89,-0.41,-0.01,0.37,-2.69,-5.55,194,283,410,458,341,17
1147,0.94,-0.41,0.05,-4.39,-1.46,2.5,203,278,413,455,346,17
1148,0.91,-0.42,0.03,-1.04,-2.01,-1.46,210,282,414,459,341,17
1149,0.91,-0.42,0.05,3.11,-0.55,-2.38,205,280,416,456,341,17
1150,0.9,-0.42,0.04,0.31,-2.01,-2.99,202,278,413,458,339,17
1151,0.92,-0.4,0.06,-0.61,-4.39,-2.26,203,279,416,453,341,17
1152,0.89,-0.42,0.04,0.31,-3.48,-1.77,204,281,412,456,344,17
1153,0.94,-0.39,0.03,-1.04,-2.56,-2.56,206,280,412,471,345,17
1154,0.91,-0.41,0.02,-2.87,-2.99,-3.17,202,280,405,455,344,17
1155,0.89,-0.44,0.04,-4.33,-2.62,-2.93,205,275,410,459,343,17
1156,0.92,-0.41,0.02,2.56,-2.81,-0.31,205,279,414,456,343,17
1157,0.89,-0.46,-0.0,6.16,-1.77,3.17,208,284,413,458,345,17
1158,0.88,-0.45,0.02,-2.69,-4.46,-1.34,204,278,414,453,343,17
1159,0.89,-0.45,0.05,-1.28,-2.99,-1.28,203,277,412,463,344,17
1160,0.9,-0.45,0.04,2.87,-1.1,-2.69,209,281,409,452,345,17
1161,0.9,-0.43,0.05,-1.89,-2.56,-3.17,203,284,415,457,343,17
1162,0.91,-0.42,0.06,-0.98,-2.62,-3.17,217,282,411,458,339,17
1163,0.9,-0.43,0.05,-0.85,-4.76,-3.05,204,282,412,452,342,17
1164,0.91,-0.43,0.05,-0.49,-4.58,-2.62,205,278,415,457,342,17
1165,0.91,-0.43,0.05,0.79,-2.81,-2.44,207,283,414,459,340,17
1166,0.9,-0.43,0.04,0.85,-2.75,-4.21,209,277,412,460,339,17
1167,0.91,-0.42,0.05,0.31,-3.17,-3.66,205,276,412,457,344,17
1168,0.9,-0.43,0.04,1.16,-2.62,-2.5,197,281,412,458,341,17
1169,0.9,-0.43,0.05,0.49,-2.26,-2.32,207,283,413,459,339,17
1170,0.91,-0.43,0.05,0.37,-2.38,-1.77,205,280,409,460,343,17
1171,0.9,-0.44,0.04,-0.85,-3.72,-2.75,207,281,409,461,342,17
1172,0.89,-0.43,0.04,1.89,-2.87,-3.6,217,284,410,458,346,17
1173,0.91,-0.43,0.06,0.92,-2.75,0.79,204,277,412,459,343,17
1174,0.9,-0.44,0.06,-0.79,-2.01,-2.26,199,282,415,452,341,17
1175,0.9,-0.43,0.05,-0.31,-3.11,-2.5,206,279,411,457,341,17
1176,0.9,-0.43,0.07,0.06,-1.95,-2.32,202,276,411,458,343,17
1177,0.91,-0.43,0.06,-0.18,-3.05,-0.49,197,284,415,451,346,17
1178,0.9,-0.44,0.06,1.4,-3.3,-1.89,207,280,411,460,343,17
1179,0.9,-0.45,0.05,1.04,-2.14,-3.72,204,279,410,461,343,17
1180,0.9,-0.44,0.07,1.16,-3.05,-2.87,208,283,410,457,344,17
1181,0.9,-0.44,0.05,0.67,-2.81,-2.08,206,277,410,454,343,17
1182,0.9,-0.44,0.04,-2.2,-3.72,-0.37,206,285,411,457,343,17
1183,0.91,-0.44,0.07,-2.69,-3.36,-1.4,208,285,416,453,343,17
1184,0.89,-0.45,0.06,-0.24,-3.48,-3.17,209,280,410,457,346,17
1185,0.91,-0.44,0.07,1.22,-3.42,-3.11,203,281,411,467,343,17
1186,0.9,-0.45,0.05,2.87,-2.44,-3.66,206,290,409,461,339,17
1187,0.9,-0.44,0.04,-0.06,-2.75,-1.77,203,282,409,455,340,17
1188,0.9,-0.43,0.04,0.0,-2.99,-2.69,206,280,412,456,343,17
1189,0.9,-0.44,0.04,0.24,-2.2,-3.97,208,279,411,453,342,17
1190,0.88,-0.45,0.04,0.67,-2.38,-4.52,203,284,408,458,343,17
1191,0.89,-0.45,0.03,1.95,-0.55,-2.44,208,283,412,456,342,17
1192,0.87,-0.45,0.04,-0.85,1.16,-5.13,203,278,413,456,342,17
1193,0.9,-0.41,0.04,0.73,-2.2,-10.44,208,281,410,456,340,17
1194,0.87,-0.44,0.09,-1.59,-0.85,-4.82,206,278,407,458,344,17
1195,0.91,-0.41,0.09,0.73,-5.13,-6.59,209,281,414,458,351,17
1196,0.92,-0.38,0.12,1.28,-4.52,-0.37,205,281,408,457,348,17
1197,0.91,-0.39,0.09,2.32,-4.03,1.53,206,279,413,457,343,17
1198,0.94,-0.36,0.13,2.01,-2.2,1.65,206,276,408,453,342,17
1199,0.97,-0.33,0.13,8.12,-0.49,-14.59,207,282,411,459,342,17
1200,0.95,-0.37,0.06,-2.62,11.11,-11.9,205,287,408,459,343,17
1201,0.93,-0.37,0.1,-5.49,0.49,-0.61,208,283,410,457,343,17
1202,0.92,-0.37,0.11,2.81,-4.27,0.73,202,282,411,456,339,17
1203,0.93,-0.36,0.13,7.08,-3.05,-11.05,204,279,410,457,339,17
1204,0.91,-0.38,0.16,-2.62,5.37,-3.36,203,276,409,462,341,17
1205,0.93,-0.36,0.15,-5.07,-3.6,-0.12,205,278,410,454,341,17
1206,0.91,-0.38,0.14,-1.34,-1.46,-2.93,206,280,410,456,337,17
1207,0.94,-0.33,0.14,1.34,-3.17,-3.23,219,278,409,458,340,17
1208,0.94,-0.35,0.15,0.06,-1.71,-1.04,206,278,408,459,339,17
1209,0.94,-0.34,0.14,-0.49,-3.42,-4.33,210,278,413,461,336,17
1210,0.94,-0.33,0.15,-4.88,-4.88,2.32,207,279,412,452,340,17
1211,0.94,-0.34,0.11,-3.78,-4.21,-3.05,207,278,412,461,338,17
1212,0.91,-0.38,0.14,-1.04,-5.74,-0.55,203,278,405,459,340,17
1213,0.94,-0.36,0.13,-2.38,-6.35,3.72,208,278,406,473,336,17
1214,0.91,-0.41,0.1,-1.1,-3.23,-4.46,210,282,409,456,341,17
1215,0.89,-0.42,0.08,1.22,-1.16,-2.69,207,290,414,461,339,17
1216,0.91,-0.39,0.09,-0.37,-3.66,-3.97,202,283,409,457,341,17
1217,0.91,-0.4,0.1,1.89,-3.17,-1.83,205,282,411,452,340,17
1218,0.92,-0.4,0.1,-1.28,-2.2,-1.77,231,281,411,456,341,17
1219,0.91,-0.41,0.09,-0.73,-3.17,-2.5,205,280,411,460,340,17
1220,0.92,-0.4,0.1,-0.24,-2.93,-1.71,205,280,411,451,338,17
1221,0.94,-0.38,0.12,-0.37,-2.93,-1.04,207,279,409,451,338,17
1222,0.92,-0.4,0.09,0.79,-2.93,-3.11,208,279,412,454,344,17
1223,0.92,-0.41,0.1,-0.31,-2.69,-3.17,202,281,408,454,343,17
1224,0.91,-0.41,0.11,0.31,-1.59,-1.4,209,284,408,452,341,17
1225,0.91,-0.4,0.09,0.12,-3.66,-2.26,204,277,408,459,341,17
1226,0.9,-0.41,0.1,-1.95,-2.01,-0.55,203,279,413,455,342,17
1227,0.92,-0.41,0.09,0.92,-3.85,-2.75,230,281,405,456,340,17
1228,0.92,-0.4,0.08,-0.31,-1.83,-2.56,205,279,408,455,343,17
1229,0.89,-0.42,0.12,2.2,-2.08,-4.88,207,280,406,455,344,17
1230,0.93,-0.4,0.09,0.55,-5.0,-3.54,209,281,409,451,341,17
1231,0.92,-0.39,0.1,0.67,-2.93,-4.64,207,282,407,456,338,17
1232,0.91,-0.4,0.1,4.46,-3.42,-3.91,207,282,409,453,345,17
1233,0.91,-0.41,0.11,0.79,-2.44,-2.69,208,274,410,453,345,17
1234,0.92,-0.41,0.1,0.37,-2.2,-3.17,207,284,406,461,344,17
1235,0.91,-0.41,0.1,1.59,-2.62,-2.99,211,282,409,457,335,17
1236,0.91,-0.4,0.1,-1.34,-2.01,-2.44,206,275,403,457,341,17
1237,0.91,-0.41,0.11,1.16,-2.93,-3.6,205,278,410,456,340,17
1238,0.92,-0.4,0.11,0.92,-3.6,-1.77,208,281,408,456,338,17
1239,0.92,-0.41,0.09,-3.05,-3.6,-2.38,208,284,410,466,338,17
1240,0.89,-0.42,0.13,-0.61,-2.38,-1.83,205,280,412,457,342,17
1241,0.9,-0.4,0.1,0.67,-2.62,-2.08,209,282,409,459,344,17
1242,0.9,-0.41,0.13,2.01,-4.7,-1.53,202,280,421,465,338,17
1243,0.91,-0.42,0.1,2.87,-3.3,-2.87,209,284,411,459,340,17
1244,0.9,-0.42,0.11,-1.04,-2.81,-2.93,204,280,412,465,341,17
1245,0.94,-0.39,0.09,-1.59,-3.91,-4.52,200,285,425,466,341,17
1246,0.91,-0.41,0.11,-0.06,-2.32,-2.44,207,274,411,464,336,17
1247,0.91,-0.4,0.11,-1.22,-2.44,-2.99,208,284,414,461,342,17
1248,0.92,-0.4,0.13,3.23,-2.87,-4.27,204,279,416,462,338,17
1249,0.91,-0.4,0.13,2.2,-3.17,-3.3,204,288,411,464,340,17
1250,0.92,-0.4,0.12,-0.12,-3.42,-1.83,206,286,413,464,337,17
1251,0.92,-0.4,0.12,1.4,-2.69,-2.32,208,279,413,461,341,17
1252,0.92,-0.4,0.12,0.49,-2.81,-3.42,204,278,414,463,340,17
1253,0.92,-0.4,0.11,0.55,-2.75,-2.75,207,280,414,466,341,17
1254,0.92,-0.4,0.13,-0.31,-3.05,-2.56,210,279,417,459,340,17
1255,0.92,-0.39,0.12,-0.85,-3.17,-2.14,210,283,414,466,341,17
1256,0.92,-0.39,0.13,0.98,-3.3,-2.26,199,273,415,464,339,17
1257,0.9,-0.41,0.1,-0.06,-2.62,-3.05,212,279,413,466,339,17
1258,0.9,-0.41,0.11,2.56,-3.23,-2.93,206,283,414,465,342,17
1259,0.92,-0.4,0.13,1.4,-2.93,-2.81,205,281,413,462,341,17
1260,0.91,-0.4,0.12,-1.1,-2.56,-2.56,207,279,412,459,340,17
1261,0.91,-0.4,0.12,0.24,-3.05,-2.81,210,275,413,464,340,17
1262,0.92,-0.4,0.11,0.55,-2.93,-2.69,207,276,409,466,342,17
1263,0.92,-0.41,0.12,0.79,-2.99,-2.75,209,279,411,469,341,17
1264,0.91,-0.41,0.12,-0.12,-2.62,-2.69,205,277,412,466,337,17
1265,0.91,-0.4,0.12,0.12,-3.66,-2.08,206,280,411,466,339,17
1266,0.92,-0.4,0.12,0.18,-2.93,-2.14,204,274,408,461,342,17
1267,0.91,-0.41,0.1,0.98,-2.14,-2.26,210,278,412,481,341,17
1268,0.91,-0.41,0.1,-0.92,-3.23,-2.62,209,282,409,459,340,17
1269,0.93,-0.39,0.13,1.22,-3.05,-2.93,202,284,415,459,338,17
1270,0.92,-0.4,0.12,-0.12,-2.87,-2.01,202,286,413,462,341,17
1271,0.91,-0.41,0.11,0.06,-2.75,-2.38,206,281,414,467,343,17
1272,0.91,-0.41,0.12,-0.12,-3.05,-2.56,213,277,412,463,337,17
1273,0.91,-0.4,0.12,0.61,-3.11,-3.23,209,279,413,464,344,17
1274,0.92,-0.4,0.13,1.59,-3.42,-2.69,208,281,408,459,339,17
1275,0.91,-0.41,0.11,0.55,-3.05,-2.56,208,277,413,470,339,17
1276,0.92,-0.39,0.11,1.71,-2.99,-2.08,210,281,415,464,343,17
1277,0.92,-0.4,0.11,-0.18,-2.56,-2.69,207,281,411,464,341,17
1278,0.9,-0.41,0.1,0.18,-2.99,-1.46,206,277,414,465,341,17
1279,0.9,-0.41,0.12,-1.89,-2.75,-0.18,207,279,415,465,340,17
1280,0.91,-0.4,0.1,-0.55,-2.38,-2.99,211,285,410,463,343,17
1281,0.91,-0.4,0.12,0.06,-4.27,-0.98,208,281,410,462,341,17
1282,0.93,-0.39,0.11,-0.85,-3.05,-0.43,201,280,411,468,337,17
1283,0.9,-0.42,0.08,-1.46,-2.93,-2.38,210,281,412,471,339,17
1284,0.91,-0.4,0.07,1.53,-2.87,-3.78,203,283,409,465,342,17
1285,0.9,-0.42,0.1,1.95,-3.91,-6.23,206,285,412,470,340,17
1286,0.9,-0.43,0.11,-2.08,-2.44,-1.04,206,278,413,467,342,17
1287,0.88,-0.44,0.16,5.49,-2.38,0.31,208,284,410,466,341,17
1288,0.9,-0.43,0.13,-5.49,-1.53,-0.06,210,282,413,468,343,17
1289,0.93,-0.41,0.13,-4.46,-3.11,-0.85,214,286,411,466,340,17
1290,0.91,-0.41,0.12,1.59,-2.38,-2.08,210,282,409,463,341,17
1291,0.92,-0.4,0.12,1.53,-2.99,-3.17,209,285,411,466,343,17
1292,0.9,-0.41,0.11,0.85,-3.05,-1.83,210,278,416,468,340,17
1293,0.9,-0.41,0.11,-0.37,-2.69,-2.26,213,279,410,465,341,17
1294,0.9,-0.4,0.13,-0.24,-3.05,-2.14,206,277,411,457,340,17
1295,0.92,-0.4,0.11,-1.95,-2.56,0.06,209,280,414,468,344,17
1296,0.92,-0.4,0.11,1.83,-2.93,-3.85,204,283,414,463,339,17
1297,0.91,-0.41,0.1,0.12,-2.2,-2.44,208,276,408,468,340,17
1298,0.89,-0.42,0.11,-0.79,-2.44,-0.43,205,284,407,468,346,17
1299,0.91,-0.41,0.1,-0.98,-3.72,-3.11,203,282,414,469,341,17
1300,0.92,-0.4,0.12,-0.61,-2.32,-2.2,203,282,402,468,345,17
1301,0.87,-0.44,0.12,0.18,-1.34,-2.69,207,280,408,465,344,17
1302,0.9,-0.41,0.11,-1.59,-3.85,-0.43,208,282,409,464,339,17
1303,0.9,-0.42,0.11,-0.67,-3.05,-2.32,208,285,408,465,342,17
1304,0.92,-0.4,0.12,-0.37,-3.3,-3.11,217,284,408,466,344,17
1305,0.92,-0.41,0.12,-0.12,-3.3,-1.59,209,278,410,466,345,17
1306,0.92,-0.39,0.1,0.0,-4.03,-1.89,207,280,406,461,341,17
1307,0.92,-0.4,0.12,1.46,-2.62,-2.87,206,281,413,464,342,17
1308,0.9,-0.41,0.1,1.71,-3.05,-1.89,204,278,412,469,345,17
1309,0.91,-0.41,0.11,-0.49,-2.99,-1.89,201,285,411,463,343,17
1310,0.9,-0.41,0.12,0.49,-2.75,-1.59,207,284,414,464,347,17
1311,0.91,-0.41,0.12,2.69,-2.14,-3.6,212,282,403,465,346,17
1312,0.91,-0.41,0.11,-1.28,-3.17,-1.34,205,283,411,467,342,17
1313,0.9,-0.42,0.1,0.49,-2.56,-5.07,208,283,416,470,345,17
1314,0.91,-0.41,0.12,0.18,-3.23,-1.4,206,281,415,464,342,17
1315,0.91,-0.41,0.1,0.31,-3.3,-1.59,197,282,410,465,342,17
1316,0.91,-0.41,0.11,1.04,-2.44,-2.81,237,284,414,468,341,17
1317,0.91,-0.41,0.11,-1.53,-3.85,-3.6,207,287,407,468,341,17
1318,0.91,-0.41,0.11,0.06,-3.23,-0.85,206,280,408,469,346,17
1319,0.88,-0.43,0.09,0.31,-2.5,-2.14,209,282,406,466,344,17
1320,0.91,-0.42,0.11,0.79,-2.32,-1.34,206,283,413,466,340,17
1321,0.9,-0.42,0.1,0.73,-2.32,-2.14,209,280,410,461,345,17
1322,0.89,-0.43,0.11,1.77,-2.26,-4.64,208,284,407,468,342,17
1323,0.9,-0.41,0.1,-0.18,-2.99,-3.48,204,283,405,464,344,17
1324,0.91,-0.41,0.11,-0.18,-1.34,-2.93,204,284,413,479,340,17
1325,0.9,-0.42,0.1,-2.93,-2.56,-2.38,203,284,418,461,344,17
1326,0.91,-0.41,0.11,-0.37,-2.81,-2.32,209,278,407,461,342,17
1327,0.91,-0.41,0.12,1.22,-3.23,-3.3,208,274,413,462,343,17
1328,0.91,-0.41,0.11,-1.04,-2.99,-1.1,202,282,410,470,342,17
1329,0.91,-0.41,0.11,0.61,-3.11,-3.23,204,284,404,468,343,17
1330,0.91,-0.4,0.14,1.4,-2.5,-5.37,208,285,409,469,339,17
1331,0.92,-0.38,0.13,1.1,-3.48,-2.99,207,278,413,466,341,17
1332,0.92,-0.38,0.13,-1.04,-2.75,-0.12,208,286,412,463,340,17
1333,0.89,-0.4,0.12,-0.18,-3.23,-2.14,208,284,410,464,340,17
1334,0.91,-0.4,0.11,0.31,-2.38,-2.32,206,285,407,461,339,17
1335,0.91,-0.39,0.12,-1.71,-2.2,-0.79,208,285,408,464,342,17
1336,0.92,-0.39,0.12,-1.04,-2.26,-1.65,202,285,410,469,343,17
1337,0.92,-0.39,0.13,0.24,-2.69,-2.56,211,283,410,461,339,17
1338,0.91,-0.39,0.13,-0.43,-2.93,-1.83,216,283,407,461,344,17
1339,0.92,-0.39,0.12,0.24,-3.17,-2.75,204,284,409,465,341,17
1340,0.92,-0.39,0.12,0.18,-3.05,-3.05,209,280,409,464,337,17
1341,0.93,-0.39,0.13,-1.04,-3.54,-2.56,210,286,410,461,340,17
1342,0.91,-0.4,0.12,-0.18,-3.78,-0.31,206,283,408,471,343,17
1343,0.91,-0.4,0.11,0.92,-3.72,-0.67,209,281,407,466,340,17
1344,0.92,-0.4,0.11,-0.06,-2.69,-2.2,206,286,412,467,341,17
1345,0.9,-0.41,0.12,-1.4,-1.89,-1.04,210,288,410,474,344,17
1346,0.9,-0.41,0.12,-0.85,-2.99,-1.71,202,284,411,465,343,17
1347,0.92,-0.41,0.12,0.92,-3.11,-8.79,210,286,406,465,342,17
1348,0.9,-0.42,0.11,1.04,-4.03,-1.53,207,282,408,461,343,17
1349,0.9,-0.41,0.11,3.42,-2.14,-2.81,210,284,409,464,344,17
1350,0.91,-0.4,0.12,0.61,-4.15,-4.33,206,283,410,466,341,17
1351,0.93,-0.4,0.15,0.37,-2.81,-3.72,199,279,413,466,343,17
1352,0.98,-0.35,0.17,6.71,-1.95,-3.17,212,282,408,462,342,17
1353,0.92,-0.37,0.16,-1.1,-4.03,-0.18,208,282,408,465,347,17
1354,0.91,-0.4,0.13,2.62,-3.48,-4.15,210,283,402,462,345,17
1355,0.91,-0.4,0.12,-0.92,-3.6,-3.36,205,273,409,467,344,17
1356,0.91,-0.4,0.1,-1.4,-2.93,-0.67,205,285,406,466,341,17
1357,0.92,-0.4,0.11,-0.55,-2.56,-2.87,209,277,407,466,341,17
1358,0.9,-0.41,0.12,-1.4,-3.36,-3.05,210,286,407,467,343,17
1359,0.92,-0.41,0.13,4.21,-2.87,-3.6,206,282,408,465,341,17
1360,0.92,-0.42,0.1,0.85,-2.69,-3.48,207,284,408,461,345,17
1361,0.94,-0.38,0.12,-4.82,-1.65,0.61,211,283,404,459,341,17
1362,0.93,-0.39,0.12,-2.87,-5.86,-5.31,211,283,407,466,344,17
1363,0.92,-0.39,0.11,1.77,-2.5,-3.91,210,281,407,465,339,17
1364,0.9,-0.4,0.1,2.44,-4.88,-4.21,209,282,407,465,343,17
1365,0.91,-0.39,0.11,4.58,-3.85,-2.08,211,283,404,464,347,17
1366,0.91,-0.39,0.11,-1.65,-2.69,-2.75,209,282,406,460,341,17
1367,0.91,-0.39,0.12,0.31,-3.05,-1.83,217,283,401,465,345,17
1368,0.92,-0.39,0.12,-0.37,-2.69,0.18,212,285,407,467,344,17
1369,0.93,-0.35,0.18,-6.9,-2.81,10.93,212,285,405,460,344,17
1370,1.01,-0.32,0.15,0.98,-2.99,-2.75,213,282,405,466,343,17
1371,0.94,-0.37,0.03,-1.89,-7.75,-3.23,205,291,408,466,344,17
1372,0.85,-0.44,0.06,-3.36,-3.78,6.59,208,281,405,462,338,17
1373,0.89,-0.45,0.06,-0.18,-3.54,-4.58,210,281,403,463,347,17
1374,0.92,-0.42,0.06,3.91,-1.16,-4.27,210,281,403,456,340,17
1375,0.91,-0.4,0.09,-0.24,0.18,-7.93,214,275,404,453,337,17
1376,0.92,-0.42,0.11,-2.99,-1.59,2.08,210,284,399,462,335,17
1377,0.91,-0.41,0.09,-5.49,-3.85,-5.86,209,282,404,461,341,17
1378,0.93,-0.41,0.1,-0.24,-1.89,-3.42,212,282,404,456,336,17
1379,0.91,-0.41,0.09,-0.43,-2.08,-1.95,211,281,402,455,336,17
1380,0.93,-0.4,0.1,1.59,-3.23,-3.6,211,284,401,452,337,17
1381,0.94,-0.39,0.13,-2.99,-3.23,-1.46,212,285,402,452,341,17
1382,0.89,-0.43,0.09,-2.69,-2.62,-0.67,211,282,400,459,341,17
1383,0.91,-0.42,0.09,-3.48,-4.27,3.97,208,284,397,452,344,17
1384,0.88,-0.4,0.09,-2.26,-2.26,-2.14,211,297,401,450,341,17
1385,0.9,-0.43,0.1,0.49,-3.3,-2.56,207,284,393,453,341,17
1386,0.91,-0.4,0.1,0.12,-3.42,-2.69,211,281,396,452,336,17
1387,0.9,-0.42,0.08,2.5,-2.87,-3.72,210,285,401,452,343,17
1388,0.89,-0.42,0.1,0.79,-5.49,1.04,203,285,399,454,341,17
1389,0.89,-0.44,0.11,-0.49,-3.23,-1.89,212,285,401,454,341,17
1390,0.89,-0.43,0.09,-4.46,-3.11,-5.74,212,284,400,451,340,17
1391,0.9,-0.43,0.1,2.26,-3.78,-4.03,209,282,395,457,338,17
1392,0.88,-0.42,0.14,1.53,0.85,-3.6,211,282,397,459,344,17
1393,0.9,-0.41,0.09,0.61,-3.54,-4.58,210,283,394,451,341,17
1394,0.89,-0.43,0.12,-1.71,-2.38,-2.38,212,289,393,457,344,17
1395,0.88,-0.43,0.08,3.78,-0.79,-4.21,214,278,398,457,344,17
1396,0.88,-0.43,0.08,0.37,-3.6,3.17,209,284,396,458,338,17
1397,0.9,-0.42,0.11,0.55,-1.65,-5.13,210,283,396,460,342,17
1398,0.91,-0.41,0.1,1.4,-3.23,-3.3,213,286,397,455,341,17
1399,0.92,-0.39,0.11,1.28,-3.36,-2.44,214,290,399,458,341,17
1400,0.93,-0.4,0.11,-1.16,-2.32,-4.39,214,284,394,455,342,17
1401,0.9,-0.41,0.11,1.89,-3.36,-4.09,235,283,396,453,344,17
1402,0.91,-0.41,0.11,0.92,-3.11,-4.27,210,283,400,457,347,17
1403,0.91,-0.41,0.13,0.67,-2.01,-2.93,210,281,402,455,343,17
1404,0.91,-0.41,0.12,1.04,-2.32,-2.2,212,284,401,455,339,17
1405,0.9,-0.4,0.14,2.44,-1.34,-1.4,210,284,399,454,344,17
1406,0.91,-0.4,0.13,-1.53,-3.05,-2.93,205,285,396,459,338,17
1407,0.9,-0.41,0.13,-5.13,-2.38,-1.1,211,283,402,453,340,17
1408,0.9,-0.41,0.11,-4.21,-3.6,2.32,212,282,400,452,329,17
1409,0.93,-0.39,0.11,4.15,-2.75,-5.55,214,279,401,458,342,17
1410,0.92,-0.4,0.13,3.05,-3.85,-2.14,213,279,398,466,339,17
1411,0.93,-0.38,0.14,1.22,-3.6,-2.32,216,283,399,470,341,17
1412,0.91,-0.4,0.12,1.4,-2.44,-3.05,211,283,400,460,338,17
1413,0.91,-0.39,0.1,-0.37,-3.11,-1.83,211,276,400,454,340,17
1414,0.92,-0.4,0.11,-0.24,-2.14,-2.44,207,280,402,450,337,17
1415,0.92,-0.4,0.12,-0.12,-2.87,-2.26,212,281,399,449,337,17
1416,0.91,-0.4,0.13,0.37,-2.99,-2.44,207,281,402,440,342,17
1417,0.91,-0.4,0.12,0.85,-3.72,-2.32,214,285,394,441,344,17
1418,0.92,-0.4,0.11,0.67,-3.23,-3.11,212,282,402,438,341,17
1419,0.92,-0.4,0.13,1.59,-2.93,-2.32,210,283,399,449,345,17
1420,0.91,-0.4,0.12,-0.06,-2.38,-2.93,212,281,403,445,344,17
1421,0.91,-0.4,0.12,-0.31,-2.2,-1.65,211,282,404,448,343,17
1422,0.91,-0.39,0.13,1.1,-2.14,-2.87,209,282,403,443,337,17
1423,0.92,-0.39,0.12,0.73,-3.11,-3.6,211,284,404,456,342,17
1424,0.91,-0.39,0.13,0.79,-3.91,-2.69,205,281,402,449,339,17
1425,0.9,-0.38,0.13,-0.43,-2.56,-1.71,211,282,402,454,350,17
1426,0.91,-0.4,0.14,0.12,-3.23,-2.87,208,285,403,448,342,17
1427,0.91,-0.38,0.15,-0.98,-1.65,-1.65,211,280,403,449,342,17
1428,0.91,-0.4,0.1,-5.49,-2.99,-6.1,212,282,406,450,338,17
1429,0.92,-0.38,0.12,1.4,-2.99,-2.93,212,282,397,452,339,17
1430,0.92,-0.38,0.12,-0.55,-2.75,-2.44,211,279,405,451,340,17
1431,0.91,-0.38,0.13,-0.79,-4.33,1.83,212,283,402,452,339,17
1432,0.93,-0.39,0.16,-0.49,-4.27,4.58,213,282,401,449,339,17
1433,0.93,-0.37,0.14,-1.1,-2.32,-0.85,211,280,402,452,338,17
1434,0.91,-0.37,0.12,-0.55,-2.14,-1.83,213,286,401,446,339,17
1435,0.92,-0.39,0.12,0.55,-2.62,-2.26,211,282,404,446,342,17
1436,0.92,-0.37,0.14,-1.04,-3.11,-2.69,213,283,400,449,341,17
1437,0.91,-0.39,0.12,-0.85,-2.44,-1.59,213,281,404,448,343,17
1438,0.92,-0.37,0.12,0.06,-2.93,-2.56,211,281,405,446,339,17
1439,0.93,-0.37,0.13,1.89,-1.83,-2.5,212,282,403,449,344,17
1440,0.93,-0.38,0.14,1.83,-2.69,-2.38,213,281,406,439,340,17
1441,0.91,-0.4,0.12,1.46,-3.17,-2.26,213,282,399,450,344,17
1442,0.91,-0.39,0.13,1.04,-4.82,-0.92,213,279,401,453,344,17
1443,0.93,-0.38,0.1,1.77,-3.48,-3.48,212,283,402,450,339,17
1444,0.9,-0.39,0.14,-1.95,-1.4,-0.85,213,281,401,452,341,17
1445,0.93,-0.36,0.14,-0.24,-4.46,-1.65,215,284,402,448,343,17
1446,0.91,-0.37,0.1,3.48,-1.34,-6.1,212,278,404,448,346,17
1447,0.92,-0.37,0.14,1.1,-2.01,-5.25,212,279,404,451,342,17
1448,0.94,-0.36,0.09,0.79,-1.22,-4.15,205,280,404,451,341,17
1449,0.92,-0.36,0.12,1.04,-2.75,-2.32,209,282,404,444,342,17
1450,0.92,-0.35,0.09,-3.36,-3.17,-1.59,239,282,402,447,338,17
1451,0.93,-0.35,0.15,1.4,-2.32,-3.6,209,282,399,445,337,17
1452,0.93,-0.34,0.12,-1.89,-3.66,-2.99,213,282,406,449,340,17
1453,0.95,-0.33,0.19,2.08,-5.37,-5.86,250,285,402,452,342,17
1454,0.93,-0.31,0.1,-2.14,0.12,-4.52,209,286,402,446,337,17
1455,0.95,-0.31,0.12,-5.43,0.61,-2.26,210,281,403,445,341,17
1456,0.96,-0.28,0.17,-2.32,-2.26,-2.75,206,282,402,445,343,17
1457,0.97,-0.3,0.17,4.88,-2.32,0.12,210,286,402,448,337,17
1458,0.96,-0.3,0.16,0.92,-2.44,0.31,211,282,398,451,340,17
1459,0.92,-0.34,0.14,-3.6,-3.42,-1.04,211,282,398,452,339,17
1460,0.93,-0.34,0.1,0.37,-3.3,-2.99,211,285,402,453,345,17
1461,0.91,-0.35,0.11,-1.65,-2.32,-3.85,213,282,400,449,341,17
1462,0.92,-0.35,0.15,3.54,-3.11,-3.11,212,283,403,445,340,17
1463,0.95,-0.32,0.15,3.6,-2.44,-3.42,221,282,405,445,344,17
1464,0.92,-0.34,0.13,-0.61,-2.87,-1.16,211,283,403,444,340,17
1465,0.93,-0.33,0.15,0.92,-2.44,-2.87,224,284,404,448,341,17
1466,0.94,-0.34,0.16,0.06,-2.32,-2.26,213,284,403,449,339,17
1467,0.94,-0.34,0.15,0.49,-2.99,-2.26,212,288,399,442,341,17
1468,0.93,-0.33,0.14,1.59,-3.42,-2.69,214,282,403,446,342,17
1469,0.94,-0.33,0.14,0.12,-3.3,-2.5,214,285,400,449,343,17
1470,0.93,-0.34,0.14,-0.06,-3.05,-2.44,214,288,402,449,340,17
1471,0.94,-0.33,0.18,2.5,-1.83,0.92,207,282,402,447,338,17
1472,0.92,-0.36,0.13,-0.24,-2.62,-3.48,211,287,402,450,342,17
1473,0.92,-0.35,0.13,-1.59,-3.05,-1.1,211,289,403,440,342,17
1474,0.92,-0.36,0.15,0.79,-2.62,-1.89,213,283,405,448,348,17
1475,0.93,-0.33,0.15,3.54,-3.78,-3.05,210,277,404,445,337,17
1476,0.94,-0.33,0.14,-0.43,-2.32,-6.35,210,284,402,447,340,17
1477,0.93,-0.34,0.14,-2.2,-2.99,-2.38,215,281,402,451,342,17
1478,0.93,-0.33,0.15,0.0,-2.62,-3.6,242,288,403,452,343,17
1479,0.93,-0.34,0.15,1.34,-1.89,-3.91,213,282,401,446,341,17
1480,0.94,-0.34,0.16,0.18,-2.14,-2.26,206,284,402,442,342,17
1481,0.94,-0.33,0.15,0.49,-3.48,-2.26,214,286,402,453,346,17
1482,0.93,-0.33,0.14,-0.61,-2.32,-1.53,206,285,403,451,339,17
1483,0.94,-0.33,0.15,-1.1,-3.17,-1.28,213,285,403,447,345,17
1484,0.97,-0.32,0.14,0.43,-3.66,-4.46,209,282,402,447,335,17
1485,0.92,-0.35,0.13,0.55,-2.75,-4.33,211,286,401,448,341,17
1486,0.93,-0.34,0.14,-1.59,-2.81,-2.75,210,285,402,440,339,17
1487,0.93,-0.33,0.15,0.18,-1.04,-4.82,206,284,405,444,343,17
1488,0.96,-0.3,0.18,0.73,-2.81,-2.5,210,288,398,450,345,17
1489,0.94,-0.32,0.17,-0.92,-2.81,-1.04,215,283,403,453,342,17
1490,0.94,-0.32,0.17,-0.79,-4.21,-1.77,209,283,402,442,341,17
1491,0.96,-0.32,0.14,-0.31,-2.75,-0.85,210,287,402,450,344,17
1492,0.96,-0.33,0.16,-3.72,-2.2,1.95,210,286,403,449,339,17
1493,0.95,-0.34,0.16,-3.66,-2.2,-1.46,220,289,402,451,342,17
1494,0.89,-0.38,0.16,4.15,-5.13,-3.78,213,285,404,444,341,17
1495,0.92,-0.37,0.14,2.75,-2.5,-3.78,213,282,404,452,338,17
1496,0.92,-0.36,0.13,2.01,-3.66,-1.28,214,283,403,452,341,17
1497,0.92,-0.36,0.13,0.31,-1.95,-1.83,212,287,402,443,343,17
1498,0.92,-0.36,0.14,0.49,-2.69,-2.32,211,281,398,444,345,17
1499,0.91,-0.37,0.15,-1.4,-2.44,-1.89,210,286,401,446,342,17
1500,0.93,-0.37,0.13,1.1,-1.46,-3.11,215,287,400,444,345,17
1501,0.96,-0.33,0.14,-3.05,-3.91,-0.92,212,281,403,449,341,17
1502,0.93,-0.35,0.14,-2.2,-2.69,-2.08,221,283,402,453,344,17
1503,0.96,-0.33,0.15,3.23,-3.11,-3.05,214,284,401,450,345,17
1504,0.93,-0.33,0.16,-1.95,-2.14,-1.77,212,286,401,451,338,17
1505,0.92,-0.35,0.12,1.83,-1.77,-6.65,217,283,404,452,345,17
1506,0.93,-0.35,0.13,2.2,-3.48,-3.42,211,288,401,449,335,17
1507,0.91,-0.36,0.13,-2.69,-2.87,-1.04,216,284,400,448,343,17
1508,0.96,-0.33,0.15,3.72,-4.94,-2.5,211,284,399,451,342,17
1509,0.92,-0.38,0.09,1.34,-8.91,-0.37,211,283,403,448,341,17
1510,0.93,-0.4,0.13,-4.64,-6.23,1.1,213,285,401,453,340,17
1511,0.9,-0.4,0.12,6.96,2.44,-1.34,214,287,401,448,343,17
1512,0.92,-0.4,0.16,1.89,-3.23,1.59,212,285,400,450,338,17
1513,0.92,-0.36,0.17,1.04,-2.01,2.32,212,285,405,447,342,17
1514,0.94,-0.4,0.14,5.86,-10.31,0.31,211,285,397,444,341,17
1515,0.89,-0.44,0.11,1.71,-2.44,2.56,214,286,403,448,346,17
1516,0.86,-0.47,0.06,0.06,-4.52,-2.81,207,286,405,449,342,17
1517,0.91,-0.43,0.11,0.55,-0.67,-5.25,210,284,401,448,340,17
1518,0.91,-0.41,0.14,-0.43,0.55,-2.75,209,282,397,449,340,17
1519,0.91,-0.4,0.15,1.1,-3.17,-2.38,212,284,406,442,344,17
1520,0.89,-0.42,0.13,1.46,-2.81,-1.53,209,284,401,444,342,17
1521,0.91,-0.41,0.11,0.06,-1.65,-3.17,216,283,404,443,339,17
1522,0.9,-0.41,0.12,1.89,-2.87,-1.46,214,281,404,448,345,17
1523,0.9,-0.4,0.12,0.98,-1.04,-3.05,215,287,402,444,343,17
1524,0.92,-0.39,0.16,-0.49,-2.38,-1.4,213,285,402,449,340,17
1525,0.85,-0.44,0.13,-1.95,0.24,-5.55,212,281,397,445,345,17
1526,0.89,-0.36,0.11,1.1,-6.16,1.16,214,282,399,452,344,17
1527,0.92,-0.36,0.14,-5.19,-7.81,4.27,210,291,399,448,344,17
1528,0.92,-0.44,0.02,6.04,-4.64,-9.83,213,284,402,448,341,17
1529,0.86,-0.44,0.08,5.74,-1.77,4.46,209,283,402,450,342,17
1530,0.89,-0.45,0.09,-2.38,-4.27,-4.52,212,283,402,450,341,17
1531,0.87,-0.47,0.03,-2.93,-1.71,-7.14,212,284,401,450,342,17
1532,0.92,-0.4,0.04,-5.07,-4.33,-2.99,217,285,399,443,342,17
1533,0.95,-0.4,0.09,8.3,-5.07,0.0,209,285,403,451,341,17
1534,0.9,-0.45,0.0,2.93,-0.49,-6.1,215,283,403,446,340,17
1535,0.95,-0.39,0.07,0.92,-5.98,-4.58,211,283,399,451,340,17
1536,0.89,-0.46,0.03,0.79,-2.38,-6.59,217,285,401,450,340,17
1537,0.91,-0.41,0.02,0.37,-1.04,-4.33,211,283,402,448,348,17
1538,0.92,-0.39,0.06,-0.67,-2.87,-2.75,216,284,399,449,343,17
1539,0.92,-0.41,0.04,0.55,-2.44,-2.81,207,284,403,446,341,17
1540,0.92,-0.4,0.05,0.61,-3.17,-1.65,211,283,400,446,347,17
1541,0.91,-0.4,0.03,-2.01,-1.77,-1.34,213,284,399,441,340,17
1542,0.9,-0.42,0.05,-0.12,-2.26,-3.17,212,285,402,450,341,17
1543,0.9,-0.41,0.05,-3.23,-4.64,-1.16,214,285,397,449,341,17
1544,0.93,-0.4,0.03,-2.26,-0.18,-0.61,210,290,401,441,344,17
1545,0.89,-0.41,0.06,2.99,-1.89,-9.4,210,280,403,451,345,17
1546,0.94,-0.35,0.01,-6.84,1.89,-4.76,210,286,396,448,344,17
1547,0.95,-0.37,0.09,0.06,8.91,-10.13,215,285,400,452,344,17
1548,0.93,-0.31,0.16,4.27,-0.31,-9.83,211,285,402,449,343,17
1549,0.97,-0.3,0.15,-1.83,-3.78,1.59,215,284,397,453,339,17
1550,0.93,-0.33,0.13,-0.37,-5.0,-0.49,213,284,397,452,343,17
1551,0.95,-0.33,0.13,-0.37,-4.46,-0.55,205,282,403,445,344,17
1552,0.94,-0.36,0.11,-0.06,-5.37,-0.85,211,284,401,448,347,17
1553,0.92,-0.39,0.09,1.59,-4.82,-2.56,211,289,403,453,340,17
1554,0.9,-0.41,0.1,-0.18,-2.38,-1.04,211,282,401,447,341,17
1555,0.91,-0.4,0.09,-0.31,-3.17,-3.66,213,284,402,448,344,17
1556,0.93,-0.37,0.11,2.38,-3.17,-3.85,213,284,401,449,346,17
1557,0.9,-0.41,0.13,1.16,-2.81,-0.43,211,282,400,446,341,17
1558,0.92,-0.39,0.11,-0.49,-3.3,-1.77,210,281,401,442,346,17
1559,0.92,-0.39,0.1,0.49,-1.95,0.06,214,281,399,449,344,17
1560,0.93,-0.39,0.08,-1.28,-1.34,-4.76,204,283,402,449,343,17
1561,0.88,-0.49,0.04,-2.2,-3.11,-5.31,226,289,426,468,343,17
1562,0.85,-0.49,0.06,-0.43,-0.85,-2.81,227,289,424,472,343,17
1563,0.9,-0.48,0.01,6.84,-2.2,-2.26,227,289,429,465,343,17
1564,0.89,-0.47,0.06,16.48,8.48,6.47,232,291,431,465,339,17
1565,0.94,-0.59,0.14,6.1,-1.65,6.71,227,292,429,467,341,17
1566,0.78,-0.57,0.17,4.58,-12.15,5.98,227,291,429,468,340,17
1567,0.79,-0.63,0.13,30.94,-6.53,0.37,224,287,432,469,341,17
1568,0.75,-0.49,0.37,-17.33,-8.97,6.1,225,287,429,469,339,17
1569,0.8,-0.66,-0.08,-52.98,-20.26,-6.35,213,278,424,449,285,17
1570,0.76,-0.58,0.11,56.52,13.12,-14.16,214,289,426,462,302,17
1571,0.8,-0.57,0.28,-0.49,2.32,-5.49,221,292,429,463,318,17
1572,0.8,-0.5,0.27,-36.8,6.53,-34.67,218,289,433,463,335,17
1573,0.96,-0.52,0.02,3.42,2.87,1.53,227,292,420,453,295,17
1574,0.79,-0.57,0.22,29.79,-3.78,22.52,230,299,421,461,299,17
1575,0.8,-0.48,0.18,19.29,-32.35,-1.1,222,290,426,456,316,17
1576,0.77,-0.49,0.26,34.0,20.51,-4.58,227,299,422,458,317,17
1577,0.84,-0.5,0.29,-3.48,-3.97,-4.33,230,298,430,462,318,17
1578,0.82,-0.56,0.18,-21.67,6.71,-4.58,231,295,429,466,316,17
1579,0.83,-0.55,0.25,-10.56,12.02,-5.0,228,302,435,464,316,17
1580,0.8,-0.53,0.29,1.46,-8.85,-15.81,230,302,423,460,315,17
1581,0.86,-0.49,0.26,2.99,-3.48,-1.46,233,302,430,464,315,17
1582,0.74,-0.63,0.24,15.2,-43.4,-12.33,231,299,429,464,317,17
1583,0.83,-0.57,0.15,6.29,-13.73,0.37,230,298,428,466,321,17
1584,0.86,-0.46,0.15,-0.43,-6.77,5.31,231,301,430,466,320,17
1585,0.69,-0.46,0.3,-1.1,16.05,8.67,228,302,425,465,321,17
1586,1.0,-0.41,0.15,15.14,-2.93,-13.61,229,300,428,467,319,17
1587,0.96,-0.4,0.17,-15.75,5.49,-13.31,230,301,428,469,320,17
1588,0.61,-0.66,0.03,23.13,-36.32,12.33,231,305,427,466,321,17
1589,0.82,-0.54,-0.05,-8.36,18.62,-0.18,229,302,433,466,322,17
1590,0.96,-0.51,-0.18,-26.49,15.14,56.27,230,303,433,466,323,17
1591,0.61,-0.77,0.12,-7.26,-36.19,-40.16,234,300,431,462,326,17
1592,0.8,-0.59,-0.12,-13.79,-9.22,11.78,232,298,432,467,328,17
1593,0.76,-0.6,0.01,23.8,1.46,5.62,233,297,426,471,328,17
1594,0.81,-0.6,-0.07,2.62,1.83,-0.61,232,299,431,466,327,17
1595,0.75,-0.62,-0.04,5.74,-6.9,1.77,233,301,432,474,329,17
1596,0.81,-0.62,-0.06,4.82,-0.92,-1.28,231,304,429,466,328,17
1597,0.82,-0.66,-0.05,8.3,-0.37,-7.39,233,302,436,471,328,17
1598,0.71,-0.55,0.13,14.1,1.16,1.1,232,298,430,468,326,17
1599,0.79,-0.54,0.06,14.71,-15.01,-9.77,233,300,428,472,328,17
1600,0.81,-0.44,0.11,-5.31,0.85,28.87,235,298,431,469,333,17
1601,0.85,-0.52,0.09,7.69,-2.62,-12.76,236,297,428,465,332,17
1602,0.76,-0.63,0.02,2.44,-5.62,-4.33,233,302,432,466,332,17
1603,0.88,-0.59,-0.0,-1.59,-1.83,-3.48,234,299,431,471,333,17
1604,0.79,-0.6,-0.0,-5.13,-11.96,-2.2,235,300,434,468,335,17
1605,0.77,-0.59,-0.01,4.76,-0.55,-0.98,234,298,432,468,328,17
1606,0.8,-0.57,0.01,-4.27,-2.14,-4.76,234,301,432,464,332,17
1607,0.79,-0.59,0.01,2.38,1.04,-3.3,237,304,440,466,332,17
1608,0.82,-0.59,-0.01,1.4,-5.13,-2.08,239,302,431,473,328,17
1609,0.8,-0.58,0.01,-0.61,-3.05,-3.85,236,303,427,468,331,17
1610,0.81,-0.59,-0.01,-1.22,-4.76,-3.54,236,302,430,469,330,17
1611,0.77,-0.59,0.03,0.79,-1.65,-3.91,235,304,429,471,323,17
1612,0.87,-0.59,-0.06,-6.59,-0.12,-1.77,236,304,432,468,331,17
1613,0.78,-0.61,-0.03,3.48,-6.16,-5.74,236,302,432,469,334,17
1614,0.82,-0.61,0.02,6.65,-8.54,-2.32,239,305,430,469,334,17
1615,0.78,-0.65,-0.07,10.38,-14.16,-3.72,236,305,431,470,335,17
1616,0.77,-0.55,0.09,-8.24,7.69,7.2,248,302,426,464,331,17
1617,0.64,-0.84,0.07,7.75,32.84,2.93,239,304,431,468,331,17
1618,0.76,-0.54,0.19,4.82,-17.27,-5.07,237,304,431,472,335,17
1619,0.81,-0.58,0.11,0.61,-12.33,-1.89,239,304,427,467,335,17
1620,0.86,-0.55,0.1,8.3,-11.23,2.38,237,305,432,468,333,17
1621,0.74,-0.59,0.13,8.18,-8.3,2.26,237,307,434,471,334,17
1622,0.77,-0.59,0.03,-0.98,-5.07,-3.91,240,303,433,464,333,17
1623,0.67,-0.67,0.09,-0.43,-10.44,-4.39,236,300,435,468,334,17
1624,0.79,-0.56,-0.07,-1.34,-4.64,3.42,238,308,428,464,334,17
1625,0.81,-0.53,0.02,-4.33,14.77,-1.1,240,303,435,467,332,17
1626,0.73,-0.71,-0.02,11.96,-3.3,-1.1,237,305,430,471,336,17
1627,0.97,-0.47,0.09,11.96,-8.12,-9.95,236,301,431,468,331,17
1628,0.84,-0.56,0.07,30.15,-20.45,-9.95,239,304,433,472,332,17
1629,0.78,-0.55,0.02,-1.28,-13.0,-11.05,240,307,430,470,335,17
1630,0.83,-0.6,-0.08,-20.94,-8.48,-19.47,238,305,431,469,332,17
1631,0.86,-0.63,-0.14,0.61,9.16,12.21,238,311,430,466,335,17
1632,0.92,-0.57,-0.04,0.85,-6.23,-18.01,238,304,430,462,333,17
1633,0.88,-0.54,-0.19,-9.52,-2.81,-1.53,239,306,430,466,333,17
1634,0.81,-0.54,0.01,10.31,-0.79,0.73,239,305,433,463,336,17
1635,0.96,-0.44,-0.04,17.64,-3.72,16.66,239,305,431,469,334,17
1636,0.79,-0.5,0.19,5.92,10.56,-2.32,242,308,434,466,335,17
1637,0.87,-0.51,0.13,2.38,-0.31,-2.75,241,309,433,471,333,17
1638,0.8,-0.56,0.13,0.55,-0.61,2.75,242,308,432,471,336,17
1639,0.77,-0.61,0.16,-4.76,9.58,-3.48,241,303,433,472,332,17
1640,0.82,-0.55,0.15,2.99,-3.72,-2.5,242,305,431,467,335,17
1641,0.83,-0.58,0.12,8.73,-1.95,2.81,253,309,430,470,335,17
1642,0.86,-0.58,-0.02,18.86,-51.21,26.92,240,303,430,471,334,17
1643,0.76,-0.62,0.1,-13.85,36.93,-23.13,240,310,429,473,333,17
1644,0.81,-0.62,0.08,11.66,-8.91,1.89,244,305,433,472,331,17
1645,0.76,-0.62,0.13,4.58,-11.96,0.06,244,305,431,464,336,17
1646,0.81,-0.67,0.05,-5.43,-5.31,-5.74,239,307,434,471,338,17
1647,0.84,-0.59,0.06,-0.55,-0.49,-3.54,242,309,443,474,335,17
1648,0.79,-0.64,0.11,-5.0,11.41,0.06,244,312,431,471,336,17
1649,0.84,-0.63,0.14,-4.46,-4.33,-4.33,238,306,440,464,334,17
1650,0.7,-0.6,0.11,-22.28,-0.37,-6.23,245,308,430,473,327,17
1651,0.82,-0.7,-0.04,-26.79,4.82,-3.05,241,307,430,469,331,17
1652,0.81,-0.55,0.04,0.37,-2.32,-5.13,241,309,431,469,329,17
1653,0.82,-0.56,0.04,5.43,-4.88,-3.78,243,311,433,472,333,17
1654,0.79,-0.56,0.04,-3.17,-3.66,-3.91,243,310,428,472,336,17
1655,0.78,-0.6,0.09,4.52,-4.82,-4.15,243,307,434,469,333,17
1656,0.81,-0.59,-0.0,-3.36,-6.41,-1.83,242,307,430,468,333,17
1657,0.79,-0.58,0.06,-1.46,-1.65,-2.87,241,308,430,472,334,17
1658,0.86,-0.54,0.01,-6.53,-2.5,1.28,243,307,434,468,332,17
1659,0.85,-0.57,-0.01,8.67,-1.59,0.61,242,315,433,463,332,17
1660,0.81,-0.58,0.06,3.91,1.1,1.89,244,309,429,473,337,17
1661,0.83,-0.62,0.04,-0.61,-9.28,-3.42,243,311,428,463,335,17
1662,0.8,-0.56,0.06,2.69,-4.21,-3.97,242,307,431,471,335,17
1663,0.77,-0.59,0.08,0.43,-4.33,-0.85,239,309,428,468,326,17
1664,0.83,-0.59,0.05,0.31,-5.19,-3.3,243,309,429,472,334,17
1665,0.81,-0.6,0.07,-0.12,-3.36,-2.08,243,308,441,479,333,17
1666,0.82,-0.59,0.05,3.3,-5.37,-2.93,245,305,431,471,333,17
1667,0.81,-0.58,0.06,0.73,-6.35,-3.42,246,309,433,466,334,17
1668,0.81,-0.56,0.04,-0.31,-2.08,-2.69,245,312,429,467,330,17
1669,0.8,-0.59,0.05,-2.99,-1.16,-3.97,282,312,439,470,335,17
1670,0.82,-0.58,0.04,1.95,-0.12,-1.4,244,307,434,465,334,17
1671,0.83,-0.59,0.05,0.37,-1.46,-4.27,245,306,433,468,336,17
1672,0.82,-0.57,0.1,4.76,0.61,-3.23,245,312,431,472,333,17
1673,0.8,-0.59,0.08,8.91,-10.19,-0.61,241,316,431,471,334,17
1674,0.89,-0.52,0.13,-1.71,1.77,-10.56,243,306,428,471,331,17
1675,0.85,-0.53,0.11,-11.11,-8.06,-2.99,262,308,431,472,334,17
1676,0.85,-0.53,0.06,12.08,-11.05,0.24,240,307,430,470,333,17
1677,0.85,-0.56,0.11,3.97,-7.39,-5.43,240,311,428,466,335,17
1678,0.82,-0.54,0.08,5.19,-1.16,3.6,243,313,433,468,334,17
1679,0.85,-0.63,0.07,1.53,-10.62,0.92,245,309,434,471,334,17
1680,0.75,-0.62,0.14,0.06,-15.81,0.37,245,309,436,467,335,17
1681,0.73,-0.62,0.01,1.16,-9.58,-1.4,247,308,433,472,333,17
1682,0.76,-0.6,0.07,5.98,-4.27,-6.35,245,313,434,472,335,17
1683,0.81,-0.58,0.07,6.04,-7.08,-2.32,240,312,429,465,336,17
1684,0.8,-0.59,0.04,0.12,-4.88,0.61,243,310,433,472,338,17
1685,0.82,-0.61,0.04,3.97,-4.15,-3.6,244,310,434,467,336,17
1686,0.8,-0.51,0.11,9.22,-7.93,-4.21,243,310,432,468,337,17
1687,0.71,-0.6,0.07,8.3,-2.44,6.47,239,312,433,472,335,17
1688,0.7,-0.66,0.04,1.65,-2.26,2.5,244,310,427,467,337,17
1689,0.75,-0.65,0.04,-1.04,-1.65,-1.95,244,312,427,471,335,17
1690,0.78,-0.64,0.04,2.38,-1.83,-2.38,247,311,427,469,335,17
1691,0.71,-0.62,0.06,-0.61,3.3,-4.27,243,312,428,468,332,17
1692,0.81,-0.62,-0.0,10.01,-3.11,-10.25,243,313,429,468,339,17
1693,0.77,-0.61,0.1,-6.41,-1.16,-5.92,243,309,433,471,339,17
1694,0.83,-0.61,-0.02,-11.54,-10.31,-9.09,244,311,428,471,341,17
1695,0.82,-0.57,-0.03,7.45,-5.19,-0.85,245,309,431,472,337,17
1696,0.79,-0.53,0.0,3.42,6.59,-1.1,244,315,428,470,339,17
1697,0.59,-0.71,-0.03,4.58,2.14,23.13,243,314,430,466,339,17
1698,0.8,-0.62,0.02,-0.12,-1.53,-6.29,245,315,434,470,340,17
1699,0.76,-0.65,-0.02,0.0,-7.08,-0.79,245,309,433,472,330,17
1700,0.73,-0.62,0.02,2.81,-3.05,-0.06,248,314,430,464,337,17
1701,0.74,-0.65,0.01,1.46,1.34,-0.92,245,311,432,464,339,17
1702,0.75,-0.68,0.01,2.01,-1.16,-2.62,248,309,431,470,340,17
1703,0.82,-0.64,-0.01,-2.08,-3.72,-6.96,248,311,434,470,337,17
1704,0.79,-0.65,0.0,-2.32,-3.6,-1.89,244,312,434,469,339,17
1705,0.74,-0.66,0.02,0.31,-2.75,-1.22,244,313,433,463,336,17
1706,0.78,-0.65,-0.03,1.83,-4.94,-4.03,243,312,432,474,339,17
1707,0.81,-0.61,0.01,4.64,-5.68,-3.6,245,314,429,471,337,17
1708,0.77,-0.64,-0.01,-0.79,-3.36,-3.11,248,312,429,474,341,17
1709,0.78,-0.64,-0.02,-1.22,-3.78,-6.53,246,312,429,468,340,17
1710,0.78,-0.64,-0.06,0.0,-3.54,-2.08,246,313,431,476,341,17
1711,0.74,-0.62,-0.0,-0.55,-5.07,-3.17,247,315,428,466,336,17
1712,0.77,-0.55,0.04,11.6,7.26,-1.77,248,313,429,463,340,17
1713,0.86,-0.62,-0.0,-4.03,-1.89,-7.63,249,316,431,470,337,17
1714,0.76,-0.65,0.01,-0.49,0.0,1.59,247,311,431,472,338,17
1715,0.72,-0.62,-0.02,15.44,-13.0,-0.79,248,315,432,468,338,17
1716,0.78,-0.61,-0.02,14.47,-5.0,0.61,243,314,439,468,335,17
1717,0.78,-0.62,0.02,-0.24,-1.1,0.31,246,312,431,469,336,17
1718,0.8,-0.64,-0.0,2.69,-4.94,1.34,247,312,431,472,339,17
1719,0.79,-0.66,0.01,0.92,-5.19,-0.61,247,312,429,472,340,17
1720,0.78,-0.64,0.01,-4.15,-0.98,-2.99,247,312,434,472,339,17
1721,0.79,-0.65,0.02,-1.71,0.12,-3.54,251,313,428,470,335,17
1722,0.77,-0.64,0.03,1.16,-1.83,-1.4,246,316,434,474,338,17
1723,0.73,-0.65,0.04,0.43,-2.08,-0.79,246,314,432,472,339,17
1724,0.78,-0.63,0.02,4.09,-5.0,-0.31,246,311,433,467,339,17
1725,0.71,-0.68,0.05,-3.3,0.31,-3.97,248,317,430,470,338,17
1726,0.74,-0.7,0.03,-2.99,4.39,-0.12,249,315,432,472,338,17
1727,0.73,-0.69,0.06,-3.17,0.0,-3.54,275,315,435,482,341,17
1728,0.74,-0.67,0.08,-2.2,-2.2,-3.66,246,315,429,475,336,17
1729,0.7,-0.66,0.04,1.46,-5.07,-12.57,247,314,431,476,338,17
1730,0.82,-0.61,-0.02,10.25,-12.39,0.24,274,314,431,471,340,17
1731,0.79,-0.58,0.02,0.85,-3.97,-2.81,245,313,434,465,336,17
1732,0.76,-0.62,-0.0,-1.65,-8.79,0.98,248,314,433,474,339,17
1733,0.77,-0.63,-0.02,-0.06,-3.97,-2.26,246,310,430,469,341,17
1734,0.77,-0.64,-0.04,2.2,-2.38,-1.1,250,314,431,470,335,17
1735,0.77,-0.64,-0.04,4.7,-4.58,0.67,247,317,428,470,337,17
1736,0.76,-0.64,-0.05,0.0,-3.48,-3.05,249,315,432,474,340,17
1737,0.73,-0.64,-0.04,3.17,-1.16,-1.65,247,317,431,476,338,17
1738,0.75,-0.65,-0.03,-1.16,2.32,-3.72,246,313,431,472,338,17
1739,0.78,-0.65,-0.02,4.7,-0.18,0.24,246,316,433,470,339,17
1740,0.77,-0.68,0.01,-1.4,9.4,14.1,273,313,431,473,341,17
1741,0.72,-0.69,0.09,-15.08,5.19,-17.88,248,317,430,466,341,17
1742,0.75,-0.67,0.03,7.93,0.24,-0.49,247,317,434,472,339,17
1743,0.71,-0.67,0.05,9.09,-15.99,0.24,250,314,432,466,342,17
1744,0.72,-0.69,0.04,-16.6,-1.46,0.37,245,315,435,470,336,17
1745,0.77,-0.64,-0.06,-12.82,-2.32,-3.42,244,317,430,464,336,17
1746,0.75,-0.68,-0.0,8.24,-4.82,-3.85,245,317,431,466,332,17
1747,0.75,-0.67,-0.0,1.04,-5.37,-2.38,247,317,432,472,335,17
1748,0.72,-0.68,-0.0,1.95,-1.65,-3.42,237,312,430,466,336,17
1749,0.75,-0.67,0.02,-2.14,-7.14,-4.76,236,311,429,468,332,17
1750,0.78,-0.65,-0.03,6.1,-4.88,-1.04,232,308,441,465,337,17
1751,0.75,-0.67,-0.03,-1.89,-4.52,-2.26,232,308,428,460,331,17
1752,0.82,-0.65,-0.09,3.91,0.49,-6.77,225,309,427,460,331,17
1753,0.73,-0.65,-0.01,13.55,-1.77,-0.18,236,308,427,459,337,17
1754,0.69,-0.64,0.11,1.16,-19.78,5.31,237,296,427,466,381,17
1755,0.69,-0.69,0.09,14.53,-3.05,-1.1,240,289,424,469,361,17
1756,0.76,-0.65,0.05,-1.4,3.48,-6.71,240,292,430,470,366,17
1757,0.74,-0.67,0.04,9.4,-6.41,-1.77,241,295,429,467,369,17
1758,0.68,-0.7,0.07,-2.08,3.6,-4.33,239,300,429,470,365,17
1759,0.7,-0.66,0.07,5.43,2.56,-10.5,235,295,430,470,345,17
1760,0.76,-0.59,0.06,2.5,-13.0,-7.63,229,291,430,469,325,17
1761,0.9,-0.58,-0.13,2.93,-9.95,-4.7,231,290,424,466,320,17
1762,0.83,-0.6,-0.03,-7.2,-3.17,-11.47,232,299,427,461,327,17
1763,0.81,-0.59,-0.11,1.28,-10.68,-2.5,232,292,428,471,329,17
1764,0.84,-0.59,-0.04,-8.0,8.18,-3.11,231,294,428,468,336,17
1765,0.81,-0.59,-0.05,14.34,-4.46,0.24,232,298,430,474,333,17
1766,0.85,-0.6,0.05,-15.56,12.7,-4.03,234,297,430,470,341,17
1767,0.74,-0.68,0.17,-32.47,26.12,-16.17,232,298,428,470,338,17
1768,0.79,-0.69,0.03,5.68,-31.68,2.56,238,295,433,470,342,17
1769,0.83,-0.61,0.05,6.04,-14.77,-3.05,235,298,431,470,342,17
1770,0.77,-0.66,0.05,-1.59,-4.03,-5.92,235,300,429,474,341,17
1771,0.7,-0.65,0.08,11.41,-10.5,0.37,238,298,428,470,342,17
1772,0.83,-0.64,-0.01,1.04,-2.14,-2.69,237,300,425,468,338,17
1773,0.74,-0.68,0.05,-5.43,-6.29,2.56,236,297,430,471,342,17
1774,0.74,-0.6,0.03,4.27,-5.92,6.16,238,294,425,470,346,17
1775,0.76,-0.61,0.01,4.76,-8.36,4.21,235,300,430,465,344,17
1776,0.79,-0.61,-0.0,3.3,2.08,-5.37,235,297,430,473,339,17
1777,0.83,-0.61,0.02,-3.17,-0.31,-3.78,236,298,426,471,341,17
1778,0.73,-0.66,0.03,3.42,-7.39,-2.69,237,299,429,469,343,17
1779,0.73,-0.68,-0.01,5.07,-8.12,7.57,238,300,430,474,342,17
1780,0.73,-0.68,0.02,-2.62,-0.92,-2.81,239,298,429,467,339,17
1781,0.75,-0.68,-0.01,2.5,-3.17,-1.1,240,299,428,474,339,17
1782,0.74,-0.68,-0.02,0.79,-2.87,-3.36,234,298,428,471,342,17
1783,0.73,-0.66,0.04,-1.95,-1.83,-3.48,235,301,430,473,343,17
1784,0.74,-0.69,0.0,2.93,-4.27,-1.77,240,296,427,468,343,17
1785,0.73,-0.69,0.04,-2.14,0.61,-3.72,240,305,428,466,343,17
1786,0.75,-0.68,0.03,-4.21,-1.34,-3.3,239,299,430,472,343,17
1787,0.71,-0.67,0.05,-2.56,-5.92,0.12,237,299,426,471,343,17
1788,0.68,-0.66,0.05,-1.71,-2.44,-8.73,240,299,426,473,345,17
1789,0.74,-0.62,0.03,5.8,-6.16,-1.71,239,299,429,475,341,17
1790,0.7,-0.66,0.06,-11.35,-7.39,-4.33,235,306,430,476,344,17
1791,0.73,-0.66,0.02,1.22,5.74,-4.46,238,299,431,471,343,17
1792,0.66,-0.72,-0.06,-1.59,7.45,17.03,238,301,434,474,344,17
1793,0.75,-0.61,-0.0,-0.37,0.61,-3.97,240,298,429,470,346,17
1794,0.83,-0.62,-0.02,6.71,-0.31,-2.32,238,300,433,468,347,17
1795,0.81,-0.64,0.05,-4.03,0.67,0.85,237,296,432,471,344,17
1796,0.79,-0.63,0.06,-0.31,-4.58,-5.55,238,299,427,475,344,17
1797,0.79,-0.65,-0.02,0.67,-1.71,0.06,235,298,428,471,345,17
1798,0.76,-0.65,-0.01,3.97,-5.92,-3.85,238,302,431,469,345,17
1799,0.76,-0.66,0.02,-4.33,2.26,-2.32,239,304,434,483,344,17
1800,0.77,-0.65,0.04,4.09,-4.03,-0.18,239,301,429,466,345,17
1801,0.76,-0.65,0.01,-0.18,-2.81,-2.14,240,301,442,476,343,17
1802,0.79,-0.64,-0.01,2.14,-5.86,-1.71,241,301,433,472,347,17
1803,0.76,-0.65,0.05,1.59,-3.97,-0.79,241,302,433,472,343,17
1804,0.79,-0.65,-0.02,-0.18,-2.81,-2.93,238,303,430,473,346,17
1805,0.77,-0.65,0.02,-1.83,-1.89,-2.32,241,302,430,474,346,17
1806,0.78,-0.64,0.01,3.42,-5.37,-2.08,241,308,434,472,346,17
1807,0.76,-0.65,-0.01,6.84,-2.38,3.3,241,302,426,470,346,17
1808,0.74,-0.67,0.04,-2.08,0.12,-3.6,242,301,431,476,348,17
1809,0.59,-0.68,0.18,12.02,-4.46,5.07,242,304,431,472,344,17
1810,0.71,-0.68,0.11,-1.77,-1.53,-5.31,239,305,430,473,348,17
1811,0.74,-0.67,0.05,3.78,-5.68,-2.93,246,307,427,470,343,17
1812,0.75,-0.66,0.03,1.71,-2.99,-1.04,243,303,432,469,348,17
1813,0.72,-0.63,0.07,-0.49,-1.4,-1.22,243,304,428,472,347,17
1814,0.72,-0.72,0.04,-2.87,-3.3,-5.62,247,302,431,472,345,17
1815,0.74,-0.68,0.06,0.12,-1.77,-3.66,247,306,430,477,349,17
1816,0.77,-0.67,0.03,1.34,-3.05,-1.89,242,305,432,472,349,17
1817,0.74,-0.79,-0.11,24.72,1.65,0.55,246,315,434,475,349,17
1818,0.67,-0.7,0.24,12.27,4.09,1.53,248,301,430,472,346,17
1819,0.69,-0.69,0.22,-11.66,4.33,-4.09,246,307,430,473,347,17
1820,0.7,-0.71,0.2,-3.78,-2.81,-2.32,247,307,430,473,347,17
1821,0.63,-0.68,0.19,2.08,-3.42,-0.06,244,304,430,470,347,17
1822,0.65,-0.73,0.17,-4.15,-9.7,-4.15,246,305,427,473,348,17
1823,0.81,-0.79,0.01,4.09,-5.31,-10.5,248,308,430,471,349,17
1824,0.61,-0.51,0.31,11.11,14.95,-1.71,247,306,432,469,347,17
1825,0.71,-0.73,0.2,-22.64,3.3,-6.9,247,305,434,466,348,17
1826,0.82,-0.7,0.13,7.93,-12.39,0.06,248,306,430,472,351,17
1827,0.73,-0.69,0.17,9.4,-17.58,9.64,247,305,429,476,345,17
1828,0.74,-0.72,0.11,30.33,-8.73,3.66,247,306,433,473,347,17
1829,0.67,-0.69,0.17,4.46,-2.44,-1.04,247,304,444,478,351,17
1830,0.63,-0.71,0.18,9.52,-3.11,-5.0,248,306,432,478,350,17
1831,0.73,-0.72,0.11,-2.62,1.89,-2.69,248,305,430,485,345,17
1832,0.7,-0.7,0.15,3.23,-2.32,-0.73,249,306,431,476,350,17
1833,0.72,-0.7,0.11,5.07,-9.46,-5.86,248,307,432,478,349,17
1834,0.71,-0.69,0.12,-1.89,-7.75,-6.59,246,303,433,473,350,17
1835,0.78,-0.67,0.05,4.76,-9.22,-0.92,245,304,429,472,350,17
1836,0.73,-0.66,0.11,-4.09,-5.25,-5.37,244,305,430,472,351,17
1837,0.79,-0.64,0.01,-10.07,-8.06,-15.32,239,301,432,468,341,17
1838,0.79,-0.67,0.03,-20.39,-12.57,-7.63,237,300,430,464,341,17
1839,0.72,-0.65,0.03,-13.55,1.22,-16.97,234,303,425,463,339,17
1840,0.79,-0.61,-0.06,5.31,-2.26,0.18,238,305,431,466,345,17
1841,0.78,-0.61,0.02,-5.19,-1.16,-0.49,241,304,434,468,342,17
1842,0.8,-0.62,-0.07,-3.85,0.49,-5.92,237,307,436,467,342,17
1843,0.76,-0.63,0.0,5.31,-0.92,1.46,238,305,428,469,339,17
1844,0.8,-0.64,-0.03,7.2,-3.97,-0.73,240,307,428,465,346,17
1845,0.78,-0.62,0.0,1.4,-2.75,-3.91,239,306,427,464,340,17
1846,0.79,-0.63,-0.03,3.78,-2.62,0.49,237,304,430,464,344,17
1847,0.76,-0.65,0.03,-5.0,-0.12,-1.04,243,307,430,473,345,17
1848,0.74,-0.64,0.04,-1.1,-1.53,-3.11,241,305,432,468,347,17
1849,0.86,-0.66,0.05,20.57,-9.95,-3.91,240,305,431,471,347,17
1850,0.77,-0.64,0.06,-13.24,0.18,-1.1,240,303,431,465,344,17
1851,0.81,-0.64,0.07,-2.01,-2.26,-6.41,243,305,428,470,343,17
1852,0.75,-0.65,0.07,-5.55,-3.6,1.89,241,304,432,471,343,17
1853,0.79,-0.81,0.02,-32.96,-4.46,-5.31,241,305,433,473,346,17
1854,0.74,-0.64,0.05,14.83,-13.06,-3.78,239,303,432,472,341,17
1855,0.75,-0.64,0.06,8.61,-3.05,-8.0,239,307,433,474,347,17
1856,0.78,-0.64,0.02,11.6,-13.85,0.24,241,308,433,467,347,17
1857,0.81,-0.66,0.04,-9.95,-2.81,-9.89,239,305,431,473,344,17
1858,0.75,-0.66,0.02,2.08,-1.34,-3.36,242,310,429,475,345,17
1859,0.72,-0.65,0.07,0.55,-0.98,3.6,240,312,432,472,339,17
1860,0.73,-0.68,0.12,-0.37,1.59,0.06,247,307,433,472,344,17
1861,0.87,-0.56,0.12,13.43,-10.8,-2.93,244,315,431,467,343,17
1862,0.65,-0.81,0.02,-36.07,11.96,11.72,243,311,434,472,342,17
1863,0.78,-0.68,0.04,1.65,-5.37,0.55,243,307,432,475,347,17
1864,0.76,-0.68,0.07,10.62,-9.95,-2.5,245,310,431,472,347,17
1865,0.72,-0.71,0.06,3.05,-4.09,-2.81,245,311,439,470,346,17
1866,0.72,-0.71,0.05,5.74,1.89,-0.79,244,303,431,470,350,17
1867,0.78,-0.7,-0.06,-38.45,0.06,-19.96,240,306,430,474,346,17
1868,0.74,-0.68,0.01,-2.69,-1.16,-2.2,246,308,430,474,350,17
1869,0.7,-0.7,0.06,-4.39,-2.44,-2.5,243,309,431,474,350,17
1870,0.72,-0.69,0.0,3.11,-4.76,-1.59,247,307,428,472,350,17
1871,0.69,-0.69,0.04,-5.62,-1.16,-4.46,246,313,434,475,350,17
1872,0.68,-0.7,0.04,0.79,-1.59,-3.36,245,309,434,474,350,17
1873,0.72,-0.7,0.02,1.4,-5.19,-1.65,246,307,433,475,350,17
1874,0.73,-0.77,0.01,0.55,-4.15,-1.95,245,311,431,472,352,17
1875,0.67,-0.7,0.3,36.13,-5.98,9.89,242,308,430,470,351,17
1876,0.82,-0.73,0.06,-6.23,-2.62,-7.39,245,309,429,476,350,17
1877,0.76,-0.61,0.35,11.6,-1.59,-1.4,246,311,434,473,350,17
1878,0.7,-0.63,0.27,1.46,2.69,4.94,246,309,429,470,352,17
1879,0.66,-0.76,0.17,-15.5,5.31,-3.23,244,308,432,472,351,17
1880,0.04,-0.82,0.08,10.68,3.48,23.99,243,311,428,466,351,17
1881,1.94,-0.82,-0.83,84.23,-345.95,0.31,238,301,426,467,348,17
1882,0.39,-0.77,0.31,-13.73,7.08,-31.86,239,303,429,468,351,17
1883,0.56,-0.7,0.36,8.61,-17.52,-10.07,242,303,425,473,350,17
1884,0.68,-0.7,0.28,-8.3,-9.16,-3.42,240,300,427,473,354,17
1885,0.64,-0.82,0.06,21.79,-15.93,18.01,237,306,425,474,352,17
1886,0.58,-0.85,0.23,11.11,3.05,12.76,243,302,426,470,355,17
1887,0.64,-0.67,0.15,-8.12,0.67,-1.77,242,304,429,467,352,17
1888,0.63,-0.68,0.21,26.0,-5.25,-7.45,240,304,424,471,353,17
1889,0.61,-0.75,0.2,8.97,-13.37,-3.72,243,307,430,465,353,17
1890,0.68,-0.81,0.05,-9.83,-2.93,-1.22,247,308,430,468,352,17
1891,0.66,-0.72,0.13,-1.28,-3.42,-3.48,246,305,428,477,349,17
1892,0.71,-0.69,0.12,3.48,-6.84,-8.61,247,306,429,471,351,17
1893,0.7,-0.69,0.14,0.85,-5.13,-1.16,246,305,429,471,350,17
1894,0.75,-0.66,0.09,-6.77,-5.86,-1.77,242,308,427,471,354,17
1895,0.71,-0.69,0.12,10.07,-8.36,-3.36,246,318,428,465,350,17
1896,0.74,-0.69,0.13,-3.91,-1.28,-7.45,245,309,428,473,350,17
1897,0.76,-0.69,0.06,3.91,-2.38,5.92,244,307,425,471,359,17
1898,0.69,-0.71,0.1,-10.86,3.54,-1.89,247,309,425,466,353,17
1899,0.66,-0.77,0.09,-4.03,0.24,-7.39,262,308,429,476,353,17
1900,0.69,-0.65,0.1,4.82,-12.08,-0.49,251,307,425,472,354,17
1901,0.74,-0.71,0.1,1.89,-2.56,-6.1,245,309,426,471,352,17
1902,0.73,-0.67,0.05,17.46,6.16,-23.5,247,305,426,470,352,17
1903,0.94,-0.43,0.22,12.76,-5.43,-15.2,245,310,425,480,352,17
1904,0.86,-0.53,0.02,-20.32,2.69,-3.05,246,309,426,471,354,17
1905,0.82,-0.62,0.2,-21.67,2.5,-2.69,245,310,427,474,354,17
1906,0.74,-0.63,0.13,-3.05,-7.39,-0.43,247,309,429,474,353,17
1907,0.72,-0.64,0.14,7.93,-9.4,-3.6,247,305,428,474,353,17
1908,0.71,-0.72,0.07,-11.47,0.0,-0.73,246,308,426,470,348,17
1909,0.78,-0.62,0.04,2.62,-4.58,-2.75,248,310,423,469,351,17
1910,0.8,-0.64,0.07,-4.82,-0.61,-11.23,248,311,427,471,352,17
1911,0.83,-0.6,0.07,11.84,-5.31,-3.36,244,311,427,474,353,17
1912,0.73,-0.67,0.07,-2.38,-4.82,-4.76,247,309,430,472,355,17
1913,0.77,-0.61,0.11,5.55,-4.15,-0.79,248,310,430,471,351,17
1914,0.74,-0.66,0.13,-4.88,-3.23,-2.44,249,309,431,471,352,17
1915,0.74,-0.67,0.07,4.33,-4.58,0.12,249,306,429,470,351,17
1916,0.72,-0.66,0.12,2.56,-3.3,-2.5,244,312,431,469,358,17
1917,0.73,-0.65,0.12,-1.65,-1.89,-3.78,247,309,428,471,353,17
1918,0.74,-0.66,0.11,2.5,-4.09,-0.12,247,313,431,472,350,17
1919,0.76,-0.66,0.08,-0.98,-4.39,-2.81,250,313,425,470,350,17
1920,0.73,-0.67,0.13,-3.6,-1.04,-3.85,245,307,430,481,348,17
1921,0.73,-0.67,0.09,13.12,-7.02,-0.43,248,311,428,473,344,17
1922,0.71,-0.67,0.15,1.46,-4.88,-1.89,245,309,423,466,343,17
1923,0.74,-0.67,0.12,-4.94,-0.73,-4.82,243,310,427,471,348,17
1924,0.77,-0.67,0.08,1.71,-3.85,-2.14,246,312,427,472,346,17
1925,0.73,-0.66,0.1,-0.49,-0.98,-2.56,249,312,431,474,345,17
1926,0.74,-0.66,0.08,-1.04,-0.55,-3.17,247,310,428,468,347,17
1927,0.76,-0.67,0.07,-0.55,-1.83,-0.31,246,313,429,474,346,17
1928,0.7,-0.68,0.11,0.37,-0.06,1.71,249,310,426,471,348,17
1929,0.74,-0.68,0.09,-3.78,2.01,-3.6,249,311,432,470,350,17
1930,0.74,-0.66,0.14,1.1,-2.93,-3.6,249,327,426,468,349,17
1931,0.75,-0.68,0.07,-0.55,-3.05,-2.38,249,310,426,470,348,17
1932,0.73,-0.67,0.12,-5.55,-2.44,-3.6,249,311,428,470,348,17
1933,0.73,-0.68,0.11,2.14,-3.05,-1.59,248,311,428,468,344,17
1934,0.74,-0.7,0.07,1.46,-3.66,-1.1,249,309,427,472,347,17
1935,0.76,-0.68,0.09,-8.18,0.06,-5.37,248,313,430,469,349,17
1936,0.7,-0.72,0.1,-5.19,-1.65,-3.11,249,314,429,467,348,17
1937,0.82,-0.63,0.09,-18.98,1.65,-1.04,249,312,428,473,352,17
1938,0.68,-0.63,0.09,3.66,-19.35,-10.8,251,311,429,472,349,17
1939,0.71,-0.69,0.04,-11.47,12.33,3.17,249,312,425,468,351,17
1940,0.76,-0.64,0.11,5.43,-3.48,-0.24,247,313,440,467,347,17
1941,0.73,-0.67,0.08,1.4,-5.25,-0.79,247,312,424,471,348,17
1942,0.73,-0.68,0.1,-3.97,1.77,-2.69,250,310,429,475,349,17
1943,0.69,-0.7,0.06,-2.32,-4.21,1.04,248,311,428,470,350,17
1944,0.74,-0.67,0.05,-1.4,-0.06,-3.11,245,311,430,475,348,17
1945,0.71,-0.69,0.06,-1.71,-3.05,-1.89,249,312,429,472,348,17
1946,0.74,-0.7,0.07,-0.85,-0.31,-2.32,247,315,429,470,351,17
1947,0.67,-0.69,0.1,-2.26,-0.92,-2.01,248,315,424,474,347,17
1948,0.71,-0.69,0.07,-0.85,-2.81,-2.81,250,311,427,471,349,17
1949,0.74,-0.71,0.05,0.55,-4.52,-5.25,248,312,427,469,351,17
1950,0.76,-0.69,-0.0,2.81,-6.9,-2.2,248,311,428,471,345,17
1951,0.71,-0.71,0.06,-1.71,-4.58,-3.6,251,313,438,472,349,17
1952,0.73,-0.72,0.03,2.14,-4.09,-0.12,255,313,428,469,349,17
1953,0.72,-0.72,0.04,9.46,10.07,15.44,246,310,426,470,347,17
1954,0.64,-0.74,0.15,-4.58,-1.95,-6.59,249,311,430,471,348,17
1955,0.82,-0.62,0.18,9.34,-16.54,1.65,248,312,428,472,351,17
1956,0.75,-0.67,0.08,-2.93,-12.15,-9.64,250,312,424,469,352,17
1957,0.75,-0.68,0.01,0.31,-7.45,-3.66,251,313,430,474,348,17
1958,0.7,-0.7,0.05,0.67,-1.77,-1.83,250,312,433,465,350,17
1959,0.7,-0.68,0.06,1.04,-1.89,-1.46,249,313,427,465,353,17
1960,0.69,-0.71,0.05,1.59,-3.72,-1.53,246,318,428,473,348,17
1961,0.73,-0.7,0.03,1.1,-3.05,-1.4,253,313,430,471,350,17
1962,0.69,-0.7,0.07,-0.24,-1.22,-3.17,256,313,428,471,351,17
1963,0.71,-0.7,0.04,3.42,-1.71,-1.65,250,313,430,471,350,17
1964,0.72,-0.71,0.04,-1.77,-2.99,-4.15,253,309,431,472,350,17
1965,0.71,-0.72,0.04,0.12,-1.83,-1.53,249,311,427,469,350,17
1966,0.69,-0.71,0.07,-2.5,-6.41,-4.39,251,312,429,471,349,17
1967,0.71,-0.69,0.06,1.77,-3.66,-1.46,252,313,428,471,353,17
1968,0.71,-0.71,0.07,-0.85,-3.48,-2.56,253,316,425,467,348,17
1969,0.7,-0.7,0.06,2.32,-4.03,-2.26,254,316,422,471,351,17
1970,0.72,-0.69,0.05,1.04,-3.6,-2.01,256,313,427,471,350,17
1971,0.71,-0.7,0.05,2.2,-3.72,-0.98,253,314,424,474,350,17
1972,0.72,-0.7,0.07,-0.61,-1.16,-3.97,253,310,430,474,351,17
1973,0.71,-0.7,0.06,1.46,-3.6,-2.2,252,313,426,471,352,17
1974,0.71,-0.7,0.06,2.08,-4.21,-1.65,254,314,423,473,350,17
1975,0.72,-0.72,0.08,-0.79,-8.18,-1.1,254,315,428,474,351,17
1976,0.73,-0.69,0.08,2.93,-4.09,-0.18,251,317,427,466,348,17
1977,0.74,-0.73,0.09,1.16,0.31,-3.48,249,315,427,470,349,17
1978,0.69,-0.58,0.14,3.6,-0.61,-0.43,256,316,427,468,350,17
1979,0.76,-0.66,0.02,-0.49,-1.28,-3.85,255,317,428,475,352,17
1980,0.73,-0.73,0.14,1.28,-2.32,2.75,254,314,428,474,352,17
1981,0.72,-0.82,0.06,-6.35,-5.43,-2.01,253,314,440,474,350,17
1982,0.7,-0.73,0.14,14.89,0.31,0.37,254,313,429,469,350,17
1983,0.78,-0.61,0.14,-0.61,-0.43,3.36,254,316,427,467,348,17
1984,0.71,-0.72,0.07,-1.46,-3.48,-2.75,256,316,427,470,346,17
1985,0.72,-0.73,0.08,3.72,-1.28,-2.38,250,312,440,472,347,17
1986,0.7,-0.72,0.08,-0.18,-4.94,-3.36,279,314,425,469,353,17
1987,0.7,-0.74,0.07,2.08,-5.92,-4.82,253,317,428,472,351,17
1988,0.71,-0.73,0.08,-0.92,-2.81,-2.56,255,315,426,472,351,17
1989,0.69,-0.71,0.09,1.34,-2.01,-2.32,256,318,428,475,352,17
