,aX,aY,aZ,gX,gY,gZ,little,ring,middle,index,thumb,number
0,0.94,-0.4,0.16,10.19,7.87,1.34,372,267,435,464,294,27
1,0.95,-0.32,0.23,2.56,-1.95,-13.85,403,264,430,450,299,27
2,0.89,-0.34,0.25,3.17,-0.43,-3.72,424,258,433,447,300,27
3,0.91,-0.34,0.22,-0.85,-8.42,-2.69,423,260,431,446,299,27
4,0.91,-0.31,0.17,-0.73,-1.59,-2.99,450,266,429,461,302,27
5,0.9,-0.34,0.22,2.38,0.06,-5.07,423,267,431,459,297,27
6,0.92,-0.35,0.18,-1.83,-6.47,-0.79,418,265,434,456,299,27
7,0.89,-0.34,0.19,-3.54,-0.43,-7.26,420,266,435,457,302,27
8,0.99,-0.25,0.18,10.07,-10.74,7.26,414,263,436,457,300,27
9,0.87,-0.33,0.27,5.8,0.31,0.98,419,264,430,459,304,27
10,0.94,-0.33,0.2,-5.68,-8.67,2.01,418,263,435,458,303,27
11,0.95,-0.3,0.2,1.04,1.28,-4.27,414,262,433,454,302,27
12,0.97,-0.31,0.13,-0.18,-3.11,-5.31,415,259,431,463,314,27
13,0.97,-0.29,0.2,2.38,-2.81,-3.11,413,262,434,458,301,27
14,0.94,-0.32,0.14,-0.61,-4.64,-3.11,425,262,432,461,304,27
15,0.94,-0.32,0.15,3.48,-2.56,-1.22,414,260,433,460,303,27
16,0.93,-0.32,0.16,-0.06,-0.12,-4.88,421,261,432,463,304,27
17,0.95,-0.31,0.19,-0.31,-2.44,-3.72,410,263,432,457,305,27
18,0.94,-0.32,0.16,-1.34,-3.36,-2.56,412,265,435,460,305,27
19,0.94,-0.3,0.19,-0.31,-1.4,-4.46,413,263,431,464,301,27
20,0.91,-0.33,0.15,0.31,-2.26,-2.08,412,263,434,465,304,27
21,0.96,-0.33,0.2,2.81,-6.9,0.18,414,266,430,460,301,27
22,0.93,-0.33,0.16,-0.67,-3.72,-2.62,412,263,431,460,300,27
23,0.94,-0.32,0.16,0.43,-0.79,-3.78,416,263,432,461,305,27
24,0.94,-0.3,0.21,1.71,-2.81,-0.98,410,264,443,460,305,27
25,0.93,-0.33,0.18,-1.71,-3.42,-1.65,413,265,432,464,302,27
26,0.93,-0.32,0.18,-0.43,-1.71,-4.09,413,265,432,460,306,27
27,0.94,-0.32,0.19,0.06,-3.17,-2.56,432,265,428,460,302,27
28,0.93,-0.32,0.19,-0.43,-1.53,-3.85,414,267,433,461,306,27
29,0.94,-0.32,0.2,0.06,-3.6,-1.89,411,262,440,462,300,27
30,0.93,-0.32,0.18,0.55,-3.17,-2.93,408,270,431,462,304,27
31,0.94,-0.31,0.19,2.08,-2.75,-2.69,413,270,430,466,305,27
32,0.94,-0.31,0.19,0.0,-3.91,-2.69,407,268,431,462,304,27
33,0.93,-0.31,0.2,0.49,-2.99,-1.89,409,267,432,463,306,27
34,0.94,-0.32,0.19,0.0,-1.95,-2.26,411,263,429,467,301,27
35,0.94,-0.31,0.19,0.67,-1.65,-2.87,407,265,427,462,301,27
36,0.93,-0.32,0.19,0.61,-1.77,-3.11,409,266,433,464,303,27
37,0.92,-0.31,0.22,3.66,-2.81,-0.92,407,266,431,462,304,27
38,0.92,-0.32,0.19,-1.59,-0.67,-4.82,412,266,434,464,308,27
39,0.94,-0.3,0.23,1.95,0.31,-5.37,413,266,433,463,304,27
40,0.92,-0.32,0.2,-3.23,-4.39,-2.62,411,264,429,462,304,27
41,0.93,-0.34,0.25,-0.06,-4.82,-1.53,411,269,430,458,304,27
42,0.93,-0.33,0.15,-3.97,3.48,-7.2,414,266,429,466,305,27
43,0.94,-0.31,0.22,-3.72,0.43,0.61,413,266,431,460,307,27
44,0.95,-0.32,0.2,-1.83,-2.81,-4.27,412,279,429,463,302,27
45,0.93,-0.31,0.21,0.92,-3.05,-1.71,411,267,433,463,303,27
46,0.94,-0.3,0.21,-0.92,-4.39,-1.16,412,265,430,458,305,27
47,0.93,-0.34,0.2,0.0,-3.72,-1.1,411,270,427,462,305,27
48,0.93,-0.32,0.2,1.46,-0.73,-3.91,413,268,431,464,305,27
49,0.94,-0.32,0.19,-0.79,-2.93,-3.23,412,266,431,463,307,27
50,0.93,-0.32,0.2,3.17,-1.28,-1.59,413,270,429,458,302,27
51,0.94,-0.31,0.21,2.56,-3.66,-0.18,410,266,428,467,305,27
52,0.92,-0.35,0.2,1.34,-3.72,-1.77,411,268,429,461,305,27
53,0.91,-0.34,0.19,-1.04,-2.69,-2.2,412,268,427,464,306,27
54,0.93,-0.34,0.19,0.18,-1.83,-4.39,409,270,429,462,304,27
55,0.9,-0.36,0.22,-3.91,3.97,-2.38,410,267,429,466,304,27
56,0.91,-0.34,0.2,0.0,-2.2,-2.38,410,267,429,465,303,27
57,0.92,-0.34,0.21,1.59,-1.59,-2.87,408,268,430,457,298,27
58,0.91,-0.34,0.21,-0.31,-2.93,-3.66,410,269,431,464,310,27
59,0.93,-0.34,0.21,-1.1,-4.33,-2.14,410,266,430,465,307,27
60,0.95,-0.32,0.24,7.26,-0.92,-5.43,411,266,425,463,302,27
61,0.93,-0.33,0.23,2.2,-4.33,-0.98,408,270,425,467,302,27
62,0.92,-0.33,0.23,3.66,-2.26,-1.89,409,269,428,460,305,27
63,0.9,-0.35,0.21,-4.76,-4.7,-1.77,407,271,426,472,303,27
64,0.89,-0.36,0.23,-2.56,-5.92,-5.43,408,268,427,462,305,27
65,0.92,-0.34,0.22,1.46,-1.83,-3.05,409,268,427,464,304,27
66,0.92,-0.34,0.22,0.55,-3.6,-1.59,405,270,428,464,304,27
67,0.93,-0.32,0.2,-1.4,-3.91,-5.13,405,268,428,463,306,27
68,0.93,-0.33,0.2,-0.73,-3.72,-4.09,404,266,423,461,297,27
69,0.92,-0.34,0.21,-7.14,-7.14,-6.77,415,267,429,466,306,27
70,0.92,-0.35,0.17,4.58,-1.65,-1.22,404,269,427,463,304,27
71,0.93,-0.32,0.17,3.05,-4.15,0.12,413,272,424,464,306,27
72,0.92,-0.34,0.18,1.71,-2.2,-2.38,406,272,428,462,303,27
73,0.9,-0.33,0.24,-0.18,-1.53,0.12,407,269,429,469,306,27
74,0.94,-0.34,0.16,-3.3,-2.81,-6.9,405,268,426,463,304,27
75,0.92,-0.35,0.17,2.14,-1.16,-2.81,407,271,427,459,305,27
76,0.93,-0.32,0.22,0.61,-2.75,-1.71,406,271,427,466,305,27
77,0.94,-0.32,0.21,0.37,-0.79,-5.55,404,271,427,463,304,27
78,0.94,-0.32,0.19,-4.7,-2.81,-8.36,403,272,423,459,304,27
79,0.93,-0.33,0.2,-0.85,-1.71,-0.55,404,272,428,462,304,27
80,0.95,-0.38,0.17,-3.23,-1.65,-4.15,404,272,423,463,303,27
81,0.93,-0.31,0.14,-6.9,-5.8,-4.64,402,270,426,465,302,27
82,0.95,-0.32,0.18,1.22,4.39,-2.5,400,273,424,458,304,27
83,0.93,-0.33,0.2,2.26,-5.25,-0.55,402,273,426,458,307,27
84,0.92,-0.35,0.19,0.55,-1.46,-2.62,402,271,425,466,312,27
85,0.93,-0.34,0.18,-2.62,-4.27,-2.93,433,274,425,464,303,27
86,0.92,-0.35,0.19,-2.26,-0.06,-4.27,404,270,426,457,306,27
87,0.93,-0.34,0.19,0.61,-2.75,-1.77,404,274,425,462,301,27
88,0.93,-0.33,0.19,-1.1,-3.3,-2.26,406,274,421,464,308,27
89,0.95,-0.32,0.19,0.49,-2.99,-2.08,406,272,426,458,304,27
90,0.92,-0.34,0.18,0.67,-2.32,-2.62,438,277,425,458,305,27
91,0.93,-0.33,0.19,1.22,-2.75,-3.17,404,272,427,463,303,27
92,0.92,-0.34,0.17,-1.16,-1.22,-5.55,405,272,427,458,306,27
93,0.93,-0.31,0.2,-0.49,-2.62,-3.17,402,271,424,473,304,27
94,0.92,-0.34,0.19,2.87,-2.08,-2.2,404,275,425,464,304,27
95,0.92,-0.34,0.19,-0.06,-4.64,-0.79,403,273,426,474,304,27
96,0.93,-0.33,0.19,0.49,-3.85,-2.32,396,271,427,460,304,27
97,0.93,-0.34,0.18,0.67,-3.11,-2.56,402,271,426,464,309,27
98,0.93,-0.34,0.18,-0.49,-2.87,-3.42,404,274,422,463,307,27
99,0.9,-0.35,0.18,-0.06,-1.89,-3.97,404,274,425,463,304,27
100,0.93,-0.34,0.18,1.71,-3.36,-1.71,402,271,425,465,304,27
101,0.91,-0.35,0.18,1.16,-3.36,-3.42,402,271,424,466,305,27
102,0.93,-0.35,0.18,0.18,-2.81,-2.5,413,271,425,464,306,27
103,0.93,-0.35,0.18,-0.24,-2.38,-3.05,404,275,427,466,308,27
104,0.92,-0.35,0.18,1.16,-4.09,-0.61,403,271,420,464,305,27
105,0.93,-0.34,0.19,1.46,-2.62,-3.17,403,272,425,462,308,27
106,0.91,-0.35,0.2,2.44,-1.59,-3.23,401,271,424,467,304,27
107,0.92,-0.35,0.19,-2.01,-4.21,-2.99,404,275,421,468,304,27
108,0.92,-0.35,0.21,0.18,-2.56,-2.2,400,276,424,461,302,27
109,0.92,-0.35,0.21,1.4,-3.05,-2.5,403,273,427,459,307,27
110,0.93,-0.35,0.19,0.37,-5.68,-3.23,398,273,425,467,306,27
111,0.93,-0.35,0.19,-0.92,-3.66,-2.81,400,275,420,467,303,27
112,0.91,-0.36,0.2,0.98,-5.0,-1.34,402,269,427,466,307,27
113,0.94,-0.35,0.19,-0.73,-2.44,-3.6,401,275,426,463,306,27
114,0.91,-0.36,0.2,0.73,-3.48,-1.71,402,271,424,468,301,27
115,0.92,-0.36,0.18,-0.12,-2.69,-3.48,401,272,427,462,303,27
116,0.92,-0.35,0.18,-0.79,-2.81,-2.93,400,274,425,462,304,27
117,0.92,-0.36,0.18,0.85,-3.05,-2.62,402,272,421,462,305,27
118,0.92,-0.36,0.18,0.43,-2.44,-3.3,409,273,426,466,305,27
119,0.93,-0.35,0.18,-2.01,-3.6,-2.93,399,272,424,463,308,27
120,0.94,-0.34,0.18,0.67,-1.83,-3.36,404,275,420,460,302,27
121,0.93,-0.35,0.16,0.67,-3.54,-1.89,402,274,421,467,302,27
122,0.92,-0.36,0.18,1.16,-2.14,-2.87,403,269,422,462,303,27
123,0.93,-0.35,0.18,0.12,-2.32,-2.87,403,275,422,458,307,27
124,0.93,-0.34,0.18,0.49,-3.54,-2.2,400,275,427,463,308,27
125,0.92,-0.35,0.19,-0.43,-3.05,-3.05,404,274,425,467,305,27
126,0.91,-0.36,0.18,2.08,-2.44,-2.08,401,272,424,459,303,27
127,0.93,-0.36,0.17,-0.18,-2.5,-3.72,397,273,420,467,304,27
128,0.93,-0.34,0.19,1.89,-4.15,-2.56,401,271,424,463,307,27
129,0.92,-0.35,0.19,0.31,-2.62,-1.34,401,272,424,467,304,27
130,0.92,-0.35,0.18,0.61,-2.38,-2.56,404,276,426,462,306,27
131,0.9,-0.35,0.19,0.12,-2.5,-2.81,402,274,425,466,308,27
132,0.92,-0.36,0.19,0.92,-1.89,-3.42,398,275,423,457,306,27
133,0.92,-0.34,0.21,0.12,-3.6,-2.32,400,274,423,462,306,27
134,0.93,-0.34,0.2,0.24,-2.75,-3.11,399,273,422,466,303,27
135,0.94,-0.34,0.2,-0.43,-2.44,-3.72,402,274,423,467,304,27
136,0.92,-0.36,0.19,-1.16,-3.78,-2.5,428,275,423,462,300,27
137,0.92,-0.35,0.21,1.4,-0.73,-4.33,395,275,421,463,305,27
138,0.92,-0.35,0.2,-0.92,-5.31,-1.83,402,279,423,457,305,27
139,0.92,-0.34,0.21,1.1,-2.26,-2.14,402,277,422,464,306,27
140,0.92,-0.34,0.2,-1.1,-2.87,-2.38,402,272,422,465,304,27
141,0.92,-0.34,0.2,0.98,-2.26,-3.11,399,275,422,464,305,27
142,0.92,-0.34,0.2,0.0,-2.69,-2.99,403,273,422,460,305,27
143,0.93,-0.34,0.2,-0.37,-3.17,-1.95,401,273,422,457,307,27
144,0.95,-0.34,0.2,0.73,-2.93,-3.91,401,277,421,466,304,27
145,0.92,-0.35,0.19,1.1,-3.85,-2.14,410,274,425,465,305,27
146,0.92,-0.34,0.2,-0.06,-2.75,-2.56,401,274,420,463,303,27
147,0.92,-0.35,0.19,0.98,-2.93,-3.23,403,273,422,464,302,27
148,0.92,-0.35,0.2,0.67,-3.3,-2.87,402,278,422,460,306,27
149,0.92,-0.34,0.2,0.98,-3.42,-1.83,404,277,421,458,305,27
150,0.92,-0.34,0.2,0.79,-2.08,-3.23,405,276,418,463,307,27
151,0.93,-0.34,0.2,0.12,-2.44,-3.48,404,279,424,475,302,27
152,0.93,-0.34,0.2,-0.24,-3.91,-1.53,405,275,427,458,301,27
153,0.93,-0.35,0.19,0.67,-3.48,-2.26,404,274,426,462,304,27
154,0.92,-0.35,0.19,1.16,-2.93,-2.26,404,274,419,468,308,27
155,0.92,-0.35,0.19,0.31,-3.36,-2.32,400,275,420,467,306,27
156,0.93,-0.35,0.19,0.37,-1.22,-7.02,403,275,421,462,305,27
157,0.92,-0.35,0.19,-3.42,-5.07,-1.16,404,274,419,467,307,27
158,0.91,-0.36,0.17,0.73,-2.81,-2.38,402,274,423,464,305,27
159,0.93,-0.35,0.18,0.43,-2.69,-2.56,404,274,423,464,303,27
160,0.92,-0.35,0.19,0.61,-3.05,-2.32,402,275,421,465,305,27
161,0.9,-0.36,0.16,1.53,-3.3,-3.23,402,275,421,464,305,27
162,0.92,-0.35,0.18,0.06,-2.08,-4.39,403,274,421,459,306,27
163,0.92,-0.34,0.2,-0.12,-3.17,-2.26,402,274,421,465,305,27
164,0.93,-0.34,0.19,0.79,-2.56,-3.17,400,280,423,470,305,27
165,0.93,-0.35,0.18,1.04,-2.62,-1.95,400,275,426,464,304,27
166,0.92,-0.35,0.18,0.31,-3.66,-2.32,400,275,417,460,305,27
167,0.93,-0.34,0.2,0.49,-2.56,-3.3,398,273,423,463,293,27
168,0.93,-0.35,0.19,0.92,-2.81,-2.87,397,278,424,465,307,27
169,0.92,-0.35,0.18,0.31,-2.5,-2.75,399,277,421,461,305,27
170,0.92,-0.35,0.18,0.37,-2.99,-2.08,399,280,420,466,306,27
171,0.91,-0.35,0.19,1.53,-2.87,-3.17,399,277,418,465,304,27
172,0.92,-0.33,0.19,-0.31,-3.78,-0.61,400,277,417,463,306,27
173,0.94,-0.34,0.19,0.24,-5.68,-0.73,400,275,423,463,307,27
174,0.91,-0.36,0.19,2.2,-4.39,-1.16,401,275,421,464,303,27
175,0.93,-0.34,0.18,0.06,-3.05,-1.71,397,275,422,466,306,27
176,0.93,-0.35,0.18,1.04,-2.38,-2.44,400,276,420,463,305,27
177,0.91,-0.34,0.18,-1.4,-2.75,-0.67,399,275,421,463,305,27
178,0.91,-0.37,0.17,1.59,-4.09,-2.44,401,274,424,466,305,27
179,0.92,-0.35,0.18,0.12,-3.11,-1.89,399,277,416,467,305,27
180,0.92,-0.35,0.18,-0.31,-3.05,-3.42,399,274,420,467,305,27
181,0.92,-0.35,0.17,0.98,-2.93,-1.83,400,277,421,464,304,27
182,0.93,-0.35,0.17,0.12,-2.5,-3.05,399,278,419,462,303,27
183,0.93,-0.35,0.17,-0.06,-2.75,-2.87,400,278,418,464,307,27
184,0.93,-0.34,0.17,1.04,-2.44,-3.3,400,279,417,464,301,27
185,0.92,-0.35,0.17,0.55,-3.48,-2.38,397,274,418,466,306,27
186,0.93,-0.35,0.17,0.43,-3.36,-1.71,401,275,422,464,302,27
187,0.93,-0.35,0.17,-0.43,-3.48,-2.32,399,284,417,467,303,27
188,0.93,-0.34,0.16,-0.43,-2.75,-2.62,401,275,422,466,305,27
189,0.93,-0.35,0.16,0.92,-3.17,-2.26,400,279,420,458,307,27
190,0.92,-0.35,0.17,-0.18,-3.42,-2.08,397,278,421,462,306,27
191,0.92,-0.36,0.17,-0.06,-3.23,-1.4,402,273,420,471,305,27
192,0.92,-0.36,0.16,0.49,-2.69,-2.69,397,275,418,466,301,27
193,0.92,-0.36,0.16,1.4,-2.26,-2.62,400,276,421,462,306,27
194,0.93,-0.36,0.16,-0.12,-4.03,-2.93,400,275,417,464,308,27
195,0.94,-0.33,0.16,2.32,-2.62,-3.05,400,276,420,462,304,27
196,0.91,-0.37,0.15,2.5,-4.46,-2.14,420,274,419,465,305,27
197,0.96,-0.35,0.18,0.06,-3.23,-1.04,400,274,419,461,305,27
198,0.89,-0.36,0.15,6.77,-3.23,-0.24,401,278,420,462,305,27
199,0.94,-0.37,0.1,-4.21,-5.8,-4.76,404,276,422,458,304,27
200,0.88,-0.37,0.18,2.62,-1.22,-1.53,400,275,421,462,304,27
201,0.91,-0.36,0.14,-2.99,-1.95,-1.95,404,273,432,466,305,27
202,0.92,-0.35,0.17,7.45,1.95,-2.32,401,276,418,464,307,27
203,0.94,-0.34,0.19,-2.14,-5.68,-2.2,401,276,419,457,306,27
204,0.94,-0.34,0.18,-0.31,-2.08,-3.42,402,272,417,466,304,27
205,0.91,-0.36,0.16,-0.92,-5.43,-1.71,405,278,416,461,305,27
206,0.93,-0.34,0.15,-6.47,-2.14,-8.61,401,277,420,465,304,27
207,0.94,-0.35,0.18,-0.98,-2.32,-2.75,403,275,418,459,309,27
208,0.92,-0.37,0.14,0.98,-3.05,-2.87,403,273,419,463,302,27
209,0.93,-0.35,0.16,0.37,-2.87,-2.99,401,277,418,463,302,27
210,0.92,-0.36,0.16,-0.31,-3.23,-2.56,397,277,421,457,306,27
211,0.93,-0.35,0.16,-0.31,-2.87,-3.23,402,274,419,462,302,27
212,0.93,-0.35,0.16,1.1,-2.56,-3.42,403,277,417,460,303,27
213,0.93,-0.34,0.16,-1.28,-3.11,-2.99,404,276,416,462,306,27
214,0.95,-0.35,0.15,0.31,-4.52,-2.44,404,276,424,466,308,27
215,0.92,-0.35,0.17,0.92,-1.46,-3.66,402,278,415,462,307,27
216,0.94,-0.35,0.15,4.82,-4.39,0.06,402,276,419,466,308,27
217,0.93,-0.35,0.17,1.22,-1.53,-3.05,402,278,417,457,307,27
218,0.92,-0.35,0.17,-0.37,-2.75,-3.48,399,276,420,460,303,27
219,0.93,-0.35,0.17,0.0,-2.99,-2.38,402,277,418,460,306,27
220,0.93,-0.35,0.17,0.85,-2.56,-2.56,403,273,417,465,307,27
221,0.93,-0.35,0.16,0.73,-2.81,-2.69,399,278,418,465,302,27
222,0.92,-0.35,0.16,1.83,-3.42,-2.14,402,276,418,463,308,27
223,0.92,-0.35,0.17,0.31,-2.69,-3.11,398,280,419,462,305,27
224,0.93,-0.35,0.17,-0.61,-2.38,-2.99,403,276,417,457,306,27
225,0.92,-0.36,0.16,-0.31,-7.93,2.01,402,278,418,457,306,27
226,0.92,-0.36,0.13,1.1,-0.31,-5.68,402,273,418,466,302,27
227,0.93,-0.35,0.17,0.61,-2.14,-3.23,405,277,417,457,308,27
228,0.92,-0.36,0.16,0.73,-5.13,0.06,430,280,418,462,305,27
229,0.92,-0.36,0.15,0.61,-3.78,-1.04,404,277,418,462,305,27
230,0.92,-0.37,0.14,0.55,-3.17,-3.42,405,279,419,463,305,27
231,0.92,-0.37,0.15,-1.22,-5.68,-1.1,399,279,415,457,304,27
232,0.93,-0.37,0.15,2.14,-2.75,-1.46,401,279,416,459,308,27
233,0.92,-0.36,0.13,-1.04,-1.95,-4.46,405,278,417,461,305,27
234,0.9,-0.38,0.15,-0.98,-2.56,-3.54,403,279,420,463,305,27
235,0.9,-0.38,0.15,0.61,-1.71,-3.85,402,278,417,461,307,27
236,0.93,-0.36,0.16,2.26,-2.26,-1.71,404,277,418,465,305,27
237,0.92,-0.37,0.15,-3.54,-2.62,-3.85,405,276,418,460,306,27
238,0.95,-0.35,0.14,2.08,-0.31,-2.81,404,277,417,461,306,27
239,0.92,-0.37,0.17,1.22,-2.93,-2.69,403,277,414,464,300,27
240,0.93,-0.37,0.15,-1.34,-4.27,-2.01,402,280,416,459,309,27
241,0.91,-0.37,0.16,-0.55,-3.78,-1.4,399,275,418,461,304,27
242,0.92,-0.37,0.15,0.12,-2.99,-2.81,405,278,415,467,302,27
243,0.92,-0.36,0.15,-0.85,-4.15,-1.83,401,287,417,461,308,27
244,0.92,-0.37,0.15,-0.92,-3.78,-2.2,402,280,416,462,303,27
245,0.93,-0.37,0.14,1.71,-2.01,-2.93,402,276,417,462,304,27
246,0.94,-0.37,0.12,2.26,-1.71,-3.23,403,277,418,462,305,27
247,0.92,-0.36,0.17,1.89,-2.56,-1.59,402,277,417,466,304,27
248,0.92,-0.37,0.15,-1.77,-2.38,-3.6,404,281,417,460,306,27
249,0.92,-0.37,0.16,-0.43,-3.11,-2.87,400,280,420,457,307,27
250,0.91,-0.38,0.15,-0.79,-4.58,-1.04,421,278,417,463,303,27
251,0.91,-0.39,0.13,2.01,-4.46,-0.92,388,282,417,460,307,27
252,0.92,-0.38,0.14,3.6,-3.23,-3.42,387,280,418,466,307,27
253,0.91,-0.38,0.15,2.62,-3.05,-2.93,384,281,416,463,309,27
254,0.9,-0.38,0.16,-3.42,-4.64,-0.37,387,280,419,466,306,27
255,0.92,-0.38,0.15,2.01,-3.6,-2.01,389,281,419,467,308,27
256,0.91,-0.38,0.16,1.28,-2.2,-3.36,384,285,417,461,314,27
257,0.92,-0.37,0.16,-0.67,-2.62,-3.72,383,286,416,458,307,27
258,0.91,-0.37,0.15,-0.31,-2.32,-2.69,385,281,417,463,304,27
259,0.91,-0.38,0.15,1.1,-2.56,-1.22,386,279,419,462,306,27
260,0.92,-0.37,0.16,-0.06,-2.26,-2.93,384,283,415,479,307,27
261,0.89,-0.39,0.16,1.34,-4.09,-1.59,375,280,417,471,307,27
262,0.92,-0.38,0.16,1.34,-1.1,-4.76,383,280,415,467,309,27
263,0.92,-0.35,0.18,-0.06,-2.32,-2.75,385,278,419,459,307,27
264,0.91,-0.37,0.17,1.65,-3.05,-3.3,388,280,418,467,307,27
265,0.9,-0.39,0.16,-0.98,-3.23,-2.75,382,281,417,463,305,27
266,0.93,-0.37,0.18,0.24,-1.59,-4.39,387,284,415,466,307,27
267,0.93,-0.37,0.16,1.89,-2.2,-2.75,383,283,418,461,306,27
268,0.9,-0.38,0.17,-0.49,-3.6,-3.36,387,279,419,467,306,27
269,0.91,-0.38,0.17,-2.32,-1.46,-3.97,389,279,417,464,307,27
270,0.92,-0.38,0.17,1.77,-2.2,-2.5,382,282,413,469,308,27
271,0.92,-0.37,0.17,1.34,-2.38,-3.23,391,281,414,465,306,27
272,0.92,-0.37,0.17,0.0,-3.72,-2.62,383,278,418,468,307,27
273,0.92,-0.37,0.17,-0.85,-2.2,-2.87,384,282,419,464,309,27
274,0.92,-0.37,0.17,0.49,-3.78,-2.01,395,280,416,465,309,27
275,0.92,-0.36,0.17,1.34,-1.95,-5.49,381,284,416,464,309,27
276,0.92,-0.36,0.18,-0.43,-3.23,-1.53,388,282,415,460,306,27
277,0.91,-0.37,0.15,4.76,-0.98,-3.72,387,283,420,459,304,27
278,0.91,-0.35,0.19,-2.14,-3.48,-3.23,383,281,416,461,306,27
279,0.92,-0.38,0.22,0.92,-3.85,2.5,386,283,416,469,306,27
280,0.92,-0.35,0.22,3.6,-1.46,-2.38,389,281,418,467,305,27
281,1.06,-0.27,0.23,25.45,-30.27,-8.18,387,281,418,463,306,27
282,0.9,-0.35,0.23,-3.6,-0.24,-1.22,387,282,418,466,308,27
283,0.86,-0.38,0.12,0.61,-3.05,-9.89,383,282,416,464,309,27
284,0.94,-0.33,0.15,6.71,-4.09,-1.89,388,285,422,464,305,27
285,0.98,-0.31,0.17,-0.98,1.04,-5.98,388,284,415,468,305,27
286,0.97,-0.32,0.15,-3.05,-2.87,-4.64,391,283,415,466,307,27
287,0.93,-0.33,0.17,3.23,-2.93,-3.05,389,282,416,463,308,27
288,0.94,-0.33,0.18,-1.65,-3.17,-1.89,389,285,416,467,307,27
289,0.93,-0.35,0.17,0.31,-5.55,-0.67,388,282,415,466,310,27
290,0.92,-0.36,0.21,2.01,-0.49,-2.99,386,280,415,464,309,27
291,0.92,-0.34,0.21,-2.81,-5.74,-0.73,390,283,417,466,307,27
292,0.91,-0.37,0.16,-0.85,-6.16,0.67,388,281,417,468,307,27
293,0.91,-0.38,0.15,1.53,-3.23,-1.65,387,283,413,465,303,27
294,0.94,-0.36,0.18,0.37,-1.53,-2.69,385,281,415,464,307,27
295,0.89,-0.39,0.15,-2.01,-4.39,-3.17,388,283,416,466,309,27
296,0.92,-0.37,0.16,1.77,-2.99,-2.32,391,283,416,468,306,27
297,0.94,-0.36,0.14,1.1,-2.2,-2.75,391,283,418,465,307,27
298,0.91,-0.38,0.17,0.49,-3.42,-1.04,385,282,418,462,301,27
299,0.92,-0.39,0.13,-4.94,-4.09,-3.91,389,284,417,468,307,27
300,0.91,-0.39,0.13,3.36,-2.93,-2.01,385,280,414,469,307,27
301,0.92,-0.38,0.13,-1.16,-3.54,-2.38,386,283,416,461,308,27
302,0.92,-0.38,0.13,0.79,-3.23,-2.26,389,284,417,464,308,27
303,0.92,-0.38,0.13,1.83,-2.14,-2.75,390,285,416,465,304,27
304,0.91,-0.38,0.15,0.49,-2.93,-2.08,383,284,417,466,306,27
305,0.95,-0.35,0.13,3.36,-0.31,-3.6,386,283,415,469,306,27
306,0.9,-0.39,0.15,-3.54,-2.32,-2.87,389,284,413,461,306,27
307,0.88,-0.42,0.08,-0.79,-5.62,0.18,390,292,413,465,307,27
308,0.9,-0.36,0.18,-2.32,0.31,-12.08,395,284,415,462,310,27
309,0.93,-0.34,0.19,-1.22,-4.27,5.62,388,282,416,467,304,27
310,0.86,-0.4,0.16,-4.39,-6.41,1.16,388,296,414,463,307,27
311,0.91,-0.39,0.12,-1.71,-4.64,-1.77,386,285,415,467,306,27
312,0.98,-0.36,0.12,-0.79,-0.79,-5.19,386,285,414,467,308,27
313,0.93,-0.36,0.15,3.11,-2.5,-3.05,388,282,414,461,306,27
314,0.93,-0.36,0.14,-1.53,-1.77,-2.32,409,285,413,464,307,27
315,0.92,-0.38,0.14,-0.61,-2.69,-4.03,388,284,416,466,309,27
316,0.92,-0.37,0.14,1.28,-3.23,-2.62,385,284,414,467,309,27
317,0.92,-0.37,0.15,0.49,-5.13,-1.65,382,283,414,467,307,27
318,0.89,-0.4,0.13,-1.04,-3.3,-0.67,384,300,414,468,306,27
319,0.93,-0.39,0.13,1.53,-0.43,-1.65,387,280,415,467,302,27
320,0.91,-0.4,0.13,0.43,-1.77,-2.2,380,285,415,461,302,27
321,0.89,-0.4,0.16,0.98,-2.87,-1.65,386,281,413,468,307,27
322,0.92,-0.38,0.14,-0.73,-3.36,-2.87,383,286,418,469,302,27
323,0.91,-0.39,0.12,-2.69,-3.36,-2.2,388,283,417,470,306,27
324,0.92,-0.39,0.11,-1.34,-3.17,-0.92,398,284,414,462,307,27
325,0.91,-0.39,0.13,-0.49,-2.2,-3.11,381,288,413,466,307,27
326,0.91,-0.39,0.13,0.18,-3.05,-2.2,388,284,417,470,307,27
327,0.91,-0.4,0.12,0.43,-2.93,-2.62,386,283,413,465,308,27
328,0.92,-0.4,0.11,0.37,-3.23,-2.75,383,283,415,463,302,27
329,0.9,-0.39,0.13,0.18,-3.66,-2.56,387,291,415,474,307,27
330,0.92,-0.39,0.11,-2.38,-3.42,-3.23,382,284,413,462,306,27
331,0.92,-0.39,0.11,-0.06,-2.69,-2.75,387,286,410,465,309,27
332,0.92,-0.39,0.1,-0.06,-2.81,-2.75,383,284,415,462,307,27
333,0.92,-0.39,0.11,-0.12,-3.6,-2.44,389,283,410,466,301,27
334,0.91,-0.39,0.1,1.59,-1.89,-3.42,387,285,413,461,305,27
335,0.9,-0.41,0.12,1.53,-7.2,-0.55,387,284,412,468,308,27
336,0.9,-0.42,0.11,1.71,-2.99,-2.32,387,283,410,466,305,27
337,0.91,-0.41,0.12,-0.31,-2.81,-2.5,387,286,413,466,306,27
338,0.91,-0.4,0.12,1.59,-2.32,-2.87,388,280,415,464,307,27
339,0.93,-0.39,0.12,0.61,-2.69,-2.5,385,281,412,466,309,27
340,0.91,-0.41,0.11,-0.43,-3.54,-2.56,413,284,415,468,310,27
341,0.91,-0.4,0.11,0.31,-2.62,-2.87,389,285,413,465,309,27
342,0.91,-0.4,0.12,0.98,-3.23,-2.93,384,284,425,469,310,27
343,0.91,-0.4,0.12,0.37,-2.69,-2.81,386,289,413,462,307,27
344,0.91,-0.4,0.11,1.65,-3.36,-2.62,388,286,413,466,308,27
345,0.9,-0.41,0.1,-2.81,-4.21,-1.65,389,285,411,463,319,27
346,0.92,-0.41,0.11,1.04,-2.99,-1.16,389,287,411,470,309,27
347,0.9,-0.42,0.1,-2.2,-5.55,-0.98,390,281,412,464,304,27
348,0.89,-0.43,0.08,-0.61,-3.72,-1.46,388,285,412,467,307,27
349,0.91,-0.43,0.06,0.49,-3.54,-1.77,387,287,412,463,309,27
350,0.9,-0.43,0.08,0.49,-3.11,-2.5,389,284,408,466,310,27
351,0.9,-0.43,0.07,-0.06,-2.87,-2.81,384,283,415,469,306,27
352,0.9,-0.43,0.06,0.06,-2.75,-2.93,389,285,412,464,308,27
353,0.9,-0.43,0.07,1.4,-2.81,-2.2,389,289,412,459,303,27
354,0.9,-0.42,0.08,0.06,-2.56,-2.14,387,283,413,467,309,27
355,0.9,-0.43,0.07,0.73,-3.11,-2.2,386,285,414,462,309,27
356,0.9,-0.43,0.07,0.73,-1.59,-3.66,387,283,414,466,307,27
357,0.89,-0.43,0.09,2.01,-1.22,-2.99,387,285,411,465,307,27
358,0.92,-0.41,0.08,-0.31,-1.59,-3.85,383,284,414,465,308,27
359,0.9,-0.41,0.1,1.28,-2.99,-2.2,391,280,413,469,310,27
360,0.9,-0.42,0.09,-0.55,-3.11,-2.62,387,286,412,460,305,27
361,0.9,-0.42,0.1,0.37,-2.75,-2.69,387,286,412,467,308,27
362,0.91,-0.42,0.09,0.49,-3.05,-3.54,386,285,417,466,304,27
363,0.91,-0.41,0.1,0.31,-3.11,-3.11,386,284,412,466,311,27
364,0.91,-0.41,0.09,-1.83,-3.3,-3.17,389,287,412,469,308,27
365,0.91,-0.41,0.07,-0.12,-2.5,-3.54,389,283,413,469,309,27
366,0.91,-0.39,0.13,1.77,-1.16,-3.3,387,284,413,464,308,27
367,0.91,-0.42,0.09,-1.4,-4.03,-1.83,388,284,412,470,306,27
368,0.91,-0.4,0.1,-0.79,-4.52,-0.85,383,284,412,465,309,27
369,0.91,-0.41,0.09,2.44,-1.1,-3.66,386,283,412,464,311,27
370,0.9,-0.41,0.09,0.12,-3.6,-2.01,388,284,411,469,308,27
371,0.91,-0.4,0.1,1.59,-2.62,-2.93,386,286,409,460,303,27
372,0.92,-0.39,0.1,0.06,-2.08,-3.42,391,285,415,461,308,27
373,0.92,-0.4,0.11,0.55,-2.32,-3.17,388,287,408,472,306,27
374,0.91,-0.39,0.11,1.4,-2.08,-3.78,387,286,412,469,307,27
375,0.92,-0.39,0.11,-0.61,-2.38,-3.36,426,285,412,462,306,27
376,0.91,-0.39,0.11,-0.18,-2.93,-2.01,388,283,412,462,309,27
377,0.91,-0.4,0.11,1.53,-3.36,-1.65,387,284,411,465,311,27
378,0.92,-0.39,0.12,-0.12,-3.11,-2.56,388,288,409,469,310,27
379,0.92,-0.4,0.1,-0.31,-3.17,-2.44,389,285,409,464,308,27
380,0.91,-0.4,0.11,0.12,-4.94,-0.92,390,285,411,465,309,27
381,0.91,-0.4,0.12,1.4,-1.71,-3.3,388,284,411,465,309,27
382,0.91,-0.4,0.11,0.98,-2.69,-2.32,387,284,410,466,306,27
383,0.92,-0.39,0.1,0.12,-2.56,-3.36,390,286,424,466,309,27
384,0.91,-0.4,0.11,-0.73,-3.54,-2.69,386,282,410,467,319,27
385,0.91,-0.39,0.11,0.85,-2.5,-2.99,388,287,414,465,309,27
386,0.91,-0.4,0.11,0.85,-2.81,-2.5,385,286,413,465,306,27
387,0.91,-0.4,0.11,0.0,-3.78,-1.95,388,281,421,466,311,27
388,0.91,-0.4,0.12,0.79,-3.05,-2.08,387,285,412,465,308,27
389,0.91,-0.4,0.12,0.55,-3.23,-1.89,384,283,413,465,309,27
390,0.91,-0.4,0.11,0.61,-3.17,-2.2,384,284,409,464,309,27
391,0.92,-0.4,0.11,0.18,-2.81,-2.69,387,283,411,467,311,27
392,0.91,-0.39,0.12,-0.31,-3.6,-3.54,387,284,408,465,308,27
393,0.92,-0.41,0.11,-0.12,-1.95,-4.52,394,285,411,462,306,27
394,0.91,-0.4,0.12,-0.49,-4.82,-2.26,388,286,410,465,305,27
395,0.91,-0.4,0.1,0.31,-3.42,-2.93,386,290,409,468,308,27
396,0.91,-0.4,0.11,0.37,-2.08,-2.93,387,285,411,460,311,27
397,0.91,-0.4,0.11,1.34,-3.85,-2.56,393,284,408,467,310,27
398,0.92,-0.39,0.11,0.73,-1.89,-2.01,387,283,411,465,309,27
399,0.9,-0.4,0.12,1.77,-3.78,-1.83,388,283,410,465,309,27
400,0.91,-0.39,0.12,0.06,-2.01,-3.11,387,283,407,464,310,27
401,0.91,-0.4,0.12,0.24,-2.5,-2.81,387,286,410,469,309,27
402,0.91,-0.39,0.13,0.98,-4.15,-3.66,385,283,412,465,309,27
403,0.91,-0.39,0.12,-0.31,-4.46,-1.83,386,292,410,465,311,27
404,0.91,-0.39,0.11,1.16,-2.26,-2.56,384,284,411,462,311,27
405,0.91,-0.4,0.12,1.83,-4.39,-2.32,383,285,413,466,311,27
406,0.92,-0.39,0.11,0.18,-3.36,-2.5,384,285,413,467,305,27
407,0.92,-0.39,0.11,2.56,-4.09,-2.38,386,283,411,470,309,27
408,0.92,-0.39,0.12,-0.37,-1.1,-3.6,388,281,411,469,307,27
409,0.9,-0.39,0.13,-1.1,-4.09,-2.44,387,282,413,464,306,27
410,0.92,-0.39,0.13,1.22,-3.78,-2.87,413,286,414,466,311,27
411,0.91,-0.4,0.09,-1.28,-4.82,-3.6,383,284,411,461,311,27
412,0.91,-0.4,0.1,-2.75,-3.11,-4.15,388,284,413,464,308,27
413,0.9,-0.39,0.13,-0.49,-4.76,-2.26,383,282,414,470,307,27
414,0.9,-0.39,0.14,-0.79,-3.78,-1.16,387,281,412,467,310,27
415,0.9,-0.4,0.13,0.31,-2.56,-2.81,384,284,410,461,310,27
416,0.93,-0.39,0.14,0.79,-3.36,-1.71,387,283,412,469,312,27
417,0.92,-0.39,0.14,0.98,-1.95,-3.11,387,289,410,467,311,27
418,0.92,-0.39,0.14,0.37,-3.05,-3.05,386,285,410,467,300,27
419,0.92,-0.38,0.14,1.1,-2.2,-2.87,397,280,411,463,309,27
420,0.91,-0.38,0.15,0.37,-3.23,-2.75,386,282,410,468,311,27
421,0.91,-0.39,0.14,0.18,-4.15,-2.01,393,282,413,466,311,27
422,0.92,-0.39,0.14,1.22,-3.05,-2.93,386,282,408,466,309,27
423,0.92,-0.39,0.13,0.92,-3.54,-2.75,389,285,412,468,306,27
424,0.92,-0.39,0.14,0.67,-2.87,-3.36,385,279,411,469,310,27
425,0.91,-0.39,0.15,0.37,-3.36,-2.62,387,282,410,461,307,27
426,0.91,-0.38,0.15,0.79,-3.05,-2.62,384,285,407,467,307,27
427,0.91,-0.39,0.14,0.55,-3.48,-2.08,383,282,410,462,306,27
428,0.91,-0.38,0.16,1.95,-1.53,-3.11,384,283,417,465,308,27
429,0.91,-0.38,0.15,0.06,-3.72,-2.32,388,284,409,471,311,27
430,0.92,-0.38,0.15,0.0,-2.99,-2.14,386,281,412,468,309,27
431,0.91,-0.38,0.14,0.12,-3.17,-2.69,386,283,410,470,312,27
432,0.91,-0.39,0.15,1.16,-3.05,-2.01,386,283,410,469,318,27
433,0.92,-0.38,0.15,0.31,-2.75,-2.26,387,286,407,472,306,27
434,0.91,-0.38,0.15,-0.92,-3.85,-2.08,385,286,408,472,307,27
435,0.91,-0.4,0.15,0.06,-1.83,-4.15,388,287,410,485,308,27
436,0.9,-0.39,0.14,1.16,-3.36,-2.62,387,287,409,466,311,27
437,0.89,-0.37,0.13,0.55,-2.81,-4.09,386,286,415,472,309,27
438,0.93,-0.34,0.17,0.73,1.04,-2.75,387,287,409,468,315,27
439,0.91,-0.35,0.23,-6.04,0.18,-7.26,385,286,411,473,311,27
440,0.93,-0.35,0.18,7.02,-1.16,-0.85,386,284,414,469,308,27
441,0.92,-0.36,0.18,-2.87,-4.52,-2.69,383,282,410,473,309,27
442,0.91,-0.36,0.19,-1.34,-3.05,-3.54,384,286,410,463,312,27
443,0.92,-0.36,0.18,-1.28,-5.31,-1.34,384,287,410,470,310,27
444,0.92,-0.36,0.17,0.98,-3.05,-1.95,381,283,411,471,312,27
445,0.92,-0.37,0.16,1.04,-2.44,-1.53,381,287,411,469,312,27
446,0.91,-0.37,0.16,-1.65,-2.62,-3.42,373,285,411,472,307,27
447,0.93,-0.36,0.18,0.37,-2.69,-2.56,377,284,414,472,308,27
448,0.92,-0.37,0.18,0.73,-2.26,-3.36,381,284,411,470,310,27
449,0.92,-0.36,0.15,1.22,-2.38,-2.75,378,285,411,469,306,27
450,0.92,-0.37,0.17,-0.18,-4.15,-2.38,380,287,414,473,310,27
451,0.92,-0.37,0.18,1.83,-2.32,-2.69,381,281,410,473,311,27
452,0.92,-0.37,0.17,0.18,-2.93,-2.87,380,284,410,469,310,27
453,0.92,-0.36,0.18,0.73,-2.75,-2.14,378,284,407,469,317,27
454,0.92,-0.37,0.19,-0.92,-2.5,-3.48,379,287,412,471,311,27
455,0.92,-0.36,0.18,0.12,-3.72,-2.2,380,284,407,469,308,27
456,0.91,-0.37,0.19,0.85,-1.89,-3.11,380,283,407,470,313,27
457,0.92,-0.37,0.18,2.26,-0.67,-2.56,383,285,411,472,309,27
458,0.93,-0.36,0.17,-0.18,-1.71,-4.15,382,283,412,467,313,27
459,0.9,-0.37,0.18,-0.31,-3.66,-2.01,378,282,408,469,311,27
460,0.92,-0.37,0.18,2.01,-2.69,1.16,382,284,410,467,306,27
461,0.92,-0.37,0.19,0.06,-2.01,-4.21,377,289,408,472,310,27
462,0.92,-0.37,0.19,-2.14,-4.58,-0.92,396,284,409,475,311,27
463,0.9,-0.38,0.19,0.37,-3.36,-1.89,380,287,421,472,317,27
464,0.91,-0.38,0.16,-0.12,-2.81,-3.23,377,284,407,469,311,27
465,0.91,-0.38,0.17,2.87,-2.08,-4.09,383,283,408,463,312,27
466,0.9,-0.37,0.2,1.1,-3.11,-4.39,379,283,409,470,313,27
467,0.92,-0.35,0.19,-0.61,-3.78,-1.4,375,286,409,465,311,27
468,0.92,-0.36,0.19,0.43,-2.38,-3.54,378,282,408,463,313,27
469,0.91,-0.36,0.18,0.79,-2.93,-2.01,417,285,407,471,313,27
470,0.93,-0.36,0.19,0.67,-2.75,-2.5,382,289,409,469,312,27
471,0.91,-0.36,0.18,0.61,-3.23,-2.38,383,286,409,469,313,27
472,0.93,-0.36,0.18,0.18,-3.91,-2.5,379,293,405,472,309,27
473,0.92,-0.36,0.18,0.67,-2.87,-2.14,382,284,408,472,312,27
474,0.92,-0.36,0.19,0.12,-2.62,-3.17,380,285,409,464,316,27
475,0.92,-0.35,0.18,0.37,-2.81,-2.5,377,283,409,472,312,27
476,0.92,-0.36,0.18,-0.37,-2.62,-2.38,382,283,407,467,313,27
477,0.92,-0.37,0.17,0.61,-3.17,-2.44,381,284,407,471,308,27
478,0.92,-0.36,0.17,-0.55,-2.93,-2.62,377,287,406,472,314,27
479,0.92,-0.38,0.17,-0.31,-3.11,-2.2,381,286,411,470,312,27
480,0.92,-0.36,0.18,0.92,-3.05,-2.26,381,287,412,472,308,27
481,0.92,-0.37,0.18,0.24,-2.81,-2.5,380,285,409,463,317,27
482,0.92,-0.37,0.17,0.55,-2.99,-2.5,380,286,410,468,313,27
483,0.92,-0.37,0.18,0.85,-3.23,-2.69,380,287,407,468,312,27
484,0.91,-0.37,0.19,0.12,-4.33,-2.87,383,289,408,468,314,27
485,0.93,-0.37,0.14,0.85,-3.78,-2.14,381,283,412,467,313,27
486,0.92,-0.38,0.1,1.04,-10.01,-1.1,382,284,407,468,314,27
487,0.9,-0.38,0.17,0.85,-0.49,-5.8,382,284,406,470,312,27
488,0.93,-0.37,0.14,-1.59,-2.26,-4.88,382,285,408,470,310,27
489,0.9,-0.35,0.18,-2.56,-5.55,-1.04,387,286,408,469,309,27
490,0.9,-0.41,0.14,-4.21,-0.18,-5.74,380,284,410,469,314,27
491,0.92,-0.38,0.17,-2.14,-2.38,-3.66,380,283,405,470,311,27
492,0.92,-0.37,0.16,0.43,-2.2,-3.66,384,284,405,471,314,27
493,0.92,-0.38,0.15,-1.59,-3.42,-3.23,381,287,403,472,311,27
494,0.93,-0.36,0.17,-1.46,-3.05,-2.56,380,284,409,471,312,27
495,0.92,-0.37,0.15,-0.92,-2.56,-3.6,380,286,407,464,313,27
496,0.92,-0.38,0.16,0.18,-2.75,-2.62,383,281,409,473,310,27
497,0.91,-0.37,0.14,0.79,-4.76,-0.85,381,285,407,465,312,27
498,0.92,-0.37,0.15,1.16,-2.2,-3.6,381,287,408,469,313,27
499,0.91,-0.37,0.16,0.31,-2.56,-2.81,382,285,407,466,312,27
500,0.92,-0.37,0.16,0.24,-2.56,-2.56,381,284,407,472,311,27
501,0.92,-0.37,0.16,0.49,-2.81,-2.38,377,285,407,469,311,27
502,0.92,-0.37,0.16,0.79,-2.81,-2.2,378,287,407,471,312,27
503,0.92,-0.38,0.16,0.43,-3.23,-1.83,380,285,408,471,311,27
504,0.92,-0.37,0.15,-0.37,-3.05,-2.81,371,288,417,468,313,27
505,0.92,-0.37,0.16,0.85,-2.99,-2.44,377,288,407,465,313,27
506,0.92,-0.37,0.16,0.73,-2.56,-2.5,381,285,406,467,313,27
507,0.92,-0.38,0.15,0.67,-2.81,-3.42,382,287,405,468,314,27
508,0.91,-0.38,0.16,0.67,-2.5,-3.3,380,285,407,466,312,27
509,0.91,-0.37,0.16,0.55,-3.3,-1.95,380,287,406,470,315,27
510,0.92,-0.37,0.15,0.73,-2.5,-3.54,380,287,405,472,313,27
511,0.92,-0.37,0.16,0.98,-2.69,-2.5,375,287,407,462,309,27
512,0.92,-0.37,0.16,0.61,-3.36,-1.77,380,288,406,468,312,27
513,0.92,-0.36,0.17,-0.67,-2.62,-2.32,392,283,406,472,311,27
514,0.92,-0.37,0.16,0.67,-2.75,-2.32,380,288,407,469,310,27
515,0.92,-0.35,0.17,1.34,-3.78,-1.34,376,287,405,469,309,27
516,0.91,-0.37,0.16,0.67,-3.36,-1.65,382,287,407,469,312,27
517,0.92,-0.37,0.16,-0.37,-3.72,-1.83,382,284,406,468,312,27
518,0.92,-0.37,0.16,0.98,-3.3,-2.01,379,283,407,469,309,27
519,0.91,-0.37,0.16,0.61,-3.05,-2.26,378,286,407,468,312,27
520,0.92,-0.37,0.16,0.37,-3.11,-2.5,394,285,408,468,314,27
521,0.92,-0.37,0.16,1.04,-2.87,-3.11,381,285,406,471,311,27
522,0.93,-0.36,0.16,0.67,-2.32,-2.93,378,297,407,468,313,27
523,0.92,-0.36,0.16,0.31,-3.05,-2.44,383,286,409,467,313,27
524,0.92,-0.37,0.15,0.18,-4.03,-1.28,381,284,409,471,311,27
525,0.92,-0.37,0.15,-0.67,-2.5,-2.75,380,283,406,466,313,27
526,0.92,-0.37,0.16,0.24,-2.75,-2.38,381,287,406,471,312,27
527,0.92,-0.37,0.16,0.43,-2.75,-3.05,381,283,407,471,313,27
528,0.92,-0.37,0.15,0.67,-3.05,-2.75,383,288,406,463,312,27
529,0.92,-0.38,0.15,0.12,-2.62,-2.75,382,285,405,463,305,27
530,0.92,-0.38,0.16,0.12,-3.11,-2.69,378,288,406,468,314,27
531,0.92,-0.37,0.15,0.98,-3.05,-2.08,382,283,406,467,312,27
532,0.92,-0.37,0.15,0.37,-3.54,-2.81,376,285,409,478,310,27
533,0.92,-0.37,0.15,0.37,-3.05,-2.26,384,289,409,468,313,27
534,0.9,-0.33,0.31,1.77,-1.34,-2.62,442,236,406,448,306,27
535,0.88,-0.33,0.32,-0.55,-1.28,-2.87,441,243,407,458,304,27
536,0.9,-0.33,0.32,0.43,-5.0,-2.08,440,244,405,451,310,27
537,0.9,-0.33,0.3,1.53,-3.66,-1.28,439,243,403,446,307,27
538,0.91,-0.32,0.3,0.49,-2.01,-2.93,439,245,403,453,306,27
539,0.91,-0.32,0.31,-3.11,-4.94,-4.76,438,239,400,450,306,27
540,0.9,-0.33,0.3,-1.28,-3.23,-3.11,426,243,403,454,306,27
541,0.9,-0.33,0.3,0.0,-3.36,-2.01,439,242,397,445,305,27
542,0.9,-0.33,0.3,1.22,-3.85,-2.69,439,240,400,445,308,27
543,0.91,-0.33,0.3,2.01,-4.33,-3.3,439,245,394,446,305,27
544,0.9,-0.32,0.3,-0.24,-3.3,-2.87,437,243,401,450,307,27
545,0.9,-0.31,0.3,1.22,-2.38,-2.99,460,242,402,455,305,27
546,0.9,-0.32,0.3,2.14,-3.11,-2.01,439,247,402,456,307,27
547,0.9,-0.31,0.3,1.04,-2.2,-3.05,435,243,395,450,306,27
548,0.91,-0.32,0.31,0.85,-2.14,-2.44,431,243,399,453,308,27
549,0.92,-0.31,0.3,0.06,-3.36,-2.93,433,243,399,454,302,27
550,0.91,-0.32,0.3,0.61,-2.99,-2.5,435,246,396,443,305,27
551,0.94,-0.31,0.3,1.16,-4.15,-2.5,435,245,397,446,306,27
552,0.91,-0.31,0.3,1.71,-3.11,-2.62,439,249,397,448,307,27
553,0.92,-0.31,0.3,-0.79,-3.42,-2.99,434,244,397,451,308,27
554,0.91,-0.31,0.3,1.46,-2.56,-1.59,437,242,401,453,306,27
555,0.9,-0.31,0.3,1.28,-3.6,-2.93,435,247,398,451,306,27
556,0.91,-0.3,0.3,2.32,-2.75,-2.01,430,244,398,447,306,27
557,0.91,-0.31,0.3,0.67,-2.26,-2.75,432,248,394,452,305,27
558,0.91,-0.31,0.3,0.24,-4.46,-2.75,433,247,400,457,306,27
559,0.91,-0.31,0.3,1.4,-2.93,-2.38,441,246,394,445,308,27
560,0.91,-0.31,0.3,0.49,-4.27,-2.44,433,241,394,469,308,27
561,0.91,-0.31,0.3,0.92,-4.27,-2.44,434,241,395,448,300,27
562,0.92,-0.31,0.3,1.89,-4.03,-2.62,435,248,405,457,305,27
563,0.92,-0.3,0.3,0.61,-3.66,-2.81,433,247,395,450,308,27
564,0.91,-0.3,0.3,0.67,-3.05,-2.87,433,248,396,454,304,27
565,0.91,-0.3,0.3,0.67,-2.56,-2.01,432,246,396,448,304,27
566,0.92,-0.29,0.31,-0.31,-2.38,-2.69,433,246,397,450,308,27
567,0.9,-0.3,0.31,0.79,-2.14,-2.08,433,243,398,453,306,27
568,0.91,-0.3,0.3,1.22,-3.85,-3.54,433,248,398,452,307,27
569,0.92,-0.3,0.3,1.34,-4.03,-2.69,433,245,390,452,309,27
570,0.91,-0.3,0.3,0.37,-2.62,-2.75,429,246,395,447,308,27
571,0.92,-0.29,0.3,2.26,-2.93,-2.38,436,247,394,455,304,27
572,0.92,-0.29,0.29,0.24,-3.11,-2.87,433,251,397,453,307,27
573,0.92,-0.29,0.3,0.79,-2.38,-2.69,431,247,392,452,310,27
574,0.91,-0.29,0.3,0.49,-3.66,-2.81,430,252,395,452,304,27
575,0.92,-0.29,0.3,0.92,-2.75,-2.87,436,247,396,456,310,27
576,0.92,-0.29,0.3,1.22,-3.36,-2.5,433,251,396,458,307,27
577,0.92,-0.29,0.29,0.92,-3.85,-2.75,434,250,393,452,305,27
578,0.92,-0.29,0.29,0.73,-2.81,-3.11,431,250,395,448,311,27
579,0.92,-0.29,0.3,0.24,-2.2,-2.44,435,247,396,451,304,27
580,0.91,-0.29,0.3,0.55,-2.93,-2.56,434,249,397,453,308,27
581,0.92,-0.28,0.3,1.22,-2.2,-2.62,434,252,395,453,310,27
582,0.91,-0.29,0.3,0.37,-2.75,-2.87,429,249,398,455,309,27
583,0.92,-0.28,0.3,0.49,-2.75,-2.44,431,252,392,457,307,27
584,0.92,-0.29,0.29,1.71,-3.66,-2.44,431,249,398,450,308,27
585,0.92,-0.28,0.3,0.85,-1.89,-3.3,431,252,410,460,311,27
586,0.91,-0.28,0.3,0.61,-2.81,-3.11,432,265,397,455,311,27
587,0.92,-0.28,0.3,0.43,-2.56,-2.75,432,249,401,451,309,27
588,0.92,-0.28,0.3,0.79,-2.62,-2.56,432,246,395,453,307,27
589,0.92,-0.28,0.3,0.06,-3.66,-2.26,431,253,398,455,310,27
590,0.92,-0.28,0.3,0.55,-2.56,-3.23,432,251,392,454,308,27
591,0.92,-0.28,0.3,0.43,-2.99,-2.81,431,249,395,454,310,27
592,0.92,-0.27,0.3,0.12,-2.87,-3.23,434,251,390,456,311,27
593,0.93,-0.28,0.3,0.79,-2.14,-2.62,431,251,393,450,321,27
594,0.93,-0.27,0.31,1.34,-3.05,-3.17,430,256,396,453,306,27
595,0.91,-0.28,0.31,1.95,-3.23,-4.33,427,251,393,453,308,27
596,0.92,-0.27,0.31,0.79,-3.11,-3.11,432,245,396,454,309,27
597,0.91,-0.27,0.31,0.85,-3.05,-2.32,433,248,396,454,311,27
598,0.91,-0.27,0.32,0.73,-2.2,-2.75,431,250,397,454,307,27
599,0.92,-0.27,0.31,1.28,-2.99,-2.69,430,254,396,448,311,27
600,0.92,-0.27,0.32,0.73,-3.48,-2.5,430,250,407,454,312,27
601,0.93,-0.27,0.31,1.1,-3.17,-3.23,428,250,392,453,313,27
602,0.92,-0.27,0.31,0.37,-1.22,-3.11,433,244,396,454,310,27
603,0.91,-0.27,0.32,0.12,-3.3,-2.08,430,251,392,448,314,27
604,0.92,-0.27,0.31,0.37,-4.27,-1.89,425,249,394,454,312,27
605,0.91,-0.27,0.31,0.0,-2.2,-2.62,429,252,395,456,322,27
606,0.91,-0.27,0.32,0.92,-2.99,-3.05,432,251,397,455,309,27
607,0.93,-0.26,0.31,1.1,-2.69,-2.81,429,253,395,454,308,27
608,0.93,-0.27,0.31,1.1,-2.32,-1.77,438,255,394,454,308,27
609,0.92,-0.26,0.32,1.16,-1.4,-2.38,431,246,397,454,309,27
610,0.91,-0.26,0.32,0.79,-2.38,-2.14,427,249,395,457,311,27
611,0.92,-0.26,0.32,0.24,-3.23,-2.32,430,254,397,454,302,27
612,0.92,-0.26,0.32,0.12,-2.56,-2.87,431,253,395,454,312,27
613,0.93,-0.26,0.32,-0.24,-3.3,-2.99,427,252,395,453,309,27
614,0.92,-0.26,0.32,0.92,-2.2,-2.5,429,251,394,455,311,27
615,0.92,-0.27,0.32,0.0,-3.78,-3.05,429,251,395,451,312,27
616,0.92,-0.26,0.33,-1.71,-2.32,-1.89,429,249,397,449,313,27
617,0.91,-0.26,0.32,0.61,-3.23,-2.32,426,248,393,457,310,27
618,0.91,-0.26,0.33,-0.61,-3.05,-1.95,426,252,391,452,310,27
619,0.92,-0.27,0.31,0.37,-2.5,-2.81,429,255,394,458,312,27
620,0.92,-0.26,0.31,0.79,-3.48,-2.5,429,251,394,456,314,27
621,0.91,-0.27,0.32,1.16,-3.48,-1.95,435,256,398,452,311,27
622,0.92,-0.26,0.32,-0.18,-2.99,-2.81,424,255,398,457,313,27
623,0.92,-0.27,0.32,-0.49,-2.44,-2.81,428,256,400,451,313,27
624,0.93,-0.27,0.32,0.55,-2.75,-2.62,427,254,398,452,310,27
625,0.92,-0.26,0.32,0.79,-3.05,-2.62,428,255,396,459,314,27
626,0.92,-0.26,0.32,0.73,-2.87,-2.44,430,261,395,458,312,27
627,0.92,-0.26,0.32,0.98,-2.5,-2.08,428,255,398,452,312,27
628,0.92,-0.27,0.32,0.92,-2.81,-2.08,429,263,395,454,312,27
629,0.91,-0.27,0.32,1.1,-3.97,-2.56,431,257,387,451,311,27
630,0.92,-0.26,0.32,1.71,-4.03,-2.62,432,252,397,450,313,27
631,0.92,-0.26,0.32,0.49,-2.26,-2.69,427,254,395,455,313,27
632,0.91,-0.27,0.33,0.37,-3.11,-2.62,429,249,395,454,312,27
633,0.92,-0.27,0.31,0.43,-2.87,-2.81,431,256,395,455,313,27
634,0.91,-0.26,0.32,0.98,-2.44,-2.69,428,254,397,453,311,27
635,0.92,-0.26,0.32,1.16,-3.17,-2.56,430,257,395,453,313,27
636,0.92,-0.26,0.32,0.06,-2.93,-2.56,427,256,397,453,313,27
637,0.92,-0.26,0.32,0.37,-3.17,-2.81,431,254,396,460,313,27
638,0.92,-0.26,0.32,1.77,-3.6,-2.81,427,255,391,453,310,27
639,0.92,-0.26,0.32,0.67,-2.2,-2.38,427,253,394,466,310,27
640,0.92,-0.26,0.32,1.1,-2.08,-2.5,425,251,396,452,316,27
641,0.91,-0.26,0.32,1.04,-2.26,-2.5,426,253,394,457,313,27
642,0.92,-0.26,0.33,0.24,-2.99,-2.81,428,255,395,457,317,27
643,0.91,-0.26,0.32,-0.31,-2.93,-3.05,427,257,395,451,315,27
644,0.92,-0.27,0.32,0.37,-3.36,-2.62,427,253,395,444,314,27
645,0.92,-0.26,0.32,0.67,-3.48,-2.81,429,255,390,456,312,27
646,0.92,-0.26,0.32,-0.24,-3.36,-1.83,430,257,396,458,315,27
647,0.91,-0.26,0.32,0.61,-3.11,-2.14,426,256,392,456,314,27
648,0.91,-0.26,0.32,0.12,-2.14,-3.48,429,256,395,453,311,27
649,0.92,-0.26,0.32,1.1,-3.66,-2.38,427,254,395,454,317,27
650,0.91,-0.26,0.32,0.06,-3.66,-2.62,465,258,394,456,315,27
651,0.92,-0.26,0.32,0.06,-2.81,-2.69,450,263,396,458,312,27
652,0.92,-0.26,0.32,0.18,-3.05,-2.32,427,254,394,459,314,27
653,0.92,-0.26,0.32,0.98,-2.62,-2.62,426,252,396,454,314,27
654,0.92,-0.26,0.32,0.31,-2.08,-3.66,425,255,394,449,316,27
655,0.93,-0.26,0.34,-6.41,6.96,-1.83,428,257,392,457,317,27
656,0.9,-0.31,0.3,1.22,1.59,-1.46,427,256,398,453,307,27
657,0.92,-0.29,0.34,-1.16,-3.6,-2.56,424,258,394,462,311,27
658,0.92,-0.27,0.35,4.03,-3.85,-5.92,427,260,397,457,313,27
659,0.89,-0.28,0.35,-0.73,-0.85,-2.01,429,259,395,455,317,27
660,0.92,-0.27,0.34,0.61,-4.82,-0.73,445,254,393,460,313,27
661,0.9,-0.27,0.35,2.01,-5.62,-1.89,424,256,393,456,316,27
662,0.88,-0.28,0.34,-0.73,-0.67,-2.87,429,256,395,452,314,27
663,0.9,-0.27,0.35,0.92,-3.48,-2.81,424,254,393,454,312,27
664,0.92,-0.27,0.35,-1.16,-2.01,-2.93,425,256,391,457,314,27
665,0.9,-0.27,0.35,1.53,-2.01,-1.95,427,255,397,457,315,27
666,0.9,-0.28,0.34,1.46,-3.36,-1.59,426,257,396,456,313,27
667,0.91,-0.27,0.34,2.01,-3.23,-2.75,426,256,395,456,314,27
668,0.91,-0.27,0.34,1.22,-3.11,-2.69,425,258,398,459,314,27
669,0.91,-0.28,0.33,0.31,-2.81,-2.44,423,257,394,459,314,27
670,0.92,-0.27,0.34,1.53,-3.36,-2.5,426,251,396,455,317,27
671,0.9,-0.28,0.34,0.49,-3.05,-1.59,422,260,395,451,315,27
672,0.89,-0.28,0.34,0.18,-3.72,-2.2,426,257,395,457,315,27
673,0.91,-0.28,0.33,0.37,-4.46,-2.99,425,255,394,455,320,27
674,0.91,-0.28,0.33,-0.24,-2.01,-2.69,425,255,392,457,315,27
675,0.91,-0.28,0.33,-0.61,-2.56,-2.69,419,258,398,455,314,27
676,0.9,-0.28,0.34,0.12,-3.17,-2.38,427,259,393,456,315,27
677,0.91,-0.27,0.35,0.98,-2.81,-2.26,427,258,394,452,314,27
678,0.92,-0.28,0.34,-0.24,-2.44,-2.5,426,257,395,458,316,27
679,0.9,-0.28,0.34,0.24,-2.75,-2.01,427,259,393,458,317,27
680,0.91,-0.28,0.34,0.79,-3.42,-2.56,427,260,396,455,316,27
681,0.9,-0.28,0.34,0.85,-2.62,-2.62,422,258,396,458,313,27
682,0.91,-0.28,0.35,0.79,-3.05,-2.93,425,258,391,449,318,27
683,0.91,-0.28,0.34,-1.16,-2.69,-3.17,426,259,394,457,313,27
684,0.91,-0.28,0.34,0.67,-2.44,-2.75,424,256,395,457,319,27
685,0.9,-0.28,0.34,-0.37,-2.69,-2.38,422,258,395,454,320,27
686,0.9,-0.28,0.34,-0.55,-2.32,-2.81,429,254,395,452,315,27
687,0.9,-0.28,0.35,0.24,-2.87,-1.89,425,257,395,456,319,27
688,0.91,-0.28,0.33,0.43,-2.56,-2.56,425,255,396,455,316,27
689,0.9,-0.28,0.34,0.43,-3.05,-2.56,425,259,396,453,312,27
690,0.91,-0.28,0.35,1.04,-3.36,-2.44,426,262,396,458,310,27
691,0.91,-0.28,0.34,-0.85,-2.81,-3.48,424,257,395,455,315,27
692,0.91,-0.28,0.34,0.0,-3.11,-1.65,424,259,394,458,316,27
693,0.9,-0.28,0.34,0.73,-2.26,-2.44,424,261,395,450,316,27
694,0.9,-0.28,0.35,0.55,-2.87,-3.11,423,258,393,454,317,27
695,0.89,-0.28,0.34,0.31,-3.78,-2.38,423,258,397,456,316,27
696,0.91,-0.28,0.35,-0.37,-2.56,-2.99,422,258,395,455,315,27
697,0.91,-0.29,0.34,0.12,-3.23,-2.14,424,257,393,458,316,27
698,0.9,-0.28,0.34,0.43,-2.93,-2.26,424,257,389,459,318,27
699,0.9,-0.29,0.34,0.43,-2.26,-1.46,426,259,391,452,318,27
700,0.91,-0.29,0.35,0.49,-3.54,-2.69,431,257,392,453,317,27
701,0.9,-0.29,0.35,0.49,-2.87,-2.2,452,253,392,454,317,27
702,0.9,-0.28,0.34,0.24,-2.81,-2.44,423,261,389,459,315,27
703,0.9,-0.29,0.34,0.24,-2.62,-3.54,423,255,395,455,318,27
704,0.9,-0.29,0.35,0.43,-3.11,-3.6,423,257,391,451,318,27
705,0.9,-0.28,0.35,0.24,-2.69,-1.71,424,260,394,451,316,27
706,0.91,-0.29,0.34,-0.31,-2.26,-2.32,422,254,394,459,316,27
707,0.9,-0.29,0.35,-1.16,-3.17,-2.75,417,257,392,456,318,27
708,0.9,-0.28,0.35,1.22,-3.17,-1.95,425,260,395,453,322,27
709,0.9,-0.29,0.35,0.24,-3.11,-2.87,423,256,394,456,320,27
710,0.9,-0.28,0.35,1.65,-3.97,-2.93,422,260,390,455,316,27
711,0.9,-0.29,0.35,1.04,-2.38,-2.2,423,254,392,453,321,27
712,0.9,-0.28,0.35,-0.37,-2.5,-3.42,426,257,396,459,318,27
713,0.9,-0.28,0.35,-0.06,-3.05,-2.81,422,256,390,452,317,27
714,0.9,-0.28,0.35,0.79,-3.17,-2.62,423,257,393,454,321,27
715,0.89,-0.28,0.35,1.83,-5.55,-0.18,423,261,395,455,321,27
716,0.9,-0.29,0.35,0.18,-2.75,-2.56,417,261,394,457,318,27
717,0.9,-0.29,0.34,0.98,-3.97,-3.23,425,259,392,458,314,27
718,0.9,-0.28,0.35,1.22,-2.99,-2.56,420,258,390,451,320,27
719,0.91,-0.28,0.35,1.22,-3.72,-2.38,419,256,392,457,320,27
720,0.9,-0.28,0.34,0.12,-2.5,-2.87,422,258,392,460,316,27
721,0.9,-0.28,0.34,0.73,-3.3,-2.2,422,260,395,458,319,27
722,0.91,-0.29,0.34,0.12,-2.2,-2.56,421,259,389,452,320,27
723,0.9,-0.28,0.35,1.16,-3.05,-2.62,425,260,393,450,316,27
724,0.9,-0.28,0.34,-0.18,-1.89,-3.54,426,259,387,456,317,27
725,0.91,-0.28,0.34,-0.18,-2.08,-2.38,423,260,394,458,322,27
726,0.89,-0.28,0.35,0.37,-2.44,-2.81,421,262,394,455,315,27
727,0.91,-0.28,0.35,0.31,-2.75,-2.38,422,260,395,455,324,27
728,0.9,-0.29,0.34,0.98,-2.93,-1.89,429,260,397,453,320,27
729,0.9,-0.28,0.35,0.73,-3.17,-2.75,420,255,393,448,320,27
730,0.91,-0.28,0.34,0.61,-3.72,-2.01,435,259,390,457,320,27
731,0.91,-0.27,0.34,4.21,-2.26,-3.17,420,259,392,456,318,27
732,0.9,-0.28,0.36,-0.43,-2.38,-2.81,422,258,392,461,316,27
733,0.9,-0.28,0.35,0.92,-2.75,-2.62,422,258,392,460,322,27
734,0.91,-0.28,0.34,0.37,-3.17,-3.11,435,258,394,450,319,27
735,0.91,-0.27,0.35,0.49,-2.81,-2.44,422,258,393,460,317,27
736,0.91,-0.27,0.35,0.24,-2.87,-2.93,423,258,395,461,318,27
737,0.9,-0.27,0.35,0.37,-3.42,-2.62,424,259,397,457,319,27
738,0.9,-0.27,0.35,-0.06,-3.05,-2.26,420,261,394,455,323,27
739,0.91,-0.27,0.35,-0.92,-3.48,-2.81,426,262,395,456,318,27
740,0.91,-0.27,0.35,2.2,-3.36,-2.99,424,257,395,454,320,27
741,0.91,-0.27,0.35,-0.18,-3.17,-2.08,420,256,391,455,318,27
742,0.91,-0.27,0.35,2.08,-3.66,-2.14,421,258,392,452,321,27
743,0.9,-0.27,0.35,0.73,-3.23,-2.01,421,267,391,451,317,27
744,0.9,-0.27,0.35,0.79,-3.6,-3.11,421,255,392,454,319,27
745,0.9,-0.27,0.35,0.37,-3.48,-2.2,421,263,395,453,320,27
746,0.91,-0.27,0.35,-2.38,-2.14,-3.23,422,259,392,456,317,27
747,0.9,-0.28,0.34,0.92,-4.09,-2.44,420,259,396,459,315,27
748,0.91,-0.27,0.35,0.79,-2.99,-2.32,421,258,394,455,314,27
749,0.9,-0.27,0.35,0.12,-2.99,-3.05,421,257,393,454,320,27
750,0.91,-0.27,0.34,0.49,-1.71,-3.11,419,259,397,461,318,27
751,0.9,-0.27,0.36,0.31,-2.93,-2.56,421,261,387,456,319,27
752,0.9,-0.28,0.34,-0.24,-3.17,-2.32,424,258,396,457,322,27
753,0.91,-0.26,0.36,0.61,-2.69,-2.81,419,261,397,457,321,27
754,0.9,-0.27,0.34,0.31,-2.08,-2.87,420,261,392,457,320,27
755,0.91,-0.27,0.35,0.85,-2.93,-2.2,420,261,400,458,320,27
756,0.9,-0.27,0.35,-0.18,-1.95,-3.42,421,261,394,457,318,27
757,0.91,-0.27,0.34,0.79,-4.76,-2.93,423,253,392,453,319,27
758,0.91,-0.26,0.34,0.73,-3.91,-2.5,423,261,394,456,321,27
759,0.91,-0.27,0.34,-0.55,-1.77,-2.69,425,260,392,456,317,27
760,0.9,-0.27,0.35,0.85,-2.69,-2.87,425,255,395,453,314,27
761,0.92,-0.26,0.35,0.49,-3.97,-1.83,417,259,394,459,319,27
762,0.92,-0.27,0.35,0.43,-3.11,-2.2,417,259,391,457,320,27
763,0.9,-0.27,0.35,0.98,-3.6,-2.32,417,261,394,453,315,27
764,0.91,-0.27,0.35,-0.67,-1.89,-2.87,420,254,396,455,320,27
765,0.9,-0.27,0.35,0.92,-3.3,-2.69,418,259,389,454,321,27
766,0.91,-0.27,0.34,-0.61,-2.69,-3.11,427,259,390,457,318,27
767,0.9,-0.27,0.34,0.18,-3.11,-2.69,425,261,393,456,321,27
768,0.91,-0.26,0.35,1.22,-3.97,-2.56,420,260,391,455,318,27
769,0.91,-0.26,0.34,0.12,-2.62,-2.75,420,257,392,452,315,27
770,0.9,-0.26,0.35,0.73,-3.23,-2.38,418,258,391,456,318,27
771,0.9,-0.27,0.34,-0.43,-3.36,-2.56,423,260,392,456,320,27
772,0.91,-0.27,0.35,0.73,-1.95,-2.14,417,253,396,454,320,27
773,0.9,-0.27,0.34,0.24,-3.36,-2.81,420,259,394,457,319,27
774,0.91,-0.27,0.35,1.89,-3.42,-1.77,419,261,394,457,320,27
775,0.91,-0.27,0.35,0.24,-3.42,-2.69,419,264,394,457,320,27
776,0.92,-0.26,0.35,0.55,-3.6,-2.62,421,260,393,458,317,27
777,0.91,-0.27,0.35,-0.31,-1.1,-2.14,420,259,393,453,318,27
778,0.9,-0.27,0.35,1.1,-2.87,-2.87,420,261,388,455,319,27
779,0.92,-0.27,0.34,0.85,-2.93,-1.95,422,263,393,460,324,27
780,0.9,-0.27,0.35,0.55,-2.87,-2.56,422,256,391,460,315,27
781,0.9,-0.27,0.36,-0.06,-1.65,-2.56,419,261,392,457,322,27
782,0.91,-0.27,0.34,1.53,-3.17,-2.32,420,258,393,456,314,27
783,0.9,-0.27,0.35,-0.24,-3.23,-2.08,415,257,390,459,321,27
784,0.91,-0.27,0.34,0.06,-3.48,-2.87,421,263,391,458,320,27
785,0.9,-0.27,0.34,0.55,-2.01,-2.56,422,261,392,457,319,27
786,0.91,-0.27,0.35,-0.61,-2.99,-2.56,417,274,393,457,319,27
787,0.91,-0.27,0.35,0.49,-2.87,-3.36,419,262,403,454,316,27
788,0.91,-0.27,0.35,0.73,-3.05,-2.26,421,252,395,460,322,27
789,0.9,-0.27,0.35,0.12,-2.87,-2.56,420,260,388,451,321,27
790,0.91,-0.27,0.35,0.18,-2.14,-1.95,433,243,388,460,321,27
791,0.9,-0.27,0.35,0.73,-2.56,-2.62,421,258,393,448,321,27
792,0.92,-0.26,0.35,0.12,-2.62,-2.62,421,258,401,457,319,27
793,0.9,-0.27,0.35,0.67,-2.62,-2.32,419,259,393,458,314,27
794,0.91,-0.27,0.35,0.24,-3.54,-2.93,420,261,394,455,317,27
795,0.91,-0.27,0.34,0.61,-3.05,-1.89,426,260,389,451,320,27
796,0.91,-0.27,0.35,0.73,-3.36,-3.05,419,257,391,457,323,27
797,0.9,-0.27,0.35,1.16,-3.54,-2.2,419,259,392,457,316,27
798,0.91,-0.27,0.35,1.1,-2.56,-2.75,419,267,395,460,320,27
799,0.92,-0.27,0.35,0.49,-3.72,-2.93,422,258,392,459,320,27
800,0.9,-0.27,0.35,0.37,-2.2,-2.87,419,252,389,457,320,27
801,0.9,-0.27,0.35,1.46,-3.48,-2.2,421,263,388,457,319,27
802,0.91,-0.27,0.35,1.46,-2.93,-2.44,419,258,395,457,316,27
803,0.9,-0.27,0.35,0.12,-2.56,-1.83,420,257,394,455,321,27
804,0.91,-0.28,0.35,0.43,-2.93,-2.56,420,259,393,454,320,27
805,0.91,-0.27,0.35,-0.06,-2.87,-4.03,416,258,391,455,320,27
806,0.92,-0.27,0.34,0.92,-3.78,-2.69,418,263,394,460,321,27
807,0.9,-0.27,0.34,0.55,-2.87,-2.26,417,263,392,457,318,27
808,0.91,-0.26,0.34,0.92,-2.62,-2.56,416,258,391,455,320,27
809,0.9,-0.27,0.35,0.37,-2.5,-2.69,415,261,394,453,317,27
810,0.91,-0.27,0.35,0.37,-3.42,-2.81,420,265,396,460,320,27
811,0.91,-0.27,0.34,0.37,-3.36,-3.91,418,259,392,457,322,27
812,0.91,-0.27,0.34,0.12,-2.32,-1.89,420,262,388,450,320,27
813,0.9,-0.26,0.35,0.49,-2.81,-2.87,421,262,390,462,318,27
814,0.91,-0.26,0.35,0.67,-2.75,-2.87,421,260,396,456,317,27
815,0.9,-0.27,0.35,-0.31,-2.44,-2.08,416,273,389,452,320,27
816,0.91,-0.27,0.34,0.06,-2.99,-2.38,421,259,388,456,320,27
817,0.91,-0.27,0.35,-0.24,-2.2,-2.69,420,261,390,451,321,27
818,0.91,-0.27,0.35,-0.85,-2.87,-2.99,420,261,391,458,321,27
819,0.9,-0.27,0.36,0.49,-2.26,-1.83,419,255,389,456,322,27
820,0.9,-0.28,0.35,-0.31,-2.56,-2.87,420,267,385,455,318,27
821,0.9,-0.28,0.35,0.43,-4.76,-2.87,420,262,390,453,318,27
822,0.91,-0.28,0.35,-0.55,-1.89,-2.93,419,261,386,456,308,27
823,0.89,-0.28,0.34,0.37,-2.26,-2.32,437,266,388,456,320,27
824,0.9,-0.27,0.35,2.01,-4.15,-2.93,420,262,390,462,322,27
825,0.91,-0.26,0.33,0.37,-3.6,-2.62,415,277,389,454,318,27
826,0.92,-0.26,0.33,0.49,-2.87,-2.5,418,259,392,457,323,27
827,0.91,-0.26,0.33,0.73,-4.27,-2.99,413,260,390,466,321,27
828,0.91,-0.26,0.33,0.18,-3.17,-3.23,417,262,392,455,323,27
829,0.91,-0.26,0.34,-0.61,-2.5,-2.81,419,262,391,455,321,27
830,0.92,-0.26,0.33,0.31,-3.36,-2.32,411,261,393,459,326,27
831,0.91,-0.26,0.34,1.28,-2.5,-1.83,415,262,390,457,321,27
832,0.92,-0.26,0.34,1.53,-3.11,-2.2,421,259,392,458,321,27
833,0.91,-0.26,0.34,1.04,-2.75,-2.32,418,262,391,457,318,27
834,0.92,-0.26,0.34,0.0,-2.75,-2.62,419,264,394,456,320,27
835,0.9,-0.26,0.34,0.43,-2.87,-2.69,419,257,391,456,320,27
836,0.91,-0.26,0.34,-0.55,-2.87,-3.23,417,257,390,458,316,27
837,0.91,-0.26,0.34,0.43,-3.11,-2.81,420,264,394,456,321,27
838,0.91,-0.26,0.34,1.34,-3.72,-2.01,418,263,387,452,317,27
839,0.92,-0.26,0.34,0.85,-2.26,-1.89,419,255,394,460,319,27
840,0.91,-0.26,0.34,0.55,-2.75,-2.5,416,263,390,458,316,27
841,0.91,-0.27,0.34,0.85,-2.87,-2.01,417,262,383,453,316,27
842,0.92,-0.26,0.35,0.12,-2.81,-2.14,428,262,385,461,322,27
843,0.9,-0.27,0.35,1.71,-2.93,-1.4,418,256,388,457,320,27
844,0.91,-0.27,0.34,0.61,-3.91,-2.44,417,263,391,456,321,27
845,0.91,-0.26,0.35,1.65,-2.99,-2.62,416,263,388,457,320,27
846,0.91,-0.26,0.33,1.4,-5.07,-4.15,417,259,390,453,321,27
847,0.93,-0.25,0.32,-0.85,-2.38,-2.87,417,261,390,455,321,27
848,0.92,-0.25,0.32,1.83,-5.0,-2.75,415,260,391,454,322,27
849,0.93,-0.24,0.3,0.85,-4.58,-3.36,419,263,389,457,314,27
850,0.93,-0.23,0.31,-0.79,-1.53,-2.08,415,256,390,452,323,27
851,0.94,-0.24,0.31,-0.06,0.98,-3.11,420,262,391,460,320,27
852,0.94,-0.23,0.36,0.37,2.38,-1.71,418,259,389,453,317,27
853,0.92,-0.25,0.36,0.98,-1.46,-1.16,417,258,390,456,323,27
854,0.92,-0.24,0.37,0.06,-3.54,-2.08,417,262,390,459,316,27
855,0.94,-0.22,0.38,0.85,0.0,-1.59,414,258,391,459,321,27
856,0.93,-0.25,0.37,1.1,-4.94,-0.31,417,262,389,457,324,27
857,0.91,-0.28,0.33,-1.46,-7.32,-3.11,417,261,389,457,321,27
858,0.91,-0.26,0.32,1.53,-1.1,-5.13,418,256,393,458,318,27
859,0.94,-0.26,0.31,0.98,-1.34,-5.25,417,259,391,456,319,27
860,0.93,-0.27,0.31,-0.49,-0.55,-1.95,417,263,391,452,321,27
861,0.89,-0.27,0.33,-0.55,-2.5,-1.77,416,262,387,461,318,27
862,0.89,-0.28,0.31,-1.16,-10.38,-4.39,417,261,388,453,322,27
863,0.9,-0.3,0.3,3.72,-5.37,1.34,418,260,389,451,323,27
864,0.92,-0.26,0.32,5.55,-2.01,-2.14,414,261,391,459,320,27
865,0.92,-0.26,0.35,3.6,0.37,0.73,414,263,389,453,322,27
866,0.93,-0.26,0.36,-2.26,7.51,-4.88,425,261,391,457,317,27
867,0.89,-0.27,0.39,2.2,-7.26,-3.23,416,262,393,457,323,27
868,0.89,-0.28,0.37,2.14,-4.52,0.06,417,255,389,459,321,27
869,0.88,-0.3,0.32,-0.61,-3.97,-1.59,419,265,390,459,322,27
870,0.88,-0.29,0.36,3.48,-1.77,0.55,417,258,391,450,321,27
871,0.89,-0.29,0.37,0.49,-0.43,-2.93,426,257,391,456,320,27
872,0.88,-0.29,0.38,0.67,0.06,-0.37,413,261,389,453,322,27
873,0.88,-0.3,0.4,0.43,-4.09,-1.95,416,264,390,460,321,27
874,0.88,-0.3,0.42,-5.98,-0.37,-3.3,419,263,391,453,321,27
875,0.86,-0.32,0.41,-0.79,-2.38,-5.68,414,258,390,457,320,27
876,0.88,-0.32,0.37,-1.04,-2.99,-1.53,416,259,392,457,320,27
877,0.88,-0.32,0.39,2.01,-4.33,-1.65,420,259,390,458,318,27
878,0.89,-0.31,0.38,1.95,-4.46,-2.75,416,262,391,449,321,27
879,0.87,-0.32,0.39,1.1,4.58,-1.77,413,264,392,452,325,27
880,0.86,-0.33,0.39,0.61,-4.7,-4.94,415,258,388,452,316,27
881,0.87,-0.33,0.4,-2.08,-0.61,-2.75,414,264,392,455,319,27
882,0.88,-0.32,0.4,0.37,-3.11,-1.77,413,261,390,455,320,27
883,0.88,-0.32,0.39,0.67,0.79,-3.78,415,262,391,455,324,27
884,0.85,-0.34,0.4,-1.1,-2.5,-1.34,418,260,389,455,318,27
885,0.87,-0.33,0.39,-1.28,-1.4,-1.89,422,262,394,451,321,27
886,0.86,-0.35,0.4,-1.1,-2.32,-1.04,416,260,390,456,321,27
887,0.86,-0.34,0.41,0.31,-5.37,-3.3,415,258,387,460,318,27
888,0.85,-0.34,0.42,0.55,-2.44,-3.42,415,262,393,451,321,27
889,0.86,-0.34,0.4,0.18,-2.87,-2.38,413,262,389,460,322,27
890,0.87,-0.33,0.41,0.67,-2.87,-1.22,415,263,389,452,326,27
891,0.85,-0.34,0.41,0.37,-1.89,-2.32,417,256,392,449,323,27
892,0.86,-0.34,0.41,0.49,-3.23,-3.05,416,258,388,461,318,27
893,0.86,-0.33,0.41,0.06,-2.99,-2.14,422,263,388,456,318,27
894,0.86,-0.34,0.42,1.83,-3.23,-2.5,417,260,389,457,328,27
895,0.86,-0.33,0.42,1.71,-3.23,-3.85,417,264,391,457,323,27
896,0.87,-0.32,0.43,2.01,-4.15,-2.99,415,264,387,459,323,27
897,0.86,-0.33,0.41,0.06,-2.62,-2.62,418,261,389,460,323,27
898,0.86,-0.34,0.41,0.67,-2.93,-2.14,414,256,389,459,320,27
899,0.87,-0.33,0.42,0.49,-2.62,-2.99,415,261,390,460,322,27
900,0.85,-0.34,0.41,0.67,-4.46,-1.71,417,260,389,456,324,27
901,0.86,-0.34,0.4,-0.31,-2.99,-3.6,409,260,390,456,320,27
902,0.86,-0.33,0.41,0.61,-2.62,-1.95,411,263,389,456,320,27
903,0.85,-0.34,0.42,1.28,-3.66,-2.32,416,261,390,457,322,27
904,0.86,-0.34,0.4,0.37,-2.87,-1.83,416,261,389,458,321,27
905,0.85,-0.34,0.42,0.0,-2.14,-1.1,413,263,385,459,323,27
906,0.85,-0.34,0.42,0.55,-2.87,-2.08,416,261,382,451,323,27
907,0.86,-0.34,0.42,-0.18,-0.92,-2.99,415,260,388,453,322,27
908,0.86,-0.35,0.42,-0.67,-1.95,-2.38,417,266,392,461,320,27
909,0.86,-0.34,0.42,0.73,-2.75,-1.83,414,257,387,458,322,27
910,0.85,-0.35,0.41,1.4,-3.17,-0.85,415,262,387,460,321,27
911,0.84,-0.35,0.42,0.92,-3.72,-3.3,415,263,389,460,320,27
912,0.86,-0.35,0.41,0.06,-3.91,-3.11,420,262,391,460,319,27
913,0.86,-0.35,0.41,0.43,-2.87,-1.83,416,260,390,456,316,27
914,0.85,-0.35,0.41,0.79,-2.69,-2.75,412,263,390,448,319,27
915,0.84,-0.36,0.41,-0.43,-2.87,-1.59,417,263,390,457,326,27
916,0.84,-0.35,0.42,1.04,-1.95,-2.99,416,262,384,461,320,27
917,0.85,-0.36,0.41,-0.98,-2.38,-3.05,416,265,390,456,323,27
918,0.87,-0.35,0.4,1.16,-6.35,-1.04,415,260,388,459,321,27
919,0.86,-0.35,0.4,1.1,-3.42,-2.81,417,265,392,455,320,27
920,0.87,-0.34,0.41,0.98,-3.72,-2.38,415,261,391,454,323,27
921,0.87,-0.34,0.4,0.18,-2.99,-3.23,414,264,390,456,325,27
922,0.86,-0.34,0.41,-0.06,-3.78,-2.56,412,261,388,455,318,27
923,0.87,-0.34,0.4,0.12,-2.62,-2.44,417,262,387,457,322,27
924,0.86,-0.34,0.4,0.37,-2.2,-3.17,418,260,388,455,321,27
925,0.85,-0.35,0.4,0.67,-3.17,-2.32,414,259,390,460,324,27
926,0.87,-0.33,0.41,1.28,-2.99,-2.44,414,259,392,453,321,27
927,0.85,-0.34,0.4,-1.28,-2.01,-2.08,414,261,392,455,319,27
928,0.87,-0.34,0.4,1.28,-5.07,-1.95,414,265,390,456,322,27
929,0.86,-0.34,0.39,0.61,-4.64,-3.48,414,270,391,460,324,27
930,0.87,-0.33,0.39,-0.06,-2.87,-2.26,410,265,388,457,320,27
931,0.87,-0.34,0.39,-0.43,-2.87,-3.91,417,265,393,453,321,27
932,0.89,-0.32,0.38,0.06,-2.01,-2.2,417,260,389,460,316,27
933,0.9,-0.32,0.39,-4.33,-2.93,-3.48,419,265,386,455,324,27
934,0.88,-0.31,0.39,-6.16,0.18,-9.34,414,262,392,456,321,27
935,0.91,-0.3,0.38,-6.47,-10.13,-2.5,413,263,387,459,320,27
936,0.91,-0.33,0.31,-12.39,4.03,-12.63,412,256,390,456,321,27
937,0.94,-0.3,0.36,0.92,-1.77,-4.15,415,277,391,451,314,27
938,0.86,-0.32,0.36,5.25,-2.75,-2.93,412,264,388,456,318,27
939,0.89,-0.31,0.36,8.36,-4.7,-6.53,414,258,390,458,324,27
940,0.9,-0.32,0.32,-1.46,-1.77,-4.46,414,259,386,459,321,27
941,0.89,-0.32,0.33,-3.36,-1.04,-0.85,418,264,385,452,321,27
942,0.89,-0.32,0.33,0.61,-2.38,-4.09,415,262,390,457,323,27
943,0.89,-0.32,0.33,1.59,-1.65,-0.79,415,264,389,456,322,27
944,0.9,-0.33,0.32,-0.18,-5.0,-1.22,413,261,390,457,324,27
945,0.9,-0.33,0.31,0.0,-2.32,-3.48,418,260,385,459,320,27
946,0.9,-0.34,0.31,0.85,-4.76,-2.08,415,265,388,460,319,27
947,0.89,-0.34,0.31,1.28,-1.4,-2.2,413,264,388,456,319,27
948,0.89,-0.33,0.31,0.49,-2.08,-2.93,419,263,387,458,323,27
949,0.9,-0.33,0.31,1.22,-2.93,-2.32,443,264,392,454,318,27
950,0.89,-0.34,0.32,0.49,-2.99,-2.2,417,265,388,457,321,27
951,0.87,-0.35,0.3,4.52,-4.46,-5.0,416,261,387,452,320,27
952,0.89,-0.34,0.31,0.73,-1.83,-4.21,415,261,388,456,325,27
953,0.89,-0.34,0.31,0.31,-2.56,-2.87,416,265,389,452,317,27
954,0.9,-0.34,0.31,0.18,-3.72,-1.16,417,256,391,459,315,27
955,0.88,-0.34,0.32,-1.46,-2.01,0.43,413,261,389,455,321,27
956,0.89,-0.36,0.31,-1.65,-2.69,-2.56,414,261,398,457,318,27
957,0.89,-0.36,0.31,-0.55,-2.5,-1.65,414,266,390,450,318,27
958,0.89,-0.35,0.31,0.67,-2.01,-2.26,412,263,387,451,322,27
959,0.89,-0.36,0.3,-0.24,-2.32,-2.81,414,265,390,458,322,27
960,0.89,-0.36,0.31,-0.85,-1.71,-3.17,413,259,390,453,318,27
961,0.89,-0.36,0.31,1.22,-2.5,-2.26,415,264,391,454,322,27
962,0.88,-0.35,0.32,1.28,-1.71,-3.91,415,261,384,456,323,27
963,0.89,-0.36,0.31,0.06,-3.23,-2.32,412,264,390,454,324,27
964,0.9,-0.36,0.31,-0.24,-3.11,-2.44,415,264,389,461,322,27
965,0.88,-0.36,0.32,1.16,-3.91,-2.75,414,261,388,458,324,27
966,0.88,-0.36,0.32,1.16,-2.08,-2.44,413,261,383,454,323,27
967,0.89,-0.35,0.33,0.61,-2.08,-3.54,416,265,385,458,319,27
968,0.89,-0.36,0.31,-0.43,-3.42,-2.32,415,262,388,456,323,27
969,0.88,-0.36,0.32,-0.24,-1.83,-2.5,411,260,389,454,322,27
970,0.88,-0.36,0.31,0.06,-4.15,-1.95,410,255,387,460,320,27
971,0.89,-0.36,0.31,0.18,-3.05,-2.2,415,264,388,453,321,27
972,0.89,-0.38,0.31,0.24,-3.6,-1.83,409,266,387,460,322,27
973,0.9,-0.37,0.3,0.06,-3.3,-2.14,411,263,389,460,322,27
974,0.89,-0.36,0.31,1.28,-3.23,-2.14,409,260,390,455,320,27
975,0.89,-0.36,0.31,0.98,-3.54,-2.2,414,259,389,455,321,27
976,0.89,-0.37,0.3,-0.55,-4.39,-3.23,414,260,394,456,323,27
977,0.89,-0.37,0.3,0.12,-2.62,-2.26,413,264,388,462,323,27
978,0.88,-0.36,0.31,-0.06,-2.44,-3.05,412,264,387,459,322,27
979,0.9,-0.37,0.3,-0.06,-2.08,-3.54,414,260,389,455,324,27
980,0.88,-0.37,0.31,0.92,-3.6,-2.14,415,261,390,455,323,27
981,0.89,-0.36,0.31,-0.37,-2.01,-3.48,411,264,388,454,323,27
982,0.88,-0.36,0.3,1.28,-3.48,-2.56,409,263,390,456,320,27
983,0.89,-0.36,0.3,0.73,-2.5,-2.5,416,262,389,455,323,27
984,0.88,-0.36,0.3,0.37,-3.72,-2.93,414,265,390,457,324,27
985,0.9,-0.36,0.3,-0.61,-2.14,-3.17,415,263,388,455,326,27
986,0.88,-0.37,0.3,0.37,-3.54,-2.14,420,261,388,467,322,27
987,0.9,-0.36,0.3,-0.43,-2.75,-1.83,417,263,387,459,316,27
988,0.89,-0.37,0.3,0.43,-2.93,-2.2,411,261,389,452,324,27
989,0.88,-0.37,0.31,1.22,-2.81,-1.65,412,263,390,452,323,27
990,0.89,-0.36,0.3,0.18,-2.69,-2.69,414,264,388,458,320,27
991,0.89,-0.37,0.3,0.49,-3.54,-2.38,414,263,388,456,319,27
992,0.89,-0.36,0.3,0.85,-3.91,-2.01,414,258,384,453,323,27
993,0.88,-0.37,0.3,0.37,-2.01,-3.11,412,258,389,461,318,27
994,0.88,-0.36,0.31,0.31,-1.71,-2.2,431,261,386,453,324,27
995,0.88,-0.37,0.3,0.24,-3.11,-2.93,413,264,386,459,318,27
996,0.89,-0.37,0.3,1.04,-3.54,-2.01,414,260,395,459,320,27
997,0.89,-0.36,0.31,0.31,-2.2,-2.93,406,261,387,454,322,27
998,0.88,-0.37,0.31,0.73,-3.11,-1.65,407,264,388,458,325,27
999,0.89,-0.37,0.31,0.12,-2.5,-2.44,413,261,385,460,324,27
1000,0.89,-0.36,0.31,0.24,-1.89,-2.99,417,264,390,462,319,27
1001,0.89,-0.37,0.31,0.24,-2.56,-2.99,415,263,385,454,322,27
1002,0.89,-0.36,0.31,0.92,-3.23,-3.54,416,263,388,462,322,27
1003,0.89,-0.36,0.3,1.04,-3.54,-1.83,414,263,390,453,324,27
1004,0.89,-0.37,0.3,0.49,-2.81,-2.62,416,264,389,449,325,27
1005,0.88,-0.36,0.3,-0.31,-4.58,-1.77,412,263,390,460,323,27
1006,0.89,-0.36,0.3,0.18,-2.56,-2.38,418,262,388,457,320,27
1007,0.88,-0.37,0.31,-0.61,-2.44,-3.36,417,265,395,454,322,27
1008,0.89,-0.37,0.3,0.37,-2.69,-3.11,414,262,385,457,322,27
1009,0.89,-0.37,0.31,1.1,-2.62,-2.08,414,261,387,460,322,27
1010,0.89,-0.37,0.31,0.67,-3.17,-2.75,413,263,386,451,322,27
1011,0.9,-0.37,0.3,0.67,-3.66,-1.95,427,258,390,457,325,27
1012,0.88,-0.37,0.3,15.5,-3.42,-1.71,413,263,387,456,321,27
1013,0.89,-0.36,0.31,0.98,-2.62,-2.87,410,267,386,456,325,27
1014,0.88,-0.37,0.3,1.28,-2.08,-2.44,420,264,386,454,320,27
1015,0.87,-0.37,0.32,-0.24,-2.69,-2.01,410,264,384,457,322,27
1016,0.87,-0.37,0.32,-0.98,-1.71,-2.26,413,259,386,458,321,27
1017,0.88,-0.37,0.31,0.0,-2.56,-3.11,413,260,389,453,320,27
1018,0.88,-0.37,0.31,0.31,-2.69,-2.01,410,261,391,461,322,27
1019,0.88,-0.38,0.31,0.06,-2.69,-3.42,414,256,402,452,323,27
1020,0.89,-0.38,0.31,-0.18,-2.75,-2.01,415,263,386,459,325,27
1021,0.89,-0.38,0.3,1.28,-2.75,-2.5,413,263,384,453,327,27
1022,0.88,-0.38,0.3,1.16,-3.36,-1.95,416,261,383,460,324,27
1023,0.89,-0.38,0.3,0.37,-3.17,-2.56,413,263,385,458,318,27
1024,0.88,-0.38,0.3,0.24,-3.97,-1.59,412,261,390,457,320,27
1025,0.88,-0.38,0.3,-0.49,-2.2,-3.23,413,263,388,460,322,27
1026,0.88,-0.38,0.3,-0.37,-2.32,-2.62,417,260,386,459,324,27
1027,0.89,-0.38,0.31,-0.49,-1.59,-2.87,413,261,387,456,323,27
1028,0.88,-0.39,0.31,1.16,-2.99,-2.01,414,266,389,458,321,27
1029,0.88,-0.38,0.31,0.43,-3.48,-2.44,413,264,387,450,322,27
1030,0.88,-0.38,0.32,1.53,-3.78,-3.17,414,260,382,453,323,27
1031,0.88,-0.38,0.31,0.92,-3.36,-2.32,412,266,402,455,320,27
1032,0.89,-0.38,0.3,-0.24,-3.85,-2.26,412,267,382,458,324,27
1033,0.88,-0.39,0.3,-0.49,-3.11,-1.71,409,260,389,458,325,27
1034,0.88,-0.39,0.3,0.61,-2.93,-3.54,414,266,388,451,320,27
1035,0.88,-0.38,0.3,0.79,-2.93,-2.14,421,260,387,453,320,27
1036,0.8,-0.56,-0.18,-5.68,5.31,-3.11,366,243,335,453,360,27
1037,0.83,-0.52,-0.19,5.31,-3.23,-4.64,402,223,432,435,354,27
1038,0.82,-0.54,-0.2,2.75,-4.58,-2.62,403,228,435,444,358,27
1039,0.83,-0.54,-0.22,-2.62,-2.62,-4.33,402,236,434,451,360,27
1040,0.81,-0.55,-0.19,-0.79,-2.75,-1.16,404,236,434,446,359,27
1041,0.84,-0.52,-0.19,-3.36,-3.97,4.21,405,253,434,442,360,27
1042,0.76,-0.61,-0.24,-6.84,-1.22,1.28,405,237,436,450,356,27
1043,0.78,-0.57,-0.22,-1.77,-2.75,-3.85,404,236,430,444,355,27
1044,0.78,-0.57,-0.23,-0.49,-1.59,-2.26,406,239,433,450,358,27
1045,0.78,-0.57,-0.25,3.17,-3.6,-7.75,408,240,432,451,359,27
1046,0.81,-0.55,-0.23,0.0,-3.17,-1.71,405,240,432,451,355,27
1047,0.8,-0.56,-0.22,0.37,-2.62,-2.08,406,240,432,446,358,27
1048,0.8,-0.56,-0.22,0.06,-3.42,-3.05,403,235,431,457,359,27
1049,0.79,-0.55,-0.23,1.4,-3.36,-2.2,405,241,432,455,357,27
1050,0.78,-0.56,-0.22,-1.77,-3.91,-2.14,406,239,431,450,357,27
1051,0.81,-0.58,-0.2,-0.24,-4.46,-0.98,402,243,429,451,356,27
1052,0.81,-0.54,-0.27,-2.32,-2.14,-4.46,405,237,425,452,357,27
1053,0.8,-0.55,-0.23,2.08,0.85,1.1,403,243,425,458,357,27
1054,0.81,-0.54,-0.21,3.42,-1.95,-3.11,401,240,429,453,354,27
1055,0.79,-0.56,-0.23,-2.01,-2.38,-0.79,403,243,428,449,357,27
1056,0.81,-0.55,-0.22,1.04,-2.44,-3.85,409,244,427,453,355,27
1057,0.82,-0.55,-0.21,1.83,-5.07,0.49,403,241,426,457,356,27
1058,0.77,-0.58,-0.24,0.43,-4.15,0.31,400,238,430,452,355,27
1059,0.78,-0.56,-0.23,-0.06,-2.93,-1.4,401,239,426,456,356,27
1060,0.79,-0.56,-0.22,4.76,-3.54,-3.72,402,242,425,451,357,27
1061,0.74,-0.62,-0.24,2.56,-5.19,-5.98,412,245,425,452,357,27
1062,0.81,-0.54,-0.23,2.38,-1.53,-3.05,401,241,427,450,362,27
1063,0.78,-0.57,-0.22,2.01,-3.6,-3.42,401,242,425,454,360,27
1064,0.81,-0.55,-0.23,-0.31,-4.21,-4.58,401,242,428,453,356,27
1065,0.8,-0.55,-0.23,0.37,-1.77,-2.32,401,238,427,453,357,27
1066,0.8,-0.56,-0.23,0.43,-2.62,-3.66,402,239,422,449,360,27
1067,0.8,-0.55,-0.23,1.04,-2.87,-1.95,401,245,427,454,358,27
1068,0.8,-0.55,-0.22,-0.43,-2.32,-2.14,390,247,419,456,362,27
1069,0.8,-0.56,-0.22,-0.49,-2.69,-2.38,401,241,424,455,353,27
1070,0.8,-0.55,-0.21,0.18,-2.26,-1.65,403,245,427,454,363,27
1071,0.8,-0.55,-0.21,-0.67,-2.81,-2.5,399,246,425,455,360,27
1072,0.8,-0.55,-0.22,-1.28,-2.62,-2.56,399,246,422,459,360,27
1073,0.8,-0.55,-0.23,1.22,-4.09,-3.23,398,244,424,456,360,27
1074,0.82,-0.54,-0.22,0.43,-2.81,-3.6,400,243,424,451,363,27
1075,0.82,-0.54,-0.23,0.79,-3.11,-2.75,400,246,432,454,360,27
1076,0.81,-0.54,-0.22,0.18,-2.62,-4.82,399,244,420,460,362,27
1077,0.81,-0.54,-0.23,0.73,-1.53,-1.77,400,244,420,456,361,27
1078,0.81,-0.54,-0.23,1.4,-2.99,-1.59,404,244,422,455,361,27
1079,0.79,-0.56,-0.23,-0.79,-2.75,-2.62,400,248,417,468,360,27
1080,0.8,-0.55,-0.22,-0.49,-2.26,-2.62,401,242,422,459,359,27
1081,0.8,-0.55,-0.21,0.73,-3.11,-2.87,402,246,419,455,361,27
1082,0.79,-0.57,-0.23,-1.28,-5.25,-2.44,397,245,419,450,360,27
1083,0.8,-0.54,-0.21,1.4,1.95,1.46,402,242,418,454,360,27
1084,0.8,-0.54,-0.18,2.2,-2.99,-1.16,400,247,419,460,350,27
1085,0.82,-0.52,-0.24,3.36,-3.42,-3.42,398,242,422,458,358,27
1086,0.78,-0.5,-0.21,0.49,-4.94,-3.11,398,246,417,457,361,27
1087,0.8,-0.55,-0.25,-0.43,-4.94,-5.43,394,248,417,460,362,27
1088,0.79,-0.55,-0.23,0.0,-4.7,-3.72,392,247,417,453,361,27
1089,0.8,-0.55,-0.24,3.05,-3.36,-2.01,389,243,419,460,362,27
1090,0.77,-0.57,-0.26,-2.08,-3.54,-0.06,390,245,418,459,359,27
1091,0.76,-0.59,-0.24,0.18,-1.59,-0.49,385,246,419,461,361,27
1092,0.78,-0.57,-0.24,1.22,-3.11,-2.32,391,248,415,457,360,27
1093,0.76,-0.58,-0.24,4.15,-2.81,-2.08,389,246,416,456,361,27
1094,0.79,-0.56,-0.26,-1.53,-5.68,-8.61,390,247,416,457,360,27
1095,0.79,-0.56,-0.25,3.42,-7.81,-8.06,389,246,416,461,362,27
1096,0.77,-0.58,-0.25,1.1,-3.78,-2.87,392,246,416,454,360,27
1097,0.77,-0.59,-0.24,-2.93,1.65,-0.31,391,244,417,457,360,27
1098,0.76,-0.59,-0.25,-0.73,-2.5,0.0,392,247,413,452,362,27
1099,0.75,-0.6,-0.23,-0.98,-2.44,-3.6,388,249,413,460,359,27
1100,0.76,-0.58,-0.23,-0.12,-1.59,-3.42,392,249,416,456,359,27
1101,0.76,-0.57,-0.2,-1.89,9.64,0.37,390,245,418,461,358,27
1102,0.81,-0.6,-0.07,-1.1,5.62,-7.26,396,248,418,453,354,27
1103,0.83,-0.55,-0.09,2.81,-6.41,-2.56,391,244,417,461,362,27
1104,0.83,-0.57,-0.08,6.23,-6.35,-0.06,381,248,418,457,361,27
1105,0.8,-0.59,-0.04,2.14,-4.46,-0.37,413,246,414,460,362,27
1106,0.78,-0.62,-0.06,-1.34,-3.3,-2.5,380,249,418,458,362,27
1107,0.81,-0.59,-0.07,0.0,-2.01,-3.72,382,246,415,458,361,27
1108,0.84,-0.59,-0.07,-0.67,-4.64,-5.07,378,246,414,457,363,27
1109,0.79,-0.6,-0.06,10.07,-20.02,-3.91,380,249,411,457,358,27
1110,0.85,-0.55,-0.09,2.56,-4.64,-5.31,380,248,412,452,357,27
1111,0.81,-0.59,-0.11,-0.18,-1.83,-5.31,376,251,416,457,362,27
1112,0.8,-0.59,-0.12,-0.73,-3.05,-3.42,373,250,412,462,363,27
1113,0.78,-0.6,-0.1,-2.01,0.37,-2.01,380,248,414,459,363,27
1114,0.81,-0.58,-0.06,-2.93,-1.16,2.44,377,250,408,456,362,27
1115,0.83,-0.57,-0.13,3.42,-5.86,-5.37,378,246,413,454,361,27
1116,0.81,-0.57,-0.1,5.0,-4.76,-8.97,375,250,411,454,363,27
1117,0.85,-0.56,-0.13,4.88,-4.39,-4.03,374,248,407,454,357,27
1118,0.8,-0.59,-0.08,4.94,-3.3,-0.67,376,247,411,459,362,27
1119,0.78,-0.6,-0.09,3.85,-5.19,-2.32,371,249,412,452,361,27
1120,0.79,-0.59,-0.07,-0.92,1.89,-2.26,376,246,409,458,361,27
1121,0.82,-0.57,-0.1,2.26,-2.62,-4.33,385,250,410,459,363,27
1122,0.82,-0.57,-0.09,1.46,-2.87,-4.03,389,248,411,456,361,27
1123,0.82,-0.57,-0.1,1.16,-2.81,-4.33,390,251,407,454,359,27
1124,0.82,-0.56,-0.08,1.16,-3.23,-3.91,392,247,410,453,365,27
1125,0.82,-0.58,-0.1,-1.95,-3.66,-1.53,392,246,408,459,357,27
1126,0.8,-0.59,-0.09,-1.34,-2.81,-1.22,392,248,407,457,360,27
1127,0.8,-0.58,-0.09,-0.61,-3.11,-3.23,389,250,409,450,362,27
1128,0.8,-0.58,-0.1,0.37,-2.99,-2.26,390,250,407,455,362,27
1129,0.8,-0.56,-0.08,-1.53,-3.3,-0.43,387,247,405,454,363,27
1130,0.81,-0.57,-0.07,-1.34,-0.98,-3.11,382,249,409,450,364,27
1131,0.82,-0.57,-0.08,1.28,-1.71,-2.81,386,249,406,454,362,27
1132,0.83,-0.56,-0.11,1.89,-3.78,-2.38,387,247,407,450,359,27
1133,0.82,-0.56,-0.09,0.67,-2.87,-2.38,389,249,408,457,358,27
1134,0.82,-0.57,-0.08,0.67,-3.42,-2.93,388,248,413,453,363,27
1135,0.83,-0.56,-0.08,0.43,-3.17,-3.85,390,249,402,449,355,27
1136,0.82,-0.56,-0.08,0.67,-3.05,-2.5,389,250,409,455,357,27
1137,0.82,-0.55,-0.08,2.01,-1.4,-2.44,390,251,406,455,357,27
1138,0.83,-0.56,-0.09,0.37,-2.38,-2.56,389,251,410,456,356,27
1139,0.82,-0.55,-0.07,0.0,-2.93,-1.22,390,252,409,454,357,27
1140,0.82,-0.57,-0.08,1.53,-2.26,-2.81,388,249,406,454,353,27
1141,0.8,-0.58,-0.08,-2.75,-3.36,-3.66,390,250,402,452,359,27
1142,0.82,-0.56,-0.07,-2.32,-2.14,-5.07,388,245,406,452,357,27
1143,0.83,-0.54,-0.07,-2.81,-2.56,-3.97,388,251,407,454,357,27
1144,0.84,-0.54,-0.11,1.4,-3.23,-2.81,388,250,406,459,357,27
1145,0.81,-0.56,-0.09,0.0,-3.3,-3.91,382,251,406,454,357,27
1146,0.87,-0.51,-0.1,0.79,-1.71,-2.56,383,247,407,459,355,27
1147,0.82,-0.55,-0.1,1.04,-5.62,-2.2,385,249,402,457,362,27
1148,0.87,-0.49,-0.1,0.18,-1.83,-5.86,395,248,406,455,358,27
1149,0.9,-0.46,-0.1,4.94,-2.56,-2.75,393,250,402,455,356,27
1150,0.9,-0.46,-0.13,0.18,-3.6,-0.79,395,252,409,458,358,27
1151,0.86,-0.52,-0.09,0.31,-2.99,0.31,396,249,407,457,360,27
1152,0.85,-0.52,-0.09,6.1,-1.22,-1.22,395,248,407,459,360,27
1153,0.86,-0.5,-0.1,3.78,-3.05,-3.91,393,252,404,456,358,27
1154,0.85,-0.52,-0.08,0.31,-3.78,-2.99,396,253,403,455,357,27
1155,0.85,-0.52,-0.09,1.04,-3.66,-2.44,388,260,404,458,353,27
1156,0.85,-0.51,-0.08,0.67,-3.3,-3.17,391,253,402,455,360,27
1157,0.86,-0.51,-0.08,-0.18,-3.23,-2.87,390,250,405,452,360,27
1158,0.86,-0.51,-0.09,1.77,-4.15,-3.36,381,253,406,450,360,27
1159,0.85,-0.51,-0.09,0.49,-3.72,-2.93,393,253,404,454,361,27
1160,0.86,-0.51,-0.1,0.18,-3.6,-3.97,393,264,405,454,357,27
1161,0.85,-0.51,-0.09,-0.24,-2.14,-2.26,393,251,405,454,361,27
1162,0.86,-0.52,-0.09,0.43,-3.05,-2.75,394,250,406,453,360,27
1163,0.86,-0.52,-0.08,0.67,-3.23,-2.81,390,251,403,455,359,27
1164,0.87,-0.51,-0.09,1.04,-3.05,-2.38,392,253,405,459,362,27
1165,0.85,-0.51,-0.08,0.92,-2.62,-2.32,394,249,403,459,359,27
1166,0.86,-0.51,-0.08,-0.49,-2.32,-2.2,393,253,401,459,360,27
1167,0.85,-0.52,-0.07,0.06,-3.48,-2.08,397,249,405,459,360,27
1168,0.85,-0.5,-0.08,1.22,-3.3,-2.99,392,253,404,466,361,27
1169,0.86,-0.51,-0.09,0.37,-2.81,-3.78,394,254,403,455,362,27
1170,0.86,-0.51,-0.09,-0.31,-2.2,-1.83,395,253,402,456,359,27
1171,0.85,-0.51,-0.09,1.16,-2.26,-2.56,395,250,405,454,360,27
1172,0.86,-0.5,-0.09,0.92,-2.75,-2.26,393,252,405,459,360,27
1173,0.86,-0.51,-0.08,0.43,-2.81,-2.62,392,253,404,455,364,27
1174,0.86,-0.51,-0.09,0.06,-3.11,-2.93,392,253,399,458,362,27
1175,0.85,-0.52,-0.07,0.79,-3.05,-2.32,390,253,404,455,358,27
1176,0.85,-0.51,-0.08,0.24,-3.48,-2.69,393,251,402,455,360,27
1177,0.86,-0.52,-0.08,0.73,-3.36,-2.87,394,254,405,452,367,27
1178,0.86,-0.5,-0.08,-0.43,-2.99,-2.44,395,252,404,453,359,27
1179,0.86,-0.5,-0.08,-0.06,-2.75,-2.5,396,248,402,471,361,27
1180,0.86,-0.5,-0.09,-0.49,-2.5,-2.01,394,255,401,454,361,27
1181,0.86,-0.51,-0.09,0.43,-2.08,-1.53,394,251,403,455,361,27
1182,0.87,-0.5,-0.09,0.49,-2.87,-2.44,395,253,402,455,360,27
1183,0.86,-0.51,-0.09,0.24,-2.62,-2.81,383,250,402,454,363,27
1184,0.86,-0.51,-0.08,0.18,-2.56,-2.93,392,253,401,463,361,27
1185,0.85,-0.5,-0.08,1.04,-2.62,-2.08,389,252,404,450,363,27
1186,0.86,-0.51,-0.07,1.04,-2.93,-3.72,394,249,401,456,361,27
1187,0.87,-0.51,-0.08,0.18,-2.99,-2.44,389,254,401,451,362,27
1188,0.85,-0.52,-0.08,0.06,-2.93,-2.62,393,254,400,449,363,27
1189,0.86,-0.51,-0.08,-0.24,-2.69,-2.81,392,252,401,456,362,27
1190,0.86,-0.5,-0.09,0.0,-2.99,-2.75,391,259,401,455,364,27
1191,0.86,-0.5,-0.09,-0.12,-2.93,-3.11,391,250,398,458,357,27
1192,0.86,-0.5,-0.09,0.06,-2.2,-2.26,391,259,404,454,360,27
1193,0.86,-0.5,-0.08,0.79,-3.05,-2.87,406,253,402,454,363,27
1194,0.86,-0.51,-0.07,0.24,-2.56,-2.5,392,254,398,449,362,27
1195,0.85,-0.51,-0.07,0.55,-2.93,-2.69,394,250,400,454,361,27
1196,0.86,-0.51,-0.08,0.85,-2.69,-2.38,391,249,400,455,360,27
1197,0.86,-0.51,-0.08,0.79,-2.99,-3.11,394,251,401,455,362,27
1198,0.86,-0.5,-0.07,-0.31,-1.83,-2.32,387,248,401,454,361,27
1199,0.87,-0.51,-0.08,-0.18,-2.99,-1.89,394,249,399,454,361,27
1200,0.86,-0.51,-0.08,0.37,-2.62,-2.38,393,251,399,450,363,27
1201,0.86,-0.51,-0.08,-0.24,-3.6,-2.81,394,254,396,450,361,27
1202,0.86,-0.5,-0.08,0.43,-3.66,-3.3,390,251,399,452,361,27
1203,0.86,-0.5,-0.08,-0.31,-2.08,-1.4,391,254,399,454,363,27
1204,0.86,-0.51,-0.09,1.46,-3.23,-2.2,391,252,400,457,361,27
1205,0.86,-0.5,-0.08,0.67,-2.08,-2.81,393,257,402,454,359,27
1206,0.86,-0.5,-0.08,0.73,-2.44,-2.14,392,255,402,450,359,27
1207,0.86,-0.51,-0.07,-0.31,-2.01,-1.71,394,252,399,455,362,27
1208,0.86,-0.51,-0.07,0.49,-3.85,-2.69,391,252,399,451,362,27
1209,0.86,-0.5,-0.08,0.31,-3.05,-3.23,391,256,399,449,362,27
1210,0.86,-0.5,-0.08,0.0,-2.99,-2.56,389,249,400,455,360,27
1211,0.86,-0.51,-0.08,0.49,-2.69,-2.44,393,249,400,458,363,27
1212,0.86,-0.51,-0.07,0.79,-2.87,-2.2,397,254,400,456,360,27
1213,0.86,-0.51,-0.07,0.55,-2.93,-2.56,392,251,399,454,361,27
1214,0.86,-0.51,-0.08,0.24,-2.5,-2.26,394,252,396,450,358,27
1215,0.85,-0.51,-0.07,-0.18,-2.93,-1.95,392,251,399,454,360,27
1216,0.86,-0.5,-0.07,0.67,-4.09,-3.48,387,255,399,454,359,27
1217,0.87,-0.5,-0.08,-0.06,-4.09,-4.03,395,254,398,454,361,27
1218,0.87,-0.5,-0.07,1.16,-0.61,3.3,392,256,399,459,361,27
1219,0.87,-0.49,-0.07,-0.61,-0.92,0.61,392,255,397,454,361,27
1220,0.86,-0.51,-0.07,2.5,-2.93,-0.79,389,250,401,458,364,27
1221,0.85,-0.52,-0.1,0.37,-4.15,-4.58,396,254,399,453,363,27
1222,0.86,-0.5,-0.1,3.36,-3.6,-5.25,385,253,397,453,360,27
1223,0.87,-0.5,-0.09,0.85,-2.26,-2.44,392,251,396,454,364,27
1224,0.86,-0.52,-0.07,0.79,-2.08,-2.5,396,254,401,453,357,27
1225,0.84,-0.52,-0.07,-0.92,-3.85,-3.17,393,255,398,449,362,27
1226,0.83,-0.53,-0.07,0.73,-2.93,-0.31,393,253,400,452,361,27
1227,0.85,-0.5,-0.07,-0.79,-1.28,-1.71,389,250,398,450,360,27
1228,0.86,-0.52,-0.07,-0.61,-1.22,-0.24,392,250,395,453,358,27
1229,0.86,-0.5,-0.07,-0.73,-2.44,-1.46,393,253,397,448,362,27
1230,0.86,-0.51,-0.07,0.43,-2.75,-2.32,391,252,397,454,362,27
1231,0.85,-0.51,-0.07,0.55,-3.17,-2.5,392,254,399,455,362,27
1232,0.87,-0.51,-0.08,-0.06,-2.99,-3.05,392,254,398,454,360,27
1233,0.87,-0.5,-0.07,0.31,-3.11,-2.99,394,252,401,451,358,27
1234,0.86,-0.5,-0.07,0.18,-2.81,-2.08,392,253,399,450,360,27
1235,0.86,-0.51,-0.07,0.79,-2.32,-2.56,388,251,400,453,359,27
1236,0.86,-0.5,-0.07,2.14,-2.81,-3.3,394,252,400,454,359,27
1237,0.86,-0.5,-0.07,0.92,-2.44,-2.75,393,252,398,454,357,27
1238,0.86,-0.5,-0.06,1.22,-3.23,-2.2,392,255,396,457,360,27
1239,0.86,-0.5,-0.07,0.49,-2.44,-2.62,392,253,395,452,360,27
1240,0.85,-0.5,-0.07,-0.43,-2.99,-2.5,384,254,397,451,358,27
1241,0.85,-0.5,-0.07,0.61,-4.09,-1.28,394,253,398,455,357,27
1242,0.87,-0.5,-0.07,-2.2,-2.99,-2.44,379,252,393,451,363,27
1243,0.86,-0.5,-0.08,0.24,-3.05,-2.2,392,252,395,460,363,27
1244,0.86,-0.5,-0.07,0.85,-2.87,-2.14,405,251,399,457,362,27
1245,0.86,-0.5,-0.07,-0.61,-2.32,-2.62,387,251,394,459,361,27
1246,0.88,-0.49,-0.09,1.34,0.67,-6.16,390,248,400,459,359,27
1247,0.87,-0.49,-0.06,1.77,-3.85,-1.46,388,251,401,456,362,27
1248,0.84,-0.51,-0.05,-0.12,-2.87,-2.56,389,256,397,452,359,27
1249,0.83,-0.53,-0.05,-0.79,-2.01,1.83,390,254,398,461,360,27
1250,0.88,-0.48,-0.06,1.22,-2.44,-5.98,390,253,398,456,363,27
1251,0.87,-0.49,-0.04,0.98,-2.56,-2.56,390,254,400,455,360,27
1252,0.86,-0.5,-0.04,0.12,-2.69,-1.28,390,254,396,459,361,27
1253,0.87,-0.5,-0.04,-0.12,-3.17,-1.71,390,252,399,457,361,27
1254,0.87,-0.49,-0.04,-1.89,-2.62,-0.92,387,255,400,454,361,27
1255,0.86,-0.5,-0.04,0.73,-3.97,-2.32,388,254,396,457,361,27
1256,0.87,-0.5,-0.05,0.79,-2.5,-2.14,388,251,397,456,362,27
1257,0.87,-0.51,-0.05,0.79,-2.56,-3.17,385,252,394,454,361,27
1258,0.86,-0.51,-0.05,1.71,-2.93,-2.44,388,254,394,456,358,27
1259,0.86,-0.52,-0.05,0.73,-2.87,-2.75,388,254,397,457,357,27
1260,0.86,-0.51,-0.05,2.01,-2.5,-2.14,389,252,399,460,365,27
1261,0.86,-0.51,-0.05,-0.06,-2.81,-2.01,390,253,400,463,361,27
1262,0.87,-0.5,-0.05,2.14,-3.17,-4.27,386,252,397,455,360,27
1263,0.86,-0.5,-0.04,1.34,-3.17,-3.05,391,248,397,454,364,27
1264,0.86,-0.51,-0.04,0.61,-2.75,-2.93,386,255,396,455,362,27
1265,0.86,-0.51,-0.03,0.79,-4.27,-2.81,387,249,398,452,362,27
1266,0.86,-0.5,-0.05,-0.12,-3.3,-2.01,401,251,398,454,365,27
1267,0.87,-0.5,-0.05,0.55,-4.15,-3.97,388,253,396,461,358,27
1268,0.86,-0.5,-0.05,1.65,-2.81,-2.38,388,253,393,456,364,27
1269,0.87,-0.51,-0.05,0.98,-2.93,-2.62,388,253,393,457,362,27
1270,0.85,-0.51,-0.05,0.73,-2.26,-2.99,391,254,397,452,361,27
1271,0.87,-0.5,-0.04,0.85,-2.08,-2.38,387,252,401,460,359,27
1272,0.86,-0.5,-0.04,-0.67,-1.77,-1.77,390,253,408,460,360,27
1273,0.86,-0.5,-0.04,0.67,-2.62,-2.08,389,252,394,461,361,27
1274,0.87,-0.5,-0.04,0.31,-2.32,-2.01,388,256,398,459,359,27
1275,0.86,-0.51,-0.04,-0.98,-3.17,-2.87,387,255,396,458,358,27
1276,0.87,-0.5,-0.05,0.49,-3.11,-2.2,384,256,393,457,359,27
1277,0.86,-0.51,-0.05,0.98,-2.99,-2.75,384,255,397,456,361,27
1278,0.86,-0.5,-0.05,0.0,-2.2,-2.44,391,252,393,460,368,27
1279,0.86,-0.51,-0.05,0.79,-2.56,-2.38,388,256,397,456,363,27
1280,0.86,-0.51,-0.04,0.43,-1.77,-2.14,386,251,395,456,361,27
1281,0.86,-0.51,-0.04,0.49,-2.75,-1.95,389,251,397,461,361,27
1282,0.86,-0.51,-0.04,0.73,-2.5,-2.01,390,254,399,453,362,27
1283,0.86,-0.51,-0.04,-0.18,-3.23,-2.75,392,257,394,466,361,27
1284,0.86,-0.51,-0.04,1.46,-3.72,-2.93,389,250,397,461,361,27
1285,0.86,-0.51,-0.05,0.31,-2.75,-2.87,390,256,396,461,359,27
1286,0.86,-0.51,-0.05,-0.06,-2.32,-2.08,391,253,393,456,362,27
1287,0.86,-0.51,-0.05,1.1,-2.56,-2.5,389,254,395,464,359,27
1288,0.86,-0.51,-0.04,0.24,-2.26,-2.75,378,253,393,459,357,27
1289,0.86,-0.51,-0.04,-0.12,-3.3,-2.75,391,251,401,460,359,27
1290,0.86,-0.51,-0.04,0.61,-2.93,-2.69,388,253,395,460,361,27
1291,0.86,-0.52,-0.04,-0.18,-2.38,-2.38,389,254,395,457,364,27
1292,0.86,-0.51,-0.05,0.49,-3.42,-2.87,388,255,393,454,363,27
1293,0.86,-0.51,-0.04,0.0,-3.11,-2.44,402,257,396,456,359,27
1294,0.86,-0.51,-0.05,0.61,-3.17,-3.23,385,253,394,456,361,27
1295,0.86,-0.51,-0.05,0.37,-2.75,-2.87,389,256,396,458,361,27
1296,0.86,-0.51,-0.05,0.31,-2.01,-2.14,386,255,398,456,361,27
1297,0.86,-0.52,-0.04,0.49,-2.26,-2.14,391,255,395,458,361,27
1298,0.86,-0.5,-0.05,-0.12,-2.01,-2.75,390,256,396,460,363,27
1299,0.86,-0.51,-0.04,0.73,-2.99,-2.38,390,254,395,461,363,27
1300,0.86,-0.52,-0.04,1.22,-3.11,-3.78,387,250,396,459,363,27
1301,0.86,-0.5,-0.04,-0.31,-3.11,-2.2,387,252,397,456,360,27
1302,0.86,-0.5,-0.05,0.31,-2.99,-2.99,390,253,391,456,361,27
1303,0.86,-0.51,-0.05,-0.55,-2.87,-2.75,388,251,395,451,362,27
1304,0.87,-0.5,-0.06,-0.18,-1.95,-1.59,417,253,393,461,361,27
1305,0.86,-0.51,-0.04,0.43,-1.95,-2.38,388,254,397,457,362,27
1306,0.87,-0.5,-0.04,0.92,-2.75,-2.69,388,253,395,456,360,27
1307,0.87,-0.5,-0.04,0.85,-2.87,-3.05,389,253,396,457,360,27
1308,0.86,-0.51,-0.04,0.67,-3.6,-2.69,391,256,396,453,363,27
1309,0.86,-0.5,-0.04,0.24,-3.42,-2.87,388,250,394,455,361,27
1310,0.87,-0.49,-0.06,-0.24,-3.05,-2.44,388,252,395,456,361,27
1311,0.86,-0.5,-0.05,0.92,-2.38,-1.46,385,254,398,460,361,27
1312,0.86,-0.5,-0.05,-0.24,-1.53,-2.08,389,254,397,457,361,27
1313,0.87,-0.5,-0.04,0.18,-2.62,-2.62,389,255,398,460,361,27
1314,0.87,-0.5,-0.04,0.61,-2.5,-2.56,391,256,392,456,358,27
1315,0.86,-0.51,-0.04,0.37,-2.26,-2.26,388,253,402,458,361,27
1316,0.87,-0.5,-0.05,-0.55,-2.93,-2.99,389,256,394,453,361,27
1317,0.87,-0.5,-0.04,0.31,-3.66,-2.75,387,254,392,456,362,27
1318,0.87,-0.5,-0.06,0.55,-2.69,-1.89,387,257,394,452,361,27
1319,0.87,-0.49,-0.05,1.28,-2.44,-1.4,389,254,395,452,364,27
1320,0.87,-0.5,-0.04,1.1,-2.93,-2.69,391,255,396,456,360,27
1321,0.86,-0.5,-0.04,0.49,-2.32,-2.01,392,255,398,454,363,27
1322,0.87,-0.5,-0.05,-0.61,-1.83,-1.4,387,256,399,459,360,27
1323,0.86,-0.51,-0.04,0.37,-2.99,-2.08,388,252,395,456,361,27
1324,0.87,-0.5,-0.04,-0.73,-2.93,-2.87,390,254,396,460,363,27
1325,0.87,-0.5,-0.04,0.06,-3.85,-2.75,382,266,394,457,361,27
1326,0.87,-0.49,-0.05,0.61,-2.93,-2.2,388,254,397,456,359,27
1327,0.87,-0.5,-0.04,0.85,-2.2,-2.69,382,254,391,460,361,27
1328,0.86,-0.5,-0.06,1.22,-2.81,-2.75,381,255,394,461,362,27
1329,0.87,-0.5,-0.05,-0.06,-2.44,-2.44,384,258,397,455,364,27
1330,0.86,-0.5,-0.04,0.0,-2.38,-2.01,388,254,396,457,360,27
1331,0.87,-0.5,-0.04,0.92,-3.66,-2.69,386,252,394,455,358,27
1332,0.87,-0.49,-0.05,-0.06,-3.36,-2.69,415,257,394,457,362,27
1333,0.87,-0.5,-0.05,0.12,-3.05,-2.75,413,255,394,457,360,27
1334,0.87,-0.49,-0.05,0.37,-2.32,-2.08,393,255,396,459,363,27
1335,0.87,-0.49,-0.05,0.98,-2.56,-2.75,388,257,396,458,358,27
1336,0.87,-0.49,-0.05,1.34,-2.75,-2.69,385,256,396,463,363,27
1337,0.87,-0.5,-0.04,-0.06,-2.87,-2.38,385,255,393,459,360,27
1338,0.87,-0.49,-0.04,0.55,-2.93,-2.56,393,253,394,459,359,27
1339,0.88,-0.5,-0.05,0.92,-3.66,-3.54,389,254,397,461,361,27
1340,0.88,-0.49,-0.05,0.06,-3.97,-2.81,389,252,394,457,360,27
1341,0.87,-0.5,-0.06,0.12,-3.17,-2.69,390,253,393,460,360,27
1342,0.87,-0.49,-0.05,0.31,-2.44,-1.83,388,255,387,455,361,27
1343,0.87,-0.5,-0.04,0.0,-2.81,-2.44,386,254,394,453,357,27
1344,0.87,-0.49,-0.04,0.18,-2.56,-2.56,387,257,397,457,359,27
1345,0.87,-0.5,-0.04,0.98,-2.99,-2.69,384,251,390,459,361,27
1346,0.87,-0.49,-0.04,0.67,-2.93,-2.99,387,253,395,456,358,27
1347,0.87,-0.48,-0.05,0.06,-3.17,-2.5,384,257,395,451,362,27
1348,0.87,-0.5,-0.05,0.24,-3.05,-2.81,387,253,390,453,362,27
1349,0.87,-0.49,-0.05,-0.24,-2.62,-2.14,386,254,396,456,363,27
1350,0.85,-0.5,-0.04,0.73,-2.99,-2.2,386,256,396,452,360,27
1351,0.87,-0.49,-0.04,-0.43,-2.2,-2.32,388,256,391,459,361,27
1352,0.87,-0.48,-0.04,-0.06,-2.62,-2.26,385,253,390,460,361,27
1353,0.87,-0.5,-0.04,0.49,-2.93,-2.69,375,253,394,457,360,27
1354,0.86,-0.49,-0.05,0.18,-3.36,-2.99,388,260,392,458,361,27
1355,0.88,-0.49,-0.05,0.49,-3.85,-3.36,403,254,394,457,362,27
1356,0.88,-0.5,-0.06,0.85,-2.87,-2.81,389,252,389,455,360,27
1357,0.87,-0.49,-0.05,-0.12,-2.44,-2.5,387,256,389,455,361,27
1358,0.87,-0.5,-0.05,0.85,-2.44,-2.75,387,255,397,461,359,27
1359,0.87,-0.5,-0.04,0.18,-2.5,-2.44,383,258,395,458,362,27
1360,0.87,-0.49,-0.05,-0.24,-2.2,-2.01,388,255,394,462,363,27
1361,0.86,-0.49,-0.04,0.92,-3.23,-2.26,384,255,393,457,361,27
1362,0.87,-0.49,-0.05,0.79,-3.91,-2.56,386,252,394,457,362,27
1363,0.87,-0.49,-0.05,-0.43,-2.93,-2.62,384,257,394,460,362,27
1364,0.87,-0.49,-0.05,0.18,-2.26,-1.95,383,250,392,461,360,27
1365,0.87,-0.49,-0.05,0.18,-2.44,-1.89,383,253,393,452,361,27
1366,0.87,-0.49,-0.05,0.0,-1.83,-2.32,387,255,395,457,358,27
1367,0.87,-0.49,-0.04,0.24,-2.87,-2.69,389,255,391,456,366,27
1368,0.86,-0.5,-0.04,0.24,-2.69,-2.38,386,257,393,452,363,27
1369,0.87,-0.5,-0.04,0.0,-3.42,-3.3,383,254,391,461,361,27
1370,0.88,-0.5,-0.04,0.06,-3.91,-3.91,383,253,392,460,364,27
1371,0.88,-0.49,-0.05,0.12,-3.66,-4.03,387,258,392,460,360,27
1372,0.88,-0.5,-0.05,1.04,-2.62,-2.2,388,254,395,459,363,27
1373,0.87,-0.49,-0.04,1.46,-2.75,-3.3,388,257,398,452,359,27
1374,0.87,-0.49,-0.05,0.61,-2.08,-2.14,389,258,394,459,361,27
1375,0.88,-0.5,-0.04,0.85,-2.87,-3.48,389,254,394,460,359,27
1376,0.87,-0.51,-0.04,0.31,-3.23,-3.17,392,257,394,460,361,27
1377,0.87,-0.49,-0.05,0.55,-3.3,-3.11,388,258,394,456,361,27
1378,0.87,-0.5,-0.05,-0.55,-2.87,-2.62,389,258,392,456,361,27
1379,0.87,-0.49,-0.05,-0.49,-2.44,-1.83,387,256,391,452,361,27
1380,0.87,-0.49,-0.06,0.37,-2.38,-2.38,387,255,391,460,360,27
1381,0.86,-0.49,-0.04,-0.06,-1.83,-1.83,387,252,392,455,359,27
1382,0.87,-0.5,-0.05,0.24,-2.08,-1.65,390,255,394,459,360,27
1383,0.86,-0.49,-0.04,0.92,-2.62,-1.22,388,257,393,460,357,27
1384,0.86,-0.48,-0.05,0.37,-2.93,-1.65,389,258,389,459,363,27
1385,0.87,-0.5,-0.05,-0.24,-3.17,-3.3,389,259,390,456,371,27
1386,0.86,-0.48,-0.04,-0.24,-4.03,-2.99,388,257,388,464,361,27
1387,0.87,-0.48,-0.05,1.1,-2.14,-2.87,387,255,391,469,359,27
1388,0.89,-0.49,-0.04,4.76,-4.09,-3.72,387,256,392,455,355,27
1389,0.88,-0.47,-0.03,1.1,-3.3,-4.03,385,258,391,455,363,27
1390,0.87,-0.5,-0.06,1.04,-4.15,-6.84,387,252,391,449,360,27
1391,0.88,-0.48,-0.06,2.01,-3.23,-2.81,391,258,390,450,364,27
1392,0.88,-0.49,-0.05,1.46,-3.91,-3.36,389,255,391,451,363,27
1393,0.88,-0.48,-0.06,-0.61,-2.93,-2.5,389,256,394,459,363,27
1394,0.88,-0.48,-0.06,0.85,-3.36,-3.11,387,255,390,455,361,27
1395,0.88,-0.47,-0.06,-0.31,-2.44,-2.69,383,257,391,454,354,27
1396,0.87,-0.48,-0.06,0.37,-2.81,-2.5,386,255,394,456,361,27
1397,0.87,-0.48,-0.06,-2.5,-1.77,-1.04,390,262,391,452,360,27
1398,0.89,-0.47,-0.06,-2.69,-1.83,-1.65,385,255,391,456,364,27
1399,0.87,-0.48,-0.06,-0.43,-2.99,-2.69,384,256,391,459,358,27
1400,0.87,-0.48,-0.07,0.12,-3.36,-3.23,385,259,388,456,361,27
1401,0.87,-0.48,-0.06,0.12,-3.11,-2.44,399,255,388,459,355,27
1402,0.88,-0.48,-0.06,-2.38,-1.95,-2.44,387,252,391,455,352,27
1403,0.88,-0.47,-0.07,1.1,-3.05,-2.75,394,255,394,457,351,27
1404,0.86,-0.49,-0.06,0.31,-3.23,-3.78,387,254,391,456,351,27
1405,0.87,-0.46,-0.07,2.81,-7.14,-8.48,388,253,394,471,352,27
1406,0.88,-0.45,-0.05,-2.14,-2.32,-1.89,387,257,391,456,351,27
1407,0.89,-0.45,-0.08,-1.04,-3.3,-0.98,387,256,394,455,348,27
1408,0.9,-0.44,-0.08,2.32,0.55,3.85,389,254,388,456,354,27
1409,0.87,-0.48,-0.03,-0.31,-0.73,-0.31,388,255,390,450,354,27
1410,0.89,-0.47,-0.05,1.16,-1.83,-2.32,384,257,394,457,350,27
1411,0.89,-0.46,-0.04,0.85,-2.62,-3.17,387,253,392,451,354,27
1412,0.88,-0.47,-0.04,-1.16,-3.72,-1.71,388,257,395,456,350,27
1413,0.89,-0.46,-0.06,0.24,-4.64,-3.66,390,257,387,455,339,27
1414,0.86,-0.48,-0.04,1.16,-1.95,-0.49,383,253,393,459,348,27
1415,0.89,-0.47,-0.06,0.12,-2.69,-2.56,383,258,387,455,353,27
1416,0.88,-0.47,-0.05,0.18,-2.75,-2.2,387,259,393,451,350,27
1417,0.87,-0.48,-0.06,-1.22,-2.38,-2.01,391,253,391,459,351,27
1418,0.89,-0.47,-0.04,1.4,-3.66,-2.99,384,257,391,452,352,27
1419,0.88,-0.47,-0.06,-1.16,-2.44,-2.08,385,257,387,450,354,27
1420,0.88,-0.47,-0.05,1.28,-2.5,-1.53,385,256,388,458,348,27
1421,0.89,-0.47,-0.05,-0.12,-3.3,-2.14,394,256,391,459,351,27
1422,0.88,-0.47,-0.05,0.49,-3.72,-3.05,386,253,390,451,353,27
1423,0.88,-0.47,-0.04,0.18,-2.87,-2.75,385,257,390,460,351,27
1424,0.89,-0.46,-0.06,0.43,-2.62,-2.81,385,256,390,456,355,27
1425,0.88,-0.47,-0.05,-0.31,-2.5,-2.44,384,254,391,455,355,27
1426,0.88,-0.47,-0.06,0.79,-2.93,-3.3,384,255,392,460,354,27
1427,0.88,-0.47,-0.05,0.37,-2.62,-2.62,385,257,393,456,346,27
1428,0.88,-0.47,-0.05,0.31,-2.38,-2.32,385,257,391,455,355,27
1429,0.86,-0.49,-0.07,-2.08,-2.87,-2.69,382,256,387,458,353,27
1430,0.89,-0.47,-0.08,-3.05,-2.81,-1.22,385,255,392,459,350,27
1431,0.87,-0.49,-0.05,1.04,-2.87,-3.3,387,256,389,454,354,27
1432,0.88,-0.47,-0.04,-0.31,-4.09,-3.17,385,258,392,458,351,27
1433,0.88,-0.48,-0.05,-0.73,-3.66,-2.87,379,254,389,460,352,27
1434,0.89,-0.46,-0.05,0.37,-2.62,-3.3,383,256,392,452,355,27
1435,0.89,-0.46,-0.05,-0.24,-1.77,-1.59,386,254,390,455,355,27
1436,0.89,-0.46,-0.04,0.98,-2.81,-2.5,383,257,387,455,354,27
1437,0.89,-0.46,-0.04,0.37,-2.62,-2.26,383,256,393,454,353,27
1438,0.89,-0.46,-0.04,1.46,-3.54,-3.23,383,256,387,458,354,27
1439,0.89,-0.46,-0.04,1.1,-4.03,-3.11,383,256,390,458,354,27
1440,0.89,-0.46,-0.05,0.55,-2.56,-2.62,384,256,389,456,353,27
1441,0.88,-0.47,-0.05,2.26,-2.81,-2.99,384,264,392,458,351,27
1442,0.89,-0.46,-0.04,-0.24,-2.56,-2.26,384,256,390,456,356,27
1443,0.87,-0.48,-0.06,-1.59,-3.05,-1.53,381,255,392,466,356,27
1444,0.87,-0.48,-0.06,0.18,-2.69,-2.5,386,257,391,455,359,27
1445,0.87,-0.49,-0.05,1.16,-2.93,-4.33,387,259,392,455,353,27
1446,0.88,-0.46,-0.04,0.92,-2.81,-3.42,385,257,390,456,354,27
1447,0.89,-0.45,-0.04,0.61,-3.6,-2.93,383,256,391,456,350,27
1448,0.9,-0.46,-0.05,0.85,-3.78,-2.87,383,259,390,454,353,27
1449,0.89,-0.45,-0.05,0.31,-2.38,-1.22,384,258,391,460,353,27
1450,0.86,-0.48,-0.05,-0.67,-3.54,-3.97,382,257,389,459,353,27
1451,0.89,-0.45,-0.05,0.43,-1.46,-0.43,380,256,393,456,356,27
1452,0.89,-0.44,-0.06,0.0,-1.83,-3.54,379,257,390,458,354,27
1453,0.92,-0.43,-0.05,2.01,-2.87,-2.44,381,256,387,456,355,27
1454,0.91,-0.44,-0.03,0.31,-2.32,-0.73,382,259,392,458,355,27
1455,0.89,-0.45,-0.05,-1.04,-3.05,-1.83,382,259,392,455,350,27
1456,0.89,-0.45,-0.05,0.61,-3.3,-2.62,382,257,387,455,354,27
1457,0.89,-0.45,-0.04,0.49,-2.32,-2.26,382,259,393,456,350,27
1458,0.89,-0.46,-0.05,0.79,-2.69,-2.81,384,256,385,458,354,27
1459,0.89,-0.46,-0.03,0.85,-2.01,-1.1,380,254,390,456,355,27
1460,0.9,-0.46,-0.05,0.31,-2.14,-1.83,382,259,391,455,354,27
1461,0.9,-0.45,-0.05,0.18,-4.03,-2.32,384,258,393,454,350,27
1462,0.89,-0.46,-0.04,-2.2,-4.58,-3.05,382,260,391,458,355,27
1463,0.87,-0.48,-0.06,-0.73,-4.94,-4.33,380,257,393,454,352,27
1464,0.89,-0.46,-0.06,1.4,-2.26,-2.32,380,254,389,459,353,27
1465,0.88,-0.47,-0.05,-0.31,-2.5,-2.75,395,257,387,459,355,27
1466,0.89,-0.46,-0.05,0.18,-2.81,-2.5,384,258,390,449,354,27
1467,0.88,-0.46,-0.05,1.28,-2.81,-2.69,381,260,392,456,352,27
1468,0.88,-0.47,-0.03,-0.73,-2.44,-1.95,376,257,392,458,355,27
1469,0.87,-0.47,-0.05,-0.49,-3.23,-0.79,379,258,392,454,348,27
1470,0.89,-0.46,-0.04,0.85,-3.11,-2.56,382,259,385,453,355,27
1471,0.88,-0.46,-0.04,-0.98,-2.81,-1.77,382,258,392,455,355,27
1472,0.89,-0.47,-0.04,0.85,-3.05,-2.01,383,257,388,450,355,27
1473,0.89,-0.46,-0.04,0.06,-3.05,-1.83,383,256,391,455,355,27
1474,0.88,-0.47,-0.04,0.61,-2.87,-2.62,383,258,392,450,354,27
1475,0.89,-0.47,-0.03,0.18,-3.05,-3.05,378,257,388,458,355,27
1476,0.86,-0.47,-0.03,-1.71,-3.11,-2.69,384,259,389,452,356,27
1477,0.89,-0.47,-0.05,-0.61,-2.81,-3.97,381,257,390,454,358,27
1478,0.9,-0.43,-0.07,0.43,-5.49,-4.21,378,258,390,456,353,27
1479,0.91,-0.43,-0.06,2.01,-3.72,-3.42,381,259,389,455,357,27
1480,0.89,-0.45,-0.07,-1.83,-0.24,-0.31,381,256,389,454,356,27
1481,0.91,-0.43,-0.04,1.28,-1.04,2.69,382,257,389,455,353,27
1482,0.9,-0.45,-0.07,1.1,-3.17,-4.09,382,258,388,455,357,27
1483,0.89,-0.46,-0.03,2.32,-3.91,-6.04,382,262,392,459,357,27
1484,0.93,-0.41,-0.07,2.81,-3.42,-5.13,380,258,393,454,354,27
1485,0.88,-0.46,-0.05,0.85,-3.11,-2.81,381,270,391,459,353,27
1486,0.9,-0.44,-0.04,0.85,-2.87,-2.81,382,256,388,455,354,27
1487,0.92,-0.43,-0.07,-0.31,-4.21,-5.13,382,258,389,453,356,27
1488,0.93,-0.41,-0.07,1.1,-4.7,-4.46,383,259,389,454,354,27
1489,0.91,-0.43,-0.05,0.73,-0.49,-0.61,384,256,387,458,351,27
1490,0.88,-0.44,-0.03,5.62,-7.02,-2.5,384,261,385,458,352,27
1491,0.98,-0.39,-0.1,-6.23,7.39,7.57,381,256,389,456,352,27
1492,0.89,-0.44,-0.13,-1.71,-8.0,-0.37,384,257,388,452,345,27
1493,0.88,-0.45,-0.08,-5.0,-6.1,-2.2,382,260,391,454,351,27
1494,0.87,-0.44,-0.08,-2.32,-2.75,-4.76,379,257,389,456,352,27
1495,0.92,-0.42,-0.09,1.65,-2.44,-8.3,379,257,389,454,355,27
1496,0.93,-0.38,-0.09,5.0,-4.03,-3.11,384,258,389,454,356,27
1497,0.91,-0.4,-0.04,6.65,-0.73,-1.53,381,260,390,458,355,27
1498,0.9,-0.4,-0.09,0.37,-4.39,-5.74,382,256,390,454,352,27
1499,0.9,-0.41,-0.05,-0.24,-2.81,-3.97,381,257,388,455,355,27
1500,0.9,-0.41,-0.06,-1.46,-1.4,-1.59,381,255,386,454,355,27
1501,0.92,-0.39,-0.07,0.06,-2.38,-2.56,379,256,387,453,356,27
1502,0.92,-0.39,-0.06,1.89,-2.87,-2.32,381,259,387,453,355,27
1503,0.92,-0.4,-0.07,0.79,-4.39,-3.23,383,256,388,454,355,27
1504,0.91,-0.39,-0.06,1.1,-2.44,-2.26,380,257,391,448,357,27
1505,0.92,-0.39,-0.07,0.79,-2.81,-3.3,381,257,386,457,356,27
1506,0.92,-0.39,-0.06,1.4,-2.87,-1.59,381,257,383,455,354,27
1507,0.92,-0.39,-0.07,0.85,-2.44,-2.14,384,259,387,454,355,27
1508,0.96,-0.35,-0.08,10.93,-14.1,-16.11,394,260,387,453,356,27
1509,0.87,-0.38,-0.1,-3.42,0.18,-4.7,381,254,385,452,354,27
1510,0.93,-0.38,-0.08,1.28,-1.95,-2.69,383,259,387,456,358,27
1511,0.91,-0.38,-0.07,1.16,-1.28,-0.73,380,260,387,451,354,27
1512,0.92,-0.36,-0.08,0.31,-2.75,-2.56,382,257,384,455,356,27
1513,0.93,-0.37,-0.08,0.49,-2.99,-1.95,381,257,389,451,357,27
1514,0.93,-0.37,-0.08,-0.06,-3.05,-2.5,376,255,387,450,355,27
1515,0.92,-0.37,-0.08,0.37,-3.36,-2.62,382,259,386,455,355,27
1516,0.93,-0.36,-0.09,1.1,-3.05,-3.11,381,258,402,453,351,27
1517,0.93,-0.36,-0.07,-0.06,-2.69,-2.44,385,258,389,453,354,27
1518,0.93,-0.36,-0.08,-0.61,-2.87,-2.32,383,254,389,455,354,27
1519,0.93,-0.36,-0.07,1.46,-3.11,-2.93,378,259,387,452,357,27
1520,0.93,-0.36,-0.08,0.85,-3.42,-2.93,381,261,387,455,352,27
1521,0.92,-0.37,-0.07,0.18,-2.26,-2.01,384,257,387,453,353,27
1522,0.94,-0.35,-0.07,1.71,-3.23,-2.26,375,257,390,455,354,27
1523,0.92,-0.36,-0.07,0.18,-3.6,-4.82,378,256,386,453,356,27
1524,0.98,-0.32,-0.08,-3.6,0.61,-1.83,384,260,389,452,352,27
1525,0.93,-0.37,-0.07,-0.73,-2.62,-2.56,379,257,387,449,355,27
1526,0.94,-0.37,-0.08,2.14,-2.44,-7.93,380,260,387,451,352,27
1527,0.94,-0.35,-0.07,0.79,-4.7,-7.2,379,258,384,455,354,27
1528,0.95,-0.33,-0.14,11.66,-22.77,-6.41,380,258,388,448,352,27
1529,0.95,-0.33,-0.12,1.71,-3.3,-2.62,385,254,389,453,355,27
1530,0.93,-0.31,-0.11,1.22,-2.5,-1.65,383,256,386,453,352,27
1531,0.94,-0.32,-0.11,1.4,-2.38,-3.05,385,257,384,458,354,27
1532,0.96,-0.34,-0.1,-1.16,-1.83,-3.05,384,256,386,454,352,27
1533,0.96,-0.34,-0.11,-1.4,-2.38,-2.2,383,259,388,456,355,27
1534,0.95,-0.33,-0.1,-3.17,-1.77,-0.49,383,252,390,449,357,27
1535,0.95,-0.39,-0.09,-7.81,-0.92,2.08,384,260,388,453,355,27
1536,0.9,-0.38,-0.11,0.92,-2.5,1.22,385,257,401,457,356,27
1537,0.91,-0.4,-0.11,2.26,-3.05,-4.64,385,257,386,454,352,27
1538,0.92,-0.38,-0.12,-0.55,-3.78,-1.71,385,260,387,458,354,27
1539,0.92,-0.39,-0.1,-0.18,-2.5,-2.81,375,260,388,455,355,27
1540,0.91,-0.4,-0.1,0.06,-2.93,-2.75,382,255,391,454,356,27
1541,0.92,-0.39,-0.1,0.06,-2.87,-1.71,384,258,389,454,356,27
1542,0.92,-0.39,-0.1,0.67,-2.14,-2.93,384,260,392,454,356,27
1543,0.92,-0.4,-0.09,0.73,-1.71,-2.69,384,258,388,455,355,27
1544,0.85,-0.44,0.07,2.56,-2.87,6.29,448,263,441,462,337,27
1545,0.73,-0.51,0.28,-36.38,76.23,11.17,449,263,436,461,335,27
1546,0.84,-0.52,0.26,-2.01,-1.34,-3.85,448,265,441,462,339,27
1547,0.83,-0.5,0.24,5.68,-1.71,-3.05,441,261,440,456,336,27
1548,0.78,-0.53,0.28,-4.39,3.66,-8.67,447,263,439,457,334,27
1549,0.85,-0.51,0.21,2.08,-3.54,-0.49,446,262,438,458,339,27
1550,0.82,-0.52,0.23,6.71,-5.92,2.2,442,264,437,458,338,27
1551,0.83,-0.51,0.25,0.61,-1.46,-2.26,443,264,442,458,338,27
1552,0.83,-0.51,0.24,2.56,-5.07,-2.2,442,264,436,452,337,27
1553,0.83,-0.51,0.23,2.62,-4.15,-1.04,444,265,442,455,335,27
1554,0.84,-0.5,0.23,-1.16,-0.79,-4.82,441,268,440,460,341,27
1555,0.84,-0.5,0.25,-7.02,6.71,-3.6,442,267,437,454,339,27
1556,0.84,-0.48,0.22,-0.67,-2.44,-4.52,438,271,438,460,338,27
1557,0.86,-0.48,0.2,1.95,-2.81,-2.99,440,270,437,466,336,27
1558,0.84,-0.5,0.26,2.56,-2.14,-2.99,437,269,439,463,341,27
1559,0.86,-0.47,0.24,0.37,-2.08,-3.17,453,269,439,458,332,27
1560,0.84,-0.49,0.23,16.42,-6.96,0.24,437,269,440,465,341,27
1561,0.85,-0.48,0.25,-1.77,-1.46,-3.91,437,270,441,466,340,27
1562,0.89,-0.46,0.19,3.42,-6.65,-2.01,437,277,440,461,340,27
1563,0.86,-0.47,0.23,2.87,-2.75,-2.26,439,269,437,478,340,27
1564,0.88,-0.46,0.21,4.15,-5.49,-2.38,439,270,437,463,336,27
1565,0.84,-0.47,0.26,-3.66,0.12,-4.94,436,270,440,464,344,27
1566,0.84,-0.47,0.25,6.9,-1.04,-1.89,436,269,439,465,341,27
1567,0.91,-0.43,0.21,-8.42,-21.12,3.36,437,278,439,459,340,27
1568,0.83,-0.52,0.23,36.38,11.78,7.51,433,282,440,464,341,27
1569,0.79,-0.49,0.33,-6.04,-0.37,-1.95,430,282,435,468,340,27
1570,0.72,-0.45,0.57,-6.35,-10.62,1.71,430,280,441,460,341,27
1571,0.7,-0.43,0.61,10.56,-13.79,7.14,433,276,437,462,343,27
1572,0.73,-0.43,0.55,1.34,-5.49,-1.89,433,274,438,466,343,27
1573,0.72,-0.43,0.57,0.92,-4.27,-2.87,433,272,438,459,338,27
1574,0.72,-0.44,0.57,-0.85,-0.73,-4.58,431,274,436,463,340,27
1575,0.72,-0.42,0.57,10.25,-12.27,2.81,440,275,440,464,341,27
1576,0.72,-0.42,0.57,-0.31,-1.16,-2.62,441,274,436,467,342,27
1577,0.74,-0.42,0.52,15.93,-37.29,11.66,432,274,436,458,344,27
1578,0.77,-0.44,0.47,-0.43,-1.53,-3.97,431,277,434,468,343,27
1579,0.79,-0.43,0.48,0.06,-3.54,-1.77,428,275,436,468,342,27
1580,0.79,-0.44,0.46,4.58,-3.11,-1.65,432,274,435,467,342,27
1581,0.77,-0.43,0.49,-0.61,-1.95,-2.99,432,276,433,467,344,27
1582,0.78,-0.43,0.46,3.54,-5.31,-1.22,435,271,438,468,341,27
1583,0.78,-0.43,0.48,-0.73,-2.44,-3.36,429,273,436,468,343,27
1584,0.79,-0.43,0.47,1.83,-3.48,-1.59,432,275,440,458,344,27
1585,0.81,-0.41,0.43,0.85,-3.36,-2.01,430,271,435,462,334,27
1586,0.76,-0.43,0.5,-10.25,13.67,-10.25,409,278,432,448,337,27
1587,0.78,-0.46,0.47,0.61,-5.25,-3.36,410,282,431,454,337,27
1588,0.82,-0.41,0.43,10.25,-14.04,-1.71,414,278,430,457,331,27
1589,0.78,-0.42,0.46,8.42,-1.59,-3.54,416,286,432,460,338,27
1590,0.78,-0.4,0.48,-1.71,-2.62,-3.23,417,285,429,464,337,27
1591,0.8,-0.41,0.46,-1.28,-4.21,-1.59,416,286,438,462,339,27
1592,0.8,-0.42,0.46,-2.14,-3.23,-4.27,416,286,434,458,337,27
1593,0.81,-0.4,0.45,-0.92,-2.99,-5.31,418,288,433,458,339,27
1594,0.8,-0.4,0.45,0.12,-2.93,-2.75,418,288,433,465,337,27
1595,0.79,-0.41,0.46,-2.93,-2.5,-5.37,418,287,434,459,343,27
1596,0.81,-0.4,0.44,0.85,-3.11,-2.75,423,286,435,469,343,27
1597,0.83,-0.41,0.44,0.67,-5.49,-2.2,421,288,435,462,341,27
1598,0.82,-0.4,0.45,-0.37,-2.87,-3.17,421,286,430,461,339,27
1599,0.82,-0.39,0.43,1.04,-3.72,-1.89,423,292,431,458,341,27
1600,0.8,-0.41,0.46,0.61,-2.2,-2.69,418,289,435,460,341,27
1601,0.81,-0.4,0.45,0.92,-2.38,-3.17,421,288,435,463,341,27
1602,0.81,-0.4,0.46,0.0,-2.81,-1.95,421,292,434,465,342,27
1603,0.8,-0.4,0.46,-1.28,-2.26,-3.66,445,287,433,464,343,27
1604,0.8,-0.4,0.45,0.55,-2.87,-2.38,424,286,433,462,343,27
1605,0.83,-0.4,0.44,-0.31,-4.09,-2.69,421,290,434,462,343,27
1606,0.79,-0.4,0.47,-2.01,-3.48,-2.5,420,286,435,467,345,27
1607,0.8,-0.4,0.45,0.92,-1.34,-2.08,422,286,433,465,344,27
1608,0.82,-0.4,0.42,1.89,-4.03,-1.65,421,290,437,464,347,27
1609,0.81,-0.4,0.46,-1.46,-2.81,-3.48,419,288,431,464,345,27
1610,0.81,-0.4,0.43,1.1,-2.2,-2.5,432,286,430,463,344,27
1611,0.84,-0.41,0.4,5.31,-5.92,2.01,419,288,436,467,347,27
1612,0.82,-0.41,0.43,-0.79,-3.6,-2.2,421,290,447,467,346,27
1613,0.76,-0.55,0.34,-6.35,-6.04,19.17,423,288,434,462,345,27
1614,0.72,-0.62,0.33,-6.9,-3.54,3.42,418,290,438,460,346,27
1615,0.7,-0.64,0.32,0.79,-2.62,-0.67,420,292,433,459,346,27
1616,0.71,-0.63,0.33,-1.53,-1.65,-4.39,420,288,432,461,344,27
1617,0.7,-0.63,0.34,-2.26,-2.56,-4.21,423,290,432,461,346,27
1618,0.71,-0.63,0.34,-0.55,-2.87,-3.42,420,289,431,457,346,27
1619,0.71,-0.63,0.34,-0.49,-2.44,-2.93,422,288,438,454,346,27
1620,0.71,-0.63,0.33,0.98,-2.81,-2.44,421,291,434,453,346,27
1621,0.73,-0.63,0.31,1.65,-2.87,-2.75,412,287,437,458,346,27
1622,0.69,-0.63,0.35,-0.37,-1.83,-2.75,417,289,433,456,346,27
1623,0.71,-0.63,0.33,-1.77,-2.01,-3.42,420,290,432,454,345,27
1624,0.72,-0.63,0.31,-0.85,-2.2,-3.42,419,293,431,462,345,27
1625,0.72,-0.64,0.33,0.18,-2.2,-2.38,419,291,429,462,349,27
1626,0.71,-0.63,0.33,0.92,-2.56,-1.65,421,291,432,456,345,27
1627,0.7,-0.64,0.35,-2.93,-1.77,-3.17,419,302,431,458,344,27
1628,0.7,-0.64,0.32,0.18,-2.62,-2.38,418,290,433,458,347,27
1629,0.7,-0.64,0.34,0.06,-3.11,-2.14,421,292,429,463,347,27
1630,0.71,-0.63,0.33,-4.33,-2.32,-2.32,421,290,433,455,348,27
1631,0.71,-0.65,0.32,1.34,-3.54,-1.65,421,292,432,457,349,27
1632,0.71,-0.65,0.32,-0.43,-2.56,-3.85,419,291,431,454,347,27
1633,0.71,-0.64,0.31,-1.77,-4.09,0.0,423,293,433,455,344,27
1634,0.69,-0.65,0.33,1.34,-3.11,-2.32,427,292,431,462,346,27
1635,0.7,-0.64,0.32,-4.64,-2.81,-3.78,429,292,434,458,347,27
1636,0.71,-0.64,0.3,2.38,-4.39,-2.08,428,294,431,461,348,27
1637,0.7,-0.65,0.33,0.0,-3.17,-1.46,425,292,430,458,348,27
1638,0.69,-0.65,0.33,-3.48,-1.71,-3.54,427,290,433,458,350,27
1639,0.67,-0.65,0.34,-4.52,-1.22,-4.15,424,290,434,460,349,27
1640,0.66,-0.66,0.33,-11.84,5.8,-0.55,430,289,432,459,349,27
1641,0.74,-0.67,0.4,1.34,-14.34,-1.4,422,291,433,469,350,27
1642,0.68,-0.66,0.37,2.87,-9.46,-0.55,425,291,432,460,349,27
1643,0.69,-0.69,0.36,8.85,-7.2,1.4,423,291,431,460,348,27
1644,0.72,-0.66,0.35,2.62,-4.27,-4.7,423,290,431,459,352,27
1645,0.71,-0.65,0.33,2.08,-6.41,-3.36,425,289,435,462,350,27
1646,0.7,-0.66,0.32,-1.16,-2.5,-4.03,425,292,433,454,349,27
1647,0.67,-0.65,0.35,8.0,-6.04,-0.24,422,294,433,459,350,27
1648,0.67,-0.65,0.34,-0.61,-2.87,-2.81,423,291,433,457,351,27
1649,0.67,-0.65,0.35,-0.37,-2.75,-3.54,422,292,430,458,353,27
1650,0.68,-0.65,0.35,2.01,-3.48,-2.14,421,294,430,459,350,27
1651,0.67,-0.66,0.39,-1.34,-3.36,-3.11,420,292,429,464,348,27
1652,0.68,-0.65,0.35,2.44,-3.72,-2.75,434,292,429,461,348,27
1653,0.69,-0.65,0.36,0.31,-3.11,-2.69,420,292,433,462,353,27
1654,0.67,-0.66,0.35,-0.37,-3.66,-2.38,424,293,433,454,352,27
1655,0.7,-0.65,0.35,-0.06,-4.03,-4.58,423,292,433,459,353,27
1656,0.68,-0.66,0.34,1.71,-3.6,-2.56,422,295,431,458,349,27
1657,0.67,-0.65,0.36,0.37,-3.48,-3.6,419,295,429,459,350,27
1658,0.67,-0.66,0.35,0.24,-3.23,-1.83,425,290,430,460,353,27
1659,0.68,-0.66,0.35,-0.43,-2.81,-2.56,434,291,430,461,347,27
1660,0.68,-0.66,0.36,-0.61,-2.44,-3.23,423,292,434,463,353,27
1661,0.67,-0.65,0.35,0.85,-3.17,-2.26,423,294,432,463,353,27
1662,0.69,-0.66,0.36,0.18,-2.93,-3.36,421,293,435,459,352,27
1663,0.67,-0.66,0.37,0.55,-3.6,-2.08,422,293,430,460,351,27
1664,0.68,-0.65,0.38,-0.67,-2.87,-2.93,422,292,430,464,350,27
1665,0.66,-0.66,0.38,0.43,-3.78,-2.2,427,293,431,463,350,27
1666,0.66,-0.66,0.36,0.31,-4.27,-2.32,424,293,430,464,351,27
1667,0.67,-0.66,0.36,1.16,-1.65,-3.36,426,293,434,461,351,27
1668,0.67,-0.66,0.37,-1.46,-1.71,-4.03,433,296,427,458,353,27
1669,0.65,-0.65,0.35,2.81,-4.39,-0.12,438,293,430,459,354,27
1670,0.65,-0.66,0.36,-2.26,-4.7,-2.14,440,295,428,460,350,27
1671,0.69,-0.64,0.35,2.75,-4.88,-3.23,440,294,430,460,354,27
1672,0.68,-0.65,0.34,1.95,-2.99,-1.83,431,294,430,460,352,27
1673,0.68,-0.66,0.35,-1.1,-2.69,-3.23,430,295,429,459,350,27
1674,0.67,-0.66,0.36,-2.38,-1.89,-3.54,430,295,432,461,357,27
1675,0.68,-0.65,0.35,-0.24,-3.48,-3.05,431,292,430,459,352,27
1676,0.68,-0.65,0.34,-0.31,-3.3,-3.05,425,297,429,462,353,27
1677,0.68,-0.65,0.35,0.0,-2.75,-2.99,428,295,429,462,354,27
1678,0.68,-0.65,0.36,0.92,-3.23,-2.5,427,296,428,457,353,27
1679,0.68,-0.65,0.37,-0.73,-2.69,-2.38,428,293,432,459,353,27
1680,0.67,-0.65,0.36,-0.24,-2.81,-2.99,426,295,428,460,353,27
1681,0.68,-0.65,0.35,0.85,-3.6,-2.81,428,298,433,453,353,27
1682,0.68,-0.65,0.37,-0.24,-2.44,-3.11,428,294,429,459,352,27
1683,0.69,-0.65,0.36,2.2,-4.09,-1.59,425,293,426,457,351,27
1684,0.69,-0.65,0.35,-0.06,-2.2,-2.75,428,297,430,461,355,27
1685,0.7,-0.64,0.35,0.55,-2.32,-1.89,424,295,425,458,351,27
1686,0.69,-0.65,0.33,0.98,-4.15,-3.23,425,299,425,458,354,27
1687,0.69,-0.65,0.34,1.16,-2.38,-2.01,425,296,427,462,353,27
1688,0.69,-0.65,0.35,0.24,-2.38,-2.93,424,298,431,460,350,27
1689,0.7,-0.65,0.35,-0.61,-2.44,-3.6,426,296,427,456,350,27
1690,0.7,-0.64,0.35,3.54,-5.68,-0.92,425,297,431,458,351,27
1691,0.69,-0.65,0.35,2.32,-3.72,-2.69,425,298,430,462,356,27
1692,0.66,-0.64,0.35,2.26,-4.88,-1.1,424,298,427,460,354,27
1693,0.68,-0.66,0.31,0.85,-3.6,-2.99,426,298,432,460,356,27
1694,0.68,-0.66,0.36,-0.06,-2.5,-2.69,426,296,433,458,356,27
1695,0.69,-0.65,0.36,0.79,-1.34,-2.99,423,297,433,459,354,27
1696,0.7,-0.64,0.35,1.59,-2.56,-2.14,422,297,433,463,354,27
1697,0.67,-0.65,0.35,0.18,-2.69,-3.05,424,300,433,453,356,27
1698,0.7,-0.65,0.37,1.22,-3.66,-2.5,423,299,429,459,355,27
1699,0.67,-0.66,0.34,-0.31,-2.14,-1.77,424,295,429,458,353,27
1700,0.68,-0.64,0.35,2.2,-2.2,-2.44,421,299,426,454,357,27
1701,0.69,-0.65,0.36,-1.1,-2.99,-3.3,425,293,432,458,351,27
1702,0.69,-0.65,0.35,0.24,-3.6,-1.95,424,296,428,458,353,27
1703,0.69,-0.65,0.34,0.0,-4.33,-2.99,422,299,430,462,353,27
1704,0.69,-0.65,0.35,0.73,-2.93,-1.89,422,294,430,458,356,27
1705,0.69,-0.65,0.35,0.31,-2.32,-3.42,422,295,431,459,354,27
1706,0.68,-0.65,0.35,0.92,-3.11,-2.93,423,298,428,458,355,27
1707,0.69,-0.64,0.34,1.53,-3.11,-2.2,421,296,441,462,351,27
1708,0.68,-0.63,0.35,-0.37,-0.55,-2.2,423,296,428,459,351,27
1709,0.69,-0.64,0.36,0.0,-3.54,-2.32,450,297,428,461,354,27
1710,0.65,-0.66,0.34,0.49,-3.36,-3.42,422,297,428,459,354,27
1711,0.67,-0.65,0.36,0.0,-1.65,-2.32,421,297,428,459,355,27
1712,0.67,-0.65,0.36,0.49,-2.26,-3.36,424,298,426,462,354,27
1713,0.69,-0.65,0.35,-0.24,-3.05,-3.05,420,300,427,461,356,27
1714,0.69,-0.65,0.35,-0.18,-3.78,-2.62,419,312,427,455,356,27
1715,0.68,-0.65,0.36,-0.12,-3.17,-2.93,421,300,428,459,354,27
1716,0.71,-0.65,0.35,0.06,-2.2,-2.32,424,298,427,462,353,27
1717,0.69,-0.63,0.33,0.73,-4.15,-3.11,421,300,423,459,350,27
1718,0.68,-0.65,0.32,-1.89,-2.2,-3.17,424,297,424,454,353,27
1719,0.69,-0.65,0.31,-0.06,-2.75,-3.6,420,300,441,461,351,27
1720,0.69,-0.65,0.34,0.61,-3.3,-2.2,422,305,437,461,351,27
1721,0.7,-0.64,0.34,-0.67,-1.95,-1.83,422,298,426,462,354,27
1722,0.71,-0.65,0.36,0.0,-1.59,-3.23,421,295,427,460,353,27
1723,0.71,-0.65,0.32,1.95,-2.26,-4.15,420,299,424,456,355,27
1724,0.72,-0.65,0.35,0.43,-2.26,-2.81,421,300,426,453,353,27
1725,0.71,-0.64,0.35,1.16,-3.78,-0.79,422,302,427,458,353,27
1726,0.69,-0.64,0.35,-1.53,-1.89,-3.54,419,314,425,456,354,27
1727,0.71,-0.64,0.32,0.0,-3.23,-3.66,422,298,427,462,354,27
1728,0.69,-0.64,0.35,1.04,-3.42,-2.5,422,297,429,464,355,27
1729,0.7,-0.63,0.31,-0.18,-3.6,-2.75,420,300,424,458,353,27
1730,0.7,-0.63,0.33,0.49,-2.93,-3.36,423,296,427,460,353,27
1731,0.7,-0.62,0.31,-1.71,-1.59,-4.39,421,299,429,455,351,27
1732,0.72,-0.64,0.32,-1.04,-2.5,-3.48,422,297,426,461,352,27
1733,0.71,-0.64,0.31,0.43,-2.93,-2.93,416,298,427,460,353,27
1734,0.7,-0.63,0.31,0.37,-2.75,-1.65,424,300,426,464,354,27
1735,0.71,-0.64,0.31,1.95,-2.08,-1.71,421,297,426,459,356,27
1736,0.7,-0.64,0.34,-2.01,-1.65,-2.14,421,300,423,462,352,27
1737,0.7,-0.64,0.32,-0.98,-2.32,-3.3,446,297,428,458,354,27
1738,0.71,-0.63,0.32,1.1,-2.93,-2.69,416,295,424,458,354,27
1739,0.7,-0.64,0.33,0.92,-3.54,-1.77,420,295,427,459,352,27
1740,0.7,-0.63,0.33,0.49,-3.17,-2.38,420,299,426,460,352,27
1741,0.7,-0.64,0.33,-0.67,-2.75,-3.05,420,297,425,457,356,27
1742,0.71,-0.63,0.32,1.34,-3.36,-2.26,421,296,429,456,355,27
1743,0.71,-0.63,0.31,0.67,-2.81,-2.75,417,298,426,463,354,27
1744,0.72,-0.63,0.31,0.98,-3.23,-1.95,417,295,426,462,353,27
1745,0.72,-0.64,0.33,-3.17,-1.95,-5.0,419,295,425,461,352,27
1746,0.71,-0.64,0.32,0.49,-2.44,-2.56,417,300,428,461,352,27
1747,0.72,-0.64,0.32,0.37,-2.08,-1.95,419,295,424,457,352,27
1748,0.72,-0.63,0.32,0.79,-3.91,-1.59,420,298,429,458,350,27
1749,0.7,-0.63,0.34,0.37,-2.44,-1.71,423,297,430,461,346,27
1750,0.71,-0.64,0.31,1.34,-3.42,-1.71,418,295,427,456,352,27
1751,0.69,-0.65,0.31,10.07,-3.91,-0.55,418,296,427,459,351,27
1752,0.7,-0.64,0.33,-2.93,-0.55,-3.11,419,297,425,458,352,27
1753,0.69,-0.64,0.34,-1.34,-3.48,-2.44,421,307,426,462,349,27
1754,0.69,-0.64,0.31,2.44,-2.75,-3.54,423,295,441,456,352,27
1755,0.7,-0.64,0.33,0.73,-2.93,-1.22,424,298,428,458,346,27
1756,0.69,-0.65,0.31,-0.43,-2.81,-3.05,419,293,424,463,351,27
1757,0.7,-0.67,0.31,0.49,-2.38,-2.44,422,299,426,458,351,27
1758,0.7,-0.66,0.32,0.73,-3.66,-1.53,426,295,423,460,352,27
1759,0.7,-0.66,0.3,-0.43,-1.95,-3.36,420,295,425,466,348,27
1760,0.71,-0.65,0.31,-0.31,-1.04,-3.78,421,293,426,462,351,27
1761,0.71,-0.64,0.3,0.37,-2.99,-4.27,422,306,427,456,348,27
1762,0.7,-0.65,0.29,2.62,-6.71,-0.79,421,296,428,458,352,27
1763,0.71,-0.65,0.3,2.26,-4.33,-3.54,426,295,427,464,350,27
1764,0.71,-0.64,0.31,-7.69,-1.83,-7.63,422,296,430,454,350,27
1765,0.73,-0.64,0.27,2.56,-3.91,-1.83,417,292,424,462,350,27
1766,0.72,-0.64,0.3,-2.75,-2.26,-3.42,418,293,427,462,351,27
1767,0.7,-0.64,0.3,2.2,-3.66,-1.59,422,297,428,458,351,27
1768,0.71,-0.64,0.3,-0.12,-2.14,-1.53,418,296,429,459,351,27
1769,0.7,-0.64,0.32,-0.98,-2.56,-3.11,421,297,426,459,352,27
1770,0.74,-0.64,0.3,1.83,-2.75,-1.77,419,298,425,456,353,27
1771,0.72,-0.64,0.3,1.46,-3.48,-1.83,418,295,424,456,351,27
1772,0.73,-0.64,0.28,1.83,-3.11,-2.08,419,297,423,460,352,27
1773,0.7,-0.64,0.3,0.55,-3.23,-2.56,420,296,427,460,350,27
1774,0.73,-0.64,0.27,3.23,-4.94,-1.89,424,299,425,461,350,27
1775,0.71,-0.64,0.3,-0.06,-3.6,-4.76,416,299,424,457,351,27
1776,0.71,-0.64,0.29,-0.49,-2.01,-2.56,418,296,429,464,349,27
1777,0.71,-0.64,0.31,-0.18,-2.75,-2.26,419,296,425,463,351,27
1778,0.71,-0.64,0.29,0.24,-3.3,-3.11,418,294,426,459,352,27
1779,0.71,-0.65,0.28,2.32,-3.3,-0.79,418,300,427,458,355,27
1780,0.71,-0.64,0.29,0.79,-3.6,-2.38,421,296,426,459,353,27
1781,0.72,-0.64,0.29,0.18,-3.36,-2.75,422,307,426,461,349,27
1782,0.71,-0.65,0.3,-0.49,-1.89,-2.99,419,296,422,460,355,27
1783,0.71,-0.65,0.29,0.61,-3.36,-2.08,422,296,425,460,348,27
1784,0.73,-0.65,0.27,2.99,-4.09,-1.4,421,299,425,460,352,27
1785,0.71,-0.64,0.3,1.65,-2.44,-1.59,420,294,426,470,351,27
1786,0.72,-0.65,0.3,0.92,-2.87,-0.24,422,298,425,462,352,27
1787,0.72,-0.64,0.28,2.14,-3.05,-1.77,418,297,424,461,352,27
1788,0.69,-0.65,0.31,-1.1,-2.08,-1.71,422,298,426,458,354,27
1789,0.71,-0.66,0.3,0.85,-3.11,2.44,420,297,428,458,349,27
1790,0.75,-0.66,0.26,1.46,-10.74,-3.6,421,299,423,458,353,27
1791,0.7,-0.67,0.28,1.95,-4.82,-3.42,421,295,435,461,352,27
1792,0.68,-0.67,0.29,0.43,-2.56,-1.83,419,296,426,457,359,27
1793,0.69,-0.66,0.29,0.73,-8.85,-2.32,420,298,425,461,353,27
1794,0.7,-0.66,0.27,2.44,-4.33,-2.14,419,296,422,463,351,27
1795,0.7,-0.66,0.28,-0.43,-2.14,-2.87,422,294,425,462,354,27
1796,0.7,-0.66,0.29,1.59,-2.56,-2.14,420,297,427,456,351,27
1797,0.7,-0.66,0.28,0.98,-2.62,-3.17,422,299,428,459,353,27
1798,0.69,-0.66,0.29,1.83,-2.99,-2.2,421,299,424,460,357,27
1799,0.69,-0.66,0.3,-0.06,-2.56,-2.32,420,299,428,459,352,27
1800,0.71,-0.66,0.27,1.22,-3.97,-2.32,446,298,428,458,350,27
1801,0.69,-0.66,0.3,-1.04,-2.5,-2.81,417,299,428,455,354,27
1802,0.69,-0.66,0.3,-1.22,-1.77,-2.5,420,300,427,458,351,27
1803,0.69,-0.66,0.3,0.98,-4.03,-2.32,423,299,429,459,354,27
1804,0.7,-0.66,0.29,-0.92,-3.3,-2.69,415,297,426,451,353,27
1805,0.7,-0.66,0.27,0.55,-3.05,-2.32,418,300,426,457,353,27
1806,0.69,-0.67,0.29,-1.59,-1.95,-3.66,421,298,426,458,353,27
1807,0.69,-0.67,0.28,-0.24,-2.69,-3.05,420,301,422,461,352,27
1808,0.68,-0.67,0.29,-1.4,-2.01,-2.99,422,297,422,458,355,27
1809,0.69,-0.67,0.29,0.67,-3.11,-2.81,421,297,425,458,354,27
1810,0.7,-0.68,0.28,0.61,-4.03,-2.62,420,298,426,456,353,27
1811,0.69,-0.67,0.29,1.28,-2.81,-4.33,420,297,429,459,353,27
1812,0.68,-0.66,0.31,0.43,-1.53,-3.17,422,304,425,457,355,27
1813,0.71,-0.67,0.29,-0.55,-2.75,-2.38,422,300,425,456,353,27
1814,0.68,-0.67,0.3,-0.67,-2.99,-2.32,417,297,426,460,353,27
1815,0.7,-0.66,0.27,-0.98,-1.71,-3.72,421,299,435,454,355,27
1816,0.71,-0.66,0.27,0.37,-3.6,-2.62,421,300,426,459,355,27
1817,0.7,-0.67,0.28,0.73,-3.05,-2.01,421,299,428,458,353,27
1818,0.7,-0.66,0.28,-0.12,-3.36,-2.81,419,295,427,457,353,27
1819,0.7,-0.67,0.28,-0.55,-2.26,-2.75,420,299,424,457,354,27
1820,0.71,-0.66,0.28,2.99,-4.33,-1.53,421,299,428,453,355,27
1821,0.71,-0.66,0.28,2.44,-6.35,-3.05,419,296,427,459,351,27
1822,0.7,-0.68,0.29,-2.81,-3.23,-2.32,419,300,426,458,354,27
1823,0.7,-0.67,0.29,0.85,-1.83,-3.3,423,299,425,459,350,27
1824,0.7,-0.66,0.28,0.85,-0.73,-2.01,420,298,425,464,355,27
1825,0.67,-0.67,0.28,5.13,-0.85,1.34,419,296,423,457,356,27
1826,0.66,-0.68,0.34,0.24,-1.65,0.18,418,300,426,462,354,27
1827,0.67,-0.7,0.29,7.26,-7.39,5.07,446,299,431,459,355,27
1828,0.65,-0.7,0.32,-3.05,-3.17,-2.38,420,292,428,456,353,27
1829,0.63,-0.72,0.29,-1.1,-4.82,1.89,423,296,427,459,352,27
1830,0.62,-0.72,0.29,-1.1,-1.65,-2.69,425,296,422,457,354,27
1831,0.62,-0.74,0.29,-1.1,-4.09,-2.62,428,298,428,458,355,27
1832,0.62,-0.74,0.28,-2.38,-2.93,-3.17,426,294,426,459,352,27
1833,0.62,-0.77,0.23,1.95,-6.96,0.18,425,303,426,458,353,27
1834,0.59,-0.75,0.26,6.65,-12.39,3.23,430,296,429,461,353,27
1835,0.63,-0.74,0.31,-1.16,-2.93,-7.39,426,298,426,459,353,27
1836,0.66,-0.72,0.27,-2.5,-1.22,-4.27,425,302,426,457,354,27
1837,0.66,-0.72,0.25,0.0,-5.07,-4.52,426,294,420,456,354,27
1838,0.62,-0.73,0.23,1.46,-6.96,-4.09,421,296,424,457,352,27
1839,0.69,-0.72,0.23,1.04,0.79,0.31,425,295,427,460,352,27
1840,0.56,-0.72,0.25,4.03,9.03,4.58,423,294,425,452,353,27
1841,0.6,-0.76,0.27,-0.24,-3.42,-1.22,423,297,425,455,358,27
1842,0.61,-0.76,0.24,0.31,-3.11,-2.26,426,298,427,460,352,27
1843,0.61,-0.76,0.24,2.93,-4.88,-2.32,424,298,424,454,354,27
1844,0.61,-0.76,0.25,-1.46,-2.08,-3.17,424,301,424,455,352,27
1845,0.61,-0.76,0.25,1.95,-2.2,-0.43,444,301,427,458,352,27
1846,0.6,-0.76,0.22,0.24,-1.71,-1.59,424,298,428,460,355,27
1847,0.58,-0.76,0.26,1.1,-1.95,-2.56,424,297,425,460,352,27
1848,0.58,-0.78,0.28,-0.92,-2.5,0.61,422,296,425,460,353,27
1849,0.59,-0.77,0.28,-1.83,-3.42,-1.95,426,298,427,458,350,27
1850,0.58,-0.77,0.26,-1.1,-4.15,-3.78,423,297,425,457,352,27
1851,0.58,-0.78,0.26,0.12,-3.36,-2.75,446,297,428,453,354,27
1852,0.58,-0.77,0.26,0.43,-1.53,-1.89,424,297,421,453,353,27
1853,0.58,-0.77,0.25,0.85,-4.15,-2.87,424,297,421,457,353,27
1854,0.57,-0.77,0.28,-1.71,-2.14,-2.62,421,296,426,455,355,27
1855,0.6,-0.78,0.25,0.67,-3.11,-0.24,424,300,425,458,351,27
1856,0.58,-0.77,0.26,-0.67,-3.6,-2.81,424,296,424,462,353,27
1857,0.59,-0.78,0.25,0.12,-3.23,-2.2,420,298,425,459,355,27
1858,0.58,-0.78,0.25,-0.18,-1.83,-3.23,422,298,422,452,352,27
1859,0.58,-0.78,0.25,0.98,-3.72,-2.2,421,302,425,457,356,27
1860,0.57,-0.77,0.26,-0.06,-2.5,-1.83,421,306,426,458,354,27
1861,0.58,-0.79,0.23,-0.18,-1.46,-1.95,422,301,425,456,355,27
1862,0.55,-0.79,0.25,2.38,-2.69,-0.06,420,297,426,456,354,27
1863,0.57,-0.79,0.26,1.77,-3.78,-3.36,421,306,424,457,355,27
1864,0.57,-0.79,0.25,0.31,-2.87,-2.75,419,299,425,457,357,27
1865,0.56,-0.79,0.26,-0.18,-2.81,-2.81,425,300,426,458,354,27
1866,0.55,-0.79,0.26,0.06,-2.99,-3.11,425,298,423,460,353,27
1867,0.57,-0.79,0.24,1.22,-3.48,-2.32,422,297,427,457,353,27
1868,0.59,-0.79,0.25,0.18,-2.2,-2.32,421,298,425,461,355,27
1869,0.57,-0.79,0.26,1.1,-3.17,-3.11,420,298,424,452,355,27
1870,0.58,-0.78,0.26,0.12,-2.93,-3.91,420,300,422,457,355,27
1871,0.58,-0.79,0.26,-1.59,-3.23,-2.87,425,298,421,458,354,27
1872,0.57,-0.78,0.25,0.18,-2.87,-1.59,422,301,426,461,357,27
1873,0.57,-0.79,0.25,2.01,-2.81,-2.69,422,301,426,458,354,27
1874,0.57,-0.79,0.25,0.06,-2.69,-2.99,424,298,424,461,353,27
1875,0.56,-0.79,0.25,-0.49,-2.62,-2.56,421,298,424,459,355,27
1876,0.57,-0.79,0.25,0.98,-2.62,-2.5,417,298,424,469,353,27
1877,0.57,-0.79,0.26,5.07,-3.3,-2.38,419,301,428,458,354,27
1878,0.56,-0.79,0.28,9.58,-3.48,-2.99,422,300,426,458,351,27
1879,0.57,-0.78,0.29,0.61,-3.05,-2.01,420,294,424,462,348,27
1880,0.57,-0.78,0.28,-1.46,-2.87,-2.93,418,293,425,467,342,27
1881,0.56,-0.78,0.28,-0.98,-1.59,-3.17,418,293,423,457,338,27
1882,0.59,-0.78,0.24,1.77,-3.78,-1.71,425,293,423,452,338,27
1883,0.57,-0.78,0.27,-0.67,-3.05,-2.32,421,292,425,449,335,27
1884,0.58,-0.78,0.25,2.5,-3.54,-2.01,420,293,423,449,337,27
1885,0.57,-0.78,0.26,0.31,-2.56,-2.62,418,295,423,455,333,27
1886,0.57,-0.78,0.27,0.31,-2.2,-2.2,422,290,424,452,338,27
1887,0.57,-0.78,0.24,-1.59,-1.95,-3.72,422,294,423,455,337,27
1888,0.58,-0.78,0.26,-1.22,-3.23,-3.6,421,294,426,454,337,27
1889,0.58,-0.78,0.24,3.85,-3.11,-1.77,421,293,421,458,339,27
1890,0.6,-0.79,0.27,-0.67,-1.95,-2.44,423,296,420,459,338,27
1891,0.58,-0.77,0.25,-0.18,-2.69,-3.05,421,295,424,452,341,27
1892,0.57,-0.78,0.28,1.71,-3.23,-2.26,421,298,420,457,339,27
1893,0.57,-0.78,0.26,1.28,-3.23,-3.05,419,296,423,455,339,27
1894,0.57,-0.78,0.26,0.18,-2.69,-2.99,422,293,426,455,340,27
1895,0.58,-0.78,0.27,0.37,-2.56,-3.42,425,296,424,456,339,27
1896,0.58,-0.78,0.27,0.06,-3.36,-2.99,422,294,424,456,342,27
1897,0.57,-0.78,0.26,-1.4,-2.99,-3.42,420,296,424,459,339,27
1898,0.57,-0.78,0.27,-0.98,-2.01,-3.05,423,294,424,456,338,27
1899,0.56,-0.78,0.28,3.72,-3.48,-2.2,421,298,424,459,338,27
1900,0.57,-0.77,0.26,5.13,-12.57,1.53,422,299,422,451,338,27
1901,0.55,-0.78,0.27,0.85,-7.02,-1.65,421,294,426,451,338,27
1902,0.54,-0.79,0.26,-0.61,0.24,-1.34,423,294,424,456,339,27
1903,0.57,-0.78,0.29,5.86,-5.0,-1.28,421,296,421,453,342,27
1904,0.56,-0.8,0.28,-2.62,-3.3,-4.03,424,295,422,456,341,27
1905,0.55,-0.8,0.28,0.61,-3.54,-3.17,421,298,422,459,342,27
1906,0.57,-0.79,0.27,0.0,-3.17,-2.26,420,297,420,456,340,27
1907,0.55,-0.79,0.25,1.16,-3.54,-2.5,421,296,421,451,343,27
1908,0.56,-0.8,0.26,0.85,-3.78,-2.99,424,297,424,468,342,27
1909,0.56,-0.79,0.25,0.24,-3.11,-3.78,422,294,423,457,344,27
1910,0.56,-0.78,0.27,-0.37,-4.58,-2.69,425,299,423,457,341,27
1911,0.56,-0.79,0.24,-1.65,-2.56,-3.11,417,296,425,455,341,27
1912,0.56,-0.78,0.27,-1.71,-3.48,-3.97,421,297,425,454,342,27
1913,0.58,-0.78,0.26,-1.28,-2.44,-3.17,420,298,422,456,342,27
1914,0.58,-0.79,0.22,0.12,-1.46,-3.97,422,298,422,456,345,27
1915,0.58,-0.77,0.25,-0.92,-2.75,-3.72,421,296,423,456,342,27
1916,0.57,-0.78,0.26,-2.75,-3.85,-3.36,421,298,422,454,341,27
1917,0.58,-0.79,0.23,2.5,-2.75,-2.44,420,299,423,455,341,27
1918,0.59,-0.78,0.25,0.43,-3.78,-2.69,423,299,423,459,342,27
1919,0.59,-0.78,0.25,-0.18,-3.72,-3.17,425,299,428,456,340,27
1920,0.58,-0.78,0.24,0.67,-2.93,-2.32,423,298,422,456,342,27
1921,0.59,-0.78,0.24,0.55,-3.3,-2.62,425,299,423,455,343,27
1922,0.6,-0.77,0.22,2.5,-3.72,-2.44,424,300,423,458,344,27
1923,0.8,-0.72,0.23,3.48,-7.75,-2.81,423,306,424,457,343,27
1924,0.67,-0.71,0.29,3.23,18.49,-19.65,425,298,419,458,342,27
1925,0.66,-0.72,0.25,2.14,-4.03,-1.28,424,297,424,459,343,27
1926,0.67,-0.71,0.26,1.59,-2.69,-5.31,425,293,421,458,343,27
1927,0.7,-0.69,0.3,-4.88,1.16,-4.09,424,297,426,456,344,27
1928,0.64,-0.69,0.29,-0.55,-3.72,-3.36,421,296,426,458,339,27
1929,0.65,-0.69,0.29,0.37,-2.56,-2.08,424,294,426,452,343,27
1930,0.65,-0.7,0.28,1.16,-1.95,-2.93,425,298,423,453,344,27
1931,0.67,-0.71,0.29,5.13,-4.27,-1.65,426,299,426,459,345,27
1932,0.67,-0.7,0.3,-1.22,-2.56,-2.87,420,304,426,454,342,27
1933,0.66,-0.7,0.3,1.46,-2.56,-1.89,422,300,423,455,344,27
1934,0.67,-0.69,0.27,2.69,-3.66,-2.44,421,300,423,456,345,27
1935,0.66,-0.7,0.31,0.61,-3.23,-1.83,423,299,427,451,343,27
1936,0.67,-0.69,0.28,0.24,-2.62,-2.44,418,299,423,458,345,27
1937,0.66,-0.71,0.29,-1.04,-2.93,-1.22,417,301,437,462,344,27
1938,0.68,-0.7,0.26,2.08,-3.66,-2.5,423,297,425,460,349,27
1939,0.65,-0.7,0.29,-2.2,-2.01,-2.87,422,302,422,460,345,27
1940,0.66,-0.7,0.29,-2.81,-0.37,-3.36,422,297,424,458,346,27
1941,0.63,-0.7,0.29,-0.43,-4.09,-0.43,422,299,420,457,346,27
1942,0.65,-0.71,0.29,1.34,-3.05,-2.14,422,298,421,456,348,27
1943,0.65,-0.71,0.28,2.26,-2.5,-1.71,420,298,424,456,349,27
1944,0.65,-0.72,0.32,-3.66,-1.77,-3.42,420,297,424,458,348,27
1945,0.63,-0.71,0.31,-0.18,-1.95,-2.08,420,298,422,458,345,27
1946,0.66,-0.71,0.28,1.28,-3.42,-2.69,420,300,421,458,347,27
1947,0.65,-0.71,0.29,-0.92,-1.83,-2.32,449,301,424,453,345,27
1948,0.64,-0.71,0.3,0.43,-3.54,-2.87,424,297,426,460,349,27
1949,0.65,-0.71,0.29,-0.24,-1.95,-2.81,424,295,422,457,348,27
1950,0.66,-0.71,0.28,0.85,-2.81,-3.3,425,300,423,462,347,27
1951,0.64,-0.7,0.3,-0.67,-2.99,-2.99,422,299,428,453,348,27
1952,0.65,-0.71,0.28,0.67,-3.23,-2.81,423,301,423,456,345,27
1953,0.65,-0.71,0.28,-0.79,-3.3,-3.42,421,299,425,460,347,27
1954,0.65,-0.71,0.29,1.04,-3.78,-2.08,423,297,423,463,346,27
1955,0.65,-0.71,0.28,-0.12,-2.87,-3.36,421,296,429,453,344,27
1956,0.65,-0.71,0.28,1.16,-3.36,-2.14,423,299,426,458,345,27
1957,0.66,-0.71,0.27,1.46,-3.48,-2.38,422,298,423,457,346,27
1958,0.65,-0.71,0.29,1.1,-3.72,-2.75,420,300,420,454,346,27
1959,0.66,-0.71,0.28,-1.22,-2.56,-2.5,422,298,426,453,346,27
1960,0.65,-0.71,0.31,0.06,-2.01,-2.69,421,299,423,457,346,27
1961,0.66,-0.71,0.28,0.55,-3.6,-2.69,421,298,424,459,344,27
1962,0.66,-0.7,0.3,-0.85,-1.77,-3.05,423,308,421,461,348,27
1963,0.65,-0.71,0.3,0.06,-2.38,-2.44,420,298,424,458,346,27
1964,0.65,-0.71,0.28,-0.06,-3.42,-1.89,423,298,421,458,346,27
1965,0.65,-0.71,0.28,0.12,-2.2,-3.42,420,299,422,457,349,27
1966,0.65,-0.71,0.28,0.0,-3.05,-3.23,421,298,423,453,349,27
1967,0.65,-0.71,0.29,-0.24,-2.81,-3.3,419,299,421,457,349,27
1968,0.65,-0.71,0.3,-0.06,-2.99,-3.23,423,302,424,461,348,27
1969,0.66,-0.71,0.3,0.31,-2.26,-2.5,423,299,425,454,349,27
1970,0.65,-0.71,0.29,1.1,-3.05,-1.77,423,298,422,461,348,27
1971,0.66,-0.71,0.3,-2.08,-2.01,-3.11,424,299,423,455,347,27
1972,0.67,-0.71,0.29,2.38,-6.41,-2.75,422,299,409,460,348,27
1973,0.66,-0.71,0.29,0.67,-3.23,-3.11,422,298,426,457,346,27
1974,0.68,-0.7,0.29,2.01,-3.85,-3.54,411,297,423,461,346,27
1975,0.67,-0.7,0.3,-2.5,-1.53,-2.32,415,301,421,453,347,27
1976,0.69,-0.7,0.27,1.53,-3.6,-2.08,420,299,426,457,348,27
1977,0.68,-0.7,0.28,1.04,-3.23,-1.77,425,298,422,453,349,27
1978,0.67,-0.69,0.28,1.34,-3.78,-1.77,420,299,421,461,346,27
1979,0.67,-0.69,0.28,1.89,-2.81,-2.26,424,298,426,467,346,27
1980,0.66,-0.7,0.28,-1.1,-4.09,-2.87,420,296,424,459,349,27
1981,0.66,-0.7,0.27,1.04,-4.21,-2.87,418,299,421,456,349,27
1982,0.67,-0.7,0.28,-0.18,-3.23,-2.87,419,298,422,463,348,27
1983,0.67,-0.7,0.28,1.53,-3.85,-2.32,420,299,422,460,347,27
1984,0.67,-0.71,0.27,-1.83,-5.49,-1.28,421,299,420,460,348,27
1985,0.66,-0.7,0.26,0.06,-1.04,-2.32,422,298,423,460,347,27
1986,0.67,-0.69,0.3,1.71,-4.27,-2.2,422,301,424,453,348,27
