,aX,aY,aZ,gX,gY,gZ,little,ring,middle,index,thumb,number
0,0.03,-0.92,-0.26,-5.74,48.65,-23.93,215,260,187,459,310,18
1,0.17,-0.94,-0.25,-13.43,8.97,-3.97,212,264,185,461,309,18
2,0.17,-0.97,-0.26,-0.12,33.57,-13.73,214,267,189,463,311,18
3,-0.14,-0.98,-0.32,10.01,-11.78,30.52,211,262,185,463,310,18
4,-0.02,-0.96,-0.38,-0.24,-4.09,-6.96,214,265,188,461,308,18
5,-0.3,-0.94,-0.17,4.64,24.29,15.99,214,264,187,458,308,18
6,-0.12,-0.9,-0.41,13.18,19.23,-37.05,214,263,188,462,309,18
7,-0.24,-0.9,-0.2,-35.89,98.14,12.39,213,265,190,459,308,18
8,0.01,-1.0,-0.45,12.51,-23.38,-9.22,216,262,186,459,308,18
9,-0.0,-0.89,-0.54,-3.11,41.26,-37.72,215,266,192,461,311,18
10,0.18,-0.88,-0.32,17.76,-14.47,-4.94,214,264,192,461,309,18
11,-0.04,-0.92,-0.28,28.63,11.29,-19.1,213,264,193,454,304,18
12,0.21,-0.9,-0.21,2.69,8.67,-23.99,213,263,191,460,308,18
13,0.02,-0.89,-0.2,-2.62,15.81,-2.93,213,267,194,460,309,18
14,0.18,-0.95,-0.27,6.1,-4.46,-20.32,216,266,190,463,307,18
15,0.11,-0.92,-0.27,4.64,-7.93,10.25,213,269,189,459,307,18
16,0.07,-0.98,-0.48,-9.52,-30.21,9.83,214,262,194,454,307,18
17,0.15,-0.89,-0.29,20.26,9.64,1.28,215,266,194,458,309,18
18,0.04,-0.97,-0.28,9.77,-5.62,15.93,217,267,190,464,309,18
19,0.06,-0.97,-0.24,5.92,-4.33,-8.61,214,266,193,460,309,18
20,0.08,-0.97,-0.22,2.32,0.85,0.37,214,266,192,460,308,18
21,0.02,-0.97,-0.22,6.04,-5.0,-6.04,243,263,188,459,307,18
22,0.27,-0.86,-0.26,-1.65,-30.58,-24.35,217,264,196,465,309,18
23,0.07,-0.99,-0.29,-14.4,-4.33,34.18,215,265,194,464,309,18
24,0.08,-0.94,-0.31,0.31,2.75,-5.0,217,264,187,462,311,18
25,0.07,-0.93,-0.33,0.37,-3.3,3.23,215,267,194,462,309,18
26,0.05,-0.95,-0.31,0.79,-1.4,1.04,214,268,192,464,307,18
27,0.03,-0.96,-0.33,-0.67,-3.3,-1.34,211,265,190,456,308,18
28,0.04,-0.96,-0.31,1.59,-3.36,-4.15,215,266,197,460,312,18
29,0.03,-0.94,-0.28,2.56,-3.48,-3.78,217,265,194,466,312,18
30,0.05,-0.94,-0.28,0.49,-2.93,-3.6,215,268,195,466,307,18
31,0.05,-0.95,-0.28,2.69,-2.87,-2.5,216,264,191,460,311,18
32,0.05,-0.96,-0.28,4.52,-5.19,-1.53,211,268,194,458,309,18
33,-0.07,-1.02,-0.31,-4.64,-26.67,-19.04,212,267,198,460,312,18
34,0.11,-0.93,-0.23,-1.71,-7.63,2.14,217,263,194,456,311,18
35,0.04,-0.95,-0.23,1.34,-5.62,-9.09,217,265,192,464,310,18
36,0.12,-0.99,-0.27,-0.73,10.44,-0.55,210,265,197,461,311,18
37,-0.0,-0.94,-0.24,-2.2,-5.31,9.22,217,263,194,461,307,18
38,0.08,-0.98,-0.23,0.49,-0.61,-8.24,216,268,193,461,310,18
39,-0.01,-0.97,-0.25,-4.82,0.0,-1.59,212,264,194,465,306,18
40,0.07,-0.94,-0.26,-1.59,-1.77,-3.85,215,268,195,460,309,18
41,0.06,-0.96,-0.25,-0.12,-3.17,0.61,217,262,193,456,309,18
42,0.01,-0.97,-0.25,0.92,-1.65,-0.55,216,263,199,461,310,18
43,0.1,-0.96,-0.25,1.53,7.87,-20.39,215,275,194,464,313,18
44,0.04,-0.96,-0.29,2.2,-12.27,11.41,215,263,196,460,312,18
45,0.05,-1.04,-0.25,7.32,-8.0,5.8,218,262,197,458,309,18
46,-0.08,-0.91,-0.25,1.83,8.36,4.52,214,265,193,460,312,18
47,-0.05,-0.95,-0.37,13.85,-12.63,6.65,215,263,195,460,308,18
48,0.03,-0.93,-0.42,-4.27,9.77,-6.23,216,266,195,463,312,18
49,-0.01,-0.93,-0.39,9.09,-3.97,5.13,218,265,198,465,308,18
50,0.08,-0.9,-0.35,16.17,16.05,-25.27,212,267,198,460,312,18
51,0.12,-0.93,-0.33,-0.12,-6.59,8.48,214,264,210,462,309,18
52,-0.03,-0.9,-0.24,0.0,-2.5,4.94,217,268,197,462,311,18
53,0.07,-0.92,-0.25,10.56,-10.68,-12.57,214,268,194,461,310,18
54,-0.02,-0.94,-0.28,-10.07,-4.82,4.58,212,266,200,462,310,18
55,0.01,-0.95,-0.29,11.05,-4.88,-16.3,215,265,196,458,310,18
56,0.32,-1.03,-0.25,20.39,21.48,-12.21,246,267,193,461,309,18
57,-0.06,-0.98,-0.29,-1.59,2.08,2.38,219,266,197,465,310,18
58,0.03,-0.94,-0.28,0.98,-2.5,-5.07,216,264,204,462,306,18
59,-0.05,-0.96,-0.3,-5.8,-19.59,-2.01,216,269,199,457,306,18
60,0.09,-0.95,-0.2,18.13,8.79,-12.21,219,268,198,461,315,18
61,-0.0,-0.97,-0.28,-8.79,-14.59,9.22,217,269,197,466,310,18
62,0.04,-0.97,-0.3,-0.24,-0.24,3.17,217,267,196,459,305,18
63,-0.05,-0.96,-0.34,-3.54,0.85,-1.53,216,266,199,461,304,18
64,-0.01,-0.93,-0.29,-4.09,10.86,-8.91,217,268,200,470,306,18
65,0.01,-0.93,-0.27,-2.93,6.04,-4.39,228,264,198,473,309,18
66,-0.0,-0.96,-0.35,1.53,-0.61,-4.39,214,268,200,458,306,18
67,0.09,-0.93,-0.3,4.21,-7.75,-11.11,218,266,198,462,310,18
68,0.15,-0.98,-0.3,2.99,-5.43,-15.99,223,265,200,456,307,18
69,0.15,-0.96,-0.31,-1.34,1.89,1.53,211,275,201,456,305,18
70,0.02,-0.96,-0.32,2.93,0.18,1.04,218,267,201,456,307,18
71,0.03,-0.96,-0.29,1.46,-1.04,-5.98,218,268,194,465,309,18
72,0.02,-0.95,-0.27,0.85,-1.95,-1.46,216,265,195,461,309,18
73,0.02,-0.96,-0.27,3.6,-5.07,-9.4,218,266,200,461,311,18
74,0.09,-0.94,-0.24,-1.4,-2.26,0.12,219,270,201,457,309,18
75,0.04,-0.96,-0.27,1.77,-2.14,-1.89,218,266,201,464,308,18
76,0.05,-0.95,-0.27,1.28,-1.77,-1.46,216,270,202,463,311,18
77,0.04,-0.96,-0.26,0.12,-2.56,-3.48,217,268,201,461,308,18
78,0.05,-0.95,-0.27,0.24,-4.21,-0.55,216,268,202,461,310,18
79,0.04,-0.95,-0.26,1.83,-2.62,-3.66,218,271,200,461,308,18
80,0.04,-0.96,-0.27,-0.49,-2.75,-3.72,216,264,199,461,306,18
81,0.05,-0.96,-0.26,1.77,-3.54,-2.26,217,270,202,461,311,18
82,0.05,-0.95,-0.27,-0.18,-2.81,-1.1,214,268,198,461,306,18
83,0.04,-0.95,-0.25,-0.98,-2.08,-2.93,213,264,199,456,307,18
84,0.04,-0.95,-0.26,1.16,-2.75,-1.1,218,270,203,465,310,18
85,0.04,-0.95,-0.26,0.49,-2.87,-2.62,219,269,199,461,308,18
86,0.04,-0.95,-0.27,-0.49,-3.36,-2.75,225,267,198,463,311,18
87,0.04,-0.96,-0.29,0.98,-1.83,-5.43,215,274,201,461,310,18
88,0.06,-0.95,-0.27,0.98,-2.32,-0.67,221,265,212,463,310,18
89,0.04,-0.95,-0.27,0.92,-3.17,-1.95,217,267,200,461,309,18
90,0.04,-0.95,-0.27,0.61,-2.69,-3.54,216,269,204,461,311,18
91,0.03,-0.96,-0.27,1.16,-3.17,-2.26,218,266,198,462,316,18
92,0.04,-0.96,-0.26,0.79,-2.75,-2.81,217,269,200,455,295,18
93,0.03,-0.95,-0.24,0.24,-1.04,0.67,217,267,200,462,309,18
94,0.05,-0.96,-0.27,0.61,-3.17,-5.49,213,267,201,461,307,18
95,0.05,-0.96,-0.26,-0.92,-2.81,-1.34,217,269,200,463,305,18
96,0.11,-0.94,-0.34,-5.37,-4.03,-19.23,219,269,201,460,308,18
97,0.15,-0.93,-0.28,-1.89,-4.76,-6.59,216,269,207,466,309,18
98,0.12,-0.94,-0.28,-3.11,2.32,-1.04,219,270,199,465,310,18
99,0.14,-0.9,-0.27,1.16,-5.86,1.89,219,268,204,459,306,18
100,0.13,-0.92,-0.28,3.11,0.73,8.91,216,270,201,462,310,18
101,0.01,-0.95,-0.27,0.67,-0.85,3.36,214,270,203,458,311,18
102,0.09,-0.96,-0.3,1.28,-2.5,-13.31,217,268,201,463,309,18
103,0.08,-0.95,-0.26,-3.66,1.53,8.48,217,268,202,460,306,18
104,0.03,-0.96,-0.27,2.38,-5.37,-13.43,217,269,201,461,311,18
105,0.05,-0.96,-0.26,-2.56,-3.23,0.12,213,269,203,466,309,18
106,0.07,-0.96,-0.23,2.62,-2.87,-6.23,217,268,201,465,310,18
107,-0.03,-0.95,-0.26,6.53,-47.85,0.12,218,268,204,461,309,18
108,0.05,-0.93,-0.28,3.3,2.69,7.87,215,273,201,460,311,18
109,0.07,-0.95,-0.3,1.22,-1.95,-5.43,219,272,200,456,311,18
110,0.13,-0.98,-0.39,-10.93,-3.6,-27.53,217,271,204,459,310,18
111,0.15,-0.95,-0.25,-3.6,-1.34,-1.34,219,265,199,464,307,18
112,0.12,-0.95,-0.25,4.27,-2.75,0.37,245,267,202,461,306,18
113,0.12,-0.94,-0.25,-0.55,-2.38,-0.67,217,272,201,462,299,18
114,0.08,-0.95,-0.27,0.92,-9.83,3.42,216,268,202,460,309,18
115,0.13,-0.94,-0.24,-1.04,2.44,-5.8,219,271,204,461,309,18
116,0.05,-0.94,-0.27,-1.95,2.62,6.77,219,267,202,460,309,18
117,0.03,-0.94,-0.27,-5.0,1.77,-1.77,216,276,203,462,308,18
118,-0.02,-0.94,-0.27,4.76,0.0,-3.3,219,268,200,461,312,18
119,0.03,-0.95,-0.29,0.79,-1.83,-0.55,217,266,208,465,309,18
120,0.02,-0.95,-0.27,-1.1,0.12,-3.85,218,269,203,456,307,18
121,0.03,-0.96,-0.3,1.34,-8.97,-4.03,218,270,202,461,309,18
122,0.09,-0.99,-0.36,-1.71,-4.94,-16.66,221,270,200,465,312,18
123,0.06,-0.94,-0.24,-4.27,-0.06,3.36,218,267,201,461,310,18
124,0.07,-0.95,-0.26,1.4,-0.67,-0.31,214,268,202,458,309,18
125,0.07,-0.87,-0.2,9.46,2.87,-0.18,216,268,203,464,311,18
126,0.11,-0.95,-0.29,0.61,-0.73,-2.14,218,268,201,461,308,18
127,0.04,-0.95,-0.29,1.22,1.59,9.03,217,269,197,461,307,18
128,0.08,-0.96,-0.25,-0.61,15.63,-12.76,221,267,205,456,307,18
129,-0.03,-0.96,-0.28,-1.83,-4.46,4.21,207,266,203,462,312,18
130,0.03,-0.96,-0.28,0.31,-3.91,-5.0,216,269,202,461,309,18
131,0.01,-0.96,-0.26,-1.89,-1.53,1.34,216,271,207,464,311,18
132,0.0,-0.98,-0.28,3.78,-2.5,-1.65,216,268,204,460,309,18
133,0.03,-0.94,-0.27,1.22,-3.54,-2.14,217,269,204,461,308,18
134,-0.0,-0.95,-0.3,-5.74,-0.12,2.62,219,270,206,460,307,18
135,-0.04,-0.94,-0.33,-0.31,-0.49,2.26,216,268,205,457,310,18
136,-0.06,-0.93,-0.33,1.53,-1.34,-1.65,213,267,205,462,308,18
137,-0.05,-0.93,-0.32,0.18,-2.56,-1.71,248,271,204,462,310,18
138,-0.07,-0.93,-0.32,0.18,-2.62,-2.38,218,272,204,459,309,18
139,-0.05,-0.93,-0.32,1.34,-3.42,-2.26,218,268,202,457,307,18
140,-0.06,-0.94,-0.32,2.87,-4.15,-4.09,225,268,203,465,311,18
141,-0.05,-0.95,-0.32,0.0,-3.42,-2.38,217,268,206,462,312,18
142,-0.02,-0.94,-0.31,1.46,-2.99,-5.86,218,270,205,458,308,18
143,-0.11,-0.95,-0.28,1.46,-4.76,-1.65,217,270,205,463,313,18
144,-0.0,-0.92,-0.36,-11.11,-21.85,-25.57,220,270,203,464,312,18
145,0.15,-0.89,-0.34,23.56,-9.89,20.94,214,269,202,457,312,18
146,-0.14,-0.85,-0.38,-0.43,-0.85,1.1,218,271,202,462,312,18
147,-0.03,-1.08,-0.37,10.99,-11.23,-30.21,215,266,202,465,307,18
148,0.1,-1.05,-0.43,-17.94,40.95,-35.46,217,269,204,460,302,18
149,0.19,-1.3,-0.73,-29.24,-50.29,10.93,220,268,205,462,305,18
150,0.01,-1.07,-0.25,-17.76,-28.38,8.48,217,265,204,463,308,18
151,-0.13,-0.94,-0.39,6.16,-9.77,-3.66,241,270,208,460,308,18
152,0.02,-0.99,-0.2,15.99,0.85,-7.75,218,272,203,465,309,18
153,0.12,-0.98,-0.3,-6.47,-4.03,16.48,217,267,206,460,309,18
154,-0.07,-0.95,-0.26,-7.14,9.89,-7.2,215,270,207,466,311,18
155,-0.07,-0.93,-0.29,12.39,-6.29,-3.54,218,266,206,467,310,18
156,-0.01,-0.96,-0.34,9.83,-20.63,-3.72,217,266,203,463,311,18
157,-0.05,-0.92,-0.26,13.55,-9.22,10.31,217,268,204,465,309,18
158,-0.0,-0.95,-0.24,7.51,-8.36,-13.0,219,271,207,466,309,18
159,-0.01,-0.95,-0.25,-1.04,-2.32,-0.37,218,268,205,458,309,18
160,0.01,-0.96,-0.27,-0.37,0.12,-5.43,220,270,205,462,306,18
161,0.04,-0.94,-0.29,-13.61,0.12,-4.33,218,266,205,473,306,18
162,-0.08,-0.99,-0.29,-3.48,-6.23,-0.12,219,269,205,467,308,18
163,0.11,-0.97,-0.22,4.27,0.18,-23.19,217,271,204,466,307,18
164,0.13,-0.95,-0.28,-4.88,-0.31,1.4,218,268,203,464,309,18
165,0.08,-0.97,-0.27,-2.56,-3.72,-0.92,219,269,219,464,312,18
166,0.03,-0.95,-0.25,-4.15,-2.08,-1.59,220,272,207,464,309,18
167,0.01,-0.91,-0.22,-5.31,-8.3,-10.25,218,271,206,468,313,18
168,0.13,-0.93,-0.33,-5.37,3.17,-1.59,217,270,208,459,308,18
169,0.04,-0.93,-0.28,2.93,-1.95,2.99,218,269,206,464,310,18
170,0.08,-0.93,-0.27,2.2,3.54,-2.14,226,271,220,465,312,18
171,0.03,-0.94,-0.28,-1.71,-0.18,2.2,218,269,203,466,311,18
172,0.04,-0.94,-0.32,1.95,-4.88,-3.97,217,267,205,465,311,18
173,0.01,-0.95,-0.3,2.56,-9.03,-3.42,217,270,206,464,311,18
174,0.08,-0.94,-0.29,3.78,-3.6,-2.69,219,270,205,465,310,18
175,0.03,-0.96,-0.3,-3.05,-0.85,-4.46,236,271,204,468,310,18
176,-0.01,-0.98,-0.3,-0.92,21.42,-32.65,219,272,205,465,311,18
177,0.01,-0.96,-0.29,4.88,-6.23,13.79,215,272,207,467,307,18
178,-0.02,-0.99,-0.4,0.55,-55.48,-7.08,217,269,207,475,310,18
179,0.06,-0.94,-0.24,6.41,-0.55,10.68,220,269,204,466,307,18
180,0.05,-0.96,-0.28,2.93,-3.97,-5.62,220,270,205,462,309,18
181,0.07,-0.95,-0.28,-0.43,1.28,1.46,218,276,205,468,310,18
182,0.01,-0.95,-0.27,-0.79,-2.38,-5.74,217,271,206,468,308,18
183,0.1,-0.95,-0.28,0.85,-2.62,-6.1,218,267,204,463,310,18
184,0.07,-0.95,-0.28,-1.71,-1.77,-0.31,223,269,208,467,309,18
185,0.06,-0.95,-0.29,-0.06,-3.17,-1.95,217,277,206,467,313,18
186,0.07,-0.95,-0.28,-0.12,-2.75,-2.81,217,270,209,466,303,18
187,0.06,-0.95,-0.28,0.79,-3.11,-2.69,216,269,206,462,310,18
188,0.07,-0.95,-0.28,0.31,-2.62,-2.81,219,269,206,463,313,18
189,0.06,-0.95,-0.27,1.34,-3.48,-2.93,218,271,206,477,312,18
190,0.07,-0.95,-0.26,2.69,-3.42,-1.59,223,269,206,464,310,18
191,0.06,-0.95,-0.26,1.04,-3.17,-2.26,217,268,206,461,310,18
192,0.06,-0.96,-0.27,-1.22,-2.56,-2.87,215,272,204,469,311,18
193,0.06,-0.96,-0.27,-0.31,-2.62,-2.08,219,272,207,464,310,18
194,0.06,-0.95,-0.26,0.61,-3.05,-1.77,220,272,206,464,308,18
195,0.07,-0.95,-0.27,1.1,-3.11,-2.44,217,267,203,467,308,18
196,0.06,-0.95,-0.26,-0.49,-3.11,-2.75,214,269,206,467,310,18
197,0.07,-0.96,-0.27,0.67,-3.36,-1.04,220,273,207,465,310,18
198,0.06,-0.96,-0.27,-0.37,-2.44,-3.72,218,272,210,467,310,18
199,0.06,-0.96,-0.27,0.43,-3.11,-2.62,218,272,209,466,309,18
200,0.06,-0.95,-0.27,0.37,-2.81,-2.62,246,270,206,460,312,18
201,0.06,-0.95,-0.28,-0.12,-2.75,-1.46,217,268,207,467,313,18
202,0.06,-0.94,-0.27,1.95,-3.23,-2.56,218,270,209,463,311,18
203,0.07,-0.95,-0.27,0.73,-2.14,-2.62,219,270,205,468,310,18
204,0.06,-0.95,-0.29,-3.85,-2.99,-3.36,217,272,206,463,311,18
205,0.06,-0.96,-0.29,0.31,-3.05,-2.26,218,269,208,463,309,18
206,0.06,-0.95,-0.28,1.77,-2.62,-2.44,219,270,205,458,311,18
207,0.06,-0.95,-0.28,0.98,-2.81,-2.62,218,270,205,464,311,18
208,0.06,-0.95,-0.29,0.31,-2.62,-1.83,216,270,204,463,310,18
209,0.05,-0.95,-0.28,-0.98,-2.87,-2.87,220,272,208,474,310,18
210,0.05,-0.95,-0.28,-0.37,-2.38,-2.62,217,271,205,465,310,18
211,0.05,-0.95,-0.29,-0.67,-2.62,-2.01,213,269,207,462,311,18
212,0.04,-0.95,-0.29,-0.18,-2.62,-1.95,217,272,206,468,312,18
213,0.04,-0.95,-0.29,1.34,-2.81,-1.4,217,270,206,466,310,18
214,0.04,-0.96,-0.28,0.06,-2.87,-1.59,218,270,207,464,311,18
215,0.04,-0.95,-0.29,0.24,-2.87,-1.89,218,272,207,467,310,18
216,0.04,-0.95,-0.3,-0.12,-2.75,-2.56,220,267,207,467,311,18
217,0.03,-0.95,-0.29,0.24,-2.75,-2.87,217,269,209,463,311,18
218,0.04,-0.95,-0.29,-0.43,-2.26,-2.08,219,272,210,459,312,18
219,0.03,-0.95,-0.29,0.18,-2.99,-2.5,219,269,207,464,307,18
220,0.03,-0.94,-0.3,-0.06,-2.56,-2.62,216,269,209,467,310,18
221,0.03,-0.94,-0.3,0.37,-2.32,-1.1,216,272,209,462,314,18
222,0.02,-0.95,-0.3,0.98,-3.3,-2.01,216,270,208,461,310,18
223,0.01,-0.95,-0.3,2.01,-3.3,-1.89,220,272,209,467,311,18
224,0.01,-0.95,-0.3,0.24,-2.5,-2.14,220,269,213,466,309,18
225,0.01,-0.95,-0.3,-0.49,-2.75,-2.26,218,270,210,463,306,18
226,0.01,-0.95,-0.3,0.85,-3.11,-2.62,217,271,208,460,310,18
227,0.01,-0.95,-0.3,-0.06,-2.75,-1.89,220,272,209,462,311,18
228,0.0,-0.94,-0.29,-0.37,-2.5,-1.95,224,269,204,463,311,18
229,0.0,-0.94,-0.31,-0.55,-2.69,-1.46,221,269,207,461,311,18
230,-0.01,-0.94,-0.31,-0.37,-2.2,-1.4,224,270,210,461,309,18
231,-0.0,-0.95,-0.3,0.12,-2.99,-1.83,220,272,209,467,311,18
232,-0.01,-0.94,-0.3,0.92,-3.11,-3.05,219,272,213,466,308,18
233,-0.01,-0.94,-0.3,0.85,-2.93,-2.56,221,270,206,458,313,18
234,-0.0,-0.94,-0.31,0.61,-2.93,-3.78,220,269,209,464,310,18
235,-0.01,-0.95,-0.31,-0.18,-2.93,-2.81,219,268,208,464,312,18
236,-0.0,-0.94,-0.31,0.85,-2.99,-2.32,219,269,206,464,310,18
237,-0.0,-0.94,-0.31,0.43,-3.3,-2.5,216,275,210,459,310,18
238,-0.01,-0.94,-0.31,0.18,-2.75,-2.56,218,270,207,466,311,18
239,-0.01,-0.95,-0.32,-0.37,-2.81,-3.23,216,270,207,466,310,18
240,-0.0,-0.95,-0.31,-0.18,-3.11,-1.53,220,269,208,462,310,18
241,0.01,-0.94,-0.31,0.85,-3.48,-2.14,219,269,210,459,311,18
242,-0.01,-0.94,-0.31,0.31,-2.62,-2.69,216,272,218,468,311,18
243,-0.01,-0.94,-0.31,0.31,-2.38,-3.6,218,271,204,466,309,18
244,0.0,-0.95,-0.31,0.43,-3.3,-2.38,234,272,209,467,310,18
245,-0.0,-0.95,-0.31,0.85,-3.11,-2.56,220,270,205,467,313,18
246,0.0,-0.94,-0.31,0.24,-2.93,-3.17,218,267,206,466,312,18
247,0.0,-0.95,-0.3,0.43,-2.93,-3.17,221,273,207,463,307,18
248,0.02,-0.94,-0.32,-0.18,-3.05,-2.5,217,270,205,463,312,18
249,0.0,-0.93,-0.31,1.4,-3.42,-2.62,218,271,209,466,299,18
250,0.0,-0.94,-0.31,1.53,-3.36,-3.78,220,270,207,472,313,18
251,0.02,-0.94,-0.31,0.12,-3.11,-1.95,218,269,210,466,310,18
252,0.0,-0.94,-0.32,1.16,-3.11,-1.65,221,273,207,463,309,18
253,0.03,-0.94,-0.31,2.93,-3.05,-4.21,220,269,208,464,312,18
254,0.03,-0.93,-0.3,-0.24,-3.66,-2.75,219,272,209,463,311,18
255,0.02,-0.95,-0.33,-0.79,-4.64,-5.55,216,271,209,463,311,18
256,0.03,-0.95,-0.33,0.98,-3.42,-2.08,219,271,205,463,312,18
257,0.03,-0.94,-0.31,0.79,-2.32,-2.62,220,270,208,465,310,18
258,0.02,-0.93,-0.3,1.28,-3.91,-1.77,218,273,210,463,311,18
259,0.04,-0.94,-0.32,-0.18,-3.05,-2.99,216,270,211,463,310,18
260,0.02,-0.94,-0.3,0.0,-3.05,-2.56,215,272,208,465,311,18
261,0.03,-0.94,-0.3,0.55,-2.93,-3.66,221,270,208,463,311,18
262,0.02,-0.94,-0.3,-0.43,-2.62,-2.2,218,271,208,463,311,18
263,0.03,-0.94,-0.31,1.34,-3.11,-2.26,221,270,208,462,312,18
264,0.03,-0.94,-0.3,0.0,-2.69,-2.93,220,267,211,464,312,18
265,0.01,-0.94,-0.32,0.0,-3.42,0.0,219,271,209,462,311,18
266,0.02,-0.94,-0.32,-0.31,-1.95,-2.81,216,270,205,465,309,18
267,0.03,-0.94,-0.32,0.79,-2.62,-1.95,217,269,209,464,309,18
268,0.02,-0.94,-0.31,1.04,-3.66,-1.83,248,273,205,458,309,18
269,-0.01,-0.95,-0.31,0.61,-3.66,-2.75,219,271,211,466,309,18
270,0.01,-0.94,-0.32,-0.24,-2.69,-2.62,218,275,213,465,310,18
271,-0.0,-0.95,-0.32,0.67,-2.93,-2.75,220,275,210,467,306,18
272,0.01,-0.94,-0.31,1.65,-2.99,-3.42,225,268,207,463,311,18
273,0.01,-0.95,-0.31,-0.31,-3.05,-2.93,220,269,209,467,310,18
274,0.01,-0.94,-0.31,0.92,-1.95,-2.69,221,269,208,463,303,18
275,0.03,-0.95,-0.31,-1.28,-4.33,-0.43,220,272,207,463,309,18
276,0.01,-0.94,-0.31,3.23,-2.44,-5.13,219,270,208,462,311,18
277,0.01,-0.95,-0.33,0.55,-2.75,-2.5,219,271,211,463,310,18
278,0.0,-0.94,-0.29,3.11,-3.48,-1.4,218,267,211,467,310,18
279,0.01,-0.94,-0.31,-2.87,-1.77,-1.89,216,271,208,461,310,18
280,0.01,-0.94,-0.32,0.79,-2.75,-2.75,218,269,211,462,311,18
281,0.02,-0.94,-0.31,0.85,-3.3,-4.21,219,271,209,463,315,18
282,0.01,-0.94,-0.29,0.73,-3.11,-2.32,215,271,208,464,309,18
283,0.0,-0.94,-0.3,0.49,-2.75,-2.01,218,270,206,463,309,18
284,0.01,-0.94,-0.33,-0.79,-2.32,-4.52,218,272,207,463,309,18
285,0.02,-0.94,-0.33,0.49,-3.11,-2.26,218,268,215,462,311,18
286,0.02,-0.94,-0.33,0.55,-3.23,-2.5,218,266,211,467,311,18
287,0.01,-0.94,-0.31,2.01,-3.3,-2.26,216,271,211,467,314,18
288,0.02,-0.94,-0.31,-0.12,-2.87,-1.4,217,270,208,466,309,18
289,0.02,-0.93,-0.32,0.24,-2.5,-2.5,219,271,210,458,310,18
290,-0.01,-0.96,-0.35,0.18,-2.81,0.85,220,270,211,459,308,18
291,0.01,-0.93,-0.31,-0.06,-2.93,-2.87,215,270,207,465,310,18
292,-0.0,-0.93,-0.32,0.67,-2.93,-2.87,217,271,208,465,309,18
293,-0.01,-0.93,-0.34,-2.38,-2.38,-1.16,221,270,208,467,312,18
294,-0.01,-0.95,-0.33,-0.67,-4.15,-1.71,216,270,209,463,307,18
295,-0.01,-0.94,-0.3,-0.12,-4.39,-1.34,217,270,212,462,312,18
296,-0.02,-0.93,-0.32,-1.04,-1.65,-4.33,220,269,211,463,310,18
297,0.04,-0.89,-0.27,8.06,5.8,-21.18,224,278,209,467,303,18
298,0.01,-0.93,-0.34,-0.98,-0.49,-0.18,224,270,208,464,319,18
299,-0.04,-0.95,-0.31,5.13,-4.27,-10.31,221,268,208,464,312,18
300,0.1,-0.92,-0.28,0.85,-4.82,-8.06,218,270,211,467,312,18
301,0.04,-0.93,-0.29,1.83,-2.38,5.74,218,270,208,465,309,18
302,0.05,-0.94,-0.32,0.37,-2.99,-6.96,220,271,213,467,309,18
303,0.08,-0.93,-0.32,5.98,-2.32,2.93,221,270,209,460,306,18
304,0.01,-0.95,-0.34,-1.59,-0.67,-1.1,218,271,209,467,308,18
305,0.0,-0.94,-0.34,-2.32,-2.26,-7.02,220,272,208,463,312,18
306,0.06,-0.94,-0.32,4.76,-5.86,-10.19,218,270,206,464,312,18
307,0.06,-0.94,-0.32,-0.37,-2.01,4.39,220,270,208,459,310,18
308,0.05,-0.95,-0.31,0.98,-4.03,-4.64,221,273,212,464,306,18
309,0.06,-0.94,-0.29,3.17,-4.21,-2.81,218,271,210,464,310,18
310,0.05,-0.95,-0.3,-0.85,-2.62,-1.71,218,273,207,472,309,18
311,0.06,-0.94,-0.29,1.59,-2.87,-2.26,218,273,209,465,308,18
312,0.04,-0.95,-0.3,0.61,-2.93,-2.44,219,272,212,461,309,18
313,0.05,-0.95,-0.3,-1.22,-2.14,-1.89,220,270,207,465,312,18
314,0.05,-0.94,-0.29,1.65,-3.17,-2.56,217,274,209,459,310,18
315,0.05,-0.95,-0.3,0.55,-3.11,-2.44,219,274,210,466,310,18
316,0.04,-0.94,-0.28,0.49,-3.11,-3.3,218,273,210,468,310,18
317,0.05,-0.95,-0.29,0.79,-3.11,-2.93,219,270,224,468,311,18
318,0.05,-0.95,-0.3,-0.24,-2.81,-2.75,226,271,209,465,309,18
319,0.05,-0.95,-0.3,0.43,-2.93,-1.95,219,272,211,463,310,18
320,0.05,-0.95,-0.3,0.61,-3.05,-2.5,218,270,212,464,311,18
321,0.04,-0.95,-0.3,1.04,-2.99,-2.32,218,272,209,463,313,18
322,0.04,-0.95,-0.31,0.98,-2.87,-2.99,218,271,216,461,308,18
323,0.06,-0.96,-0.34,-0.12,-7.69,-1.46,220,270,210,463,311,18
324,0.04,-0.94,-0.31,2.26,-3.23,-1.83,258,274,210,464,311,18
325,0.04,-0.95,-0.31,0.37,-2.62,-2.26,217,270,210,460,310,18
326,0.09,-0.94,-0.31,2.2,-3.23,-5.62,220,271,212,460,310,18
327,0.04,-0.94,-0.27,3.66,-3.78,0.98,218,273,211,459,310,18
328,0.04,-0.94,-0.3,-1.4,-2.2,-2.5,218,270,211,464,307,18
329,0.04,-0.94,-0.31,-0.67,-1.83,-2.44,221,271,215,458,309,18
330,0.04,-0.94,-0.3,0.24,-3.23,-3.17,218,270,212,462,308,18
331,0.04,-0.95,-0.31,-0.18,-2.5,-3.11,219,267,211,465,310,18
332,0.05,-0.94,-0.3,1.16,-3.36,-1.95,220,271,207,461,311,18
333,0.03,-0.95,-0.31,0.98,-2.93,-2.14,220,271,210,467,313,18
334,0.05,-0.94,-0.3,0.18,-3.42,-2.14,219,272,212,459,310,18
335,0.04,-0.94,-0.3,0.0,-2.62,-2.93,221,271,213,467,310,18
336,0.05,-0.95,-0.31,0.0,-2.2,-2.62,221,273,210,467,310,18
337,0.04,-0.94,-0.29,0.98,-3.17,-1.77,218,273,208,464,309,18
338,0.04,-0.94,-0.29,-2.01,-2.14,-2.44,219,271,209,462,310,18
339,0.04,-0.94,-0.3,0.67,-3.42,-3.05,223,272,226,466,309,18
340,0.04,-0.95,-0.31,15.14,-1.95,-2.62,220,271,210,468,308,18
341,0.03,-0.95,-0.34,-0.49,-2.87,-3.05,218,272,214,465,310,18
342,0.04,-0.95,-0.31,-0.67,-2.93,-2.56,218,274,208,462,311,18
343,0.04,-0.94,-0.31,0.73,-2.93,-3.05,216,269,211,463,310,18
344,0.04,-0.94,-0.31,0.43,-3.05,-2.38,217,270,209,468,310,18
345,0.04,-0.94,-0.31,0.79,-2.99,-2.01,219,272,210,466,309,18
346,0.04,-0.94,-0.31,0.73,-3.05,-2.5,214,270,212,458,307,18
347,0.03,-0.95,-0.31,0.37,-2.93,-3.36,222,274,211,464,308,18
348,0.05,-0.94,-0.31,-1.95,-3.72,-2.87,221,270,215,466,312,18
349,0.02,-0.94,-0.29,0.92,-4.27,-3.66,218,269,217,464,310,18
350,0.02,-0.94,-0.28,2.01,-0.49,-3.72,220,272,216,466,306,18
351,0.02,-0.94,-0.27,-0.31,-3.05,-4.64,218,271,211,463,312,18
352,0.03,-0.94,-0.28,1.89,-1.53,-4.15,221,273,212,459,310,18
353,-0.01,-0.94,-0.29,-2.62,-4.03,-5.19,218,272,210,467,306,18
354,0.04,-0.94,-0.3,-4.33,-3.42,-7.45,219,270,209,464,309,18
355,0.11,-0.93,-0.26,4.52,-7.93,-5.25,218,270,211,460,310,18
356,0.05,-0.79,-0.32,-9.77,-10.8,-23.86,218,273,212,465,310,18
357,0.11,-0.89,-0.36,16.11,-5.13,-7.81,218,271,213,464,308,18
358,0.16,-0.95,-0.25,-7.14,7.45,5.19,222,270,210,469,309,18
359,0.06,-0.92,-0.37,-3.54,-6.71,7.93,218,274,208,466,310,18
360,0.14,-0.9,-0.54,7.87,10.38,-2.93,218,269,213,467,310,18
361,0.05,-1.05,-0.31,8.61,-2.44,-4.58,221,270,207,469,309,18
362,0.01,-0.91,-0.27,-14.22,-10.38,13.24,219,273,210,461,311,18
363,0.0,-0.91,-0.33,5.19,10.8,-9.16,219,272,209,466,311,18
364,0.06,-0.91,-0.3,8.67,2.62,-7.75,219,270,210,460,309,18
365,-0.01,-0.88,-0.29,0.18,-5.07,18.19,216,270,212,464,311,18
366,-0.01,-0.91,-0.36,4.94,-10.5,-5.37,217,274,217,466,311,18
367,-0.02,-0.89,-0.32,-8.36,-6.71,4.76,216,274,210,464,310,18
368,0.03,-0.91,-0.29,-3.3,-0.85,-4.15,219,271,209,461,308,18
369,0.11,-0.91,-0.33,5.74,4.27,-20.02,219,274,210,459,314,18
370,-0.0,-0.93,-0.37,-6.65,-7.32,3.66,218,273,213,465,310,18
371,0.13,-0.91,-0.36,-2.56,-1.59,-11.23,220,273,209,466,311,18
372,0.05,-0.91,-0.37,-15.32,-4.03,0.85,218,272,211,464,309,18
373,0.06,-0.91,-0.37,-2.81,-1.77,-1.89,218,274,213,464,308,18
374,0.01,-0.92,-0.41,-7.14,-1.34,-6.47,220,272,210,460,311,18
375,0.09,-0.91,-0.38,1.77,-3.42,-0.98,220,270,213,469,308,18
376,0.06,-0.92,-0.42,-6.29,1.53,3.85,218,273,214,460,309,18
377,-0.04,-0.93,-0.45,-4.82,-1.16,-2.75,218,272,211,465,313,18
378,0.03,-0.9,-0.48,-0.79,-21.18,-13.55,220,272,211,469,311,18
379,0.25,-0.89,-0.32,21.91,6.35,-8.54,217,272,211,482,309,18
380,-0.1,-0.97,-0.38,14.47,-27.77,-11.05,212,274,209,468,311,18
381,0.21,-0.97,-0.35,-7.75,5.0,11.47,221,273,208,462,310,18
382,-0.08,-0.98,-0.31,6.59,-6.16,-18.98,221,269,209,469,313,18
383,0.15,-0.94,-0.31,-6.29,-4.27,10.86,220,271,209,467,312,18
384,0.08,-0.95,-0.31,-0.79,-3.97,-11.05,220,273,210,463,307,18
385,0.11,-0.94,-0.27,5.49,-10.19,-7.02,221,272,209,464,309,18
386,0.15,-0.96,-0.3,-0.67,-1.1,-1.53,222,271,213,467,309,18
387,0.06,-0.96,-0.35,1.1,4.76,-15.44,216,270,210,461,309,18
388,0.21,-0.92,-0.24,-3.97,-5.0,11.78,218,266,211,468,309,18
389,0.08,-0.96,-0.31,-1.28,-5.98,-8.42,219,271,210,464,308,18
390,0.07,-0.94,-0.26,-7.2,-6.9,5.55,218,271,214,459,311,18
391,0.17,-0.92,-0.23,8.79,-1.59,5.98,219,270,211,465,308,18
392,0.15,-0.95,-0.27,1.77,5.31,-12.51,222,270,215,464,312,18
393,0.19,-0.9,-0.19,-4.09,-4.33,15.14,221,273,210,469,311,18
394,-0.08,-0.94,-0.37,-7.63,10.86,2.69,220,270,212,469,313,18
395,0.01,-0.96,-0.44,-0.73,-9.28,-14.16,218,270,214,464,308,18
396,0.04,-0.93,-0.37,-2.81,-4.21,-3.72,222,273,213,466,313,18
397,0.04,-0.93,-0.35,3.85,-3.54,-6.41,254,274,212,468,309,18
398,0.04,-0.95,-0.4,2.75,-10.68,10.86,227,275,208,465,310,18
399,-0.07,-0.96,-0.46,-2.69,12.08,-34.73,220,273,214,468,310,18
400,-0.06,-0.94,-0.37,4.76,-5.55,-10.19,221,274,213,468,308,18
401,0.03,-0.93,-0.31,6.77,0.37,-7.63,217,271,213,465,310,18
402,0.02,-0.93,-0.29,-0.06,-1.04,-10.19,218,274,212,465,310,18
403,0.04,-0.94,-0.31,-0.49,-1.46,4.7,220,270,211,466,307,18
404,0.0,-0.95,-0.31,-0.73,0.37,-8.67,220,271,212,465,310,18
405,0.06,-0.94,-0.3,1.04,-3.6,-6.16,216,274,209,467,309,18
406,0.07,-0.94,-0.3,0.31,-2.01,0.67,216,274,212,465,313,18
407,0.05,-0.96,-0.31,2.01,1.28,-2.56,218,273,212,467,312,18
408,0.05,-0.95,-0.3,2.99,3.11,-1.28,215,270,213,463,310,18
409,0.06,-0.94,-0.31,1.34,-0.73,-8.73,217,273,214,466,308,18
410,0.11,-0.93,-0.26,1.53,0.0,-5.92,222,274,213,465,311,18
411,0.11,-0.94,-0.28,0.61,-3.54,0.31,220,271,214,469,307,18
412,0.11,-0.93,-0.28,-2.32,-4.09,-4.33,219,272,219,464,310,18
413,0.08,-0.94,-0.27,-2.5,-4.82,4.27,220,277,211,465,311,18
414,0.06,-0.93,-0.31,5.07,-4.52,-4.46,222,273,211,465,309,18
415,0.07,-0.94,-0.31,-1.59,-2.14,-0.12,219,271,210,464,308,18
416,0.06,-0.94,-0.31,0.31,-3.3,-2.26,232,270,210,469,312,18
417,0.02,-0.94,-0.32,0.24,-1.83,0.24,219,272,208,462,317,18
418,0.04,-0.94,-0.32,0.31,-3.78,-2.81,221,272,210,469,311,18
419,0.07,-0.94,-0.31,0.67,5.68,-5.55,221,271,214,465,309,18
420,0.02,-0.96,-0.31,1.4,-4.09,-3.17,219,273,211,469,311,18
421,0.07,-0.94,-0.27,-0.37,-4.46,0.37,220,273,199,463,311,18
422,-0.18,-0.97,-0.32,-0.31,-5.25,3.36,218,269,210,460,313,18
423,0.15,-0.92,-0.25,8.36,0.06,-12.63,219,273,213,468,311,18
424,-0.0,-0.95,-0.28,-10.5,0.55,-14.22,220,271,212,465,306,18
425,0.18,-0.88,-0.28,-0.24,-3.91,-11.41,221,273,214,467,310,18
426,0.12,-0.94,-0.38,-9.95,5.43,0.43,218,269,214,461,312,18
427,0.1,-0.92,-0.28,10.13,-6.41,7.81,223,273,214,465,310,18
428,0.02,-0.95,-0.28,0.18,-0.55,6.84,223,274,217,469,306,18
429,0.05,-0.96,-0.36,-0.61,-6.47,-10.74,219,274,212,462,310,18
430,0.12,-0.96,-0.37,-0.49,-3.97,-8.12,221,271,211,464,312,18
431,0.05,-0.94,-0.28,-2.26,-3.66,4.58,217,274,211,468,313,18
432,0.07,-0.98,-0.32,16.6,-19.35,-7.93,218,272,212,465,310,18
433,0.01,-0.98,-0.37,-20.2,-0.12,5.31,223,272,217,467,319,18
434,0.17,-0.91,-0.27,-13.79,-11.23,-1.95,217,271,212,461,313,18
435,0.14,-0.94,-0.31,4.58,-18.43,6.9,219,274,214,464,312,18
436,0.04,-0.98,-0.3,-15.99,8.18,-3.54,220,270,212,463,310,18
437,0.12,-0.94,-0.18,6.29,8.3,-0.37,219,273,211,459,310,18
438,0.12,-0.96,-0.27,0.0,-9.46,4.82,221,268,212,461,312,18
439,-0.02,-0.96,-0.28,1.46,-4.52,-5.68,219,270,214,462,312,18
440,0.1,-0.96,-0.29,-0.85,-6.96,3.6,220,272,214,460,309,18
441,0.07,-0.96,-0.26,-0.24,0.06,-3.36,219,273,213,471,314,18
442,0.05,-0.96,-0.26,0.37,-3.72,-2.93,220,270,210,465,309,18
443,0.04,-0.96,-0.26,0.73,-1.89,-2.99,223,272,213,464,309,18
444,0.05,-0.96,-0.27,0.73,-3.36,-1.22,223,274,212,462,311,18
445,0.03,-0.97,-0.26,0.49,-0.55,0.31,220,273,213,468,311,18
446,0.03,-0.96,-0.25,-1.46,-2.62,-1.46,218,267,213,468,309,18
447,0.05,-0.95,-0.23,1.46,-3.11,-2.62,220,271,212,468,310,18
448,0.04,-0.97,-0.25,0.18,-3.23,-3.11,225,272,214,465,303,18
449,0.04,-0.96,-0.25,-0.85,-2.75,-1.59,217,274,224,465,312,18
450,0.03,-0.96,-0.25,-0.73,-2.81,-2.56,221,272,213,464,311,18
451,0.04,-0.96,-0.26,0.85,-2.75,-2.44,219,271,214,462,310,18
452,0.04,-0.95,-0.25,-0.49,-2.01,-1.83,219,271,213,478,306,18
453,0.01,-0.96,-0.26,0.43,-4.09,-2.75,219,274,212,465,313,18
454,0.03,-0.96,-0.25,0.18,-2.69,-2.38,222,274,213,462,310,18
455,0.02,-0.96,-0.26,1.04,-2.2,-2.99,221,271,211,465,308,18
456,0.02,-0.95,-0.25,1.16,-1.77,-3.17,217,271,213,468,309,18
457,0.0,-0.92,-0.21,0.67,-10.74,-4.7,220,268,215,466,309,18
458,0.02,-0.96,-0.23,0.55,-3.05,1.4,220,273,213,467,311,18
459,0.04,-0.97,-0.24,1.65,-4.09,-5.43,219,271,214,460,312,18
460,-0.0,-0.96,-0.22,3.97,-3.54,-2.08,221,272,212,460,314,18
461,0.04,-0.95,-0.23,1.1,-3.97,-8.54,218,270,212,463,309,18
462,0.03,-0.95,-0.25,-2.62,2.81,-1.77,219,269,210,464,308,18
463,0.08,-0.97,-0.26,-1.4,-0.61,-8.06,220,273,211,465,308,18
464,0.04,-0.96,-0.23,3.54,-4.88,-0.67,220,272,213,474,313,18
465,0.06,-0.96,-0.23,0.73,-4.88,0.18,221,273,212,460,311,18
466,0.09,-0.95,-0.31,5.37,-2.26,-11.47,222,270,211,461,310,18
467,0.04,-0.96,-0.18,4.76,-2.62,-0.31,221,273,214,470,311,18
468,0.02,-0.97,-0.17,3.17,-0.79,-2.93,217,272,211,467,309,18
469,0.07,-0.98,-0.19,1.83,-2.38,-1.46,222,271,217,466,310,18
470,-0.01,-0.98,-0.19,-6.41,-0.67,-1.1,219,271,211,465,312,18
471,0.05,-0.97,-0.22,2.75,-3.48,-4.33,221,270,213,464,312,18
472,-0.03,-0.98,-0.2,8.97,-10.38,-5.68,239,273,212,464,309,18
473,0.12,-0.94,-0.14,-9.16,17.7,-18.37,219,274,211,466,314,18
474,-0.08,-0.96,-0.23,-0.24,5.92,26.67,218,272,213,465,309,18
475,-0.14,-0.96,-0.25,-4.15,5.43,-7.02,219,270,212,470,316,18
476,-0.08,-0.96,-0.27,-2.69,7.14,-10.38,221,271,214,466,309,18
477,-0.12,-0.96,-0.24,2.01,-2.75,-2.32,219,274,214,461,309,18
478,0.05,-0.96,-0.21,6.84,-11.47,-20.14,220,272,217,467,305,18
479,0.03,-0.98,-0.24,-1.89,-2.62,2.32,221,274,212,464,311,18
480,0.05,-0.96,-0.21,1.16,-3.97,-6.1,221,274,211,461,310,18
481,0.02,-0.97,-0.22,0.92,-2.32,0.73,221,273,218,470,310,18
482,0.02,-0.97,-0.21,-0.31,-3.54,-0.67,218,273,223,465,308,18
483,0.01,-0.97,-0.22,-0.43,-3.23,-4.03,220,272,213,469,312,18
484,0.0,-0.97,-0.21,1.46,-2.99,-1.89,221,271,212,465,311,18
485,0.02,-0.97,-0.2,1.28,-3.05,-2.01,219,275,218,465,307,18
486,0.0,-0.97,-0.2,0.37,-2.62,-0.92,218,273,212,465,310,18
487,0.01,-0.97,-0.21,-1.28,-3.6,-2.56,221,275,212,468,308,18
488,0.01,-0.97,-0.22,-0.06,-3.17,-2.01,220,273,213,465,311,18
489,0.01,-0.97,-0.22,0.79,-3.17,-2.69,221,270,214,468,306,18
490,0.01,-0.97,-0.21,0.92,-2.81,-2.69,219,271,213,467,312,18
491,0.0,-0.98,-0.23,-1.1,-3.11,-3.97,220,272,214,468,310,18
492,0.01,-0.95,-0.19,-0.79,-3.3,-0.67,219,274,220,469,309,18
493,-0.11,-0.95,-0.28,4.39,-5.19,15.2,219,271,213,464,309,18
494,0.05,-0.95,-0.29,5.8,-11.6,-10.62,219,271,213,470,311,18
495,-0.03,-0.94,-0.27,-4.64,2.44,6.77,213,274,216,469,309,18
496,-0.07,-0.96,-0.26,2.44,-2.93,-8.48,221,275,214,479,310,18
497,0.01,-1.01,-0.27,-5.07,-20.2,-3.78,221,270,213,467,307,18
498,-0.01,-0.92,-0.24,8.91,4.03,-1.95,220,269,214,466,310,18
499,-0.03,-0.97,-0.24,-2.2,-3.85,-5.25,219,272,210,465,308,18
500,0.01,-0.95,-0.19,-2.44,0.98,0.79,219,273,211,466,310,18
501,-0.0,-0.97,-0.22,0.67,-2.81,-5.92,218,273,215,469,306,18
502,0.03,-0.96,-0.24,-0.31,-3.66,-3.3,221,274,215,463,309,18
503,-0.01,-0.96,-0.24,1.83,-4.33,-4.21,219,272,213,469,311,18
504,0.11,-0.99,-0.02,5.25,-1.77,-2.56,211,239,204,438,302,18
505,0.05,-1.0,-0.02,-4.64,2.08,-5.0,207,236,206,450,299,18
506,0.11,-1.0,-0.04,-1.77,-2.44,-5.43,216,236,201,443,307,18
507,0.08,-0.99,0.01,-6.1,5.07,-9.16,214,237,206,444,306,18
508,0.16,-1.09,0.03,1.83,9.22,-3.72,217,241,205,436,304,18
509,0.13,-0.96,-0.01,4.88,1.04,-11.41,215,242,201,442,301,18
510,0.11,-0.99,0.02,-1.28,-6.71,2.14,219,235,203,450,304,18
511,0.17,-0.99,-0.01,0.92,-5.19,-4.64,219,240,200,442,302,18
512,0.15,-0.98,-0.0,-2.44,-2.5,-1.77,217,242,195,444,302,18
513,0.16,-0.98,0.02,4.76,-5.86,-2.56,221,239,199,443,305,18
514,0.17,-0.99,0.01,0.12,-3.48,-4.58,217,239,206,443,306,18
515,0.16,-0.98,0.03,1.53,-4.64,0.43,222,239,201,444,303,18
516,0.18,-0.99,0.02,4.76,0.85,0.0,221,240,205,445,303,18
517,0.16,-0.99,0.07,-2.5,-10.8,-4.58,218,240,202,442,305,18
518,0.15,-0.98,0.06,6.77,-1.59,-4.82,221,235,201,442,305,18
519,0.12,-0.98,0.08,1.28,0.06,7.2,216,239,203,449,303,18
520,0.12,-0.99,0.08,1.89,-4.21,-1.89,219,233,202,442,304,18
521,0.11,-1.0,0.08,2.5,-10.99,-2.62,237,239,201,443,305,18
522,0.13,-0.98,0.09,2.01,-4.46,-5.07,219,239,201,444,304,18
523,0.13,-0.99,0.09,0.92,0.12,-4.58,222,237,206,445,305,18
524,0.13,-0.99,0.1,1.16,-4.64,0.31,220,231,209,446,299,18
525,0.12,-0.98,0.1,2.87,-5.43,-4.21,215,233,200,438,304,18
526,0.16,-1.0,0.09,-0.24,-2.62,-2.62,229,240,191,445,303,18
527,0.14,-1.0,0.07,-1.34,-6.16,-3.72,219,242,204,456,302,18
528,0.14,-0.99,0.08,-1.22,-0.12,-4.27,221,242,210,444,306,18
529,0.11,-0.99,0.09,-0.43,-2.44,-3.85,219,236,204,441,305,18
530,0.1,-0.98,0.1,1.04,-3.48,0.79,222,235,207,441,305,18
531,0.11,-0.99,0.1,1.04,-4.94,-3.48,224,237,202,442,305,18
532,0.13,-0.98,0.07,-3.78,-3.36,-5.43,220,236,207,440,306,18
533,0.09,-0.98,0.09,-1.22,-2.38,-2.44,233,239,204,448,306,18
534,0.13,-1.0,0.07,-2.26,0.67,-5.49,222,240,203,446,302,18
535,0.15,-1.0,0.09,0.85,-6.04,-2.62,221,244,203,450,301,18
536,0.09,-0.99,0.07,-0.31,-4.7,-0.06,243,240,200,447,308,18
537,0.14,-0.98,0.05,0.73,-0.31,-4.33,224,236,201,446,307,18
538,0.09,-0.99,0.09,-3.48,-1.53,-4.64,222,241,208,447,308,18
539,0.11,-0.99,0.07,-2.62,-3.11,-3.05,222,236,205,446,307,18
540,0.12,-0.99,0.07,0.37,-2.69,-3.54,221,241,202,441,305,18
541,0.12,-0.99,0.06,0.43,-3.3,-3.05,221,234,206,447,305,18
542,0.13,-0.98,0.07,1.04,-2.5,-2.01,223,236,208,445,302,18
543,0.12,-0.97,0.07,1.77,-3.42,-2.26,219,236,206,451,306,18
544,0.11,-0.99,0.07,-0.61,-1.89,-2.56,225,242,213,447,306,18
545,0.12,-1.0,0.06,-0.12,-1.95,-1.95,223,241,205,446,305,18
546,0.11,-0.99,0.07,0.92,-3.3,-1.89,227,241,207,449,304,18
547,0.11,-0.98,0.08,1.04,-3.3,-2.08,226,238,208,450,307,18
548,0.1,-0.99,0.07,1.1,-3.72,-2.56,220,240,208,441,307,18
549,0.1,-0.99,0.07,0.18,-2.93,-2.56,225,232,208,452,307,18
550,0.1,-0.99,0.08,0.85,-2.01,-2.38,227,239,200,447,310,18
551,0.1,-0.99,0.08,-0.43,-2.99,-2.99,223,239,204,453,305,18
552,0.11,-1.0,0.07,1.16,-3.05,-2.87,229,243,203,444,309,18
553,0.1,-1.0,0.08,2.2,-3.05,-3.05,226,236,208,449,306,18
554,0.11,-0.99,0.08,0.49,-3.66,-2.75,224,251,208,449,309,18
555,0.11,-0.99,0.09,1.4,-2.81,-2.75,225,234,205,445,303,18
556,0.1,-0.99,0.08,1.83,-3.78,-2.32,225,244,212,446,308,18
557,0.11,-0.99,0.1,0.43,-2.38,-3.23,222,236,204,449,308,18
558,0.12,-0.99,0.09,0.24,-3.05,-2.87,224,243,202,443,310,18
559,0.12,-0.98,0.1,0.49,-3.97,-3.66,229,240,206,445,308,18
560,0.12,-0.99,0.1,0.37,-2.26,-3.11,227,231,210,447,310,18
561,0.12,-0.98,0.1,1.1,-2.5,-2.08,221,243,204,449,300,18
562,0.13,-0.99,0.1,1.16,-2.87,-2.99,229,239,206,448,309,18
563,0.13,-0.99,0.1,0.98,-2.75,-3.05,223,238,198,443,303,18
564,0.12,-0.98,0.1,0.12,-3.11,-1.65,224,241,205,445,307,18
565,0.12,-0.99,0.11,1.28,-2.2,-2.99,227,240,208,445,308,18
566,0.13,-0.99,0.11,1.1,-4.21,-2.56,223,242,208,447,305,18
567,0.11,-0.97,0.12,0.37,-3.54,-2.81,224,239,205,448,308,18
568,0.12,-0.98,0.09,-1.65,-3.17,-4.03,221,239,206,449,307,18
569,0.16,-0.99,0.11,0.0,-1.83,-2.01,229,253,207,454,306,18
570,0.11,-0.99,0.1,1.22,-3.42,-4.15,229,240,211,452,308,18
571,0.14,-1.0,0.11,-2.56,-3.42,-2.69,226,241,209,446,302,18
572,0.13,-0.98,0.11,0.43,-2.32,-0.79,228,242,210,450,311,18
573,0.14,-0.96,0.1,0.92,-4.82,-2.69,226,243,209,450,309,18
574,0.1,-0.99,0.08,-0.49,-2.56,-0.61,230,244,208,443,310,18
575,0.12,-0.98,0.09,-0.98,-2.38,-4.76,235,246,206,450,309,18
576,0.15,-0.98,0.1,-0.67,-1.89,-4.58,229,243,209,448,305,18
577,0.08,-0.99,0.07,-2.26,-9.16,-4.58,230,240,206,448,307,18
578,0.24,-0.99,0.06,-11.96,0.79,-9.16,231,245,211,445,309,18
579,0.21,-1.01,0.01,3.17,-2.62,-1.95,229,246,195,443,306,18
580,0.22,-0.97,0.06,1.34,-2.2,-6.35,229,243,207,457,308,18
581,0.21,-0.98,0.06,5.8,-6.23,1.59,226,240,209,445,310,18
582,0.2,-0.97,0.1,5.49,-6.65,-8.12,229,241,209,450,305,18
583,0.26,-0.95,0.14,3.36,-1.16,-6.1,227,238,209,446,305,18
584,0.39,-0.94,0.07,-5.74,0.12,-1.04,229,240,210,442,304,18
585,0.25,-0.95,0.07,2.5,-5.25,12.27,256,229,206,452,307,18
586,0.22,-0.95,0.09,-13.24,6.71,-9.89,223,243,203,450,305,18
587,0.24,-0.96,0.03,2.38,-2.93,4.09,225,246,205,452,309,18
588,0.28,-0.97,-0.01,-14.71,30.94,3.78,227,241,206,445,307,18
589,0.24,-0.98,-0.03,19.04,-13.31,4.33,230,243,208,447,307,18
590,0.23,-0.98,0.03,3.48,-3.11,-5.98,227,237,207,452,311,18
591,0.17,-0.98,0.03,4.88,-6.65,0.61,226,242,206,452,309,18
592,0.21,-1.03,0.06,-1.22,-5.07,-0.92,227,246,207,449,304,18
593,0.18,-0.96,0.06,0.85,-3.3,-2.44,224,241,210,444,306,18
594,0.2,-0.98,0.05,3.54,-4.7,-3.23,230,243,203,450,312,18
595,0.23,-0.99,0.06,1.95,-3.48,-2.44,231,243,205,444,310,18
596,0.22,-0.98,0.05,1.16,-3.36,-1.77,266,245,201,449,308,18
597,0.21,-0.97,0.06,0.49,-2.08,-1.34,230,239,206,452,310,18
598,0.2,-0.97,0.06,-1.1,-4.15,-2.56,221,242,210,446,311,18
599,0.21,-0.97,0.06,-0.79,-2.62,-4.15,229,243,209,448,309,18
600,0.22,-0.97,0.05,-2.32,-2.14,-3.48,224,239,210,446,309,18
601,0.2,-0.98,0.03,1.28,-1.65,-0.06,231,245,211,451,309,18
602,0.19,-0.96,0.02,-1.71,-1.95,-0.85,228,236,210,446,311,18
603,0.2,-0.98,0.03,2.62,-2.01,-3.6,229,242,211,443,305,18
604,0.17,-0.98,0.04,-1.46,-2.5,-1.89,229,239,210,445,310,18
605,0.19,-0.99,0.04,0.0,-1.4,-0.24,230,243,213,449,311,18
606,0.14,-0.99,0.03,-0.43,-3.05,-0.61,229,243,207,452,311,18
607,0.15,-0.98,0.05,1.4,-3.11,-3.85,229,239,206,443,307,18
608,0.15,-0.99,0.04,-0.55,-3.23,-1.89,225,242,204,452,313,18
609,0.12,-0.97,0.04,0.61,-3.11,-0.85,229,239,208,450,310,18
610,0.15,-0.99,0.05,1.95,-3.11,-1.22,234,242,223,447,306,18
611,0.13,-0.97,0.04,1.1,-5.49,-2.44,232,239,207,454,311,18
612,0.14,-0.98,0.05,1.04,-2.01,-2.75,231,241,212,453,304,18
613,0.15,-1.0,0.06,0.18,-3.17,-4.03,230,244,209,452,308,18
614,0.14,-0.99,0.04,0.49,-5.37,1.04,234,243,213,448,308,18
615,0.13,-0.99,0.03,-0.49,-5.07,-1.28,235,244,209,453,307,18
616,0.12,-0.98,0.05,0.37,-4.09,-8.0,229,244,209,449,308,18
617,0.16,-0.98,0.07,2.38,-3.48,-4.39,226,237,204,450,305,18
618,0.17,-0.97,0.07,4.39,-5.37,-4.58,230,241,210,446,308,18
619,0.19,-0.98,0.08,1.59,-1.59,-1.83,232,244,212,453,305,18
620,0.18,-0.97,0.08,-0.37,-1.65,-4.21,230,241,203,448,308,18
621,0.19,-0.98,0.08,0.43,-1.71,-5.07,257,242,200,454,310,18
622,0.21,-0.98,0.09,1.53,-3.11,-5.25,234,242,207,448,308,18
623,0.21,-0.97,0.09,0.37,-2.69,-4.58,232,246,208,453,303,18
624,0.21,-0.97,0.11,0.98,-3.6,-4.64,236,243,212,449,309,18
625,0.24,-0.97,0.11,1.89,-3.11,-3.85,232,243,212,452,313,18
626,0.23,-0.96,0.1,0.06,-4.15,-2.69,235,241,211,445,309,18
627,0.25,-0.96,0.09,2.26,-4.88,-2.75,233,244,211,451,311,18
628,0.27,-0.97,0.09,-0.49,-2.99,-3.78,232,245,211,450,311,18
629,0.28,-0.99,0.1,1.65,-3.54,-6.04,236,243,211,450,309,18
630,0.28,-0.96,0.12,0.31,-4.64,-1.16,233,243,212,452,310,18
631,0.27,-0.93,0.11,0.92,-2.26,-1.34,239,245,209,450,310,18
632,0.27,-0.95,0.1,-1.16,-2.81,-1.4,260,247,208,449,310,18
633,0.28,-0.97,0.11,2.87,-4.33,-2.81,238,247,213,448,311,18
634,0.25,-0.99,0.13,3.48,-6.9,-4.33,239,244,210,447,310,18
635,0.28,-0.93,0.13,-2.81,-4.88,-1.89,239,243,208,449,312,18
636,0.29,-0.94,0.08,-0.18,-2.81,0.24,243,245,211,452,312,18
637,0.23,-0.97,0.08,-2.32,-4.21,2.69,240,243,214,448,307,18
638,0.2,-0.99,0.07,1.95,-10.19,-0.67,237,248,210,444,307,18
639,0.2,-0.99,0.08,-0.55,-9.89,1.46,239,240,203,453,314,18
640,0.18,-0.98,0.04,-2.08,-10.19,4.33,238,245,208,450,309,18
641,0.13,-0.99,0.04,-0.92,-2.38,-0.43,234,245,215,446,310,18
642,0.14,-0.99,0.04,0.67,-2.93,-2.87,235,243,208,449,315,18
643,0.14,-0.99,0.05,0.67,-2.87,-1.89,237,255,212,447,309,18
644,0.14,-0.99,0.04,-0.18,-3.3,-2.5,236,246,213,456,309,18
645,0.14,-0.99,0.03,-1.34,-1.46,-3.36,237,246,204,448,310,18
646,0.14,-0.97,0.05,-5.62,0.12,-6.23,234,245,212,448,310,18
647,0.16,-0.99,0.0,-1.46,-1.28,-8.61,241,245,210,446,310,18
648,0.22,-0.97,0.02,4.46,-4.03,-5.92,237,240,211,450,312,18
649,0.25,-0.97,0.03,5.55,-3.97,4.15,244,243,212,457,313,18
650,0.15,-0.98,0.01,7.87,-7.81,3.85,240,248,209,453,308,18
651,0.11,-0.87,0.0,4.33,-3.42,2.01,241,246,209,450,315,18
652,0.21,-0.99,0.07,5.31,-2.56,-4.39,239,240,208,452,310,18
653,0.17,-0.98,0.08,-7.26,5.31,-3.91,237,243,201,445,312,18
654,0.12,-0.98,0.08,-1.28,2.69,0.24,241,244,215,449,311,18
655,0.16,-0.98,0.08,3.23,-1.71,-4.7,240,244,214,452,313,18
656,0.14,-0.97,0.09,-0.24,-0.12,-1.28,240,247,213,452,310,18
657,0.17,-0.99,0.05,3.66,-2.5,1.59,243,243,203,446,311,18
658,0.14,-1.0,0.06,1.83,-4.39,-2.26,237,241,210,449,311,18
659,0.16,-0.99,0.08,-2.93,-2.14,-6.59,241,248,211,446,309,18
660,0.16,-1.0,0.07,2.81,-0.37,-0.37,238,247,213,453,315,18
661,0.17,-0.98,0.09,1.04,-5.55,-5.25,239,239,201,448,314,18
662,0.17,-0.98,0.08,1.22,-3.48,0.0,235,256,209,453,308,18
663,0.17,-0.98,0.08,1.46,-3.66,-2.56,239,241,214,450,312,18
664,0.15,-0.99,0.08,0.79,-2.87,-1.16,234,245,209,450,313,18
665,0.15,-0.98,0.09,1.53,-2.62,-2.75,237,245,215,451,313,18
666,0.15,-0.98,0.09,0.73,-3.78,-3.36,238,252,213,450,311,18
667,0.16,-1.0,0.11,0.49,-2.62,-2.08,241,245,207,453,307,18
668,0.15,-0.98,0.1,-0.12,-2.81,-2.93,241,244,211,461,309,18
669,0.16,-0.98,0.09,-0.12,-1.89,-2.38,238,239,214,453,311,18
670,0.15,-0.98,0.09,1.46,-3.66,-3.05,238,246,212,450,309,18
671,0.16,-0.99,0.1,0.31,-1.34,-2.32,238,245,211,449,308,18
672,0.16,-0.98,0.1,1.28,-2.69,-3.17,240,242,210,452,312,18
673,0.17,-0.98,0.1,0.73,-3.36,-3.85,237,246,209,450,311,18
674,0.16,-0.98,0.11,-0.98,-3.05,-2.32,244,248,213,444,312,18
675,0.16,-1.06,0.19,-5.19,-4.09,-3.17,242,246,210,452,309,18
676,0.16,-0.99,0.11,0.18,-1.83,-2.01,235,239,211,449,313,18
677,0.16,-0.99,0.11,0.79,-3.78,-2.99,242,243,207,449,311,18
678,0.16,-0.98,0.12,2.44,-1.77,-0.85,244,252,213,450,311,18
679,0.15,-0.98,0.11,1.1,-2.69,-2.01,240,251,213,446,309,18
680,0.15,-0.98,0.11,0.18,-3.42,-1.83,237,244,210,451,311,18
681,0.15,-0.98,0.11,0.12,-2.75,-3.97,274,249,214,451,314,18
682,0.16,-0.98,0.11,-0.43,-3.3,-3.42,242,250,211,454,314,18
683,0.14,-0.98,0.12,-0.92,-2.01,-1.1,238,245,213,447,312,18
684,0.15,-0.99,0.11,0.24,-2.01,-3.85,240,249,209,450,312,18
685,0.15,-0.98,0.13,0.92,-3.17,-1.77,233,247,212,454,309,18
686,0.15,-0.98,0.12,0.98,-4.27,-2.44,242,246,214,451,309,18
687,0.15,-0.98,0.11,-0.37,-3.3,-2.44,237,246,209,447,312,18
688,0.15,-0.98,0.12,0.79,-3.17,-3.3,242,244,212,445,315,18
689,0.16,-0.98,0.12,1.22,-4.09,-3.23,240,243,214,453,307,18
690,0.16,-0.98,0.12,1.04,-3.23,-2.44,242,248,202,444,314,18
691,0.16,-0.98,0.12,0.24,-2.5,-2.75,238,245,212,450,312,18
692,0.16,-0.98,0.12,-0.18,-1.16,-2.38,241,246,214,447,315,18
693,0.16,-0.98,0.12,-0.12,-4.09,-2.75,245,243,211,445,316,18
694,0.16,-0.98,0.13,1.1,-1.77,-2.2,241,244,209,447,308,18
695,0.15,-0.98,0.13,1.16,-3.54,-2.2,255,243,206,454,316,18
696,0.15,-0.97,0.13,0.61,-2.99,-1.95,245,247,217,451,312,18
697,0.15,-0.98,0.12,0.24,-1.46,-2.75,240,245,211,453,316,18
698,0.16,-0.98,0.12,-0.06,-5.49,-3.72,241,243,213,447,314,18
699,0.15,-0.98,0.12,1.22,-2.14,-2.32,243,242,210,451,312,18
700,0.15,-0.98,0.14,0.24,-3.48,-2.38,242,251,207,450,313,18
701,0.17,-0.99,0.14,1.65,-2.81,-3.17,242,244,209,450,314,18
702,0.15,-0.97,0.13,1.53,-1.59,-1.04,242,247,210,445,314,18
703,0.18,-0.99,0.12,0.0,-5.0,-3.6,242,243,211,453,322,18
704,0.15,-0.98,0.13,0.67,-1.1,-0.31,251,245,207,445,313,18
705,0.12,-0.97,0.16,0.73,-5.25,-3.05,241,246,210,451,312,18
706,0.16,-0.97,0.15,1.53,-3.85,-2.01,242,249,211,456,314,18
707,0.13,-0.99,0.14,0.98,1.4,-2.32,239,244,210,446,313,18
708,0.16,-0.98,0.13,-0.37,-6.96,-4.58,242,244,214,448,310,18
709,0.16,-0.99,0.15,-0.61,0.79,-3.72,242,248,208,450,311,18
710,0.13,-0.99,0.16,2.08,-0.49,1.71,238,244,218,454,314,18
711,0.15,-0.98,0.15,2.01,-3.42,-4.82,241,236,213,450,312,18
712,0.16,-0.98,0.13,-0.24,-3.36,-4.52,241,244,215,455,316,18
713,0.16,-0.97,0.14,-0.73,-3.42,-2.93,244,242,211,452,315,18
714,0.16,-0.98,0.15,-0.55,-2.2,-3.97,239,246,213,449,314,18
715,0.16,-0.98,0.15,-0.06,-1.59,-1.1,234,246,211,453,312,18
716,0.15,-0.99,0.14,-0.12,-2.81,-1.59,254,246,211,449,311,18
717,0.14,-0.98,0.13,-0.43,-2.32,-3.3,240,247,211,451,317,18
718,0.16,-0.98,0.13,0.55,-2.69,-4.15,243,245,218,451,312,18
719,0.15,-0.97,0.14,-1.71,-5.74,-3.85,241,244,211,450,314,18
720,0.17,-0.98,0.14,-0.85,-1.95,-3.17,241,249,214,451,313,18
721,0.15,-0.98,0.14,0.61,-2.69,-3.48,281,250,208,455,312,18
722,0.15,-0.98,0.16,1.53,-3.11,-0.92,245,243,213,447,311,18
723,0.14,-0.98,0.15,0.73,-2.62,-2.32,244,243,214,444,312,18
724,0.14,-0.98,0.14,0.18,-2.62,-1.4,240,249,214,451,314,18
725,0.14,-0.97,0.14,0.12,-2.38,-2.87,242,247,212,453,307,18
726,0.14,-0.98,0.15,0.61,-2.93,-4.46,243,248,214,454,310,18
727,0.14,-0.98,0.15,-0.12,-1.46,-2.62,244,244,213,449,314,18
728,0.15,-0.98,0.14,0.98,-2.81,-2.81,238,243,221,449,313,18
729,0.15,-0.97,0.15,0.61,-2.81,-1.89,240,246,216,454,314,18
730,0.14,-0.98,0.15,0.0,-3.17,-2.75,242,247,214,446,316,18
731,0.13,-0.98,0.14,0.18,-2.56,-3.17,242,258,208,452,315,18
732,0.14,-0.98,0.14,1.83,-1.53,-3.72,242,249,212,453,309,18
733,0.15,-0.98,0.14,0.49,-3.72,-5.0,243,250,217,455,310,18
734,0.16,-0.97,0.14,0.49,-2.93,-2.38,253,256,209,452,309,18
735,0.15,-0.98,0.15,0.79,-1.83,-1.83,242,249,214,451,311,18
736,0.15,-0.99,0.15,1.4,-2.08,-2.75,244,249,209,450,312,18
737,0.14,-0.98,0.14,0.61,-2.01,-0.98,244,256,208,454,313,18
738,0.13,-0.98,0.15,-0.43,-2.69,-2.5,241,249,213,450,311,18
739,0.13,-0.98,0.14,-0.06,-3.54,-1.89,242,244,211,447,310,18
740,0.14,-0.99,0.14,-0.06,-3.3,-2.93,244,245,214,451,313,18
741,0.13,-0.98,0.14,1.65,-2.56,-3.05,241,249,214,447,316,18
742,0.13,-0.98,0.15,0.24,-4.27,-2.32,245,247,210,453,314,18
743,0.15,-0.98,0.14,-0.55,-4.15,-4.39,246,242,211,450,312,18
744,0.14,-0.98,0.14,-0.37,-2.08,-1.53,241,248,221,453,305,18
745,0.15,-0.99,0.15,0.92,-3.78,-2.69,244,248,212,445,312,18
746,0.15,-0.97,0.14,1.59,-3.42,-3.3,240,248,217,450,313,18
747,0.15,-0.97,0.14,0.37,-3.54,-2.14,261,248,213,451,317,18
748,0.15,-0.98,0.15,-0.24,-3.17,-2.38,241,248,215,448,312,18
749,0.15,-0.96,0.14,0.31,-3.17,-1.59,243,244,205,455,309,18
750,0.15,-0.97,0.13,-1.16,-3.11,-3.42,245,247,209,449,315,18
751,0.16,-0.99,0.12,-0.67,-2.44,-2.26,246,249,213,450,313,18
752,0.13,-0.99,0.14,-0.61,-3.6,-1.89,243,249,209,452,311,18
753,0.14,-0.98,0.14,-0.98,-4.33,-4.27,240,247,212,454,314,18
754,0.15,-0.98,0.14,0.43,-1.95,-2.56,240,248,216,447,313,18
755,0.15,-0.98,0.13,-0.24,-3.42,-3.48,242,248,202,452,315,18
756,0.16,-0.98,0.14,1.65,-2.69,-3.05,244,239,224,450,311,18
757,0.15,-0.97,0.15,0.24,-2.75,-2.93,242,251,217,447,317,18
758,0.17,-0.97,0.15,-0.12,-3.78,-4.03,244,249,205,455,311,18
759,0.18,-0.98,0.15,0.73,-2.38,-3.42,241,251,211,455,314,18
760,0.17,-0.98,0.15,1.1,-3.42,-2.62,239,249,216,446,313,18
761,0.18,-0.98,0.15,1.46,-1.4,-2.08,246,254,204,455,311,18
762,0.16,-1.0,0.14,3.05,-6.04,-0.12,243,244,211,453,312,18
763,0.17,-0.98,0.18,-0.49,-2.08,-4.27,244,248,211,451,310,18
764,0.1,-0.97,0.23,4.21,-16.48,3.3,245,248,207,450,313,18
765,0.15,-0.98,0.17,2.99,-5.07,-0.92,243,249,215,452,305,18
766,0.18,-0.98,0.17,-5.86,-4.46,-4.52,245,250,212,448,313,18
767,0.15,-0.98,0.12,-4.76,-5.92,-4.46,242,250,202,451,315,18
768,0.14,-0.96,0.18,-5.25,2.69,-3.91,244,246,211,450,317,18
769,0.14,-0.99,0.14,-4.52,-0.37,0.67,245,251,209,450,313,18
770,0.14,-0.99,0.13,-4.52,0.06,-3.3,244,247,211,461,313,18
771,0.1,-1.0,0.11,4.09,-13.79,-6.53,246,248,213,454,312,18
772,0.18,-1.01,0.16,7.57,-11.66,3.85,246,245,212,450,315,18
773,0.1,-1.0,0.11,1.16,2.75,-0.85,247,242,211,450,315,18
774,0.09,-0.98,0.16,0.31,-2.99,-4.82,242,241,213,451,311,18
775,0.06,-0.97,0.17,2.56,4.52,2.38,243,246,208,450,314,18
776,0.07,-1.0,0.15,-1.4,-2.56,-5.25,246,250,208,454,315,18
777,0.11,-0.99,0.14,-0.12,-2.44,-5.0,247,249,212,452,315,18
778,0.11,-0.98,0.15,2.38,-2.44,-0.67,251,246,213,451,313,18
779,0.07,-0.98,0.17,-0.67,-7.45,-1.46,243,245,213,448,313,18
780,0.09,-0.97,0.16,0.79,-5.37,-4.15,246,252,216,451,316,18
781,0.12,-1.0,0.12,-2.38,4.7,-3.48,247,251,209,449,313,18
782,0.12,-1.0,0.1,3.48,-8.18,-5.49,244,246,203,454,312,18
783,0.13,-0.97,0.16,3.54,-3.66,2.08,243,250,215,455,312,18
784,0.09,-1.01,0.05,-15.99,3.91,2.62,242,245,209,454,313,18
785,0.09,-0.98,0.17,-1.65,-1.34,-1.83,245,248,214,454,309,18
786,0.11,-1.01,0.16,-0.85,-3.97,-7.81,242,242,215,450,315,18
787,0.06,-0.99,0.15,-1.04,-1.22,-2.44,249,247,214,445,311,18
788,0.1,-0.98,0.17,3.11,-3.48,0.85,243,246,213,451,313,18
789,0.11,-0.99,0.15,2.99,-4.21,-6.84,265,247,216,445,306,18
790,0.11,-0.98,0.16,-1.28,-1.46,-2.99,240,245,211,450,313,18
791,0.1,-0.98,0.17,0.49,-3.97,-1.83,247,248,213,450,313,18
792,0.1,-0.99,0.17,0.18,-0.67,-1.28,246,248,210,450,312,18
793,0.1,-0.98,0.16,-0.79,-3.66,-4.7,246,250,214,451,312,18
794,0.11,-0.98,0.16,0.85,-1.59,-1.59,251,248,210,450,316,18
795,0.1,-0.99,0.15,1.53,-4.82,-3.6,243,247,213,448,315,18
796,0.12,-0.98,0.17,0.24,-3.3,-2.75,247,250,210,455,316,18
797,0.1,-0.98,0.16,-1.16,-2.2,-2.38,244,250,209,447,312,18
798,0.09,-0.98,0.16,-0.73,-2.32,-2.99,247,249,216,442,317,18
799,0.1,-0.98,0.15,0.12,-2.44,-2.56,237,250,213,456,322,18
800,0.1,-0.99,0.15,0.61,-3.17,-3.17,246,248,210,447,309,18
801,0.1,-0.99,0.15,1.1,-1.28,-1.77,243,246,216,456,313,18
802,0.11,-0.99,0.14,1.71,-3.97,-4.03,241,250,214,454,313,18
803,0.1,-0.98,0.15,0.06,-2.81,-2.26,247,246,219,452,315,18
804,0.1,-0.98,0.16,-3.78,-1.59,-2.32,241,251,210,446,315,18
805,0.1,-0.99,0.15,-0.18,-2.62,-3.42,246,250,217,454,314,18
806,0.1,-0.98,0.16,0.61,-3.3,-2.38,247,243,215,453,315,18
807,0.11,-0.98,0.15,0.18,-3.78,-2.26,241,247,212,450,316,18
808,0.1,-0.98,0.16,1.65,-3.17,-2.38,235,247,212,448,314,18
809,0.1,-0.98,0.16,0.55,-2.87,-2.62,245,248,215,448,313,18
810,0.11,-0.98,0.16,1.04,-4.27,-2.87,245,250,211,453,311,18
811,0.09,-0.99,0.15,0.85,-2.44,-2.56,245,249,218,448,313,18
812,0.1,-0.98,0.16,0.24,-2.93,-2.01,248,247,218,451,316,18
813,0.09,-0.98,0.16,0.85,-2.01,-1.65,234,249,219,448,308,18
814,0.1,-0.98,0.16,-0.12,-2.38,-3.17,242,248,215,445,317,18
815,0.1,-0.98,0.16,0.49,-3.91,-2.81,245,247,214,452,312,18
816,0.09,-0.98,0.16,0.43,-2.62,-2.5,245,247,199,449,312,18
817,0.1,-0.98,0.16,0.06,-3.11,-3.17,246,249,209,454,311,18
818,0.09,-0.98,0.16,0.61,-2.38,-2.26,245,250,210,447,316,18
819,0.09,-0.98,0.16,0.24,-3.11,-2.99,247,251,215,450,314,18
820,0.09,-0.98,0.16,-0.18,-1.53,-2.69,248,247,216,454,314,18
821,0.1,-0.98,0.16,0.85,-2.87,-2.38,253,252,208,451,315,18
822,0.1,-0.98,0.16,1.53,-2.81,-2.14,248,246,211,448,313,18
823,0.09,-0.98,0.16,0.43,-3.66,-2.93,244,246,210,450,315,18
824,0.08,-0.98,0.17,1.59,-0.18,-5.0,247,247,214,460,312,18
825,0.13,-0.98,0.16,0.55,-3.11,-1.77,245,247,215,450,317,18
826,0.09,-0.98,0.16,1.34,-1.83,-3.48,245,252,213,453,313,18
827,0.12,-0.97,0.17,-0.79,-4.33,-3.97,271,248,214,455,311,18
828,0.12,-0.98,0.16,0.0,-2.14,-2.32,245,246,214,450,314,18
829,0.11,-0.98,0.16,0.43,-3.36,-2.81,243,251,213,455,313,18
830,0.13,-0.98,0.16,1.65,-4.82,-4.46,247,248,217,451,312,18
831,0.11,-0.98,0.16,-0.85,-2.5,-1.28,243,255,216,449,312,18
832,0.13,-0.98,0.16,0.85,-3.78,-2.99,248,248,215,446,313,18
833,0.13,-0.98,0.15,0.67,-2.81,-4.27,248,254,215,453,314,18
834,0.13,-0.98,0.16,0.73,-3.54,-2.62,236,253,214,450,314,18
835,0.13,-0.98,0.15,0.43,-1.22,-0.43,244,249,208,454,313,18
836,0.1,-0.98,0.17,0.61,-1.53,-2.69,247,245,210,445,313,18
837,0.12,-0.97,0.16,-0.85,-4.09,-6.41,250,249,208,449,313,18
838,0.16,-0.97,0.16,-0.12,-5.0,-5.0,249,248,218,455,314,18
839,0.15,-0.98,0.15,1.1,-0.79,1.22,256,249,214,452,314,18
840,0.14,-0.98,0.15,-0.12,-3.23,-5.92,246,253,211,453,316,18
841,0.14,-0.98,0.14,-2.26,0.67,-1.65,251,249,213,454,315,18
842,0.12,-0.98,0.15,0.92,-5.25,-0.98,245,242,218,452,314,18
843,0.13,-0.98,0.13,1.34,-1.34,-2.26,247,252,202,454,315,18
844,0.15,-0.98,0.12,-3.36,-3.3,-0.92,250,248,205,455,311,18
845,0.06,-1.0,0.1,-0.37,1.34,-3.17,245,251,214,458,312,18
846,0.08,-0.99,0.14,3.72,-4.94,-5.25,257,250,212,447,313,18
847,0.12,-0.98,0.14,-2.5,0.18,-3.97,247,249,214,445,312,18
848,0.1,-0.99,0.12,0.98,-3.36,-3.23,249,240,211,446,309,18
849,0.1,-0.98,0.14,-1.28,-2.44,-2.26,243,245,211,447,312,18
850,0.11,-0.98,0.15,1.83,-3.72,-2.08,241,250,213,454,313,18
851,0.09,-0.98,0.15,0.31,-3.66,-2.93,247,249,213,450,313,18
852,0.1,-0.98,0.15,0.37,-3.17,-3.66,242,248,209,453,314,18
853,0.11,-0.98,0.15,1.16,-1.89,-1.71,249,249,213,454,312,18
854,0.09,-0.98,0.15,-0.67,-3.11,-2.81,245,246,212,449,311,18
855,0.11,-0.98,0.15,0.55,-1.59,-1.46,246,252,218,447,316,18
856,0.09,-0.98,0.16,0.18,-3.6,-3.23,246,248,226,447,316,18
857,0.1,-0.98,0.16,0.85,-1.89,-1.16,244,250,213,454,316,18
858,0.09,-0.98,0.16,-0.49,-4.52,-3.17,249,254,214,448,315,18
859,0.07,-0.98,0.15,-2.08,-1.04,-3.42,245,256,219,448,315,18
860,0.1,-0.99,0.15,-0.12,-1.95,-1.4,247,248,218,450,315,18
861,0.08,-0.99,0.15,0.85,-2.2,-3.23,250,251,213,454,311,18
862,0.1,-0.98,0.16,1.1,-3.23,-2.01,249,248,216,453,314,18
863,0.07,-0.97,0.17,0.73,-2.08,-2.08,248,246,220,448,314,18
864,0.08,-0.98,0.17,-0.37,-1.83,-1.95,246,247,212,443,313,18
865,0.08,-0.99,0.16,0.06,-1.95,-2.93,248,252,214,451,313,18
866,0.08,-0.98,0.16,-3.23,-3.17,-2.81,245,252,214,455,313,18
867,0.08,-0.98,0.17,1.59,-4.82,-2.87,245,250,211,451,314,18
868,0.07,-0.97,0.17,3.48,-1.89,-2.62,250,252,217,450,318,18
869,0.09,-0.98,0.16,0.37,-2.62,-1.89,241,253,215,457,311,18
870,0.08,-0.99,0.16,0.49,-3.17,-2.62,240,248,215,450,311,18
871,0.08,-0.99,0.16,0.73,-2.87,-2.62,244,250,202,453,318,18
872,0.09,-0.98,0.16,0.43,-2.75,-2.44,245,255,209,443,313,18
873,0.09,-0.98,0.16,0.79,-2.99,-2.08,245,251,217,453,315,18
874,0.08,-0.99,0.17,1.04,-1.77,-2.26,244,254,214,447,314,18
875,0.08,-0.98,0.19,0.98,-4.94,-1.04,244,249,209,447,314,18
876,0.09,-0.99,0.16,1.22,-6.35,-1.77,247,247,216,442,312,18
877,0.1,-1.0,0.11,2.87,-4.52,-2.93,247,252,216,453,321,18
878,0.08,-0.98,0.15,-5.55,0.06,-4.76,247,240,217,454,314,18
879,0.07,-0.97,0.18,-1.28,-3.48,-3.23,245,251,216,450,313,18
880,0.09,-0.97,0.19,3.48,-4.64,-1.28,245,246,223,453,311,18
881,0.1,-0.99,0.18,2.93,-4.33,-0.31,250,248,216,453,316,18
882,0.09,-0.99,0.13,-0.18,-1.4,-3.23,247,248,213,453,314,18
883,0.07,-0.98,0.17,-2.81,-2.2,-3.97,242,246,213,449,323,18
884,0.07,-0.97,0.19,1.65,-2.2,-0.55,247,255,215,455,316,18
885,0.08,-0.98,0.18,3.05,-4.52,-0.67,248,248,213,453,317,18
886,0.06,-0.98,0.18,2.14,-3.72,-2.2,249,245,217,450,312,18
887,0.09,-0.98,0.17,2.01,-2.38,-2.44,246,252,217,447,314,18
888,0.08,-0.99,0.16,0.43,-3.72,-2.5,246,251,215,456,317,18
889,0.08,-0.99,0.16,0.24,-0.92,-1.77,285,244,214,451,315,18
890,0.05,-0.99,0.16,-0.55,-1.59,-4.39,243,245,217,453,313,18
891,0.09,-0.99,0.16,0.85,-1.95,-2.08,249,249,218,454,313,18
892,0.09,-0.98,0.17,-0.12,-2.69,-3.72,246,252,218,452,311,18
893,0.07,-0.96,0.16,0.67,-3.78,-3.11,244,249,213,451,315,18
894,0.08,-0.98,0.17,0.85,-2.01,-1.83,248,249,225,450,310,18
895,0.09,-0.98,0.18,2.14,-2.2,-1.71,244,246,214,448,309,18
896,0.08,-0.98,0.18,0.73,-3.05,-2.62,243,250,212,448,316,18
897,0.08,-0.98,0.18,1.22,-3.3,-3.78,241,250,217,455,314,18
898,0.08,-0.98,0.19,1.28,-2.62,-2.08,248,246,219,450,316,18
899,0.08,-0.98,0.18,0.06,-2.14,-3.54,244,247,221,449,314,18
900,0.08,-0.98,0.18,0.12,-2.69,-2.56,246,252,218,448,317,18
901,0.08,-0.98,0.17,-0.12,-0.92,-4.52,251,251,214,448,314,18
902,0.1,-0.97,0.19,0.61,-3.17,-7.26,245,251,214,451,310,18
903,0.1,-0.98,0.18,-1.95,-0.37,-1.46,246,251,215,446,317,18
904,0.09,-0.98,0.18,-1.71,-2.62,-3.85,245,256,210,455,316,18
905,0.11,-0.98,0.17,-2.01,-4.58,-4.33,248,251,216,448,320,18
906,0.12,-0.99,0.16,-1.77,-2.14,-2.87,245,249,218,450,315,18
907,0.12,-0.98,0.14,-2.26,-2.69,-6.77,246,251,215,451,317,18
908,0.15,-0.98,0.13,1.1,-4.33,-3.11,246,253,206,448,314,18
909,0.13,-0.98,0.14,1.59,-4.21,0.67,246,251,217,451,313,18
910,0.13,-0.98,0.14,-0.12,-2.75,-2.32,247,248,216,449,315,18
911,0.12,-0.98,0.14,0.98,-2.81,-3.66,252,254,214,454,310,18
912,0.14,-0.98,0.15,1.22,-3.23,-3.05,244,248,212,448,313,18
913,0.13,-0.98,0.14,0.49,-2.5,-0.18,246,255,214,445,314,18
914,0.13,-0.98,0.15,2.38,0.92,0.18,249,253,208,452,315,18
915,0.09,-0.98,0.16,-1.1,-6.16,-2.32,245,251,214,450,312,18
916,0.1,-0.98,0.17,1.89,-1.4,-1.34,242,249,217,446,316,18
917,0.09,-0.98,0.18,1.46,-2.2,-2.56,248,248,216,448,312,18
918,0.09,-0.98,0.18,0.12,-3.78,-0.49,251,249,217,451,316,18
919,0.09,-0.98,0.14,0.92,-1.1,-4.64,246,260,216,452,317,18
920,0.11,-0.98,0.18,0.98,-4.46,-3.54,252,254,215,455,311,18
921,0.1,-0.99,0.16,1.59,-3.23,-0.31,246,253,219,454,307,18
922,0.1,-0.98,0.18,-0.31,-2.75,-3.23,250,252,217,447,316,18
923,0.08,-0.98,0.17,1.04,-3.6,-1.77,247,251,216,456,314,18
924,0.12,-0.99,0.13,-0.92,-0.73,-4.52,251,251,213,449,316,18
925,0.09,-0.98,0.17,2.38,-4.58,-1.71,249,252,207,451,314,18
926,0.08,-0.98,0.17,0.18,-2.2,0.73,250,251,207,448,316,18
927,0.08,-0.98,0.16,-4.94,-1.77,-2.93,251,250,218,449,315,18
928,0.05,-0.98,0.16,0.49,-2.38,-2.87,250,249,208,451,309,18
929,0.09,-0.98,0.15,1.77,-0.98,-4.88,251,254,215,446,317,18
930,0.09,-0.99,0.16,1.22,-4.27,-2.2,248,249,217,451,309,18
931,0.06,-1.0,0.14,-0.61,-1.59,-1.83,251,243,213,457,315,18
932,0.06,-0.97,0.17,0.61,1.22,-1.04,250,253,212,461,318,18
933,0.05,-0.99,0.14,-0.79,-1.95,1.04,248,248,217,450,316,18
934,0.03,-0.99,0.14,2.44,-3.78,-0.24,246,252,214,451,316,18
935,0.07,-0.98,0.17,1.16,-4.7,-1.4,251,254,215,450,315,18
936,0.03,-0.99,0.15,-0.31,-2.69,-2.62,248,250,215,452,315,18
937,0.05,-0.98,0.15,0.18,-3.05,-5.43,251,253,215,452,313,18
938,0.06,-0.99,0.16,-0.79,-2.69,-1.59,251,249,215,447,317,18
939,0.06,-0.98,0.16,0.98,-3.72,-2.32,251,252,217,447,313,18
940,0.06,-0.99,0.16,-0.92,-1.83,-2.14,250,252,214,454,320,18
941,0.07,-0.99,0.15,0.79,-3.48,-3.54,253,252,215,450,315,18
942,0.07,-0.99,0.14,1.46,-3.11,-3.05,252,247,215,456,315,18
943,0.05,-0.99,0.15,0.49,-2.87,-1.1,252,252,220,454,316,18
944,0.05,-0.98,0.16,1.04,-1.83,0.43,248,251,214,456,313,18
945,0.03,-0.99,0.16,0.0,-1.83,-1.04,252,257,218,460,324,18
946,0.03,-0.98,0.15,0.37,-2.56,-2.2,249,247,212,453,316,18
947,0.04,-0.99,0.14,-1.16,-2.62,-3.54,254,250,217,452,316,18
948,0.03,-0.99,0.14,-1.04,-1.95,-4.58,251,251,216,450,316,18
949,0.04,-0.99,0.14,-0.55,-3.91,-3.66,250,255,215,452,317,18
950,0.03,-0.99,0.15,-0.55,-0.61,-0.79,252,251,213,449,314,18
951,0.03,-0.99,0.15,-0.12,-3.72,-3.17,256,254,215,455,315,18
952,0.05,-0.98,0.15,-1.04,-3.6,-3.54,251,253,214,445,314,18
953,0.02,-1.0,0.13,-2.87,-0.61,-2.2,250,258,215,452,315,18
954,0.04,-0.98,0.16,-0.49,-4.94,-3.36,251,248,220,449,316,18
955,0.02,-0.98,0.15,-1.22,-2.38,-0.06,252,254,213,452,316,18
956,0.02,-0.99,0.14,2.32,-6.23,-2.32,254,252,215,452,316,18
957,0.01,-0.99,0.15,2.93,-1.16,-2.56,245,249,216,445,311,18
958,0.03,-0.98,0.15,-1.04,-3.6,-3.17,245,250,218,454,310,18
959,0.05,-1.05,0.24,-16.24,-3.91,-2.93,254,247,216,450,313,18
960,0.01,-1.0,0.14,0.61,-0.61,-2.75,254,255,218,453,315,18
961,0.03,-0.95,0.11,-1.46,-2.56,-3.97,251,266,218,452,311,18
962,0.03,-0.99,0.14,-1.95,-0.79,-5.25,249,249,209,452,319,18
963,0.08,-1.0,0.11,0.49,-8.97,-2.69,254,247,216,448,314,18
964,0.07,-0.99,0.13,0.43,1.22,-1.46,256,257,211,453,317,18
965,0.04,-1.0,0.09,-9.28,-8.54,2.56,254,257,217,453,318,18
966,0.02,-1.0,0.12,-0.12,-6.1,-2.01,252,251,221,459,318,18
967,0.07,-1.0,0.08,1.95,2.5,-5.13,251,253,212,460,312,18
968,0.03,-1.0,0.11,3.3,0.61,0.73,251,254,219,453,313,18
969,0.04,-0.99,0.1,2.26,-2.38,-5.86,254,252,219,448,324,18
970,0.03,-1.0,0.11,0.55,-5.8,-4.46,253,251,221,454,312,18
971,0.01,-0.99,0.14,2.2,-3.23,2.75,253,254,213,454,315,18
972,0.02,-0.99,0.12,-2.87,-8.12,-4.15,253,251,216,450,315,18
973,-0.0,-1.0,0.11,-0.79,-3.05,1.1,255,253,213,459,312,18
974,-0.01,-0.98,0.16,4.64,-5.43,-7.39,252,253,215,457,318,18
975,-0.0,-1.03,0.17,1.22,-2.38,-0.43,253,256,213,448,312,18
976,0.03,-1.01,0.12,-0.92,-7.2,-5.86,252,252,221,454,315,18
977,0.01,-0.99,0.11,-12.15,1.53,-0.06,255,256,218,458,308,18
978,0.05,-0.99,0.1,5.43,-4.76,-11.41,254,254,217,450,316,18
979,0.08,-0.99,0.11,3.42,0.73,-4.27,249,259,214,451,318,18
980,0.02,-0.99,0.14,1.83,-4.7,-4.09,262,245,222,453,316,18
981,0.11,-0.98,0.14,1.04,-2.44,-2.75,254,252,215,454,314,18
982,0.06,-1.0,0.12,-0.55,-3.36,-3.78,253,254,215,457,318,18
983,0.09,-0.99,0.11,-2.75,18.19,-3.97,254,252,210,455,314,18
984,0.03,-0.99,0.11,-1.71,0.55,-2.08,257,256,217,456,315,18
985,0.08,-1.0,0.13,2.56,-5.62,-3.97,254,252,218,453,314,18
986,0.07,-0.98,0.13,4.52,-7.32,-4.15,253,251,213,453,316,18
987,0.07,-0.99,0.12,0.24,-2.56,-2.01,251,254,217,450,315,18
988,0.07,-0.99,0.12,1.22,-5.0,-2.56,255,251,217,450,314,18
989,0.05,-0.98,0.16,-7.69,-4.88,-8.18,256,250,219,453,314,18
990,0.1,-0.99,0.12,-0.49,-4.27,-1.83,250,255,215,454,312,18
991,0.08,-0.99,0.12,0.37,-3.36,-1.34,255,252,215,451,316,18
992,0.07,-0.99,0.12,-0.18,-3.17,-1.83,247,253,217,457,316,18
993,0.07,-0.99,0.12,-0.37,-2.56,-0.85,257,249,216,453,322,18
994,0.07,-1.0,0.11,1.53,-2.26,-2.99,257,247,215,446,311,18
995,0.07,-0.99,0.12,0.85,-3.48,-2.01,253,248,219,453,318,18
996,0.07,-0.99,0.11,15.44,-1.71,-2.01,252,254,213,455,311,18
997,0.07,-0.99,0.11,0.37,-3.36,-2.32,256,253,220,454,318,18
998,0.07,-0.99,0.12,2.01,-2.62,-1.53,251,250,218,454,319,18
999,0.05,-0.99,0.12,0.0,-2.75,-3.66,263,255,217,469,321,18
1000,0.06,-0.98,0.12,0.43,-3.11,-3.42,258,254,219,459,309,18
1001,0.08,-0.99,0.12,0.49,-3.05,-2.32,256,254,216,458,318,18
1002,0.06,-1.0,0.11,0.12,-2.75,-2.01,252,253,216,449,313,18
1003,0.04,-1.0,0.12,1.22,-4.39,-3.6,253,254,221,450,316,18
1004,0.07,-0.99,0.12,0.06,-1.28,-0.49,254,259,215,451,314,18
1005,0.05,-0.99,0.12,1.22,-4.27,-2.44,246,253,212,454,317,18
1006,0.06,-0.99,0.12,0.06,-2.81,-2.81,255,255,215,456,313,18
1007,0.05,-0.99,0.12,0.55,-1.89,-2.99,254,253,216,448,313,18
1008,0.04,-0.99,0.12,0.55,-3.66,-0.37,252,253,217,452,318,18
1009,0.03,-0.94,0.1,5.62,-2.75,0.43,256,256,208,453,316,18
1010,0.05,-0.98,0.13,-1.59,-3.23,-6.41,257,255,218,452,316,18
1011,0.01,-0.99,0.15,0.37,-7.14,1.89,256,255,217,452,311,18
1012,0.13,-0.99,0.09,-0.73,-3.91,-10.74,253,259,219,453,316,18
1013,0.1,-1.0,0.07,6.1,-8.85,-7.32,253,255,219,457,317,18
1014,0.16,-0.95,0.12,-3.72,9.46,2.62,257,249,219,463,315,18
1015,0.06,-1.0,0.06,5.92,5.25,-2.56,250,248,221,455,317,18
1016,0.08,-1.0,0.13,2.87,-9.89,0.06,255,254,222,450,314,18
1017,0.12,-0.99,0.1,2.81,-1.71,-4.64,256,251,206,459,315,18
1018,0.12,-0.99,0.13,-2.01,-1.1,-5.62,259,253,219,447,314,18
1019,0.08,-0.99,0.14,-1.22,-1.34,-2.32,253,253,222,454,318,18
1020,0.09,-0.99,0.14,0.92,-1.53,-1.4,254,255,218,449,317,18
1021,0.07,-0.99,0.13,0.24,-1.46,-1.59,254,252,219,457,315,18
1022,0.08,-0.99,0.11,0.61,-1.59,-1.71,255,253,215,457,311,18
1023,0.08,-0.99,0.12,1.34,-2.56,-2.32,258,258,214,456,320,18
1024,0.07,-0.99,0.12,-0.49,-1.71,-2.08,256,253,213,451,316,18
1025,0.07,-0.99,0.12,-0.43,-3.23,-1.46,255,253,215,454,319,18
1026,0.08,-0.99,0.13,1.77,-0.31,-1.16,252,256,221,458,316,18
1027,0.04,-0.98,0.15,1.22,-2.56,-0.85,256,255,217,457,314,18
1028,0.08,-1.01,0.07,-2.93,-2.93,-6.65,255,256,220,454,316,18
1029,0.07,-0.98,0.12,-2.26,-7.75,-5.8,251,251,220,454,320,18
1030,0.13,-0.99,0.13,-0.12,-0.67,-4.46,257,253,215,450,311,18
1031,0.08,-0.99,0.07,-4.03,-0.43,-4.15,251,254,220,457,316,18
1032,0.19,-0.98,0.1,4.15,-2.5,-0.73,255,252,216,443,316,18
1033,0.06,-1.02,0.01,3.3,2.62,-3.23,254,255,216,463,310,18
1034,0.08,-0.99,0.1,-5.31,2.01,-2.08,257,259,216,450,312,18
1035,0.12,-1.0,0.08,-5.31,-1.28,-2.99,254,257,218,453,315,18
1036,0.08,-0.98,0.11,-4.33,-2.2,-5.92,245,254,215,463,318,18
1037,0.11,-0.99,0.1,2.08,-4.46,-3.72,253,254,218,452,318,18
1038,0.1,-0.97,0.14,-11.17,-1.22,-1.95,256,259,217,454,317,18
1039,0.14,-0.98,0.03,1.53,-3.85,0.43,259,256,218,456,316,18
1040,0.13,-0.96,0.05,5.13,4.58,-7.26,254,254,219,455,317,18
1041,0.11,-0.97,0.08,-2.38,-0.31,0.18,254,262,219,454,319,18
1042,0.08,-1.0,0.08,7.26,-2.26,3.91,261,255,222,459,312,18
1043,0.06,-0.99,0.09,1.77,-1.83,-5.8,255,254,219,456,317,18
1044,0.1,-0.99,0.09,1.16,0.67,-2.69,250,258,217,453,312,18
1045,0.07,-0.99,0.08,-1.95,-0.92,-3.05,258,256,216,454,312,18
1046,0.08,-0.99,0.08,2.38,-5.92,-3.05,289,256,216,455,317,18
1047,0.1,-0.99,0.08,0.18,-7.26,-5.0,255,256,218,452,313,18
1048,0.1,-0.99,0.1,3.05,-3.85,-0.43,258,259,210,452,320,18
1049,0.09,-0.99,0.09,1.16,-1.71,-1.4,257,253,214,455,314,18
1050,0.07,-0.99,0.09,0.67,-2.08,-3.91,256,253,216,454,318,18
1051,0.09,-0.98,0.1,1.04,-3.48,-3.42,258,255,218,454,316,18
1052,0.09,-0.99,0.11,1.28,-2.99,-2.56,245,258,214,453,314,18
1053,0.09,-0.99,0.11,-0.61,-1.65,-1.59,259,254,215,458,315,18
1054,0.08,-0.99,0.12,1.59,-1.83,-2.69,259,258,212,455,316,18
1055,0.07,-0.99,0.12,1.22,-2.99,-0.92,261,256,217,457,320,18
1056,0.07,-0.99,0.12,-0.49,-0.98,-0.61,262,258,218,458,313,18
1057,0.06,-1.0,0.11,0.85,-2.26,-1.95,257,256,217,450,318,18
1058,0.06,-1.0,0.12,1.34,-2.75,-1.46,250,259,219,454,315,18
1059,0.04,-0.99,0.12,1.34,-2.69,-2.32,257,252,207,458,313,18
1060,0.05,-0.99,0.12,0.43,-3.48,-3.05,258,257,218,459,316,18
1061,0.05,-1.0,0.12,0.37,-1.65,-1.53,256,256,226,453,313,18
1062,0.05,-0.99,0.12,0.73,-3.66,-3.36,259,246,217,454,314,18
1063,0.05,-0.98,0.12,1.28,-3.97,-3.05,251,254,213,456,318,18
1064,0.05,-0.99,0.11,0.06,-2.93,-3.17,261,256,218,457,314,18
1065,0.05,-0.99,0.11,0.0,-2.81,-3.11,262,253,215,452,314,18
1066,0.06,-0.99,0.11,-0.06,-1.77,-2.08,251,256,215,453,314,18
1067,0.06,-0.99,0.11,-3.23,-14.65,-2.44,257,256,218,455,316,18
1068,0.07,-1.01,0.07,-0.85,-10.62,-0.31,284,264,220,456,314,18
1069,0.05,-1.0,0.05,-0.37,-4.58,-1.95,256,255,220,452,318,18
1070,0.04,-1.0,0.06,-1.53,-3.6,-3.48,259,257,216,453,315,18
1071,0.05,-0.99,0.05,-0.24,-3.05,-2.56,260,257,220,457,308,18
1072,0.06,-1.0,0.04,3.05,-2.01,-2.62,254,255,222,451,312,18
1073,0.05,-1.0,0.05,0.92,-2.44,-2.14,259,252,223,453,313,18
1074,0.05,-0.99,0.06,0.06,-3.85,-2.81,247,251,216,454,312,18
1075,0.06,-0.99,0.05,-0.92,-2.87,-3.36,256,257,216,454,316,18
1076,0.05,-1.0,0.06,0.18,-2.14,-2.14,258,255,217,457,312,18
1077,0.05,-0.99,0.06,-0.92,-2.81,-2.56,260,254,217,458,318,18
1078,0.05,-1.0,0.05,-0.43,-3.36,-2.75,259,255,226,455,317,18
1079,0.05,-1.0,0.06,-0.06,-3.11,-2.32,260,254,217,458,320,18
1080,0.05,-0.99,0.07,0.49,-3.91,-1.95,255,260,216,456,314,18
1081,0.05,-0.99,0.06,-0.12,-2.38,-2.32,259,261,214,458,315,18
1082,0.04,-1.0,0.06,0.18,-2.56,-3.42,258,256,222,448,315,18
1083,0.05,-1.0,0.06,0.31,-2.56,-3.17,258,254,222,454,315,18
1084,0.04,-0.99,0.06,0.61,-2.26,-2.32,256,255,216,450,319,18
1085,0.05,-0.99,0.06,0.79,-3.23,-3.17,254,256,231,453,317,18
1086,0.05,-0.98,0.06,0.06,-3.48,-1.59,260,253,222,460,314,18
1087,0.05,-1.0,0.06,0.06,-1.89,-3.23,259,259,216,450,314,18
1088,0.05,-1.0,0.05,1.16,-3.3,-2.26,256,254,209,460,320,18
1089,0.04,-0.99,0.06,0.31,-2.87,-2.62,257,257,213,455,315,18
1090,0.05,-1.0,0.06,-0.61,-2.69,-3.23,258,251,213,452,311,18
1091,0.05,-1.0,0.05,0.24,-3.05,-1.28,259,255,220,453,313,18
1092,0.04,-0.99,0.06,1.04,-2.87,-0.98,266,258,220,450,317,18
1093,0.03,-0.99,0.07,0.31,-3.05,-2.69,256,251,219,458,316,18
1094,0.04,-1.0,0.06,0.85,-2.99,-2.56,258,255,220,460,315,18
1095,0.04,-1.0,0.06,-0.73,-2.75,-2.99,260,251,216,455,313,18
1096,0.04,-0.99,0.06,1.16,-1.89,-1.4,254,255,207,457,318,18
1097,0.04,-1.0,0.06,0.37,-2.2,-3.97,249,257,223,459,313,18
1098,0.06,-1.0,0.06,0.79,-2.08,-1.4,257,259,210,456,318,18
1099,0.04,-1.0,0.05,-0.18,-2.01,-1.77,260,259,220,457,313,18
1100,0.03,-1.0,0.06,-0.06,-3.42,-2.08,258,255,219,456,316,18
1101,0.02,-1.0,0.05,0.43,-2.87,-3.05,258,255,219,454,319,18
1102,0.04,-1.0,0.06,1.53,-3.3,-3.72,259,249,221,457,311,18
1103,0.04,-1.0,0.06,0.06,-2.56,-2.75,260,257,220,458,312,18
1104,0.04,-1.0,0.06,0.73,-2.56,-2.14,259,247,215,455,314,18
1105,0.02,-0.99,0.06,0.79,-3.72,-2.5,260,256,215,452,314,18
1106,0.06,-1.0,0.06,3.05,-4.27,1.83,258,257,217,454,316,18
1107,-0.02,-0.99,0.06,0.24,-1.83,-2.5,255,259,218,455,314,18
1108,0.03,-1.01,0.03,1.46,-1.22,-10.13,260,260,216,456,320,18
1109,0.06,-0.99,0.06,-0.24,-3.91,0.79,266,254,218,454,320,18
1110,0.02,-1.0,0.07,0.18,-0.73,-0.55,256,255,217,458,316,18
1111,0.03,-1.0,0.07,-0.85,-2.14,-6.23,254,254,227,454,311,18
1112,0.06,-1.0,0.06,0.49,-4.33,-5.0,246,254,223,453,314,18
1113,0.05,-1.0,0.08,2.2,-5.86,-1.22,260,257,224,445,315,18
1114,0.05,-0.99,0.08,0.31,-6.1,-3.72,257,255,214,452,319,18
1115,0.05,-1.0,0.07,-2.93,-1.83,-2.32,259,252,218,455,317,18
1116,0.06,-0.99,0.08,-0.24,-3.05,-0.98,263,261,216,451,315,18
1117,0.05,-0.99,0.07,1.34,-3.23,-2.5,256,257,220,459,318,18
1118,0.04,-1.0,0.08,0.67,-1.4,-2.44,285,256,222,461,310,18
1119,0.04,-0.99,0.09,0.67,-2.99,-2.56,259,258,220,457,317,18
1120,0.05,-1.0,0.08,0.06,-2.69,-2.87,259,256,220,456,316,18
1121,0.05,-0.99,0.08,0.37,-2.99,-3.6,263,259,220,456,316,18
1122,0.05,-0.99,0.08,0.79,-2.69,-2.38,259,255,217,456,314,18
1123,0.04,-0.99,0.08,0.55,-2.44,-2.44,258,261,221,450,317,18
1124,0.04,-0.99,0.08,-0.67,-2.81,-3.3,258,260,219,460,318,18
1125,0.05,-0.99,0.07,0.18,-2.62,-2.26,257,256,214,455,318,18
1126,0.05,-0.99,0.08,0.73,-2.81,-2.2,260,260,221,457,315,18
1127,0.05,-0.99,0.08,0.79,-3.17,-2.5,260,249,217,458,320,18
1128,0.05,-0.99,0.08,0.31,-3.3,-2.99,262,256,217,456,311,18
1129,0.05,-0.99,0.08,-0.12,-2.69,-2.93,259,254,228,456,316,18
1130,0.05,-0.99,0.08,0.31,-2.62,-1.89,257,249,222,458,319,18
1131,0.05,-0.99,0.08,0.24,-2.99,-2.93,255,250,219,456,318,18
1132,0.05,-1.0,0.07,0.18,-3.66,-3.54,257,251,216,454,313,18
1133,0.05,-0.99,0.07,0.55,-2.62,-2.87,259,250,220,457,321,18
1134,0.06,-1.0,0.07,0.06,-2.93,-3.17,257,254,221,459,316,18
1135,0.06,-1.0,0.07,0.61,-2.5,-2.69,260,257,220,454,324,18
1136,0.05,-1.0,0.07,0.24,-2.87,-3.11,256,260,216,454,317,18
1137,0.06,-0.99,0.07,0.61,-2.99,-2.38,260,252,219,471,315,18
1138,0.05,-0.99,0.08,0.31,-1.65,-2.26,258,259,218,458,315,18
1139,0.05,-0.99,0.08,-0.31,-1.4,-2.44,253,257,208,457,311,18
1140,0.05,-0.99,0.08,0.67,-2.99,-2.38,262,259,216,452,316,18
1141,0.04,-0.99,0.08,-0.06,-2.93,-2.5,257,260,219,454,316,18
1142,0.05,-0.99,0.08,0.24,-3.3,-2.81,261,257,220,455,315,18
1143,0.04,-1.0,0.07,0.73,-2.62,-1.77,259,254,222,453,317,18
1144,0.05,-0.99,0.08,0.67,-3.3,-2.62,257,260,218,460,319,18
1145,0.04,-0.99,0.08,0.73,-3.11,-2.69,258,260,220,456,315,18
1146,0.04,-0.99,0.08,0.37,-3.17,-2.75,258,257,216,459,312,18
1147,0.02,-0.99,0.08,-1.34,-5.98,-6.96,256,259,217,457,313,18
1148,0.09,-1.0,0.06,-10.68,0.43,-10.8,261,256,221,455,313,18
1149,0.02,-0.98,0.11,-2.08,-3.3,8.73,257,262,219,453,316,18
1150,0.04,-0.99,0.06,1.59,2.87,-2.14,259,260,222,455,317,18
1151,-0.01,-0.98,0.13,0.12,-2.2,-0.85,258,256,217,448,311,18
1152,0.06,-0.99,0.06,-7.08,0.67,-0.55,258,252,218,453,317,18
1153,0.03,-1.0,0.07,-0.24,-3.11,-4.64,252,255,221,458,316,18
1154,0.04,-0.99,0.09,0.37,-2.99,-3.48,258,259,217,455,317,18
1155,0.05,-1.0,0.08,0.85,-4.15,-3.66,261,255,216,457,308,18
1156,0.04,-1.0,0.08,-0.55,-2.62,-3.23,260,256,215,459,310,18
1157,0.04,-0.99,0.08,0.67,-2.87,-2.38,257,254,224,453,311,18
1158,0.05,-0.99,0.08,0.73,-1.83,-2.62,253,255,219,448,315,18
1159,0.04,-1.0,0.08,0.31,-2.44,-2.62,257,257,219,454,314,18
1160,0.05,-0.99,0.09,0.92,-2.5,-2.01,253,259,218,453,313,18
1161,0.04,-0.99,0.1,0.85,-2.44,-1.65,256,254,218,455,316,18
1162,0.04,-0.99,0.1,0.61,-3.42,-2.75,253,258,216,458,316,18
1163,0.05,-0.99,0.1,0.31,-3.36,-2.26,258,258,216,456,309,18
1164,0.03,-0.99,0.1,0.31,-2.62,-2.87,260,257,220,457,317,18
1165,0.04,-0.99,0.09,1.1,-2.75,-1.65,295,257,219,455,318,18
1166,0.03,-0.99,0.09,0.49,-2.44,-2.75,260,260,216,455,319,18
1167,0.03,-0.99,0.09,-1.22,-2.62,-3.17,259,256,218,454,316,18
1168,0.03,-1.0,0.1,0.79,-2.26,-1.83,252,257,221,455,312,18
1169,0.03,-0.99,0.1,0.85,-4.03,-2.14,258,254,224,459,313,18
1170,0.04,-0.99,0.1,0.85,-2.87,-2.32,260,260,225,465,320,18
1171,0.03,-1.0,0.1,1.04,-3.85,-2.69,258,256,219,455,309,18
1172,0.04,-0.99,0.1,0.37,-2.87,-2.2,259,260,217,458,318,18
1173,0.05,-0.99,0.1,0.49,-1.83,-2.08,255,254,220,467,314,18
1174,0.04,-0.99,0.1,1.83,-3.85,-3.6,259,254,219,458,319,18
1175,0.03,-0.99,0.1,-0.37,-2.26,-1.1,258,258,236,457,318,18
1176,0.03,-1.0,0.09,0.06,-2.44,-3.36,268,249,217,456,314,18
1177,0.04,-0.99,0.1,1.28,-3.6,-2.87,256,252,221,453,315,18
1178,0.04,-0.99,0.1,2.14,-2.5,-2.26,258,258,217,454,315,18
1179,0.03,-0.99,0.1,-0.31,-4.03,-2.87,259,260,217,457,317,18
1180,0.04,-0.99,0.1,-1.65,-2.93,-4.76,259,253,222,458,316,18
1181,0.05,-0.99,0.11,1.71,-3.05,-1.77,259,257,218,455,322,18
1182,0.05,-0.99,0.12,0.12,-3.05,-2.69,254,258,214,449,313,18
1183,0.05,-0.98,0.1,-1.71,-4.76,-5.07,261,258,221,454,316,18
1184,0.07,-0.99,0.09,-1.22,-0.61,-2.32,257,264,218,450,318,18
1185,0.2,-0.82,-0.06,36.5,1.1,36.01,206,269,187,443,375,18
1186,0.15,-1.03,-0.03,-16.48,4.21,-1.46,202,270,178,447,375,18
1187,0.18,-0.99,-0.07,-11.6,0.18,-2.14,206,269,185,443,381,18
1188,0.19,-0.95,-0.08,-5.0,-5.07,0.0,204,271,180,442,377,18
1189,0.14,-0.94,-0.05,-0.24,-4.94,-3.78,206,274,177,445,378,18
1190,0.2,-1.02,-0.09,-0.55,-1.65,-8.73,207,261,184,439,374,18
1191,0.26,-0.99,-0.11,-5.98,-12.02,-0.98,209,273,186,448,382,18
1192,0.14,-0.97,-0.14,1.16,-6.1,-3.36,210,271,190,447,382,18
1193,0.23,-0.96,-0.16,2.5,-4.33,-2.75,210,274,181,445,380,18
1194,0.21,-0.97,-0.17,-1.22,-3.6,-7.08,206,268,176,442,380,18
1195,0.23,-0.96,-0.13,3.72,-1.89,-1.34,210,274,180,437,379,18
1196,0.26,-0.97,-0.14,2.69,-3.48,-1.83,209,270,187,440,381,18
1197,0.22,-0.97,-0.11,-3.42,-1.95,0.85,213,274,177,440,386,18
1198,0.2,-0.97,-0.13,0.49,-0.85,-1.65,213,273,190,443,382,18
1199,0.24,-0.95,-0.14,3.66,-0.37,-3.42,210,273,188,441,385,18
1200,0.18,-0.99,-0.14,2.81,-1.22,2.26,207,271,186,447,385,18
1201,0.21,-0.98,-0.09,-2.38,6.1,-3.97,211,272,189,443,382,18
1202,0.22,-0.97,-0.08,0.18,-5.68,-2.01,214,279,193,444,384,18
1203,0.2,-0.96,-0.08,7.2,-6.23,0.67,208,268,193,442,383,18
1204,0.21,-0.98,-0.1,5.13,-6.41,4.82,209,273,189,438,383,18
1205,0.18,-0.98,-0.07,1.89,-4.94,-2.01,207,279,184,440,383,18
1206,0.16,-0.99,-0.06,-0.06,-2.99,-3.36,212,271,189,438,383,18
1207,0.16,-0.98,-0.05,0.55,-1.89,-2.81,210,277,191,440,376,18
1208,0.12,-0.98,-0.04,3.48,-5.68,0.49,208,274,189,444,381,18
1209,0.17,-0.99,-0.07,-0.85,-4.64,-5.31,213,273,192,439,384,18
1210,0.09,-0.96,0.02,1.53,1.1,-0.18,212,266,191,439,381,18
1211,0.19,-0.99,-0.08,1.34,-0.61,-2.01,217,275,188,442,384,18
1212,0.17,-0.97,-0.06,0.85,-5.0,-3.11,211,273,192,441,384,18
1213,0.14,-0.98,-0.04,3.66,-4.76,-6.53,211,269,177,445,383,18
1214,0.19,-0.99,-0.11,1.1,4.58,2.14,211,273,190,442,385,18
1215,0.22,-0.99,-0.08,3.11,-5.49,-7.14,200,274,189,441,383,18
1216,0.19,-0.97,-0.11,-2.44,0.12,-1.46,211,269,188,442,384,18
1217,0.18,-0.99,-0.08,-3.42,-8.06,-5.25,213,275,187,443,386,18
1218,0.13,-0.99,-0.07,4.33,-0.49,-0.49,212,271,193,449,376,18
1219,0.16,-0.98,-0.05,-0.24,-4.15,-5.07,216,275,195,449,384,18
1220,0.15,-1.0,-0.09,1.22,-2.81,-2.87,211,272,189,445,385,18
1221,0.16,-0.99,-0.07,1.71,-2.75,-3.11,209,275,185,449,386,18
1222,0.17,-0.98,-0.08,1.04,-2.62,-2.75,211,275,191,443,384,18
1223,0.17,-0.98,-0.05,1.59,-3.23,-3.17,212,273,193,442,387,18
1224,0.17,-0.98,-0.05,0.0,-3.54,-2.69,210,273,189,441,386,18
1225,0.17,-0.99,-0.06,1.28,-3.17,-3.05,210,268,196,442,384,18
1226,0.22,-0.99,-0.11,-0.98,-5.43,-4.46,221,274,190,441,382,18
1227,0.2,-0.98,-0.07,3.11,-2.38,-2.62,207,273,194,444,386,18
1228,0.18,-0.99,-0.08,2.14,-4.52,-2.32,214,277,189,443,384,18
1229,0.15,-0.98,-0.06,3.05,-1.4,-2.93,209,278,192,449,382,18
1230,0.17,-1.0,-0.08,-11.05,-1.34,-5.0,213,277,192,449,380,18
1231,0.14,-1.0,-0.07,4.15,-3.6,-5.55,212,274,193,443,385,18
1232,0.16,-0.98,-0.07,7.75,-1.22,-5.25,217,274,197,443,385,18
1233,0.14,-0.97,-0.06,1.77,-2.08,-2.14,210,283,192,446,383,18
1234,0.15,-0.97,-0.05,0.92,-0.55,0.85,213,276,176,447,384,18
1235,0.17,-0.98,-0.04,1.28,-5.0,-5.0,213,280,190,446,384,18
1236,0.21,-0.98,-0.06,-1.65,-2.69,-7.26,212,279,200,444,387,18
1237,0.22,-0.97,-0.05,-1.1,-1.77,-4.33,211,279,200,442,380,18
1238,0.22,-0.97,-0.06,-1.28,-1.53,-2.08,212,280,199,448,383,18
1239,0.21,-0.97,-0.05,0.92,-3.11,-4.09,215,280,193,449,378,18
1240,0.23,-0.97,-0.05,1.46,-2.93,-2.5,214,278,188,455,383,18
1241,0.22,-0.97,-0.08,0.92,-2.75,-2.14,215,279,190,443,379,18
1242,0.22,-0.97,-0.05,1.16,-3.17,-3.11,212,278,194,440,383,18
1243,0.22,-0.96,-0.05,0.67,-3.11,-2.87,214,280,196,460,383,18
1244,0.22,-0.97,-0.06,-0.92,-2.87,-1.95,216,277,195,444,384,18
1245,0.18,-0.97,-0.03,0.31,-2.56,-2.38,214,280,196,446,382,18
1246,0.19,-0.97,-0.03,1.1,-2.26,2.01,235,278,192,440,382,18
1247,0.19,-0.97,-0.05,1.1,-2.44,-0.79,227,277,194,442,385,18
1248,0.22,-0.97,-0.04,1.53,-7.26,-4.52,214,283,194,447,383,18
1249,0.17,-0.98,-0.02,0.06,-2.32,-2.5,225,280,193,446,382,18
1250,0.19,-0.98,-0.05,0.67,-2.44,-0.92,224,278,190,441,383,18
1251,0.18,-0.97,-0.04,0.79,-3.11,-2.2,216,282,200,448,384,18
1252,0.2,-0.98,-0.05,0.98,-4.27,-2.81,213,277,182,443,379,18
1253,0.19,-0.98,-0.04,-0.18,-2.75,-3.42,214,278,196,442,382,18
1254,0.2,-0.98,-0.04,1.46,-2.93,-2.14,212,281,195,444,381,18
1255,0.2,-0.98,-0.05,0.98,-4.27,-2.2,217,280,197,443,381,18
1256,0.18,-0.99,-0.04,1.89,-2.87,-1.4,217,278,198,450,381,18
1257,0.17,-0.98,-0.02,-2.08,-2.69,-2.81,220,280,197,444,383,18
1258,0.19,-0.97,-0.04,1.1,-3.3,-3.11,222,278,193,447,382,18
1259,0.19,-0.97,-0.0,1.65,-3.3,-0.06,216,284,195,445,383,18
1260,0.16,-0.99,-0.04,-2.2,-4.03,-0.06,216,279,197,450,379,18
1261,0.16,-0.98,-0.04,-0.49,-7.63,-4.58,214,287,195,450,382,18
1262,0.14,-0.94,-0.05,3.78,-4.33,-1.77,214,278,195,446,384,18
1263,0.17,-0.98,-0.05,-0.06,-2.99,-0.79,214,280,202,448,380,18
1264,0.14,-1.0,-0.07,-3.91,-2.56,0.12,214,279,193,450,383,18
1265,0.14,-1.0,-0.11,0.43,-0.37,-5.31,214,279,193,448,384,18
1266,0.19,-0.97,-0.06,1.1,-4.03,-3.23,216,280,197,442,383,18
1267,0.16,-0.98,-0.12,1.95,-2.2,0.18,226,280,198,446,381,18
1268,0.17,-0.98,-0.08,-1.89,-4.46,-4.58,216,281,192,449,385,18
1269,0.19,-0.98,-0.05,3.36,-2.75,-3.66,209,278,195,446,393,18
1270,0.19,-0.99,-0.08,-2.5,-11.47,-6.84,218,275,200,449,379,18
1271,0.14,-1.0,-0.1,-5.8,-7.32,-2.99,212,279,193,449,383,18
1272,0.21,-0.98,-0.12,-4.21,-6.04,-6.71,212,278,197,446,384,18
1273,0.2,-0.96,-0.05,3.23,-1.34,-0.67,219,278,193,450,382,18
1274,0.23,-0.94,-0.14,-7.81,0.0,-4.09,215,276,184,444,380,18
1275,0.2,-0.93,-0.15,-0.24,4.58,-3.6,214,279,195,452,389,18
1276,0.26,-0.92,-0.09,-2.14,0.37,-7.69,212,275,196,445,382,18
1277,0.28,-0.98,-0.11,2.81,0.79,-6.77,214,282,195,445,383,18
1278,0.34,-0.99,-0.08,7.39,12.7,0.06,217,284,195,447,385,18
1279,0.3,-0.91,-0.05,-0.79,0.43,-9.09,219,278,197,441,382,18
1280,0.33,-0.94,-0.15,-2.62,-9.09,-0.85,218,283,201,449,383,18
1281,0.3,-0.95,-0.15,3.11,-2.2,-2.26,215,280,199,445,382,18
1282,0.28,-0.94,-0.09,8.0,-6.77,3.42,218,278,200,444,382,18
1283,0.24,-0.96,-0.1,2.2,-3.17,11.47,215,279,194,451,385,18
1284,0.22,-0.97,-0.14,-0.67,-2.62,-2.62,215,280,199,449,382,18
1285,0.18,-0.97,-0.11,0.43,-3.3,-4.09,219,284,196,452,381,18
1286,0.17,-0.98,-0.12,2.99,-7.02,2.2,216,280,201,440,377,18
1287,0.17,-0.97,-0.11,-4.52,-4.15,-3.97,218,280,199,448,379,18
1288,0.22,-0.98,-0.12,1.34,-1.53,-2.75,217,282,203,445,378,18
1289,0.22,-0.97,-0.11,-0.92,0.73,-4.88,218,284,201,441,378,18
1290,0.19,-0.96,-0.13,-3.72,-6.04,-7.45,224,280,200,445,381,18
1291,0.24,-0.97,-0.16,-0.49,-4.33,-0.61,215,282,195,448,378,18
1292,0.19,-0.97,-0.13,2.32,-4.21,-3.6,218,282,199,448,381,18
1293,0.19,-0.97,-0.14,-5.86,-4.7,-6.77,218,281,197,449,380,18
1294,0.17,-0.97,-0.15,-2.93,8.3,3.23,215,286,199,441,376,18
1295,0.21,-0.98,-0.15,-4.52,-3.3,-3.42,214,278,194,452,380,18
1296,0.2,-0.96,-0.14,1.53,-7.32,-3.6,219,281,198,444,380,18
1297,0.18,-0.97,-0.12,-0.85,-5.49,-2.56,218,275,203,450,378,18
1298,0.18,-0.96,-0.08,-2.01,-2.32,-2.5,214,287,186,443,377,18
1299,0.18,-0.97,-0.09,1.65,-1.95,-2.2,215,284,196,445,383,18
1300,0.18,-0.96,-0.09,-0.24,-0.67,-3.3,213,282,198,447,378,18
1301,0.23,-0.97,-0.15,3.6,-0.61,-1.46,217,282,198,446,380,18
1302,0.23,-0.97,-0.15,3.3,1.1,0.79,217,281,195,449,386,18
1303,0.23,-0.96,-0.14,4.21,-1.46,0.61,217,285,197,443,376,18
1304,0.21,-0.95,-0.14,2.56,-1.16,-1.16,215,285,201,451,369,18
1305,0.22,-0.98,-0.15,1.59,-3.23,-3.23,218,281,193,446,378,18
1306,0.21,-0.97,-0.14,0.37,-4.46,-3.36,216,286,196,449,378,18
1307,0.19,-0.95,-0.13,-2.69,-5.86,-2.26,217,297,199,441,379,18
1308,0.18,-0.97,-0.15,-0.73,-4.94,-4.21,216,282,196,442,376,18
1309,0.18,-0.97,-0.12,3.3,-1.71,-1.46,217,282,199,447,380,18
1310,0.2,-0.98,-0.11,1.65,-3.48,0.31,214,285,204,450,381,18
1311,0.19,-0.98,-0.13,2.75,-1.53,-1.1,220,286,204,445,380,18
1312,0.17,-0.97,-0.1,-0.61,-3.97,-4.33,212,284,198,437,379,18
1313,0.21,-0.98,-0.1,0.85,-0.98,-3.23,217,286,200,446,379,18
1314,0.18,-0.97,-0.08,2.2,-3.17,-2.99,218,286,201,442,384,18
1315,0.18,-0.98,-0.1,-0.61,-3.42,-2.44,220,285,197,442,375,18
1316,0.2,-0.97,-0.1,1.71,-1.53,-2.93,217,281,194,445,380,18
1317,0.19,-0.97,-0.1,-0.12,-4.76,-2.69,218,283,194,447,380,18
1318,0.17,-0.97,-0.13,-2.2,-5.49,-3.72,225,288,189,447,383,18
1319,0.2,-0.97,-0.12,0.43,-2.01,-3.17,218,277,202,443,377,18
1320,0.18,-0.96,-0.11,1.95,-5.62,-4.94,219,286,204,447,380,18
1321,0.18,-0.96,-0.1,-0.61,-4.39,-4.15,211,287,196,448,380,18
1322,0.22,-0.96,-0.1,4.33,-1.89,-1.59,221,279,190,452,383,18
1323,0.21,-0.98,-0.14,0.85,-2.44,-4.46,219,300,195,445,379,18
1324,0.17,-0.95,-0.05,2.2,-5.98,-0.61,218,285,207,448,380,18
1325,0.2,-0.96,-0.05,0.43,-5.43,-4.82,219,283,199,439,378,18
1326,0.17,-0.97,-0.08,3.3,-7.08,-4.58,217,280,199,441,377,18
1327,0.19,-0.98,-0.05,2.01,-1.65,-0.98,219,288,197,443,383,18
1328,0.21,-0.96,-0.05,2.44,-2.93,-1.16,216,283,198,447,376,18
1329,0.21,-0.96,-0.09,-0.73,-2.5,-2.93,218,290,205,450,381,18
1330,0.21,-0.94,-0.13,-4.39,-4.94,-2.32,218,282,193,447,378,18
1331,0.2,-0.97,-0.13,-1.95,-3.85,-3.54,222,283,201,442,378,18
1332,0.21,-0.97,-0.11,2.26,-2.38,-1.83,219,284,198,453,382,18
1333,0.22,-0.97,-0.11,0.79,-3.17,-2.93,217,285,197,446,380,18
1334,0.23,-0.96,-0.11,2.2,-2.2,-2.87,217,284,206,446,379,18
1335,0.2,-0.97,-0.11,-1.4,-4.09,-3.66,220,280,192,449,381,18
1336,0.2,-0.97,-0.09,0.49,-4.03,-3.54,217,283,198,445,376,18
1337,0.19,-0.97,-0.09,0.0,-2.08,-1.95,216,285,197,449,381,18
1338,0.21,-0.97,-0.11,0.92,-1.59,-2.01,217,283,200,447,383,18
1339,0.21,-0.96,-0.11,0.55,-2.38,-1.95,223,282,203,449,381,18
1340,0.23,-0.97,-0.11,0.37,-3.05,-3.54,224,282,201,450,385,18
1341,0.22,-0.97,-0.11,0.61,-3.05,-2.99,217,283,198,450,381,18
1342,0.24,-0.98,-0.13,1.89,-2.75,-2.08,219,286,207,451,380,18
1343,0.24,-0.97,-0.1,4.09,-3.78,-2.87,218,284,203,444,382,18
1344,0.22,-0.98,-0.11,-0.43,-2.75,-3.11,219,284,201,449,378,18
1345,0.22,-0.97,-0.1,-0.79,-4.27,-2.38,216,283,203,451,381,18
1346,0.21,-0.97,-0.11,1.16,-3.48,-2.75,217,286,203,444,383,18
1347,0.19,-0.95,-0.06,-0.79,-0.73,1.04,215,286,196,445,381,18
1348,0.21,-0.96,-0.09,1.59,-1.83,-1.16,223,286,201,448,380,18
1349,0.22,-0.97,-0.11,2.08,-2.26,-1.22,221,278,198,445,379,18
1350,0.21,-0.98,-0.12,-0.12,-3.42,-3.97,213,284,202,446,376,18
1351,0.21,-0.96,-0.1,0.73,-4.27,-2.56,225,282,200,440,376,18
1352,0.21,-0.96,-0.09,0.06,-2.75,-3.05,215,290,203,445,378,18
1353,0.22,-0.97,-0.09,-0.92,-2.99,-0.73,220,284,199,452,379,18
1354,0.21,-0.97,-0.09,0.92,-2.26,-2.87,217,280,201,449,375,18
1355,0.19,-0.97,-0.09,-1.16,-1.28,-1.65,218,286,200,450,380,18
1356,0.2,-0.98,-0.12,1.22,-4.94,-4.64,218,286,197,450,372,18
1357,0.16,-0.98,-0.12,-2.81,-4.7,-4.46,216,279,199,437,377,18
1358,0.2,-0.97,-0.09,-0.92,-5.07,-2.56,214,288,198,450,378,18
1359,0.18,-0.97,-0.07,-1.28,-2.08,-2.69,222,285,198,442,374,18
1360,0.22,-0.96,-0.12,-1.34,-4.82,-1.65,220,288,204,446,381,18
1361,0.2,-0.96,-0.14,-12.08,-2.5,-9.58,218,287,189,449,379,18
1362,0.27,-0.95,-0.14,-5.0,-2.81,-1.77,229,288,205,451,378,18
1363,0.28,-0.98,-0.23,11.35,-6.65,2.01,216,286,204,446,380,18
1364,0.14,-0.99,-0.12,-0.24,-2.08,-1.1,211,286,199,447,379,18
1365,0.18,-0.97,-0.09,2.2,-3.66,-1.28,215,283,202,453,380,18
1366,0.22,-0.97,-0.11,2.2,0.0,-5.92,235,286,198,441,380,18
1367,0.25,-0.98,-0.1,2.44,-3.97,-4.52,216,284,203,448,379,18
1368,0.21,-0.98,-0.1,-1.4,-4.94,-5.74,218,285,204,445,379,18
1369,0.2,-0.98,-0.09,-0.85,-3.17,-1.22,222,286,201,442,387,18
1370,0.21,-0.99,-0.09,-0.49,-3.66,-4.21,218,284,199,444,380,18
1371,0.22,-0.98,-0.09,0.92,-3.17,-3.23,219,292,197,442,381,18
1372,0.24,-0.96,-0.1,0.79,-1.04,-1.83,218,285,201,442,379,18
1373,0.19,-0.97,-0.08,0.67,-2.32,-1.16,218,283,200,440,377,18
1374,0.23,-0.96,-0.1,0.49,-3.78,-2.2,220,286,199,446,381,18
1375,0.21,-0.96,-0.09,-0.18,-4.39,-1.28,221,283,202,446,380,18
1376,0.22,-0.97,-0.09,1.83,-4.88,-1.22,220,289,200,446,379,18
1377,0.32,-0.99,-0.09,13.06,-8.06,-0.18,221,289,203,442,383,18
1378,0.19,-0.98,-0.11,5.55,-8.67,6.47,215,288,200,451,377,18
1379,0.11,-0.99,-0.11,9.7,-5.19,12.45,220,287,200,450,379,18
1380,0.08,-0.99,-0.04,-0.49,-9.77,-3.17,220,281,199,446,379,18
1381,0.06,-0.97,-0.01,4.27,-4.7,2.08,216,287,199,451,379,18
1382,0.07,-1.05,-0.06,-1.77,-7.08,-3.3,217,284,204,455,379,18
1383,0.11,-1.02,-0.08,-3.48,-8.73,-13.79,224,286,199,442,379,18
1384,0.06,-0.98,0.02,6.53,-4.46,-1.28,217,286,200,443,380,18
1385,0.12,-0.96,-0.02,4.09,-6.65,-8.06,214,284,211,449,381,18
1386,0.09,-0.99,-0.03,3.05,-1.4,-7.08,223,286,204,448,378,18
1387,0.15,-0.99,-0.02,0.37,-1.28,0.37,217,285,206,449,380,18
1388,0.13,-1.0,-0.06,1.22,-1.46,-2.2,218,288,202,459,379,18
1389,0.14,-0.99,-0.01,-1.1,-2.93,-3.72,219,285,198,445,382,18
1390,0.1,-1.01,-0.07,0.92,-7.08,-6.23,219,290,195,449,382,18
1391,0.12,-0.99,0.0,-4.82,-1.59,-1.22,214,286,202,450,381,18
1392,0.14,-0.99,0.01,-3.05,-1.83,-6.71,221,289,206,447,383,18
1393,0.16,-0.96,-0.01,-0.12,-2.32,-2.69,216,286,202,445,378,18
1394,0.17,-0.98,-0.07,-2.81,0.73,-4.88,220,286,206,448,379,18
1395,0.17,-0.98,-0.08,-0.06,-5.0,-3.78,218,285,203,446,381,18
1396,0.17,-0.99,-0.09,-1.59,-3.97,-4.39,220,285,203,452,376,18
1397,0.16,-0.99,-0.07,-4.21,-3.23,-2.32,217,282,193,448,376,18
1398,0.17,-1.0,-0.1,-6.16,-2.62,-1.65,213,286,200,451,382,18
1399,0.17,-0.96,-0.08,0.55,-3.05,-2.75,215,287,198,444,376,18
1400,0.2,-0.99,-0.08,0.18,-2.69,-2.56,217,291,205,443,378,18
1401,0.17,-0.96,-0.04,3.05,-1.95,-1.4,220,282,196,444,376,18
1402,0.16,-0.98,-0.09,-0.31,-4.82,-4.82,221,286,203,441,384,18
1403,0.17,-0.98,-0.11,-3.11,-4.88,-3.11,220,285,201,448,381,18
1404,0.16,-0.98,-0.06,0.92,-1.59,-1.83,222,289,214,452,380,18
1405,0.19,-0.98,-0.09,0.98,-1.95,-3.97,212,284,201,447,381,18
1406,0.15,-1.0,-0.08,0.92,-0.61,1.89,219,290,203,448,380,18
1407,0.13,-0.96,-0.04,-2.14,-2.26,-1.59,217,288,200,450,380,18
1408,0.14,-0.98,-0.07,-1.04,-2.75,-4.7,220,284,199,448,382,18
1409,0.18,-0.9,-0.1,-2.14,-3.05,-3.85,216,286,199,442,381,18
1410,0.18,-0.94,-0.13,-2.44,-2.38,-4.52,219,286,203,447,379,18
1411,0.2,-0.95,-0.08,0.43,-3.11,-2.81,218,289,204,449,383,18
1412,0.17,-0.96,-0.11,-2.38,-3.54,-2.62,219,288,199,449,382,18
1413,0.18,-0.97,-0.11,-1.95,-2.38,-5.19,219,287,200,450,381,18
1414,0.21,-0.96,-0.12,-4.09,-1.77,-1.53,221,288,202,445,381,18
1415,0.26,-0.96,-0.18,-9.22,6.65,-11.9,222,286,206,448,380,18
1416,0.22,-0.97,-0.21,-9.34,8.24,-5.8,222,285,205,446,380,18
1417,0.23,-0.93,-0.18,3.42,-0.73,2.38,215,287,206,450,383,18
1418,0.24,-0.95,-0.18,4.03,-6.16,1.83,223,282,203,452,381,18
1419,0.23,-0.91,-0.19,1.83,-5.13,4.27,221,287,212,450,381,18
1420,0.17,-0.96,-0.17,-0.49,-0.49,-1.1,218,285,204,448,382,18
1421,0.2,-0.96,-0.2,-1.59,-4.39,-7.32,217,283,202,446,380,18
1422,0.27,-0.97,-0.22,0.92,-1.1,-1.4,217,289,201,454,381,18
1423,0.22,-0.93,-0.2,1.53,-4.7,-2.75,217,285,206,444,380,18
1424,0.22,-0.94,-0.18,-0.06,-1.95,2.38,219,290,208,451,383,18
1425,0.17,-0.98,-0.21,-1.34,2.14,1.22,219,285,205,448,380,18
1426,0.25,-1.01,-0.28,-0.92,1.53,-8.42,221,287,204,453,381,18
1427,0.24,-0.93,-0.18,-4.76,-6.77,-6.47,219,287,202,447,379,18
1428,0.18,-0.93,-0.16,2.2,-2.26,2.56,219,289,202,450,380,18
1429,0.24,-0.93,-0.21,2.2,-3.23,-2.81,216,287,202,447,379,18
1430,0.2,-0.95,-0.2,1.89,-0.18,-2.08,220,285,202,446,380,18
1431,0.19,-0.92,-0.17,9.34,-2.56,-3.97,223,283,203,445,383,18
1432,0.18,-0.95,-0.18,0.61,-4.88,-4.46,214,286,204,450,381,18
1433,0.18,-0.94,-0.16,0.06,-2.99,-2.2,219,284,203,449,381,18
1434,0.18,-0.97,-0.19,0.31,-2.14,0.31,219,284,202,449,379,18
1435,0.19,-0.95,-0.17,-2.26,-5.0,-4.94,217,283,203,449,383,18
1436,0.16,-0.97,-0.17,1.89,1.4,-5.49,217,284,206,451,384,18
1437,0.18,-0.95,-0.18,2.26,-2.5,-1.4,217,287,203,449,381,18
1438,0.18,-0.96,-0.2,-1.95,-5.25,-2.87,219,287,202,451,383,18
1439,0.19,-0.96,-0.19,-0.49,-3.11,-1.28,221,284,202,445,379,18
1440,0.21,-0.95,-0.17,0.73,-6.71,-2.69,220,282,213,454,381,18
1441,0.23,-0.97,-0.19,-0.61,-2.81,-3.66,221,288,202,444,380,18
1442,0.18,-0.99,-0.27,-3.6,-5.43,-3.3,221,287,209,449,376,18
1443,0.15,-0.97,-0.17,4.88,-2.93,4.88,229,283,206,450,382,18
1444,0.18,-0.97,-0.22,-12.21,-3.42,-7.93,221,279,209,452,381,18
1445,0.19,-0.95,-0.22,-4.21,-5.13,-4.27,222,285,208,448,381,18
1446,0.13,-0.98,-0.18,-12.94,-2.26,-7.14,242,285,204,453,380,18
1447,0.22,-0.93,-0.26,1.34,-1.53,-6.84,215,295,207,442,381,18
1448,0.24,-0.98,-0.27,6.47,-4.82,-2.44,220,286,200,448,379,18
1449,0.24,-0.96,-0.26,0.24,-2.99,-2.87,219,288,203,449,381,18
1450,0.21,-0.97,-0.21,2.5,0.92,2.14,218,293,204,448,380,18
1451,0.26,-0.96,-0.26,-0.98,-2.62,-9.7,217,282,201,452,382,18
1452,0.23,-0.95,-0.25,-0.06,-4.82,-8.18,219,286,205,447,377,18
1453,0.26,-0.96,-0.24,3.05,-1.22,2.99,218,285,206,451,379,18
1454,0.26,-0.93,-0.2,7.2,-5.07,-4.7,235,294,199,463,382,18
1455,0.23,-0.96,-0.23,-1.1,1.04,-3.97,220,287,204,452,383,18
1456,0.17,-0.93,-0.16,-0.06,-0.92,-9.4,220,283,202,447,382,18
1457,0.24,-0.91,-0.23,3.85,-7.14,-8.12,218,288,204,448,379,18
1458,0.17,-0.93,-0.24,6.47,-1.95,4.52,219,290,203,447,377,18
1459,0.19,-0.93,-0.22,0.37,-2.14,-3.3,219,287,203,451,383,18
1460,0.24,-0.94,-0.23,3.91,-0.67,-8.12,215,281,202,452,381,18
1461,0.26,-0.94,-0.25,1.22,-8.91,-4.33,221,283,204,442,380,18
1462,0.25,-0.93,-0.25,2.56,-3.3,-5.25,221,289,198,444,378,18
1463,0.22,-0.93,-0.23,4.21,-3.78,-1.65,220,288,201,447,381,18
1464,0.23,-0.93,-0.21,-4.09,-3.66,-3.05,220,287,205,451,381,18
1465,0.24,-0.94,-0.26,3.6,-1.53,-4.88,215,285,189,446,381,18
1466,0.22,-0.94,-0.23,2.2,-1.4,-0.79,245,284,206,451,379,18
1467,0.24,-0.96,-0.21,0.0,-0.18,-4.15,218,288,205,450,378,18
1468,0.26,-0.93,-0.23,4.39,-4.15,-1.59,219,284,209,448,382,18
1469,0.25,-0.95,-0.23,1.16,-2.5,-1.4,223,284,200,442,379,18
1470,0.26,-0.93,-0.17,-1.4,-3.66,-4.7,216,282,206,447,382,18
1471,0.23,-0.95,-0.21,1.83,-1.16,-3.05,221,287,208,448,376,18
1472,0.26,-0.95,-0.22,2.32,-3.17,-2.75,220,287,199,448,380,18
1473,0.24,-0.94,-0.18,-0.18,-2.08,-2.99,215,288,205,435,380,18
1474,0.24,-0.92,-0.21,-0.06,-3.91,-3.36,221,280,206,445,383,18
1475,0.25,-0.94,-0.19,0.55,-1.59,-2.2,219,290,208,451,380,18
1476,0.25,-0.94,-0.22,-0.49,-2.99,-3.6,222,285,207,451,380,18
1477,0.24,-0.93,-0.19,0.67,-2.87,-2.08,220,287,204,446,380,18
1478,0.29,-0.92,-0.22,3.48,-0.24,-2.87,220,282,195,443,380,18
1479,0.27,-0.94,-0.23,2.87,1.1,0.43,219,284,205,446,382,18
1480,0.22,-0.93,-0.19,6.35,0.92,2.08,222,276,200,452,378,18
1481,0.25,-0.94,-0.21,-2.01,-1.34,-6.35,217,281,206,452,381,18
1482,0.25,-0.95,-0.23,-0.98,-3.6,-4.76,221,288,202,442,382,18
1483,0.26,-0.93,-0.2,0.24,-3.05,-2.81,218,285,202,446,381,18
1484,0.28,-0.95,-0.23,1.77,-3.42,-3.05,218,285,206,449,380,18
1485,0.26,-0.95,-0.21,2.69,-5.86,0.24,218,284,203,448,381,18
1486,0.15,-0.96,-0.19,-1.95,0.67,-1.71,218,285,209,445,377,18
1487,0.15,-0.93,-0.18,1.71,-1.22,-0.18,221,285,202,441,379,18
1488,0.18,-0.97,-0.21,0.61,-1.89,-3.78,220,285,207,448,379,18
1489,0.18,-0.96,-0.2,0.49,-2.69,-2.01,225,286,204,449,375,18
1490,0.17,-0.96,-0.2,1.04,-1.59,-2.14,220,285,218,446,376,18
1491,0.18,-0.96,-0.18,0.98,-0.18,-7.81,217,288,206,448,379,18
1492,0.19,-0.96,-0.17,0.85,-1.22,-2.81,219,281,200,451,381,18
1493,0.19,-0.96,-0.19,0.92,-2.75,-1.4,217,289,205,451,381,18
1494,0.19,-0.96,-0.21,-2.81,-4.39,-2.14,221,283,202,451,380,18
1495,0.19,-0.95,-0.19,3.54,-2.44,-0.31,220,288,207,446,380,18
1496,0.17,-0.96,-0.19,3.11,-2.75,-2.93,221,287,205,443,376,18
1497,0.18,-0.97,-0.25,1.71,-6.35,-5.31,218,289,218,452,377,18
1498,0.18,-0.94,-0.15,5.19,-1.65,-1.28,223,284,204,444,378,18
1499,0.15,-0.96,-0.16,-2.32,-3.54,3.42,220,288,208,451,378,18
1500,0.19,-0.97,-0.22,5.37,0.92,5.43,222,287,202,451,379,18
1501,0.09,-0.97,-0.14,3.54,0.43,-8.06,219,287,206,448,383,18
1502,0.16,-0.97,-0.17,3.42,-3.97,-8.12,221,285,207,450,381,18
1503,0.19,-0.97,-0.17,0.31,-2.26,-7.26,225,285,209,454,374,18
1504,0.15,-0.98,-0.18,-5.49,-8.18,-1.46,221,287,209,446,378,18
1505,0.19,-0.98,-0.22,-3.54,4.46,-7.45,221,289,203,442,379,18
1506,0.22,-0.96,-0.2,0.18,-2.5,-6.23,220,287,219,447,376,18
1507,0.18,-0.96,-0.19,-1.28,-2.93,-2.56,222,284,209,452,377,18
1508,0.22,-0.96,-0.16,0.0,-2.2,-1.83,222,289,207,447,386,18
1509,0.2,-0.96,-0.17,-0.43,-3.23,-1.77,225,285,209,447,376,18
1510,0.21,-0.95,-0.17,1.4,-2.56,-2.32,212,290,198,449,380,18
1511,0.22,-0.96,-0.18,0.18,-2.69,-2.81,219,287,207,453,380,18
1512,0.23,-0.96,-0.18,-1.22,-3.17,-1.4,221,287,207,452,379,18
1513,0.22,-0.96,-0.17,0.73,-1.89,-1.77,217,289,204,444,379,18
1514,0.2,-0.96,-0.19,-2.75,-4.21,-3.6,220,286,205,448,383,18
1515,0.21,-0.95,-0.17,1.71,-2.62,-3.11,223,287,204,444,374,18
1516,0.17,-0.95,-0.16,-2.44,-1.28,-4.03,222,287,204,452,380,18
1517,0.25,-0.96,-0.18,-1.71,0.92,0.67,223,290,205,451,376,18
1518,0.24,-0.96,-0.19,0.85,-2.75,2.99,217,287,212,452,381,18
1519,0.16,-0.98,-0.11,1.28,2.87,0.37,253,286,207,449,375,18
1520,0.14,-0.98,-0.16,0.55,-1.83,-2.44,224,289,205,452,382,18
1521,0.2,-0.96,-0.15,1.53,-5.37,-5.68,220,289,203,448,378,18
1522,0.18,-0.96,-0.09,3.23,-7.14,-3.23,223,282,200,449,380,18
1523,0.17,-0.95,-0.08,6.16,-4.52,-10.13,222,287,203,449,377,18
1524,0.25,-0.97,-0.17,-5.13,-4.09,-8.12,221,295,201,450,379,18
1525,0.21,-0.96,-0.18,1.22,-1.46,-1.1,217,290,204,452,383,18
1526,0.29,-0.94,-0.23,2.56,-8.42,-0.73,219,288,215,448,380,18
1527,0.2,-0.96,-0.15,-5.92,-7.93,3.72,224,286,204,449,377,18
1528,0.17,-0.95,-0.14,9.7,10.56,-5.98,220,290,206,450,378,18
1529,0.26,-0.95,-0.14,4.15,4.27,-5.92,222,285,212,450,377,18
1530,0.26,-0.97,-0.15,7.45,-9.34,-0.37,217,284,201,452,371,18
1531,0.19,-0.96,-0.12,-9.7,-1.16,-4.15,220,287,207,447,377,18
1532,0.23,-0.95,-0.14,0.98,-5.49,-0.85,220,287,205,441,378,18
1533,0.18,-0.96,-0.16,3.66,-4.82,-1.71,216,288,205,452,376,18
1534,0.2,-0.97,-0.14,-2.26,0.55,-0.31,230,289,208,445,377,18
1535,0.21,-0.97,-0.14,3.6,-4.82,-3.05,221,285,205,453,376,18
1536,0.19,-0.97,-0.11,0.85,-2.75,-3.23,221,290,205,448,380,18
1537,0.19,-0.96,-0.12,1.04,-3.05,-2.32,229,285,204,453,378,18
1538,0.18,-0.97,-0.11,-0.98,-1.1,-1.71,224,288,205,448,378,18
1539,0.2,-0.99,-0.15,1.53,-1.65,0.98,218,288,205,448,377,18
1540,0.23,-0.97,-0.13,3.36,-2.2,-2.5,223,290,205,453,377,18
1541,0.18,-0.99,-0.14,4.27,-0.31,-0.43,246,285,205,446,378,18
1542,0.18,-0.97,-0.1,0.73,-3.3,-3.23,220,288,208,450,378,18
1543,0.19,-0.98,-0.1,-1.71,-2.5,-1.95,219,289,207,446,376,18
1544,0.2,-0.98,-0.1,-0.61,-3.97,-3.6,224,289,208,446,377,18
1545,0.21,-0.97,-0.1,1.22,-2.87,-3.54,226,286,216,453,378,18
1546,0.23,-1.0,-0.14,-6.65,-6.65,-3.42,220,287,209,454,377,18
1547,0.21,-0.98,-0.13,3.11,-5.86,-6.35,220,285,208,453,378,18
1548,0.23,-0.97,-0.12,-1.22,-4.76,-5.19,221,291,202,453,379,18
1549,0.21,-0.97,-0.1,2.81,-4.64,-2.01,223,288,206,451,376,18
1550,0.24,-0.95,-0.12,3.91,-1.89,-3.97,223,290,204,450,378,18
1551,0.25,-0.96,-0.12,4.52,-3.05,-6.65,220,289,208,434,377,18
1552,0.22,-0.98,-0.09,-0.31,-7.69,-0.18,221,286,203,449,375,18
1553,0.23,-0.96,-0.08,4.33,-1.95,0.92,220,289,208,454,378,18
1554,0.23,-0.97,-0.09,3.3,0.12,-2.44,223,289,209,450,378,18
1555,0.26,-0.98,-0.1,15.44,-15.81,-1.22,220,290,206,445,381,18
1556,0.23,-0.96,-0.09,-0.24,-17.64,2.08,221,292,207,451,378,18
1557,0.19,-0.97,-0.06,-0.73,-5.86,-3.05,223,288,202,453,379,18
1558,0.2,-0.97,-0.07,0.67,0.12,-4.27,218,287,206,451,376,18
1559,0.19,-0.97,-0.07,0.24,-3.66,-3.05,224,285,206,450,377,18
1560,0.19,-0.98,-0.1,-0.73,-3.23,-3.72,223,290,208,448,375,18
1561,0.17,-0.97,-0.08,-0.73,-3.11,-1.71,223,293,208,450,375,18
1562,0.2,-0.98,-0.08,2.62,-2.62,-2.08,221,288,201,453,377,18
1563,0.19,-0.97,-0.06,1.1,-2.99,-3.3,223,289,208,450,381,18
1564,0.2,-0.97,-0.07,0.31,-3.05,-3.6,224,288,209,450,376,18
1565,0.19,-0.97,-0.08,1.53,-2.44,-2.14,222,291,207,449,377,18
1566,0.19,-0.97,-0.08,1.28,-3.54,-2.93,221,289,206,449,379,18
1567,0.2,-0.97,-0.08,-0.12,-3.66,-3.6,220,286,208,449,378,18
1568,0.19,-0.98,-0.07,-0.06,-2.62,-3.11,220,289,207,454,379,18
1569,0.23,-0.97,-0.07,0.92,-3.42,-3.85,222,294,206,451,379,18
1570,0.2,-0.97,-0.07,0.0,-3.36,-1.71,229,291,208,453,379,18
1571,0.19,-0.99,-0.07,-0.61,-2.44,-2.44,224,290,203,446,385,18
1572,0.19,-0.97,-0.05,1.22,-1.83,-0.37,220,289,211,455,380,18
1573,0.22,-0.99,-0.12,-1.16,-3.66,-3.66,222,289,220,447,377,18
1574,0.21,-0.97,-0.08,-0.24,-2.32,-2.2,223,282,209,450,378,18
1575,0.2,-0.97,-0.07,1.4,-2.75,-1.22,221,288,210,456,375,18
1576,0.19,-1.01,-0.02,0.43,-2.99,-1.89,233,289,202,452,372,18
1577,0.19,-0.97,-0.06,1.77,-2.62,-2.26,220,290,195,447,378,18
1578,0.19,-0.98,-0.08,-1.53,-3.11,-3.42,221,285,211,452,374,18
1579,0.18,-0.97,-0.05,0.79,-2.38,-3.91,224,288,211,454,376,18
1580,0.2,-0.98,-0.08,-0.24,-2.93,-1.77,221,290,206,450,378,18
1581,0.2,-0.98,-0.07,0.92,-5.37,-2.08,223,286,202,452,374,18
1582,0.21,-0.97,-0.08,0.31,-3.6,-2.2,219,290,200,450,378,18
1583,0.2,-0.97,-0.06,0.98,-2.32,-1.83,223,289,208,451,373,18
1584,0.19,-0.97,-0.07,0.37,-3.05,-2.44,221,288,210,454,375,18
1585,0.2,-0.98,-0.07,0.73,-2.38,-2.93,221,289,207,452,377,18
1586,0.2,-0.98,-0.08,1.34,-2.87,-1.16,223,291,209,442,378,18
1587,0.19,-0.98,-0.07,0.85,-3.78,-2.32,222,288,208,450,380,18
1588,0.19,-0.97,-0.06,0.67,-2.75,-2.44,217,287,212,453,377,18
1589,0.2,-0.97,-0.07,0.0,-3.91,-3.05,222,288,212,451,376,18
1590,0.21,-0.98,-0.08,0.79,-3.54,-2.2,219,287,205,451,379,18
1591,0.2,-0.97,-0.07,1.59,-2.81,-2.08,224,284,211,446,378,18
1592,0.18,-0.98,-0.07,1.34,-1.95,-2.5,220,287,209,453,375,18
1593,0.2,-0.98,-0.09,-3.85,-5.13,-3.72,220,288,208,448,378,18
1594,0.22,-0.97,-0.1,3.05,-1.22,-0.98,222,290,196,452,378,18
1595,0.18,-0.94,-0.08,0.37,-1.83,-4.03,224,290,211,450,379,18
1596,0.2,-0.98,-0.08,-2.01,-2.62,-4.27,224,288,204,454,378,18
1597,0.2,-0.98,-0.07,-0.67,-5.13,-3.66,224,289,208,453,373,18
1598,0.2,-0.97,-0.06,-0.37,-2.14,-1.65,220,289,204,449,372,18
1599,0.2,-0.97,-0.05,1.34,-1.71,-0.31,219,288,207,449,380,18
1600,0.21,-0.98,-0.07,1.16,-3.85,-3.36,221,290,212,454,379,18
1601,0.2,-0.97,-0.05,1.4,-3.3,-1.04,225,292,208,452,376,18
1602,0.22,-0.97,-0.09,-3.48,-2.75,-5.55,225,289,206,454,370,18
1603,0.22,-0.95,-0.1,-0.06,-2.01,-1.89,221,284,200,449,370,18
1604,0.24,-0.97,-0.08,0.92,-1.59,-3.23,220,299,207,450,374,18
1605,0.22,-0.98,-0.07,1.53,-3.72,-2.08,222,288,202,452,381,18
1606,0.21,-0.97,-0.08,2.01,-3.54,-2.87,221,290,208,451,376,18
1607,0.17,-0.97,-0.08,0.55,-0.61,0.12,221,290,197,454,377,18
1608,0.16,-0.97,-0.04,0.31,-1.34,-4.33,224,293,206,455,378,18
1609,0.17,-0.98,-0.1,-1.1,-3.66,-2.69,223,288,200,445,374,18
1610,0.19,-0.97,-0.06,-1.77,-3.91,-3.66,223,289,210,446,380,18
1611,0.2,-0.98,-0.07,0.12,-2.81,-2.08,223,289,203,451,376,18
1612,0.2,-0.98,-0.11,2.01,-3.85,-2.62,230,288,207,450,380,18
1613,0.19,-0.97,-0.08,-0.85,-3.3,-4.09,223,289,213,449,385,18
1614,0.15,-0.94,-0.07,0.24,-3.97,-2.69,223,286,209,448,378,18
1615,0.19,-0.99,-0.08,2.69,-1.89,0.12,224,289,202,451,375,18
1616,0.15,-0.98,-0.08,2.5,-1.16,-0.92,226,294,211,457,379,18
1617,0.19,-0.99,-0.07,2.2,-2.99,0.37,222,289,211,454,373,18
1618,0.19,-0.97,-0.03,4.64,-0.61,-0.12,226,293,213,452,377,18
1619,0.21,-0.98,-0.08,0.67,-2.14,-1.46,224,289,207,449,377,18
1620,0.2,-0.97,-0.08,1.59,-1.04,-0.37,221,289,204,451,376,18
1621,0.2,-0.98,-0.07,0.98,-3.05,-2.44,221,284,210,451,376,18
1622,0.2,-0.99,-0.07,1.71,-4.58,-2.14,223,285,210,452,377,18
1623,0.17,-0.98,-0.05,-0.12,-3.23,-3.97,221,287,207,459,377,18
1624,0.19,-0.97,-0.05,2.14,-2.14,-3.11,229,286,197,453,376,18
1625,0.19,-0.97,-0.07,-0.85,-3.11,-3.54,219,286,206,451,374,18
1626,0.18,-0.99,-0.05,1.4,-3.3,-0.43,218,286,204,449,378,18
1627,0.18,-0.98,-0.05,1.89,-2.44,-2.56,221,287,212,452,378,18
1628,0.19,-0.98,-0.05,0.73,-2.69,-3.23,224,288,209,451,375,18
1629,0.18,-0.99,-0.04,1.89,-2.87,-2.99,226,289,212,453,374,18
1630,0.19,-0.97,-0.04,-0.55,-2.26,-2.08,222,283,205,450,378,18
1631,0.19,-0.98,-0.04,0.43,-3.23,-1.65,219,289,209,448,384,18
1632,0.2,-0.97,-0.05,-0.61,-3.42,-2.14,217,286,204,448,377,18
1633,0.15,-0.94,0.0,2.01,1.04,-5.43,218,290,208,451,377,18
1634,0.16,-0.98,-0.08,0.24,-2.56,-6.53,225,287,206,445,377,18
1635,0.16,-0.97,-0.09,3.91,-4.15,-1.46,218,288,206,455,375,18
1636,0.16,-0.97,-0.08,6.35,-5.86,-3.11,225,290,209,452,377,18
1637,0.15,-0.97,-0.08,-4.58,3.72,1.04,225,290,207,452,376,18
1638,0.18,-0.96,-0.07,3.23,-1.77,-0.31,252,284,207,457,376,18
1639,0.18,-0.98,-0.08,1.53,-1.89,-1.83,223,287,203,450,381,18
1640,0.19,-0.97,-0.09,1.65,-3.23,-2.32,225,288,204,455,375,18
1641,0.19,-0.98,-0.09,0.12,-3.17,-3.11,224,289,212,451,375,18
1642,0.18,-0.98,-0.07,1.59,-3.91,-2.56,220,291,208,452,378,18
1643,0.17,-0.98,-0.07,0.67,-3.42,-2.5,224,287,207,445,376,18
1644,0.17,-0.98,-0.07,0.18,-3.17,-2.56,225,289,206,453,375,18
1645,0.17,-0.98,-0.07,-0.24,-2.69,-2.01,222,290,205,453,381,18
1646,0.17,-0.98,-0.07,0.61,-2.69,-2.01,223,291,208,453,377,18
1647,0.18,-0.97,-0.07,0.37,-2.62,-2.62,220,290,196,450,383,18
1648,0.18,-0.98,-0.07,0.49,-2.2,-2.26,222,292,200,450,378,18
1649,0.18,-0.98,-0.08,0.79,-2.87,-2.01,220,289,200,452,377,18
1650,0.17,-0.98,-0.07,0.67,-2.38,-2.01,225,288,206,455,374,18
1651,0.18,-0.97,-0.06,0.61,-2.87,-3.42,223,292,206,454,378,18
1652,0.18,-0.98,-0.07,0.31,-3.3,-2.38,223,288,209,450,380,18
1653,0.19,-1.01,-0.08,0.18,-2.32,-3.11,224,289,207,446,374,18
1654,0.19,-0.99,-0.07,2.99,-2.62,-3.48,222,289,208,446,378,18
1655,0.17,-0.98,-0.07,-0.37,-3.42,-2.2,221,288,210,445,380,18
1656,0.16,-0.98,-0.06,0.85,-3.23,-1.95,225,278,200,455,378,18
1657,0.18,-0.97,-0.06,1.77,-3.3,-2.38,217,292,205,450,378,18
1658,0.18,-0.98,-0.06,1.22,-2.62,-1.4,219,291,205,454,378,18
1659,0.19,-0.98,-0.07,2.56,-2.14,-2.01,219,290,208,452,376,18
1660,0.18,-0.98,-0.07,1.34,-2.56,-2.26,225,286,211,456,380,18
1661,0.18,-0.98,-0.06,0.85,-3.3,-2.38,222,289,216,454,375,18
1662,0.18,-0.98,-0.06,0.85,-3.05,-3.17,226,289,206,451,378,18
1663,0.17,-0.98,-0.05,-0.43,-2.99,-1.95,221,290,208,450,374,18
1664,0.17,-0.98,-0.06,-0.12,-2.62,-2.56,225,286,208,445,378,18
1665,0.17,-0.99,-0.06,0.31,-2.81,-2.87,224,292,208,448,376,18
1666,0.18,-0.98,-0.06,0.49,-2.69,-2.08,223,291,206,452,386,18
1667,0.16,-0.99,-0.06,0.67,-1.46,-2.26,225,286,208,452,380,18
1668,0.17,-0.98,-0.05,0.06,-2.62,-3.23,225,285,210,451,378,18
1669,0.17,-0.98,-0.05,1.53,-2.69,-2.26,234,288,210,450,378,18
1670,0.18,-0.98,-0.06,1.59,-3.42,-3.05,225,292,209,450,377,18
1671,0.18,-0.99,-0.06,-0.06,-2.32,-2.56,221,291,207,451,378,18
1672,0.18,-0.98,-0.05,-0.31,-2.93,-2.38,221,287,213,454,375,18
1673,0.17,-0.98,-0.05,0.18,-2.99,-2.44,223,287,212,447,377,18
1674,0.17,-0.98,-0.06,0.98,-3.11,-2.01,225,292,210,450,377,18
1675,0.17,-0.98,-0.05,0.67,-2.5,-3.11,223,289,200,447,379,18
1676,0.16,-0.99,-0.04,-2.01,-3.3,-2.81,222,290,207,450,381,18
1677,0.18,-0.98,-0.03,0.37,-3.66,-2.62,222,292,206,455,377,18
1678,0.18,-0.99,-0.05,0.18,-2.87,-2.44,221,288,206,446,377,18
1679,0.17,-0.95,-0.06,-0.06,-2.62,-2.44,219,287,211,452,378,18
1680,0.18,-1.0,-0.04,0.73,-3.42,-2.38,224,290,210,451,380,18
1681,0.17,-0.98,-0.04,0.61,-3.17,-2.26,228,288,209,452,377,18
1682,0.18,-0.98,-0.04,1.4,-3.42,-2.81,224,289,208,450,379,18
1683,0.18,-0.98,-0.04,0.37,-3.42,-2.99,225,287,208,455,376,18
1684,0.17,-0.98,-0.04,0.61,-2.44,-1.83,223,289,207,455,376,18
1685,0.17,-0.98,-0.05,-0.37,-2.62,-2.5,219,293,206,452,378,18
1686,0.16,-0.99,-0.05,-0.18,-2.93,-2.44,222,293,206,458,374,18
1687,0.16,-0.98,-0.04,0.49,-2.44,-2.69,223,289,207,450,378,18
1688,0.19,-0.98,-0.07,0.31,-3.36,-4.09,219,288,204,450,373,18
1689,0.19,-0.97,-0.06,-0.43,-3.3,-1.16,222,286,210,446,380,18
1690,0.19,-0.98,-0.07,1.89,-3.42,-0.92,218,286,208,450,381,18
1691,0.15,-0.98,-0.02,2.87,-2.38,0.49,219,286,208,454,379,18
1692,0.14,-0.98,-0.05,0.55,-4.82,-0.55,223,298,215,450,375,18
1693,0.16,-1.04,0.09,19.23,66.71,-18.68,224,258,203,440,338,18
1694,-0.04,-0.95,0.24,-0.79,21.3,6.35,224,252,200,445,321,18
1695,0.16,-0.99,0.17,26.98,9.89,-33.94,222,256,204,437,328,18
1696,0.12,-0.94,0.33,0.24,-6.65,5.31,223,260,203,435,328,18
1697,0.09,-0.91,0.24,-5.92,-13.85,-6.65,221,261,206,443,326,18
1698,0.08,-0.95,0.13,-0.24,-14.22,4.03,218,257,203,440,330,18
1699,0.11,-0.96,0.18,-16.97,1.95,-4.09,221,254,206,446,321,18
1700,0.14,-0.97,0.16,2.62,-6.9,-2.75,222,260,208,445,321,18
1701,0.16,-0.98,0.15,-8.67,-6.65,-2.26,237,259,212,450,322,18
1702,0.15,-0.99,0.14,1.89,-6.96,-2.87,225,261,213,440,323,18
1703,0.16,-0.98,0.15,3.54,-5.19,-4.82,222,259,217,447,322,18
1704,0.17,-0.98,0.18,0.12,-1.1,-1.65,229,260,208,449,323,18
1705,0.16,-0.96,0.18,-7.02,-3.42,-2.99,228,257,211,442,324,18
1706,0.07,-0.99,0.07,2.38,-1.04,-3.36,225,260,215,448,318,18
1707,0.12,-0.97,0.14,-1.95,-5.43,-3.11,230,267,215,449,324,18
1708,0.14,-0.98,0.14,-1.1,-2.62,-3.11,225,265,213,453,324,18
1709,0.15,-0.98,0.1,8.97,-4.7,-2.08,230,265,213,443,322,18
1710,0.13,-1.0,0.13,1.53,-3.23,-2.2,231,265,216,445,325,18
1711,0.14,-0.99,0.13,1.95,-3.66,-1.89,232,264,213,448,324,18
1712,0.12,-0.98,0.16,4.82,-5.8,-2.56,231,263,215,458,322,18
1713,0.12,-0.98,0.16,6.41,-4.64,-1.59,232,267,218,451,325,18
1714,0.12,-0.97,0.2,-2.01,-1.46,-4.09,229,266,216,451,326,18
1715,0.14,-0.98,0.16,2.75,-4.03,-2.44,231,271,212,453,325,18
1716,0.12,-0.98,0.2,-0.98,-4.21,-2.26,230,265,215,453,325,18
1717,0.12,-0.98,0.15,1.71,-2.14,-4.09,244,267,218,452,325,18
1718,0.11,-0.98,0.18,-1.59,-3.23,-4.15,236,268,217,452,327,18
1719,0.08,-1.01,0.12,-6.04,-8.73,-1.1,234,268,221,448,326,18
1720,0.08,-0.99,0.16,4.76,-11.35,-0.49,234,268,214,454,329,18
1721,0.16,-0.91,0.17,-1.95,-2.2,-6.04,233,269,219,454,326,18
1722,0.14,-0.98,0.14,2.87,-2.32,-1.16,235,269,220,453,326,18
1723,0.17,-0.97,0.15,3.17,-0.18,1.04,236,271,218,453,326,18
1724,0.14,-0.98,0.16,1.46,-3.3,-0.92,234,269,218,451,328,18
1725,0.18,-0.96,0.16,-0.98,-0.85,-3.3,238,269,220,455,327,18
1726,0.17,-0.97,0.14,-0.12,-4.09,-2.08,236,273,228,455,328,18
1727,0.16,-0.96,0.18,-1.77,-0.61,-2.62,237,272,220,458,328,18
1728,0.18,-0.96,0.15,2.5,-3.48,-1.83,236,270,225,455,324,18
1729,0.18,-0.97,0.18,1.89,-1.71,-1.65,238,272,219,460,329,18
1730,0.15,-0.96,0.18,-1.53,-1.77,-4.09,240,270,221,453,328,18
1731,0.18,-0.95,0.16,0.67,-6.1,-5.43,237,273,218,453,328,18
1732,0.16,-0.97,0.13,-0.43,-3.48,-2.5,238,270,219,455,328,18
1733,0.17,-0.96,0.17,1.59,-4.46,-5.25,238,271,222,457,329,18
1734,0.16,-0.92,0.19,0.49,-3.72,-1.89,239,272,217,459,331,18
1735,0.15,-0.94,0.19,-3.78,-3.36,-4.46,237,271,223,451,328,18
1736,0.17,-0.98,0.15,-2.81,-4.39,-3.23,239,271,220,456,330,18
1737,0.11,-0.91,0.14,4.33,-0.49,0.92,241,275,224,456,330,18
1738,0.12,-0.96,0.15,-1.28,-7.57,-3.3,239,274,222,456,326,18
1739,0.18,-0.97,0.12,-2.62,-6.16,-6.84,239,274,222,454,330,18
1740,0.17,-0.95,0.15,-0.43,-2.5,-2.26,241,273,224,453,327,18
1741,0.18,-0.96,0.15,3.91,-5.55,-1.28,240,273,223,457,328,18
1742,0.2,-0.96,0.15,2.32,-2.44,-1.71,238,273,223,459,330,18
1743,0.19,-0.96,0.16,2.2,-1.89,-3.36,241,273,222,454,330,18
1744,0.19,-0.97,0.16,-0.67,-2.93,-2.32,236,275,221,457,326,18
1745,0.18,-0.96,0.16,0.67,-4.39,-3.42,239,273,221,458,329,18
1746,0.19,-0.96,0.15,-0.79,-5.19,-3.11,242,277,221,461,330,18
1747,0.22,-0.96,0.17,0.31,-3.91,-2.99,238,274,217,458,327,18
1748,0.2,-0.97,0.15,-0.85,-2.38,-3.17,248,276,224,459,330,18
1749,0.2,-0.97,0.15,-0.79,-5.0,-2.62,240,278,224,456,328,18
1750,0.2,-0.95,0.14,2.5,1.4,-1.77,240,275,223,463,327,18
1751,0.18,-0.96,0.14,-0.18,-1.95,-2.69,245,275,219,455,329,18
1752,0.2,-0.96,0.17,3.17,-2.81,-2.08,243,273,227,461,329,18
1753,0.23,-0.95,0.15,2.87,-3.66,-1.89,238,275,224,456,327,18
1754,0.25,-0.94,0.17,0.85,-1.65,-4.33,245,273,221,458,332,18
1755,0.21,-0.98,0.17,9.22,2.93,-7.45,243,283,220,461,331,18
1756,0.27,-0.92,0.24,0.98,-2.93,-2.14,240,276,221,457,332,18
1757,0.23,-0.96,0.21,-6.71,2.01,-5.31,240,277,221,462,331,18
1758,0.27,-0.97,0.18,-3.42,-4.15,-3.23,242,277,224,459,331,18
1759,0.21,-0.95,0.17,-1.22,-2.62,-1.77,243,275,226,461,330,18
1760,0.25,-0.96,0.15,3.17,-5.19,-2.01,241,277,226,458,329,18
1761,0.21,-0.95,0.16,0.24,-3.05,-1.46,243,276,225,462,329,18
1762,0.23,-0.95,0.17,2.81,-0.55,-3.72,243,278,223,455,332,18
1763,0.22,-0.96,0.15,-2.69,-5.07,-3.11,241,276,223,459,330,18
1764,0.29,-0.9,0.19,0.61,0.06,-4.09,241,276,222,455,331,18
1765,0.21,-0.95,0.16,0.43,-1.1,-3.42,244,278,226,459,329,18
1766,0.25,-0.96,0.13,2.26,-2.93,-2.87,270,278,227,454,330,18
1767,0.24,-0.96,0.12,-1.71,-3.48,-2.08,243,280,223,460,329,18
1768,0.26,-0.94,0.14,0.79,-4.39,-3.54,240,277,226,460,331,18
1769,0.28,-0.94,0.14,0.49,-4.33,-4.46,244,278,226,459,333,18
1770,0.27,-0.95,0.16,-0.73,-2.87,-2.38,244,278,223,458,331,18
1771,0.26,-0.96,0.17,-0.49,-1.53,-1.71,242,276,227,461,332,18
1772,0.3,-0.96,0.13,-0.67,3.36,-5.43,242,279,226,463,329,18
1773,0.27,-0.95,0.15,0.92,-4.82,-1.83,244,278,224,459,331,18
1774,0.31,-0.94,0.17,2.38,-2.26,-4.39,243,282,225,460,331,18
1775,0.27,-0.93,0.17,-0.92,-3.42,-1.4,240,275,224,461,331,18
1776,0.29,-0.95,0.17,1.28,-2.56,-4.94,251,281,225,454,331,18
1777,0.27,-0.97,0.15,0.18,-6.29,-1.83,243,281,225,459,332,18
1778,0.3,-0.92,0.16,0.43,-1.46,-5.74,246,280,224,459,334,18
1779,0.28,-0.93,0.15,-0.24,-2.99,-4.52,245,281,227,461,331,18
1780,0.32,-0.94,0.14,0.79,-2.44,-2.56,244,278,225,452,334,18
1781,0.31,-0.94,0.15,-2.62,-2.69,-2.69,243,278,226,455,331,18
1782,0.32,-0.94,0.15,-0.31,-2.69,-2.81,243,280,226,458,332,18
1783,0.31,-0.94,0.14,1.71,-2.81,-2.14,244,279,227,462,333,18
1784,0.3,-0.94,0.15,1.16,-4.03,-1.89,244,282,227,454,333,18
1785,0.31,-0.94,0.15,1.16,-6.65,-3.91,243,279,224,455,333,18
1786,0.33,-0.94,0.16,3.05,-4.21,-3.05,242,281,226,458,334,18
1787,0.3,-0.96,0.18,2.2,1.04,-1.71,243,281,225,455,337,18
1788,0.3,-0.93,0.19,0.92,-4.76,-3.54,246,281,228,463,333,18
1789,0.3,-0.93,0.17,-0.37,-3.05,-2.14,242,280,227,461,330,18
1790,0.29,-0.95,0.15,-5.49,2.56,-0.43,246,283,227,458,333,18
1791,0.28,-0.94,0.15,-5.55,3.23,-0.79,241,283,225,455,343,18
1792,0.2,-1.01,0.07,-12.39,10.19,0.73,245,282,225,458,330,18
1793,0.25,-0.98,0.14,-3.72,-2.69,0.06,245,283,226,456,333,18
1794,0.29,-0.96,0.14,-0.12,3.05,-8.67,247,281,230,454,336,18
1795,0.29,-0.98,0.11,-1.4,-4.46,-1.4,248,282,231,459,332,18
1796,0.28,-0.97,0.12,0.06,-3.42,-4.03,240,277,227,461,333,18
1797,0.23,-0.98,0.1,-3.42,-4.03,-0.85,244,281,228,461,335,18
1798,0.28,-0.94,0.11,0.61,-5.25,-3.11,247,282,231,464,333,18
1799,0.27,-0.97,0.09,0.37,-3.36,-2.75,245,279,230,462,334,18
1800,0.31,-0.96,0.11,-0.92,-3.48,-3.6,245,282,231,455,331,18
1801,0.3,-0.95,0.13,2.08,-0.92,-5.86,246,278,232,460,333,18
1802,0.29,-0.99,0.11,-1.83,-3.11,-2.26,245,284,230,467,334,18
1803,0.29,-0.95,0.1,-2.2,-1.34,-4.21,244,281,227,461,335,18
1804,0.29,-0.97,0.1,-4.76,-2.08,-2.87,253,281,229,459,334,18
1805,0.25,-0.97,0.08,-1.77,-0.37,-3.36,246,284,225,457,333,18
1806,0.31,-0.94,0.11,3.66,-0.61,-5.19,245,282,228,455,333,18
1807,0.31,-0.97,0.12,-0.18,-4.82,-2.2,245,281,225,461,334,18
1808,0.31,-0.95,0.12,-8.67,-3.66,-7.08,246,284,230,464,334,18
1809,0.3,-0.95,0.09,0.0,-8.36,0.98,245,285,227,459,335,18
1810,0.3,-0.95,0.1,1.04,-3.05,-3.42,248,283,232,461,333,18
1811,0.29,-0.94,0.11,-1.71,-0.55,-2.75,246,281,244,462,336,18
1812,0.26,-0.93,0.1,-1.59,1.65,-3.05,249,283,228,461,332,18
1813,0.28,-0.98,0.07,0.61,-1.53,-4.94,246,283,231,461,333,18
1814,0.29,-0.96,0.08,0.06,-3.66,-4.39,257,284,228,462,333,18
1815,0.25,-0.94,0.1,-1.53,0.18,2.38,248,282,229,459,337,18
1816,0.32,-0.96,0.1,2.69,-3.42,-3.11,248,286,231,461,331,18
1817,0.31,-0.93,0.12,3.11,-1.53,-2.87,245,282,230,465,334,18
1818,0.29,-0.98,0.07,0.18,-7.45,-2.32,248,282,231,461,336,18
1819,0.29,-0.94,0.09,0.12,-0.98,-0.73,243,281,232,460,336,18
1820,0.28,-0.95,0.11,2.01,-2.99,-2.44,243,284,226,465,334,18
1821,0.29,-0.95,0.11,1.83,-4.21,-3.05,248,281,230,461,335,18
1822,0.31,-0.94,0.1,2.99,-1.46,-3.23,246,287,226,463,330,18
1823,0.31,-0.94,0.11,2.5,0.12,-4.94,243,280,230,458,336,18
1824,0.32,-0.96,0.09,0.85,-6.65,-0.06,248,286,231,464,333,18
1825,0.3,-0.95,0.1,-0.67,-2.14,-3.11,245,285,228,461,335,18
1826,0.31,-0.96,0.1,-0.79,-5.07,-2.2,243,297,232,463,331,18
1827,0.31,-0.96,0.11,-0.49,-5.37,-2.14,249,285,227,460,336,18
1828,0.32,-0.95,0.1,1.28,-1.95,-3.54,249,284,229,460,334,18
1829,0.32,-0.97,0.07,1.77,-3.05,-1.83,246,285,231,465,333,18
1830,0.29,-0.95,0.1,2.56,-2.81,-1.04,245,283,228,457,329,18
1831,0.3,-0.94,0.1,1.77,-1.04,-2.62,261,284,231,459,332,18
1832,0.31,-0.94,0.13,3.3,-5.07,-3.11,248,284,230,464,328,18
1833,0.28,-0.95,0.13,-0.67,-3.78,-5.49,246,291,227,461,336,18
1834,0.31,-0.95,0.1,-2.14,-3.91,-2.56,247,283,233,459,333,18
1835,0.31,-0.94,0.1,-1.83,-3.05,-3.42,247,284,228,462,331,18
1836,0.3,-0.96,0.09,-0.18,-2.2,-1.71,247,286,230,459,331,18
1837,0.36,-0.94,0.13,-0.12,-1.53,-2.56,247,284,231,463,336,18
1838,0.29,-0.94,0.06,-5.86,-6.96,-4.21,263,288,230,463,334,18
1839,0.34,-0.92,0.09,0.06,-7.39,-9.28,248,286,230,457,335,18
1840,0.39,-0.94,0.06,-4.94,-1.53,-5.68,243,284,232,457,336,18
1841,0.39,-0.93,0.13,2.62,-2.08,-1.71,247,285,228,459,336,18
1842,0.37,-0.91,0.06,4.33,-19.04,-1.16,249,283,229,459,331,18
1843,0.34,-0.93,0.08,1.83,-2.5,-5.98,247,285,243,459,331,18
1844,0.34,-0.93,0.08,-1.65,-3.48,-2.32,249,286,231,461,336,18
1845,0.36,-0.92,0.09,2.2,-2.81,-2.38,245,284,232,460,332,18
1846,0.36,-0.93,0.08,1.1,-3.17,-1.95,246,287,231,456,337,18
1847,0.36,-0.93,0.09,-0.49,-2.99,-2.38,247,288,233,463,335,18
1848,0.37,-0.93,0.1,2.08,-3.91,-2.56,246,289,232,460,335,18
1849,0.36,-0.93,0.09,-0.55,-0.24,-1.77,249,286,236,457,333,18
1850,0.34,-0.94,0.1,1.65,-2.5,-0.18,244,285,231,459,333,18
1851,0.33,-0.95,0.09,3.23,-5.13,-0.43,250,284,231,454,331,18
1852,0.31,-0.94,0.11,-2.56,-1.46,-1.71,250,288,230,460,326,18
1853,0.32,-0.95,0.1,5.37,-4.21,-2.56,250,288,229,453,332,18
1854,0.32,-0.93,0.12,1.59,-2.69,-2.32,247,286,246,454,333,18
1855,0.34,-0.94,0.06,3.97,-3.36,-2.81,270,287,230,462,334,18
1856,0.33,-0.94,0.11,0.61,-3.6,-1.89,249,290,231,460,331,18
1857,0.33,-0.95,0.1,0.06,-2.87,-3.54,249,286,235,455,332,18
1858,0.33,-0.94,0.12,0.24,-1.1,-0.67,249,288,230,460,333,18
1859,0.3,-0.95,0.13,-1.95,-2.2,-1.4,252,289,230,460,329,18
1860,0.3,-0.95,0.13,1.04,-1.53,-1.89,250,286,231,461,331,18
1861,0.3,-0.94,0.13,0.98,-2.38,-2.2,249,286,232,456,332,18
1862,0.3,-0.95,0.12,2.69,-2.81,-2.32,248,285,232,463,331,18
1863,0.31,-0.93,0.13,0.67,-1.1,-2.01,244,284,235,458,333,18
1864,0.31,-0.96,0.17,1.22,2.93,-5.0,249,289,233,464,332,18
1865,0.28,-0.97,0.13,0.0,-9.89,1.95,249,288,234,461,332,18
1866,0.24,-0.94,0.17,0.0,-2.38,-0.31,248,288,234,464,329,18
1867,0.26,-0.96,0.16,0.31,-2.93,-2.99,248,288,233,476,330,18
1868,0.26,-0.95,0.17,0.18,-3.42,-2.99,255,287,233,459,332,18
1869,0.26,-0.95,0.15,1.16,-1.34,-2.26,250,286,236,465,332,18
1870,0.25,-0.95,0.14,-1.16,-2.87,-3.3,249,286,236,461,331,18
1871,0.25,-0.95,0.16,1.34,-2.14,-1.4,250,289,234,459,341,18
1872,0.24,-0.94,0.17,1.22,-3.11,-2.44,249,287,236,460,332,18
1873,0.25,-0.96,0.17,0.31,-3.66,-2.44,251,290,233,455,328,18
1874,0.25,-0.95,0.17,0.92,-3.05,-2.75,249,287,233,460,334,18
1875,0.23,-0.98,0.18,0.31,-6.47,-4.88,250,290,237,464,334,18
1876,0.22,-0.95,0.18,4.64,-2.93,-3.78,248,287,234,464,332,18
1877,0.23,-0.95,0.17,0.85,1.04,-1.83,252,291,236,465,333,18
1878,0.26,-0.97,0.18,0.85,-3.36,-1.46,249,290,234,461,333,18
1879,0.23,-0.96,0.17,0.61,-2.81,-2.38,251,290,233,461,332,18
1880,0.22,-0.94,0.17,1.4,-3.6,-2.44,257,288,236,464,333,18
1881,0.25,-0.95,0.18,0.85,-3.05,-2.56,251,289,233,458,332,18
1882,0.23,-0.95,0.2,1.53,1.1,-4.03,250,286,237,461,334,18
1883,0.25,-0.94,0.17,2.32,-2.99,-1.16,261,289,235,466,334,18
1884,0.22,-0.91,0.23,-3.11,4.52,-4.33,253,287,233,461,333,18
1885,0.26,-0.94,0.18,2.14,-1.83,-3.6,249,289,236,461,332,18
1886,0.24,-0.95,0.19,-3.23,-3.05,-2.44,252,290,236,458,330,18
1887,0.24,-0.95,0.18,-0.92,-3.6,-4.09,250,289,245,467,334,18
1888,0.26,-0.95,0.18,-0.79,-0.49,-1.89,252,293,237,466,333,18
1889,0.25,-0.95,0.16,1.95,-2.93,-2.38,252,291,235,466,332,18
1890,0.2,-0.97,0.12,-1.22,-6.16,-2.38,250,292,236,464,333,18
1891,0.24,-0.95,0.17,2.56,-2.93,-1.71,252,292,234,460,326,18
1892,0.23,-0.96,0.18,-0.24,-6.96,0.49,249,287,234,461,326,18
1893,0.21,-0.97,0.17,-4.58,-4.82,-3.05,244,285,237,453,322,18
1894,0.22,-0.96,0.12,-3.17,-3.3,-2.5,240,290,237,455,319,18
1895,0.23,-0.96,0.19,-2.2,-2.56,-2.14,237,289,238,454,316,18
1896,0.23,-0.92,0.14,3.36,-2.26,-3.66,235,288,242,454,319,18
1897,0.25,-0.94,0.2,-0.24,-4.58,-3.36,238,288,241,457,324,18
1898,0.27,-0.94,0.22,2.14,-6.59,-5.68,238,289,241,450,323,18
1899,0.24,-0.96,0.17,-2.62,-3.36,-3.11,238,289,240,465,323,18
1900,0.24,-0.98,0.11,5.49,0.49,-2.5,238,290,244,456,323,18
1901,0.24,-0.97,0.18,-0.31,-3.11,-2.44,242,291,247,455,325,18
1902,0.24,-0.97,0.2,2.38,-3.97,-2.75,241,294,239,451,323,18
1903,0.23,-0.97,0.18,-0.92,-3.6,-2.38,237,294,244,453,322,18
1904,0.25,-0.96,0.18,3.97,-2.75,-2.69,243,289,244,456,323,18
1905,0.24,-0.96,0.21,-1.83,-2.81,-1.83,243,291,242,457,323,18
1906,0.23,-0.95,0.18,4.46,-2.62,-2.93,243,294,242,452,326,18
1907,0.23,-0.95,0.16,-10.25,4.21,0.06,241,296,237,457,326,18
1908,0.23,-0.96,0.16,0.55,-0.92,-1.65,243,295,241,455,325,18
1909,0.2,-0.96,0.14,-0.67,-1.53,-2.38,249,294,240,457,325,18
1910,0.2,-0.96,0.15,0.79,-2.14,-2.32,242,295,244,459,327,18
1911,0.21,-0.97,0.15,0.06,-2.5,-2.14,242,293,242,459,326,18
1912,0.21,-0.98,0.12,1.71,-2.38,-1.89,244,297,244,455,328,18
1913,0.2,-0.98,0.14,-0.37,-0.12,-2.32,242,294,242,461,326,18
1914,0.2,-0.97,0.12,1.1,-3.85,-2.93,245,295,244,460,326,18
1915,0.21,-0.97,0.11,4.03,-2.87,-2.69,244,296,237,459,327,18
1916,0.19,-0.97,0.16,-2.01,-2.99,-2.69,242,297,243,462,326,18
1917,0.2,-0.97,0.15,-0.61,-3.17,-2.99,240,295,244,463,328,18
1918,0.21,-0.98,0.13,1.89,-2.2,-4.39,240,295,245,459,326,18
1919,0.2,-0.94,0.15,4.03,-2.44,-0.31,239,294,244,459,324,18
1920,0.18,-0.98,0.13,0.55,-0.98,-3.11,243,294,244,454,325,18
1921,0.22,-0.97,0.13,0.92,-1.16,-2.99,243,297,242,459,325,18
1922,0.19,-0.98,0.12,5.19,-2.08,-1.77,245,298,240,456,328,18
1923,0.19,-0.97,0.16,0.98,-3.11,-1.77,246,298,243,457,329,18
1924,0.21,-0.98,0.14,-0.12,-3.85,-4.27,239,295,242,459,327,18
1925,0.19,-0.97,0.15,0.98,-3.17,-3.17,243,297,239,463,328,18
1926,0.2,-0.97,0.16,1.95,-3.05,-2.93,246,296,243,463,326,18
1927,0.2,-0.96,0.14,1.28,-3.3,-3.54,243,297,238,463,325,18
1928,0.19,-0.96,0.15,-2.01,-2.87,-2.5,245,298,245,458,325,18
1929,0.19,-0.97,0.14,-1.22,-3.23,-2.81,246,294,243,459,325,18
1930,0.19,-0.98,0.13,-0.67,-2.56,-3.11,241,296,242,459,326,18
1931,0.18,-0.98,0.13,0.49,-2.99,-3.05,243,297,242,460,335,18
1932,0.19,-0.97,0.12,1.53,-2.62,-2.56,241,293,242,463,328,18
1933,0.18,-0.97,0.11,0.61,-2.69,-3.54,243,296,242,457,327,18
1934,0.19,-0.97,0.12,1.22,-2.69,-3.6,242,296,244,459,327,18
1935,0.19,-0.97,0.14,0.24,-3.72,-1.71,243,293,242,459,326,18
1936,0.19,-0.98,0.14,1.77,-0.18,-2.2,244,296,243,459,328,18
1937,0.18,-0.97,0.13,-0.06,-3.97,-2.38,243,296,244,459,325,18
1938,0.19,-0.97,0.14,0.37,-2.69,-2.62,244,296,243,461,327,18
1939,0.19,-0.98,0.13,0.79,-3.17,-2.69,242,296,242,455,327,18
1940,0.19,-0.96,0.14,0.67,-2.81,-3.05,245,296,242,459,330,18
1941,0.19,-0.97,0.15,0.43,-2.38,-2.56,245,299,243,457,325,18
1942,0.2,-0.97,0.13,0.0,-2.99,-3.11,242,296,245,464,326,18
1943,0.19,-0.96,0.14,0.37,-2.81,-2.56,245,297,243,464,329,18
1944,0.23,-0.96,0.14,0.18,-2.2,-2.81,244,300,244,461,327,18
1945,0.2,-0.96,0.14,2.08,-7.02,-5.0,245,293,247,463,328,18
1946,0.22,-0.97,0.12,-0.98,-4.52,-3.78,241,298,242,457,326,18
1947,0.21,-0.96,0.15,4.58,-3.23,-1.89,236,295,243,457,327,18
1948,0.24,-0.96,0.16,0.85,-2.5,-4.33,247,298,240,458,323,18
1949,0.23,-0.95,0.14,-4.33,-4.27,-1.16,244,299,245,461,328,18
1950,0.23,-0.96,0.16,2.08,-1.4,-1.34,245,297,241,469,327,18
1951,0.21,-0.96,0.15,-0.79,-1.22,-2.75,244,294,240,456,327,18
1952,0.24,-0.97,0.13,0.24,-4.15,-3.17,246,298,243,463,328,18
1953,0.24,-0.97,0.13,2.5,-1.46,-2.38,244,298,243,464,328,18
1954,0.21,-0.97,0.13,0.49,-3.42,-2.26,248,298,247,461,323,18
1955,0.23,-0.96,0.14,1.1,-2.93,-3.42,247,296,243,462,330,18
1956,0.22,-0.97,0.15,1.28,-3.42,-2.5,245,300,246,461,338,18
1957,0.22,-0.97,0.15,0.79,-3.3,-2.32,245,297,247,461,325,18
1958,0.24,-0.97,0.15,-0.61,-3.42,-3.3,243,296,246,457,329,18
1959,0.23,-0.97,0.13,-1.04,0.06,-2.93,246,303,245,466,327,18
1960,0.21,-0.97,0.15,-1.95,-2.2,-3.11,245,297,242,472,328,18
1961,0.23,-0.96,0.14,-0.67,-3.05,-3.23,246,299,254,466,329,18
1962,0.26,-0.97,0.15,0.49,-2.81,-2.99,245,297,243,462,327,18
1963,0.23,-0.97,0.13,-0.31,-2.32,-1.77,242,296,246,455,329,18
1964,0.22,-0.97,0.14,-0.92,-2.38,-2.08,247,299,244,466,326,18
1965,0.23,-0.96,0.16,2.08,-1.46,-1.4,243,296,244,465,325,18
1966,0.24,-0.97,0.15,0.73,-2.2,-3.11,243,296,246,464,328,18
1967,0.21,-0.96,0.15,0.98,-2.69,-2.26,246,297,239,462,327,18
1968,0.21,-0.95,0.15,-1.53,-3.11,-2.14,248,297,250,465,328,18
1969,0.22,-0.95,0.15,-1.22,-4.33,-1.95,246,298,243,463,328,18
1970,0.22,-0.96,0.15,3.05,-2.87,-1.83,247,299,246,459,331,18
1971,0.22,-0.97,0.14,0.0,-3.05,-2.44,249,297,245,466,330,18
1972,0.22,-0.96,0.13,1.28,-2.56,-2.56,246,300,246,466,332,18
1973,0.24,-0.98,0.14,-0.67,-2.38,-3.17,246,294,246,457,332,18
