,aX,aY,aZ,gX,gY,gZ,little,ring,middle,index,thumb,number
0,0.02,-0.99,-0.16,-3.6,-6.29,1.16,223,271,448,462,296,19
1,0.03,-0.99,-0.16,-0.06,-2.32,-3.91,232,274,449,464,295,19
2,0.02,-0.98,-0.15,-0.18,-4.52,-1.34,223,272,450,462,296,19
3,-0.0,-0.98,-0.17,0.79,-4.58,-0.98,223,272,451,460,295,19
4,0.02,-0.97,-0.16,0.43,-4.27,-1.89,224,273,450,465,297,19
5,0.02,-0.98,-0.15,3.11,-7.51,-8.0,223,276,449,460,297,19
6,0.03,-0.98,-0.15,1.34,-5.25,-2.75,224,285,451,468,296,19
7,0.03,-0.98,-0.14,-0.06,-3.72,-0.43,225,275,450,464,294,19
8,0.0,-0.99,-0.16,-1.59,-2.69,-3.23,224,272,447,460,296,19
9,0.02,-0.99,-0.16,-3.78,-5.62,-3.48,225,274,451,475,294,19
10,0.03,-0.98,-0.18,2.56,-4.03,-3.17,225,275,448,462,299,19
11,0.01,-0.98,-0.15,-2.87,-7.69,0.31,223,274,446,469,292,19
12,-0.0,-0.99,-0.19,-0.85,-4.52,-3.72,224,275,448,468,296,19
13,0.0,-0.97,-0.17,1.4,-2.81,-1.4,226,277,445,467,299,19
14,-0.02,-0.97,-0.18,1.65,-1.77,1.59,224,274,446,466,296,19
15,-0.06,-0.98,-0.18,0.43,-2.2,1.4,224,274,444,466,293,19
16,-0.05,-0.97,-0.17,0.24,-2.81,-1.53,221,275,445,466,297,19
17,-0.07,-0.98,-0.19,-0.55,-1.22,0.92,224,275,445,470,294,19
18,-0.07,-0.98,-0.19,-0.06,-3.66,-3.85,225,287,443,460,296,19
19,-0.08,-0.98,-0.18,0.49,-3.05,-1.83,226,273,441,471,299,19
20,-0.07,-0.97,-0.18,0.12,-3.23,-3.05,222,273,447,470,297,19
21,-0.06,-0.97,-0.18,1.34,-2.26,-2.56,226,274,445,465,297,19
22,-0.08,-0.98,-0.19,0.37,-2.26,-2.38,223,274,447,466,308,19
23,-0.07,-0.97,-0.19,-0.24,-1.89,-2.32,226,272,443,466,298,19
24,-0.08,-0.97,-0.2,-0.31,-2.56,-1.28,224,275,446,465,299,19
25,-0.08,-0.97,-0.21,0.37,-2.69,-2.87,226,275,441,470,297,19
26,-0.08,-0.96,-0.2,0.61,-2.26,-1.16,223,275,447,468,297,19
27,-0.1,-0.97,-0.19,0.98,-3.42,-2.26,225,277,447,466,300,19
28,-0.09,-0.97,-0.19,0.61,-2.75,-2.5,226,277,443,461,300,19
29,-0.09,-0.95,-0.21,0.92,-3.17,-1.53,227,272,440,464,299,19
30,-0.1,-0.97,-0.21,0.55,-2.14,-3.91,225,273,443,468,295,19
31,-0.09,-0.95,-0.19,-1.34,-2.81,-3.23,227,275,439,465,295,19
32,-0.09,-0.98,-0.21,0.18,-2.14,-2.87,224,276,438,465,301,19
33,-0.1,-0.97,-0.2,0.24,-3.11,-1.77,228,276,436,470,301,19
34,-0.1,-0.95,-0.21,0.79,-3.11,-2.93,227,277,437,470,298,19
35,-0.1,-0.96,-0.21,-0.12,-2.87,-2.38,226,279,442,469,298,19
36,-0.1,-0.97,-0.21,0.43,-3.72,-2.26,225,275,442,461,302,19
37,-0.1,-0.97,-0.19,0.31,-3.17,-1.95,224,274,438,465,297,19
38,-0.1,-0.96,-0.21,0.37,-2.93,-3.54,224,275,437,462,299,19
39,-0.16,-0.93,-0.22,-5.07,-15.32,-8.61,233,275,440,465,299,19
40,0.03,-0.94,-0.26,2.14,-3.97,-17.64,225,275,440,470,300,19
41,-0.0,-0.97,-0.2,0.61,-0.31,4.94,224,274,437,466,298,19
42,-0.05,-0.97,-0.2,-0.18,-2.2,-5.49,228,273,439,461,299,19
43,-0.01,-0.96,-0.17,-4.09,0.24,-3.48,224,275,440,470,300,19
44,-0.02,-0.97,-0.24,-0.67,-1.34,-0.31,228,275,441,467,299,19
45,-0.04,-0.97,-0.22,-1.4,-1.65,0.06,227,273,438,466,298,19
46,-0.03,-0.97,-0.22,-0.06,-2.5,-3.11,226,277,435,467,300,19
47,-0.02,-0.97,-0.22,-0.55,-3.23,-1.65,257,273,440,468,301,19
48,-0.06,-0.94,-0.24,-0.92,-0.24,-0.79,227,292,437,467,300,19
49,-0.05,-0.96,-0.25,1.59,-3.48,-2.08,229,277,434,466,300,19
50,-0.03,-0.96,-0.23,-0.92,-1.1,-3.23,229,276,439,466,298,19
51,-0.06,-0.96,-0.25,-2.44,-0.31,-2.08,229,277,438,468,300,19
52,-0.02,-0.95,-0.26,0.85,-3.23,-3.54,230,276,439,467,300,19
53,-0.04,-0.96,-0.25,0.0,-2.01,-0.18,226,274,434,468,304,19
54,-0.04,-0.96,-0.25,-0.12,-2.62,-2.5,224,276,436,467,301,19
55,-0.04,-0.97,-0.27,7.69,-2.14,-1.16,225,276,438,465,306,19
56,-0.05,-0.97,-0.23,-0.98,-1.89,-2.01,228,276,436,470,301,19
57,-0.06,-0.98,-0.22,-0.98,-2.38,-3.3,231,277,435,465,298,19
58,-0.06,-0.97,-0.22,-3.48,-2.62,-1.71,227,276,434,478,298,19
59,-0.06,-0.95,-0.23,0.43,-2.81,-2.44,226,280,437,467,301,19
60,-0.07,-0.96,-0.23,-0.67,-2.87,-3.42,229,287,435,463,302,19
61,-0.05,-0.96,-0.23,-0.18,-2.93,-3.11,226,278,432,466,300,19
62,-0.06,-0.97,-0.24,0.06,-3.05,-3.11,239,280,438,469,301,19
63,-0.06,-0.96,-0.24,0.49,-2.99,-0.12,228,277,436,470,301,19
64,-0.07,-0.96,-0.25,-1.28,-2.75,-1.4,250,279,435,468,301,19
65,-0.09,-0.96,-0.24,-0.61,-2.93,-0.98,229,276,433,470,300,19
66,-0.09,-0.96,-0.24,-0.06,-3.23,-1.89,228,276,436,465,302,19
67,-0.08,-0.96,-0.23,-0.06,-1.46,-5.0,228,279,435,462,302,19
68,-0.11,-0.96,-0.24,2.26,-4.03,0.98,226,282,436,467,302,19
69,-0.09,-0.96,-0.24,0.06,-3.05,-2.38,226,276,434,468,298,19
70,-0.09,-0.96,-0.24,0.12,-2.87,-2.08,226,277,438,470,301,19
71,-0.11,-0.95,-0.24,-1.46,-4.88,-2.08,226,278,436,467,303,19
72,-0.1,-0.95,-0.25,-0.49,-1.4,-3.97,225,276,434,461,303,19
73,-0.06,-0.95,-0.24,-2.87,-2.5,-1.83,230,277,432,468,301,19
74,-0.11,-0.96,-0.25,2.32,-4.33,0.61,230,277,435,471,304,19
75,-0.08,-0.96,-0.23,0.85,-3.05,-7.2,227,276,436,466,301,19
76,-0.06,-0.96,-0.22,0.31,-3.66,-5.92,225,276,433,467,303,19
77,-0.03,-0.96,-0.22,2.01,-3.23,-6.96,230,278,432,463,302,19
78,-0.05,-0.97,-0.21,-0.18,-2.5,-2.14,236,277,435,467,304,19
79,-0.04,-0.96,-0.2,0.06,-2.81,-1.04,230,273,438,468,297,19
80,-0.06,-0.96,-0.22,-1.22,-1.59,-2.87,230,277,431,468,301,19
81,-0.03,-0.97,-0.23,-0.73,-2.08,-3.6,230,276,434,467,303,19
82,-0.04,-0.96,-0.22,1.89,-3.97,-5.37,228,278,433,472,301,19
83,-0.03,-0.98,-0.24,0.92,-1.77,-3.3,228,280,434,471,304,19
84,-0.04,-0.96,-0.19,3.23,1.59,-5.55,230,277,432,463,301,19
85,0.07,-0.94,-0.22,2.26,17.58,-16.72,229,277,432,468,302,19
86,-0.06,-0.96,-0.16,8.0,-3.11,-13.55,228,277,432,467,300,19
87,0.01,-0.98,-0.2,-1.59,-0.92,1.4,231,280,435,463,301,19
88,-0.05,-0.98,-0.21,0.55,-4.76,-2.14,230,279,434,471,301,19
89,-0.05,-0.98,-0.2,1.28,-7.32,-1.04,229,279,432,467,303,19
90,0.1,-0.99,-0.18,-8.54,5.13,-12.45,225,279,433,470,303,19
91,-0.07,-1.01,-0.18,-1.89,-2.01,1.95,230,277,434,470,302,19
92,-0.03,-0.99,-0.19,-2.08,0.06,-6.41,229,279,432,471,304,19
93,-0.01,-0.99,-0.19,1.53,1.1,-5.55,231,281,431,468,304,19
94,-0.01,-0.99,-0.24,-4.27,3.11,-5.74,228,275,434,470,299,19
95,0.05,-0.97,-0.16,4.82,-5.62,-7.26,229,278,432,471,304,19
96,-0.01,-0.98,-0.2,-3.85,-1.77,2.38,227,279,428,471,301,19
97,0.03,-0.98,-0.18,-2.2,-1.77,-2.26,235,277,431,471,301,19
98,0.02,-0.98,-0.21,0.31,-2.87,-4.46,228,279,428,465,306,19
99,0.0,-0.98,-0.2,1.53,-4.46,-2.44,227,278,432,470,310,19
100,0.02,-0.98,-0.2,0.43,-3.54,-1.95,230,281,433,467,304,19
101,0.02,-0.98,-0.18,-1.95,-2.87,-2.5,228,279,429,468,304,19
102,0.01,-0.98,-0.2,2.44,-5.49,-3.48,232,278,431,470,302,19
103,0.01,-0.96,-0.14,1.28,-2.14,-0.67,227,277,433,469,305,19
104,-0.01,-0.98,-0.16,-1.1,-12.39,-3.78,230,275,433,468,301,19
105,0.03,-0.95,-0.15,0.98,-0.79,4.52,230,279,428,467,304,19
106,-0.04,-0.96,-0.18,-2.75,-1.77,-7.39,226,275,432,469,303,19
107,0.01,-0.99,-0.23,0.31,-6.1,0.49,228,275,433,466,303,19
108,-0.01,-0.98,-0.19,1.89,-4.39,-2.75,226,278,432,472,302,19
109,0.08,-0.98,-0.18,1.53,-5.13,-7.87,229,276,433,467,302,19
110,-0.02,-0.98,-0.17,-0.67,-1.83,2.38,230,277,430,468,302,19
111,0.02,-0.97,-0.17,-0.85,-3.97,-3.42,230,277,427,462,305,19
112,0.01,-0.98,-0.2,-2.56,1.04,4.94,231,273,429,471,304,19
113,-0.09,-0.96,-0.18,-6.16,3.11,1.53,230,279,425,470,303,19
114,-0.04,-0.96,-0.18,-0.12,-1.53,-3.42,241,276,430,463,300,19
115,-0.09,-0.97,-0.2,0.61,-2.69,-2.2,228,280,429,471,303,19
116,-0.05,-0.97,-0.21,0.12,-3.05,-3.05,230,278,427,471,306,19
117,-0.06,-0.98,-0.21,0.92,-3.78,-3.23,230,276,429,466,306,19
118,-0.06,-0.97,-0.2,1.1,-2.01,-2.2,228,276,431,471,304,19
119,-0.08,-0.97,-0.21,-0.43,-3.23,-2.44,228,276,430,465,305,19
120,-0.05,-0.97,-0.19,1.28,-4.09,-2.81,228,279,429,464,305,19
121,-0.07,-0.98,-0.2,-0.24,-1.4,-3.54,230,277,428,471,303,19
122,-0.03,-0.96,-0.22,-0.31,-4.15,-0.73,230,280,426,468,306,19
123,-0.07,-0.97,-0.2,2.01,-5.07,-2.62,229,274,433,471,305,19
124,-0.05,-0.97,-0.2,3.17,-4.15,-6.71,229,277,429,464,307,19
125,-0.04,-0.97,-0.18,2.62,-1.34,1.71,225,277,428,466,306,19
126,-0.06,-1.0,-0.2,4.82,-6.35,-3.72,231,277,429,465,306,19
127,-0.02,-0.98,-0.18,3.48,-4.09,-7.63,230,278,428,463,306,19
128,-0.02,-0.98,-0.17,-4.33,8.97,-4.46,229,278,428,467,305,19
129,-0.07,-0.97,-0.19,0.0,-0.98,-3.23,233,277,428,467,304,19
130,-0.02,-0.97,-0.21,-0.61,-3.42,-5.31,230,279,425,468,304,19
131,0.01,-0.96,-0.19,1.83,-9.77,-19.71,228,278,427,464,306,19
132,0.06,-0.97,-0.18,-9.22,3.11,8.36,229,277,428,467,306,19
133,-0.04,-0.98,-0.2,-0.49,-5.55,-4.7,230,278,427,466,306,19
134,0.01,-0.95,-0.2,0.43,-4.76,-3.17,229,278,426,466,306,19
135,-0.02,-0.98,-0.2,-5.8,2.26,-2.26,229,277,427,466,307,19
136,0.09,-0.95,-0.15,3.23,-8.73,-2.62,228,279,428,463,304,19
137,-0.03,-1.01,-0.22,-1.46,-2.69,-11.11,225,278,428,466,306,19
138,0.18,-0.98,-0.23,2.26,0.67,-7.45,230,278,427,463,305,19
139,0.02,-1.01,-0.22,-0.18,-4.03,1.83,228,278,426,464,305,19
140,0.05,-0.96,-0.12,3.78,-1.89,-2.75,232,279,422,463,306,19
141,0.08,-0.98,-0.22,19.04,-10.5,-1.34,228,279,427,466,303,19
142,0.14,-1.01,-0.25,-1.4,2.93,-13.55,230,276,428,467,307,19
143,0.04,-0.93,-0.26,-14.28,-5.92,0.43,230,277,424,468,307,19
144,0.08,-0.93,-0.22,11.11,1.16,-4.46,228,277,428,466,305,19
145,0.06,-0.97,-0.22,-0.92,-2.5,-4.7,231,281,424,467,306,19
146,0.09,-0.98,-0.25,4.94,-0.85,2.87,228,277,425,468,304,19
147,-0.02,-0.94,-0.2,3.36,-9.95,15.01,229,274,426,467,307,19
148,-0.02,-0.98,-0.21,6.59,-2.69,0.49,230,277,423,467,305,19
149,0.01,-0.96,-0.22,-3.72,-2.2,-10.31,228,279,426,471,306,19
150,0.07,-0.96,-0.23,0.61,-3.3,-4.21,227,280,425,470,305,19
151,0.04,-0.98,-0.27,-0.37,-10.62,-10.44,231,281,426,468,303,19
152,0.15,-0.96,-0.25,-1.22,1.53,-9.16,227,278,425,462,307,19
153,0.11,-0.97,-0.25,2.14,-3.54,1.65,229,284,426,468,304,19
154,0.09,-0.95,-0.25,1.04,-4.64,-1.65,232,279,425,471,302,19
155,0.09,-0.95,-0.24,0.98,-2.44,-1.04,231,280,421,467,305,19
156,0.09,-0.96,-0.26,0.49,-2.62,-4.03,230,276,424,466,306,19
157,0.09,-0.98,-0.24,-1.4,-2.14,-3.78,231,277,426,466,309,19
158,0.09,-0.96,-0.27,2.44,-9.7,4.76,229,278,426,466,307,19
159,0.03,-0.96,-0.26,-2.93,-4.64,-0.31,231,278,421,466,307,19
160,0.03,-0.96,-0.22,2.38,-1.1,-1.4,229,280,426,467,306,19
161,0.02,-0.95,-0.24,1.53,-0.79,-2.87,231,276,424,469,308,19
162,0.02,-0.95,-0.23,-4.09,-1.4,-3.05,228,279,423,466,308,19
163,0.03,-0.96,-0.25,9.46,-0.98,-4.03,232,291,422,465,306,19
164,0.04,-0.98,-0.23,-1.46,-2.2,-2.32,232,284,426,472,306,19
165,0.05,-0.96,-0.23,0.31,-3.42,-2.69,233,279,423,469,307,19
166,0.04,-0.97,-0.22,2.01,-3.48,-3.23,230,280,421,466,306,19
167,0.05,-0.97,-0.24,-0.37,-2.87,-2.62,233,283,420,467,297,19
168,0.05,-1.01,-0.21,2.44,-2.75,-3.72,238,281,424,463,307,19
169,0.04,-0.95,-0.2,1.28,-2.62,-3.72,230,296,418,467,308,19
170,0.04,-0.98,-0.23,-0.79,-2.99,-2.08,230,278,422,467,308,19
171,0.04,-0.97,-0.22,1.65,-3.36,-2.32,231,281,419,466,306,19
172,0.04,-0.97,-0.22,1.22,-2.87,-3.05,229,289,423,466,306,19
173,0.04,-0.97,-0.25,-1.71,-3.36,-2.01,232,281,423,466,304,19
174,0.07,-0.97,-0.24,-5.43,-3.3,-4.58,227,282,418,468,306,19
175,0.04,-0.96,-0.25,2.32,-4.39,-0.67,233,279,423,462,306,19
176,0.05,-0.96,-0.23,1.1,-2.32,-2.81,233,279,422,465,306,19
177,0.04,-0.97,-0.23,0.06,-2.2,-3.72,232,282,418,460,308,19
178,0.04,-0.97,-0.25,1.4,-4.46,-2.44,230,283,422,466,303,19
179,0.04,-0.97,-0.22,-0.67,-3.23,-1.95,233,279,421,466,307,19
180,0.04,-0.96,-0.22,-3.3,-3.23,-5.07,234,281,421,464,307,19
181,0.1,-0.97,-0.18,0.61,-1.77,-5.07,231,279,421,467,302,19
182,0.05,-0.97,-0.2,1.4,-4.39,-8.18,231,278,422,470,303,19
183,0.05,-0.97,-0.21,0.18,-2.14,-1.65,233,280,420,467,304,19
184,0.05,-0.97,-0.2,1.34,-2.2,-2.56,231,278,419,462,307,19
185,0.05,-0.97,-0.21,0.06,-2.81,-3.6,233,279,423,462,307,19
186,0.07,-0.98,-0.23,-1.83,-3.48,-3.66,252,279,422,469,302,19
187,0.06,-0.97,-0.21,0.79,-3.78,-2.38,232,282,421,466,305,19
188,0.07,-0.97,-0.22,-2.81,-2.69,-2.69,232,278,420,467,313,19
189,0.06,-0.97,-0.21,0.43,-3.05,-1.04,234,282,417,469,307,19
190,0.06,-0.96,-0.22,0.43,-2.01,-2.62,233,282,424,461,302,19
191,0.07,-0.97,-0.21,1.95,-3.05,-1.22,230,277,420,477,306,19
192,0.06,-0.97,-0.21,0.61,-2.99,-3.48,231,280,419,479,308,19
193,0.13,-0.91,-0.21,1.65,16.48,-21.18,233,278,420,462,306,19
194,-0.04,-0.98,-0.19,-3.54,-0.06,-3.11,231,282,421,466,306,19
195,0.04,-0.94,-0.17,-0.67,-3.17,-3.3,231,282,422,467,306,19
196,0.01,-0.93,-0.15,2.2,2.44,16.72,231,278,419,467,306,19
197,-0.15,-0.84,-0.05,2.5,10.13,15.81,231,280,422,463,308,19
198,-0.04,-0.97,-0.25,3.6,-1.77,-8.67,249,282,416,467,300,19
199,0.05,-0.96,-0.24,-2.81,-9.4,-10.01,231,279,420,466,307,19
200,0.03,-0.96,-0.23,-4.82,-1.4,-1.4,230,280,422,467,308,19
201,0.04,-0.97,-0.26,-0.37,-4.39,-3.66,239,280,420,466,304,19
202,0.09,-0.98,-0.27,4.46,-9.03,-12.51,229,281,418,469,309,19
203,0.06,-0.98,-0.22,-6.77,0.92,-6.65,230,279,414,466,307,19
204,0.15,-0.94,-0.31,18.43,-8.67,1.22,230,280,419,467,302,19
205,0.09,-0.95,-0.29,-7.87,-1.89,-14.59,231,279,418,461,307,19
206,0.09,-0.97,-0.3,-20.08,-0.18,14.1,225,279,418,470,306,19
207,0.05,-0.93,-0.27,3.48,-4.09,-1.65,233,282,415,467,304,19
208,0.02,-0.94,-0.27,-0.61,-2.26,10.8,229,280,415,470,307,19
209,-0.04,-0.96,-0.28,1.71,-6.71,-9.4,231,281,417,467,305,19
210,0.05,-0.94,-0.25,1.77,-4.7,-5.92,231,281,419,465,305,19
211,-0.01,-0.97,-0.26,-2.69,-2.56,-1.1,231,281,432,461,302,19
212,0.04,-0.96,-0.26,1.28,-4.46,-7.81,233,281,419,469,308,19
213,0.05,-0.96,-0.24,-1.34,-5.55,-6.77,230,276,417,468,308,19
214,0.07,-0.99,-0.26,1.28,-4.58,-5.19,230,276,418,461,306,19
215,0.08,-0.96,-0.22,-1.83,-1.83,3.97,229,282,418,464,306,19
216,0.02,-0.96,-0.24,0.61,-2.44,-2.75,234,280,418,466,307,19
217,0.05,-0.96,-0.23,0.43,-3.54,-2.99,230,280,419,469,306,19
218,0.05,-0.96,-0.24,-0.24,-5.25,-3.97,232,280,420,469,306,19
219,0.03,-0.97,-0.2,5.55,-2.01,3.11,233,279,419,469,302,19
220,0.03,-1.06,-0.12,-2.56,1.04,1.71,231,283,421,462,307,19
221,-0.02,-1.01,-0.2,21.67,-18.86,13.18,229,278,424,467,306,19
222,-0.04,-0.82,-0.04,-10.19,-7.51,18.98,232,281,417,465,305,19
223,-0.02,-0.98,-0.32,2.56,-5.49,-13.18,231,282,418,467,306,19
224,0.0,-0.97,-0.17,8.67,-5.62,-13.06,230,282,414,464,306,19
225,0.1,-0.97,-0.09,-7.02,-5.74,-7.2,233,280,419,464,302,19
226,0.05,-0.98,-0.17,-4.7,2.5,9.22,234,281,418,469,306,19
227,-0.01,-0.98,-0.2,-0.73,-0.06,2.32,228,280,420,483,301,19
228,-0.0,-0.97,-0.2,-0.24,-4.39,-7.02,232,278,418,469,309,19
229,0.03,-0.97,-0.2,-1.16,-2.62,-4.09,232,281,418,468,308,19
230,0.02,-0.97,-0.2,-1.16,-4.88,-2.56,230,282,418,462,302,19
231,0.01,-0.97,-0.2,-1.71,-1.22,-2.75,233,281,421,468,308,19
232,0.04,-0.97,-0.2,0.06,-2.69,-1.71,234,280,416,467,307,19
233,0.01,-0.97,-0.22,0.18,-1.71,-3.05,233,279,416,467,303,19
234,0.02,-0.97,-0.22,0.31,-2.38,-2.01,221,279,417,468,303,19
235,0.02,-0.97,-0.21,0.73,-2.81,-2.75,232,280,415,468,307,19
236,0.02,-0.97,-0.21,0.49,-2.99,-2.32,231,282,419,473,306,19
237,0.02,-0.97,-0.21,0.12,-2.5,-3.11,233,281,418,468,306,19
238,0.02,-0.97,-0.21,-0.37,-2.81,-2.32,232,280,418,468,307,19
239,0.02,-0.97,-0.21,1.22,-2.75,-2.14,233,283,418,469,307,19
240,0.01,-0.97,-0.21,0.55,-2.81,-2.26,233,278,416,470,307,19
241,0.01,-0.97,-0.21,0.12,-2.87,-2.5,232,280,416,469,306,19
242,0.01,-0.95,-0.23,1.04,-2.93,-1.77,232,282,416,465,304,19
243,0.02,-0.96,-0.21,-1.95,-1.04,-2.5,234,293,417,469,306,19
244,0.01,-0.97,-0.22,0.43,-2.81,-2.38,234,280,419,474,306,19
245,0.02,-0.97,-0.2,0.67,-3.11,-3.48,233,293,417,465,305,19
246,0.0,-0.98,-0.21,1.71,-3.54,-2.56,231,280,417,476,304,19
247,-0.0,-0.97,-0.21,-0.18,-2.56,-1.04,233,283,417,469,306,19
248,0.01,-0.97,-0.21,1.77,-3.72,-2.81,232,280,415,471,309,19
249,-0.01,-0.97,-0.21,0.79,-2.69,-2.62,234,283,417,467,305,19
250,-0.0,-0.96,-0.21,0.12,-3.42,-2.56,235,281,418,470,310,19
251,-0.0,-0.97,-0.2,2.08,-3.48,-2.08,230,281,411,473,305,19
252,-0.0,-0.98,-0.21,0.0,-2.08,-2.32,232,281,415,473,305,19
253,-0.0,-0.97,-0.23,0.49,-3.05,-2.99,230,280,416,470,306,19
254,-0.0,-0.97,-0.21,1.46,-2.69,-2.81,229,279,416,469,303,19
255,-0.01,-0.97,-0.21,-0.12,-2.93,-1.95,234,281,416,472,306,19
256,0.0,-0.97,-0.21,0.55,-2.81,-1.95,232,280,411,473,307,19
257,-0.01,-0.97,-0.2,-0.31,-2.62,-3.05,232,282,415,466,303,19
258,-0.0,-0.97,-0.21,1.1,-3.36,-2.93,234,282,413,471,307,19
259,-0.0,-0.97,-0.21,-0.43,-2.5,-2.81,232,282,415,474,306,19
260,0.0,-0.97,-0.21,-0.31,-3.42,-2.32,233,282,415,468,309,19
261,0.0,-0.95,-0.21,-0.67,-3.17,-2.44,232,281,414,470,308,19
262,-0.0,-0.98,-0.21,-0.12,-3.05,-2.56,234,283,418,471,306,19
263,0.0,-0.97,-0.21,-0.06,-2.38,-1.89,232,281,418,474,304,19
264,0.01,-0.98,-0.22,1.1,-3.23,-2.01,234,292,415,473,306,19
265,0.0,-0.97,-0.21,0.79,-3.48,-2.75,233,279,413,472,307,19
266,-0.01,-0.97,-0.21,0.37,-2.81,-2.2,233,282,415,473,307,19
267,0.0,-0.97,-0.2,1.1,-2.93,-2.75,232,296,415,471,306,19
268,-0.01,-0.97,-0.2,1.71,-2.44,-3.11,234,281,417,470,308,19
269,-0.0,-0.97,-0.21,1.59,-3.42,-2.99,236,281,412,472,303,19
270,-0.0,-0.97,-0.21,0.67,-2.69,-3.17,232,283,413,475,308,19
271,-0.0,-0.96,-0.23,-0.43,-2.99,-1.46,234,283,412,471,302,19
272,0.0,-0.97,-0.2,1.59,-3.54,-3.17,231,282,417,469,308,19
273,-0.0,-0.97,-0.2,0.06,-2.87,-2.81,232,281,414,472,306,19
274,-0.0,-0.97,-0.2,2.26,-3.54,-1.53,233,283,417,474,307,19
275,0.0,-0.97,-0.21,1.28,-3.05,-1.89,232,280,415,471,307,19
276,0.01,-0.97,-0.21,0.12,-3.23,-2.32,231,284,418,474,306,19
277,-0.01,-0.98,-0.21,1.77,-3.54,-2.14,234,279,413,467,307,19
278,-0.01,-0.97,-0.2,-0.18,-3.11,-2.44,231,281,417,469,306,19
279,-0.0,-0.97,-0.21,0.37,-3.11,-2.14,233,282,422,472,307,19
280,0.0,-0.97,-0.2,0.18,-3.23,-2.69,233,283,414,475,308,19
281,-0.0,-0.97,-0.21,0.12,-2.69,-3.23,232,278,417,474,303,19
282,0.0,-0.98,-0.2,0.67,-3.05,-2.87,231,284,415,466,305,19
283,-0.0,-0.97,-0.21,-0.24,-2.87,-3.05,232,279,415,474,307,19
284,-0.0,-0.97,-0.21,0.61,-3.17,-3.42,228,283,415,471,306,19
285,-0.01,-0.97,-0.21,-0.61,-2.99,-2.62,231,280,418,476,308,19
286,0.0,-0.97,-0.21,0.31,-3.05,-1.83,233,280,418,475,307,19
287,0.0,-0.96,-0.21,1.22,-3.11,-2.56,234,282,414,471,309,19
288,0.01,-0.97,-0.21,0.18,-2.81,-3.05,235,280,415,472,307,19
289,-0.0,-0.97,-0.21,1.04,-3.23,-2.69,235,283,411,473,307,19
290,-0.0,-0.97,-0.21,-0.37,-2.62,-2.5,234,281,415,472,306,19
291,0.0,-0.98,-0.22,0.43,-2.69,-2.5,230,281,416,466,308,19
292,-0.0,-0.97,-0.22,0.31,-2.93,-2.62,235,281,415,474,307,19
293,-0.0,-0.96,-0.21,0.92,-3.54,-2.56,234,281,413,471,307,19
294,-0.0,-0.97,-0.21,0.24,-2.99,-2.38,231,282,415,469,308,19
295,-0.0,-0.97,-0.21,0.43,-3.42,-2.5,241,278,417,468,313,19
296,0.01,-0.98,-0.22,0.61,-2.69,-3.11,232,281,411,471,308,19
297,0.0,-0.97,-0.21,-0.55,-2.69,-2.14,232,283,415,470,307,19
298,0.0,-0.97,-0.22,0.98,-2.75,-2.62,234,283,415,474,303,19
299,-0.0,-0.97,-0.21,0.24,-2.81,-2.5,232,284,414,475,308,19
300,0.01,-0.97,-0.22,0.18,-3.05,-2.14,234,283,416,474,305,19
301,0.0,-0.97,-0.22,0.98,-2.69,-2.87,235,283,414,473,303,19
302,0.0,-0.97,-0.22,-0.06,-2.99,-2.44,230,281,413,472,308,19
303,0.01,-0.97,-0.23,-0.18,-2.32,-2.69,234,284,411,471,308,19
304,0.01,-0.97,-0.22,0.18,-2.69,-2.5,236,280,424,472,309,19
305,0.01,-0.96,-0.22,1.04,-2.5,-3.36,234,282,417,468,306,19
306,0.0,-0.96,-0.22,0.73,-2.32,-3.05,231,279,413,471,310,19
307,0.01,-0.98,-0.21,0.55,-3.17,-2.38,231,282,413,471,304,19
308,0.01,-0.97,-0.22,0.49,-2.69,-2.38,232,284,418,471,311,19
309,0.0,-0.96,-0.22,0.12,-3.11,-2.38,231,284,414,466,301,19
310,0.0,-0.97,-0.22,-0.31,-2.5,-2.2,240,287,413,476,307,19
311,0.01,-0.97,-0.21,0.24,-2.26,-2.87,236,280,415,475,308,19
312,0.01,-0.96,-0.22,-0.55,-2.81,-2.99,230,277,416,466,304,19
313,0.01,-0.97,-0.21,-0.06,-2.93,-3.36,234,282,415,471,310,19
314,0.01,-0.97,-0.21,-0.06,-2.99,-2.93,232,281,420,475,307,19
315,0.01,-0.97,-0.21,0.67,-2.99,-2.38,231,281,414,471,307,19
316,0.01,-0.97,-0.22,0.06,-2.99,-2.2,232,282,414,471,309,19
317,0.01,-0.97,-0.21,1.71,-3.48,-2.14,234,284,414,475,304,19
318,0.01,-0.97,-0.22,0.24,-2.69,-2.32,232,286,415,470,308,19
319,0.01,-0.97,-0.21,1.04,-3.6,-2.38,232,280,414,471,308,19
320,0.01,-0.97,-0.22,-0.06,-2.5,-3.11,234,287,415,469,308,19
321,0.01,-0.97,-0.21,-0.06,-3.05,-2.75,231,284,412,474,305,19
322,0.0,-0.97,-0.22,-0.55,-3.36,-3.11,232,281,414,466,308,19
323,-0.0,-0.97,-0.21,1.71,-2.87,-3.6,232,285,414,470,309,19
324,0.0,-0.97,-0.21,0.24,-2.99,-1.65,240,281,411,474,306,19
325,0.01,-0.96,-0.21,0.92,-3.78,-2.38,233,285,413,478,307,19
326,0.02,-0.97,-0.22,-0.24,-2.44,-3.3,235,282,416,472,307,19
327,0.02,-0.97,-0.21,0.61,-2.81,-2.5,232,281,411,469,308,19
328,0.03,-0.97,-0.22,1.22,-2.75,-2.62,239,283,413,465,307,19
329,0.02,-0.96,-0.22,0.79,-2.5,-2.87,232,288,411,472,309,19
330,0.02,-0.97,-0.22,0.92,-2.56,-1.65,233,282,413,475,307,19
331,0.02,-0.97,-0.23,-2.26,-0.98,-0.79,240,282,414,479,311,19
332,-0.0,-0.97,-0.25,0.49,-15.2,-5.55,232,282,413,472,309,19
333,-0.0,-0.95,-0.25,-2.2,-2.93,-1.65,243,282,413,482,304,19
334,-0.01,-0.95,-0.25,0.06,-8.18,-2.14,232,283,414,472,309,19
335,0.01,-0.96,-0.28,1.95,-2.99,-2.08,233,285,413,470,306,19
336,0.02,-0.97,-0.26,1.83,-1.71,-1.53,235,282,415,474,309,19
337,0.01,-0.97,-0.26,-0.61,-1.4,-1.53,235,282,411,471,306,19
338,-0.0,-0.96,-0.25,-4.33,-0.24,1.22,232,282,412,465,305,19
339,-0.04,-0.95,-0.29,-6.41,2.32,2.32,234,280,413,474,307,19
340,-0.03,-0.94,-0.28,2.26,-3.72,-2.26,234,282,409,466,305,19
341,-0.03,-0.95,-0.29,0.43,-3.11,-3.11,233,282,415,468,307,19
342,-0.01,-0.95,-0.28,3.11,-3.6,-0.06,234,282,414,469,306,19
343,-0.03,-0.94,-0.27,2.38,-2.26,-2.08,231,285,413,470,297,19
344,-0.02,-0.95,-0.29,-3.23,-1.53,-2.38,232,282,414,469,306,19
345,-0.03,-0.93,-0.27,1.28,-2.69,-2.81,232,285,414,470,308,19
346,-0.05,-0.95,-0.31,3.3,-2.14,-0.73,233,284,411,471,309,19
347,-0.09,-0.94,-0.29,19.65,10.19,-16.11,232,282,412,471,309,19
348,0.08,-0.9,-0.18,3.85,3.78,-7.87,234,285,411,470,310,19
349,0.07,-0.94,-0.26,0.67,0.85,-3.97,232,284,413,474,309,19
350,0.04,-0.95,-0.26,1.95,-3.05,-2.38,232,284,413,473,305,19
351,0.06,-0.96,-0.25,3.42,-3.3,-2.99,235,285,414,470,309,19
352,0.06,-0.96,-0.27,-0.85,-1.59,-1.71,235,282,413,471,306,19
353,0.06,-0.96,-0.26,-0.06,-2.5,-2.87,234,283,409,470,304,19
354,0.06,-0.95,-0.26,0.61,-2.08,-2.62,232,282,412,471,308,19
355,0.06,-0.96,-0.27,-0.24,-2.5,-2.38,233,281,422,470,308,19
356,0.06,-0.96,-0.26,-15.63,-2.81,-2.5,234,284,410,473,315,19
357,0.06,-0.96,-0.27,0.79,-3.17,-1.95,234,284,412,471,306,19
358,0.05,-0.95,-0.26,0.85,-3.11,-0.92,233,284,416,469,307,19
359,0.05,-0.96,-0.25,0.18,-2.56,-2.75,234,280,412,473,308,19
360,0.05,-0.95,-0.27,-0.24,-2.69,-2.56,232,282,411,474,306,19
361,0.05,-0.96,-0.26,-1.71,-2.81,-1.22,235,281,409,470,309,19
362,0.04,-0.95,-0.26,1.22,-2.87,-3.17,223,286,412,473,303,19
363,0.05,-0.95,-0.26,-0.06,-2.32,-2.93,232,282,415,471,308,19
364,0.04,-0.96,-0.27,0.37,-2.93,-2.5,234,283,417,472,306,19
365,0.04,-0.96,-0.27,0.12,-2.81,-2.62,245,282,413,465,310,19
366,0.04,-0.96,-0.27,0.24,-2.87,-2.62,234,285,413,475,307,19
367,0.04,-0.95,-0.27,-0.43,-2.2,-0.37,231,283,410,474,306,19
368,0.03,-0.95,-0.29,-0.79,-1.71,0.31,233,285,411,466,306,19
369,0.02,-0.95,-0.28,1.1,-3.36,-3.17,232,283,425,471,307,19
370,0.02,-0.95,-0.28,0.61,-3.17,-2.38,232,282,414,472,310,19
371,0.02,-0.96,-0.27,0.06,-3.23,-1.83,233,286,412,473,310,19
372,0.02,-0.96,-0.28,0.43,-2.99,-2.5,231,284,412,473,309,19
373,0.02,-0.95,-0.27,3.23,-3.3,-3.23,235,285,408,471,308,19
374,0.01,-0.95,-0.28,0.55,-3.17,-3.05,233,284,411,466,310,19
375,0.02,-0.95,-0.29,1.1,-3.42,-2.87,233,286,412,474,308,19
376,0.02,-0.96,-0.26,-0.49,-2.56,-3.36,231,283,413,470,310,19
377,0.02,-0.95,-0.28,0.12,-3.11,-2.93,232,286,409,474,309,19
378,0.04,-0.95,-0.27,-0.31,-3.36,-1.22,233,283,415,474,311,19
379,0.07,-0.95,-0.32,-2.44,-0.98,-13.98,233,283,412,471,308,19
380,0.12,-0.94,-0.33,3.17,-11.41,-14.1,233,286,408,471,305,19
381,0.05,-0.94,-0.24,-10.13,1.1,6.65,233,285,411,467,309,19
382,0.04,-0.96,-0.21,-0.31,-2.99,-3.54,229,283,413,469,308,19
383,0.06,-0.95,-0.24,-2.32,-0.55,-5.55,232,284,412,465,305,19
384,0.03,-0.96,-0.28,-3.17,-3.3,1.95,231,280,413,469,308,19
385,0.04,-0.96,-0.26,-1.1,-1.1,-3.85,234,283,410,465,305,19
386,-0.0,-0.96,-0.27,-0.67,-4.21,-0.43,230,278,411,474,305,19
387,0.09,-0.95,-0.26,-1.16,-1.95,0.98,231,285,410,471,308,19
388,0.04,-0.96,-0.27,1.34,-1.46,-5.68,232,284,414,475,309,19
389,0.06,-0.95,-0.26,-0.24,-2.81,-2.75,234,283,407,471,304,19
390,0.05,-0.96,-0.26,1.22,-4.64,-2.38,233,284,409,470,308,19
391,0.05,-0.96,-0.25,0.98,-2.5,-2.69,235,284,412,468,308,19
392,0.06,-0.94,-0.28,-3.78,0.37,-1.89,232,284,407,475,309,19
393,0.07,-0.96,-0.27,-1.53,-3.05,-1.83,233,287,413,469,308,19
394,0.05,-0.96,-0.27,0.49,-3.17,-3.66,232,283,412,474,309,19
395,0.05,-0.96,-0.29,0.85,-2.93,-0.85,230,284,407,469,310,19
396,0.06,-0.95,-0.27,0.49,-3.17,-2.26,232,283,413,468,309,19
397,0.04,-0.95,-0.27,0.55,-2.62,-2.62,235,282,409,471,311,19
398,0.05,-0.96,-0.27,-1.4,-2.69,-2.44,232,295,413,466,308,19
399,0.04,-0.95,-0.26,1.59,-4.27,-0.55,233,283,410,467,309,19
400,0.06,-0.96,-0.25,1.77,-2.93,-3.72,234,285,412,470,310,19
401,0.04,-0.96,-0.24,0.49,-2.87,-3.72,232,283,415,468,308,19
402,0.02,-0.96,-0.28,-7.26,-2.69,-0.79,222,285,413,474,309,19
403,0.03,-0.95,-0.27,8.61,-6.16,-1.16,234,286,412,470,309,19
404,0.08,-0.96,-0.26,1.1,-1.77,-1.65,232,293,412,470,305,19
405,0.03,-0.96,-0.28,2.56,-4.03,-4.58,232,283,410,466,308,19
406,0.06,-0.96,-0.26,0.67,-1.89,-1.22,235,285,410,466,308,19
407,0.06,-0.95,-0.27,-0.61,-2.87,-4.64,232,283,411,471,310,19
408,0.06,-0.96,-0.26,-1.46,-3.11,-0.37,235,284,410,465,309,19
409,0.05,-0.95,-0.28,0.43,-2.81,-2.87,236,285,411,475,309,19
410,0.04,-0.94,-0.28,-1.1,-3.54,-1.53,231,284,411,473,308,19
411,0.05,-0.95,-0.28,1.1,-3.6,-2.75,230,286,410,470,310,19
412,0.06,-0.96,-0.27,-0.06,-2.62,-2.01,232,287,407,474,308,19
413,0.05,-0.95,-0.28,0.73,-3.23,-4.82,231,286,412,474,309,19
414,0.06,-0.96,-0.28,0.43,-2.26,-3.05,235,287,408,468,305,19
415,0.06,-0.95,-0.26,1.71,-3.17,-0.18,232,284,412,474,309,19
416,0.04,-0.96,-0.28,-0.31,-2.5,-2.69,230,285,411,471,311,19
417,0.05,-0.95,-0.27,-0.37,-3.17,-2.62,232,284,411,467,308,19
418,0.04,-0.95,-0.27,0.12,-2.38,-2.32,232,284,409,470,307,19
419,0.05,-0.96,-0.27,0.92,-3.42,-2.38,231,284,410,475,309,19
420,0.04,-0.96,-0.28,0.79,-2.87,-2.26,230,287,410,474,309,19
421,0.03,-0.95,-0.27,0.61,-2.38,-1.28,234,284,411,474,311,19
422,0.05,-0.95,-0.27,0.73,-3.17,-3.66,234,286,409,473,309,19
423,0.05,-0.95,-0.28,-0.73,-3.17,-2.56,234,284,412,470,308,19
424,0.04,-0.96,-0.27,-1.22,-1.89,-2.32,230,286,410,470,308,19
425,0.05,-0.95,-0.27,-0.79,-2.93,-4.09,223,283,412,475,308,19
426,0.04,-0.95,-0.28,0.24,-2.93,-0.24,233,283,408,475,311,19
427,0.05,-0.95,-0.27,0.92,-3.11,-3.85,235,285,408,472,308,19
428,0.04,-0.95,-0.28,0.92,-2.87,-3.17,230,285,408,474,309,19
429,0.06,-0.95,-0.28,0.85,-3.3,-4.39,237,286,408,471,311,19
430,0.05,-0.95,-0.28,-1.65,-4.27,0.61,231,283,409,465,305,19
431,0.01,-0.95,-0.27,2.08,-6.71,-1.89,232,289,406,470,309,19
432,0.06,-0.92,-0.33,10.62,-40.77,13.73,229,286,408,474,306,19
433,0.07,-0.95,-0.2,5.13,-3.3,6.1,233,281,410,470,310,19
434,0.02,-1.01,-0.23,6.71,-3.36,-2.01,229,286,409,467,310,19
435,0.06,-0.96,-0.24,-2.56,-0.49,-0.49,232,284,411,470,313,19
436,0.04,-0.97,-0.23,1.83,-3.42,-5.25,234,282,408,474,311,19
437,0.05,-0.95,-0.26,1.04,-3.91,-1.16,231,287,409,470,307,19
438,0.04,-0.95,-0.23,2.14,-3.54,-1.89,233,283,406,473,307,19
439,0.05,-0.96,-0.24,0.31,-3.05,-4.09,232,288,409,471,308,19
440,0.05,-0.97,-0.24,-2.14,-1.53,-2.2,234,282,408,470,311,19
441,0.04,-0.96,-0.24,0.55,-2.62,-2.38,235,286,409,470,310,19
442,0.05,-0.99,-0.24,-0.37,-2.75,-1.59,232,286,412,471,309,19
443,0.03,-0.95,-0.24,1.16,-3.23,-1.71,237,286,413,472,311,19
444,0.03,-0.97,-0.25,-1.16,-2.44,-3.23,235,287,409,474,309,19
445,0.03,-0.97,-0.25,-0.18,-2.5,-2.38,230,284,409,469,309,19
446,0.03,-0.96,-0.24,2.44,-2.26,-2.38,231,294,410,474,312,19
447,0.05,-0.97,-0.25,-0.12,-3.36,-3.23,233,284,411,473,309,19
448,0.03,-0.96,-0.23,1.46,-3.23,-2.69,233,287,409,469,306,19
449,0.06,-0.96,-0.23,1.71,-5.74,-1.59,230,283,411,470,309,19
450,0.07,-0.96,-0.22,1.46,-3.42,-4.52,230,286,409,471,306,19
451,0.06,-0.96,-0.23,-0.73,-3.05,-2.44,228,287,410,480,308,19
452,0.04,-0.96,-0.22,2.99,-2.99,-4.09,232,287,410,473,310,19
453,0.05,-0.96,-0.22,-1.71,-1.16,-2.26,228,284,407,471,309,19
454,0.07,-0.98,-0.24,-1.83,-1.04,-3.3,233,286,404,471,306,19
455,0.05,-0.96,-0.25,-1.04,-2.81,-5.74,235,286,409,471,306,19
456,0.04,-0.97,-0.26,-0.43,-2.2,-1.71,256,285,408,469,308,19
457,0.11,-0.97,-0.21,-15.2,-1.71,-2.26,235,285,405,470,309,19
458,0.05,-0.97,-0.24,2.26,-7.2,2.08,237,286,407,471,309,19
459,0.02,-0.95,-0.19,2.08,-13.98,3.11,233,288,408,470,310,19
460,0.08,-1.0,-0.21,8.12,-5.55,-2.32,232,286,409,466,308,19
461,-0.12,-0.96,-0.28,-2.01,0.67,11.35,233,285,409,470,310,19
462,-0.02,-0.94,-0.21,5.25,-6.65,-8.06,234,285,407,475,307,19
463,-0.07,-0.95,-0.23,-0.98,0.0,10.25,234,286,407,473,306,19
464,0.05,-0.96,-0.34,8.61,-1.65,-49.5,235,286,408,470,310,19
465,0.07,-0.94,-0.14,-2.08,22.4,5.31,244,286,410,472,310,19
466,0.02,-1.0,-0.28,-0.12,1.89,-14.4,235,287,405,471,311,19
467,0.06,-0.97,-0.38,-1.34,1.04,-3.6,232,287,411,469,308,19
468,0.08,-0.94,-0.21,11.6,-4.15,0.12,230,286,408,471,309,19
469,0.04,-0.95,-0.33,-0.43,-2.2,-4.7,231,281,406,470,312,19
470,0.08,-0.97,-0.36,-6.77,-2.69,-4.15,230,286,424,474,307,19
471,0.1,-0.97,-0.36,6.71,-6.71,-12.33,232,286,406,471,312,19
472,0.08,-0.97,-0.28,-14.89,5.92,7.2,234,288,408,474,310,19
473,0.0,-0.96,-0.29,-4.33,-1.28,-6.16,235,284,408,472,312,19
474,0.02,-0.93,-0.26,1.34,-2.93,-0.73,232,285,411,472,307,19
475,0.02,-0.97,-0.27,-1.95,-3.36,-10.38,235,284,408,474,309,19
476,0.07,-0.95,-0.26,0.67,-6.35,-15.08,233,286,408,471,311,19
477,0.12,-0.96,-0.24,0.0,-1.95,-2.87,233,287,405,475,310,19
478,0.12,-0.98,-0.26,-0.73,-3.17,-3.72,230,285,413,474,309,19
479,0.11,-0.96,-0.25,-1.65,-1.89,-2.2,232,287,409,472,309,19
480,0.1,-0.96,-0.23,1.59,-3.6,-2.75,233,288,408,469,309,19
481,0.11,-0.96,-0.23,2.44,-3.91,-2.26,233,284,409,474,308,19
482,0.1,-0.95,-0.24,1.22,-3.72,-2.99,232,288,408,466,306,19
483,0.13,-0.96,-0.25,-8.0,2.44,0.06,235,287,408,472,311,19
484,0.08,-0.96,-0.25,1.34,-4.46,-3.6,226,287,409,470,311,19
485,0.11,-0.96,-0.26,0.67,-3.66,-3.66,234,294,405,470,311,19
486,0.1,-0.95,-0.25,-0.61,-3.17,-1.65,234,288,409,474,301,19
487,0.09,-0.97,-0.25,-0.24,-3.66,-1.71,234,285,408,470,311,19
488,0.07,-0.95,-0.25,1.95,-2.32,-2.38,234,286,409,474,309,19
489,0.13,-0.97,-0.23,-0.12,-0.85,-5.55,233,285,409,472,312,19
490,0.11,-0.96,-0.23,0.79,-3.11,-3.91,234,283,410,473,309,19
491,0.13,-0.96,-0.25,-0.92,-3.11,-1.22,244,286,410,469,311,19
492,0.1,-0.95,-0.24,-2.08,-3.17,-1.65,234,285,424,469,310,19
493,0.12,-0.94,-0.25,0.98,-2.75,-0.24,235,286,411,469,309,19
494,0.11,-0.96,-0.28,1.46,-2.5,2.56,232,288,405,468,309,19
495,0.03,-0.94,-0.24,-5.0,-3.17,10.86,232,285,406,469,309,19
496,0.03,-0.94,-0.24,2.5,-5.43,-8.18,234,288,408,471,307,19
497,0.12,-0.93,-0.27,1.77,0.55,3.11,229,285,405,469,306,19
498,0.01,-0.95,-0.29,1.4,0.79,8.48,229,284,411,473,310,19
499,0.02,-0.95,-0.24,1.34,-3.36,-3.23,231,285,410,472,306,19
500,-0.11,-0.98,0.19,0.12,-2.38,-7.57,305,263,417,465,292,19
501,-0.05,-0.98,0.19,4.27,-4.94,-2.87,296,260,411,459,293,19
502,-0.0,-0.98,0.2,4.7,-1.46,-2.01,302,260,410,465,293,19
503,-0.03,-0.97,0.23,0.24,-2.26,-1.71,299,263,409,464,295,19
504,-0.05,-0.98,0.2,2.62,-3.17,-0.37,295,264,410,456,296,19
505,-0.04,-0.97,0.24,1.4,-1.71,-2.32,296,265,409,464,292,19
506,-0.02,-0.95,0.23,0.43,-3.66,-6.65,303,265,414,462,298,19
507,-0.02,-0.99,0.25,0.18,-1.89,-2.75,300,265,409,473,296,19
508,-0.01,-0.97,0.23,-2.62,-3.54,-2.32,299,261,411,463,298,19
509,-0.01,-0.98,0.18,0.06,1.28,-2.69,296,266,410,459,294,19
510,-0.04,-0.97,0.22,3.23,-1.34,-1.34,299,262,411,462,299,19
511,0.0,-0.98,0.19,-0.43,1.04,-4.88,296,272,406,459,296,19
512,-0.0,-0.98,0.2,-3.05,-6.1,1.16,298,266,408,461,296,19
513,-0.04,-0.98,0.19,5.68,-1.04,2.26,305,266,407,458,295,19
514,-0.05,-0.97,0.21,1.53,-7.32,-6.1,300,262,410,461,298,19
515,-0.03,-0.98,0.2,0.12,-2.14,-1.77,301,268,405,462,299,19
516,-0.03,-0.98,0.21,-0.24,-2.87,-2.01,296,269,409,461,298,19
517,-0.03,-0.98,0.2,1.1,-1.59,-4.39,300,267,408,457,296,19
518,-0.03,-0.98,0.2,0.06,-1.95,-2.87,302,266,411,465,300,19
519,-0.04,-0.98,0.2,0.67,-1.83,-2.32,300,266,410,461,298,19
520,-0.04,-0.97,0.22,0.61,-2.2,-1.65,300,268,405,464,301,19
521,-0.06,-0.98,0.21,-0.85,-2.14,-1.65,302,267,406,462,298,19
522,-0.05,-0.98,0.21,0.61,-2.99,-2.56,304,266,407,467,300,19
523,-0.05,-0.98,0.22,0.85,-3.05,-2.69,303,265,407,460,298,19
524,-0.06,-0.97,0.22,-1.16,-0.43,-2.87,301,262,420,473,297,19
525,-0.06,-0.97,0.22,-0.18,-3.17,-0.49,299,265,407,465,296,19
526,-0.05,-0.97,0.23,1.71,-4.46,-1.34,302,264,407,461,300,19
527,-0.06,-0.97,0.22,-2.44,1.53,-2.32,299,264,405,462,298,19
528,-0.07,-0.97,0.21,-0.24,-2.14,-2.62,301,266,407,463,300,19
529,-0.07,-0.97,0.21,1.22,-3.17,-4.27,300,264,406,464,295,19
530,-0.06,-0.97,0.21,0.73,-3.11,-1.1,303,263,406,458,298,19
531,-0.07,-0.97,0.21,0.67,-3.48,-2.93,300,265,410,466,292,19
532,-0.06,-0.97,0.22,0.18,-4.09,-4.39,301,261,406,462,296,19
533,-0.08,-0.97,0.2,1.95,-3.66,-2.99,301,263,406,457,297,19
534,-0.06,-0.97,0.22,1.04,-2.38,-1.95,299,265,406,461,301,19
535,-0.05,-0.97,0.23,2.81,-4.82,-4.09,301,267,407,464,297,19
536,-0.06,-0.97,0.23,1.4,-3.23,-2.93,301,264,406,459,296,19
537,-0.06,-0.97,0.23,1.46,-2.08,-3.48,296,267,409,467,296,19
538,-0.05,-0.97,0.24,-0.24,-2.56,-2.01,302,268,406,464,297,19
539,-0.05,-0.97,0.24,0.43,-2.38,-2.38,303,265,404,465,298,19
540,-0.05,-0.97,0.24,0.79,-2.81,-2.38,296,264,405,462,299,19
541,-0.07,-0.96,0.25,1.77,-5.55,-2.5,300,264,405,458,298,19
542,-0.07,-0.96,0.25,1.28,-2.08,-1.95,301,267,404,462,295,19
543,-0.06,-0.96,0.25,1.16,-3.17,-2.99,305,275,400,465,303,19
544,-0.06,-0.96,0.25,1.34,-3.78,-3.72,302,263,403,473,299,19
545,-0.05,-0.96,0.25,0.55,-3.6,-2.87,309,265,404,463,294,19
546,-0.07,-0.97,0.25,0.12,-2.14,-1.89,299,263,407,466,299,19
547,-0.06,-0.96,0.26,0.24,-3.23,-1.95,305,266,402,467,298,19
548,-0.06,-0.96,0.26,0.79,-2.56,-3.05,304,261,407,463,300,19
549,-0.06,-0.96,0.26,0.98,-3.17,-3.3,308,262,410,459,299,19
550,-0.06,-0.96,0.26,1.22,-3.3,-2.81,298,260,405,464,298,19
551,-0.06,-0.96,0.27,0.61,-3.17,-2.93,305,264,403,467,303,19
552,-0.06,-0.96,0.26,0.43,-2.08,-2.38,298,260,401,465,296,19
553,-0.07,-0.96,0.26,0.37,-2.69,-2.32,305,266,405,462,299,19
554,-0.07,-0.96,0.26,0.55,-3.17,-3.91,301,263,404,462,298,19
555,-0.06,-0.96,0.27,-0.18,-3.48,-3.11,300,265,405,463,300,19
556,-0.06,-0.96,0.27,0.31,-2.26,-2.81,302,270,400,466,297,19
557,-0.06,-0.96,0.27,0.06,-2.81,-1.65,301,275,402,464,301,19
558,-0.07,-0.96,0.26,0.85,-3.6,-1.83,303,258,406,468,301,19
559,-0.07,-0.96,0.27,0.12,-2.56,-3.17,298,265,408,462,298,19
560,-0.06,-0.96,0.26,0.98,-2.01,-3.66,301,265,399,460,302,19
561,-0.06,-0.96,0.27,0.49,-2.99,-2.81,302,259,409,465,299,19
562,-0.06,-0.96,0.27,1.4,-3.91,-2.62,303,265,404,465,297,19
563,-0.07,-0.96,0.28,1.1,-2.56,-3.17,303,267,402,464,299,19
564,-0.06,-0.96,0.28,0.85,-2.08,-2.32,301,267,405,463,301,19
565,-0.06,-0.96,0.28,-0.37,-3.17,-4.39,301,269,399,458,292,19
566,-0.05,-0.96,0.28,0.06,-2.32,-4.15,303,267,401,467,300,19
567,-0.06,-0.96,0.28,-0.24,-2.38,-1.53,302,266,404,463,298,19
568,-0.06,-0.96,0.27,-0.18,-2.75,-2.38,299,261,404,459,302,19
569,-0.07,-0.96,0.27,0.61,-2.08,-2.69,316,266,405,463,299,19
570,-0.06,-0.96,0.27,0.61,-3.42,-2.69,303,268,399,468,300,19
571,-0.07,-0.96,0.27,0.24,-2.26,-2.87,299,268,398,468,301,19
572,-0.07,-0.97,0.27,0.85,-2.2,-3.11,300,269,404,458,302,19
573,-0.07,-0.96,0.27,0.55,-2.38,-2.56,303,269,403,463,301,19
574,-0.06,-0.96,0.27,0.31,-2.44,-2.87,297,266,398,465,295,19
575,-0.06,-0.96,0.27,0.06,-2.87,-2.93,300,268,401,465,305,19
576,-0.07,-0.96,0.27,0.12,-2.81,-2.14,306,268,403,461,300,19
577,-0.07,-0.96,0.27,0.61,-2.81,-2.62,301,266,403,467,299,19
578,-0.06,-0.96,0.27,1.1,-3.17,-2.08,304,269,402,468,299,19
579,-0.09,-0.96,0.26,0.18,-2.99,0.12,301,262,400,462,300,19
580,-0.09,-0.96,0.26,0.0,-2.5,-2.93,299,274,401,467,301,19
581,-0.06,-0.96,0.26,-7.26,4.21,2.08,303,264,400,459,302,19
582,-0.09,-0.95,0.28,2.2,-5.13,-4.64,302,268,401,464,301,19
583,-0.12,-0.96,0.24,1.53,-3.36,-2.08,300,264,403,463,291,19
584,-0.1,-0.96,0.26,1.28,-2.38,-3.48,303,269,400,464,300,19
585,-0.11,-0.95,0.28,1.34,-2.93,-6.23,304,265,400,465,301,19
586,-0.12,-0.95,0.27,0.06,-0.79,0.43,300,270,401,461,301,19
587,-0.08,-0.95,0.26,-1.28,-3.78,-1.71,302,269,398,466,296,19
588,-0.06,-0.96,0.25,-8.54,-28.26,7.45,300,260,399,455,297,19
589,-0.1,-0.96,0.26,0.06,-11.66,-0.31,301,267,401,458,303,19
590,-0.12,-0.96,0.26,-0.37,-2.32,-3.91,306,268,402,458,303,19
591,-0.11,-0.95,0.27,2.32,-2.08,-2.99,300,267,403,466,301,19
592,-0.12,-0.96,0.27,1.53,-2.32,-1.1,302,268,403,464,303,19
593,-0.11,-0.94,0.28,1.28,-4.82,-3.72,299,269,396,459,304,19
594,-0.13,-0.95,0.28,-0.06,-2.26,-3.17,303,262,402,458,301,19
595,-0.13,-0.96,0.3,0.0,-0.67,-3.23,303,269,396,465,298,19
596,-0.12,-0.96,0.29,-0.12,-1.4,-4.27,306,265,401,458,300,19
597,-0.13,-0.96,0.26,-0.92,-0.92,0.61,301,265,393,470,300,19
598,-0.12,-0.96,0.27,0.31,-2.81,-3.23,303,270,401,462,300,19
599,-0.09,-0.95,0.28,2.32,-2.62,-4.46,304,269,400,464,305,19
600,-0.1,-0.97,0.25,-1.71,-7.26,-3.11,307,272,401,467,302,19
601,-0.13,-0.96,0.24,-3.72,8.42,-7.39,310,268,399,467,301,19
602,-0.11,-0.96,0.28,-1.22,-1.95,-7.08,303,262,398,458,304,19
603,-0.14,-0.95,0.24,-0.67,-2.62,0.37,304,268,395,463,306,19
604,-0.09,-0.97,0.24,-2.93,1.59,-7.08,301,266,394,462,304,19
605,-0.1,-0.98,0.22,1.04,-3.85,-7.39,298,264,398,463,297,19
606,-0.06,-0.99,0.19,5.0,-4.64,-3.72,303,271,398,463,302,19
607,0.01,-0.99,0.23,-0.73,-5.19,-4.94,306,287,398,460,300,19
608,-0.04,-0.96,0.24,-0.67,-5.8,-4.33,302,267,395,461,301,19
609,-0.03,-0.99,0.21,1.59,-4.82,-2.81,303,270,396,465,303,19
610,-0.03,-0.98,0.22,2.93,-4.21,-2.2,303,271,397,464,301,19
611,0.01,-0.98,0.22,1.1,-4.15,-1.4,303,268,399,458,303,19
612,-0.01,-0.98,0.22,1.22,-2.44,-1.28,305,267,398,459,300,19
613,-0.01,-0.98,0.22,0.18,-4.33,-2.62,304,271,396,458,304,19
614,-0.03,-0.97,0.23,0.55,-3.36,-2.87,301,267,398,461,297,19
615,-0.02,-0.97,0.24,0.37,-3.85,-3.6,302,267,402,465,299,19
616,-0.02,-0.97,0.24,0.61,-2.93,-3.54,305,267,399,462,304,19
617,-0.01,-0.97,0.23,-0.37,-3.05,-2.32,304,273,397,463,296,19
618,-0.01,-0.97,0.24,0.61,-2.32,-2.56,309,270,398,458,302,19
619,-0.01,-0.98,0.23,-3.48,1.1,-1.4,305,268,401,469,299,19
620,-0.06,-0.98,0.22,1.22,-3.36,-1.34,304,262,397,459,303,19
621,-0.05,-0.96,0.24,-0.85,-2.08,-1.53,300,271,399,467,300,19
622,-0.08,-0.97,0.23,-0.55,-2.75,-1.53,301,269,397,458,303,19
623,-0.06,-0.97,0.24,3.72,-2.32,-0.43,305,268,402,462,305,19
624,-0.06,-0.96,0.24,1.04,-4.46,-2.14,301,265,395,467,298,19
625,-0.09,-0.97,0.23,-2.14,-0.67,-1.22,303,270,397,464,305,19
626,-0.07,-0.96,0.25,2.01,-1.34,-2.08,304,267,397,466,304,19
627,-0.08,-0.97,0.22,0.06,-3.54,-5.8,302,265,393,458,299,19
628,-0.09,-0.96,0.23,0.92,-3.6,-2.87,303,268,400,465,298,19
629,-0.08,-0.96,0.23,1.4,-1.65,-1.53,305,269,394,462,303,19
630,-0.09,-0.96,0.23,1.04,-3.36,-0.85,299,269,399,465,301,19
631,-0.08,-0.97,0.23,0.24,-2.99,-2.38,302,269,396,465,303,19
632,-0.08,-0.97,0.24,0.37,-2.62,-2.87,303,273,396,461,302,19
633,-0.08,-0.97,0.23,0.06,-3.11,-3.23,304,270,394,463,301,19
634,-0.08,-0.97,0.24,0.06,-2.2,-2.56,302,269,399,462,305,19
635,-0.08,-0.99,0.24,0.73,-2.99,-3.17,302,270,395,459,300,19
636,-0.08,-0.97,0.25,0.31,-2.93,-2.38,301,265,394,458,300,19
637,-0.09,-0.95,0.23,-0.37,-2.87,-2.62,303,268,394,462,304,19
638,-0.09,-0.97,0.24,1.46,-2.69,-2.99,304,267,395,459,304,19
639,-0.09,-0.96,0.24,0.43,-2.93,-2.14,303,265,398,464,299,19
640,-0.08,-0.96,0.23,0.49,-3.17,-2.75,297,272,395,465,301,19
641,-0.09,-0.97,0.24,0.31,-1.89,-2.81,302,273,396,464,303,19
642,-0.09,-0.97,0.23,0.55,-2.62,-2.44,305,270,394,463,306,19
643,-0.08,-0.97,0.24,0.31,-2.81,-3.54,300,271,392,470,308,19
644,-0.08,-0.97,0.24,0.67,-3.54,-3.05,303,269,393,466,305,19
645,-0.09,-0.98,0.24,0.67,-2.56,-2.38,304,270,394,468,303,19
646,-0.09,-0.97,0.24,0.31,-2.87,-2.87,303,272,389,467,307,19
647,-0.09,-0.97,0.23,-1.71,-2.87,-2.5,302,268,395,461,303,19
648,-0.12,-0.97,0.25,-1.95,-1.22,-2.26,300,270,391,462,305,19
649,-0.11,-0.97,0.24,0.79,-2.26,-1.59,301,272,397,460,305,19
650,-0.1,-0.96,0.24,0.85,-3.54,-3.3,304,269,394,467,307,19
651,-0.09,-0.97,0.24,0.85,-4.52,-2.81,302,269,394,467,306,19
652,-0.09,-0.98,0.26,0.79,-3.17,-2.99,299,265,395,465,303,19
653,-0.09,-0.96,0.25,0.98,-3.91,-2.5,305,266,394,462,303,19
654,-0.08,-0.96,0.24,-0.49,-2.44,-1.1,304,265,395,467,302,19
655,-0.1,-0.97,0.21,0.92,-8.73,-0.49,299,271,392,465,296,19
656,-0.1,-0.96,0.27,-3.72,-11.6,-6.84,303,281,396,457,303,19
657,-0.09,-0.98,0.22,0.55,-2.14,0.67,301,269,393,465,302,19
658,-0.06,-0.97,0.24,-7.75,4.88,-4.64,304,270,394,460,305,19
659,-0.2,-0.97,0.21,5.86,-2.38,1.59,305,274,391,464,305,19
660,-0.14,-0.96,0.22,0.12,-1.95,-3.54,301,271,397,465,305,19
661,-0.12,-0.96,0.25,1.16,-4.82,-3.66,304,267,388,464,302,19
662,-0.13,-0.97,0.24,1.83,-5.07,-3.72,304,272,393,453,304,19
663,-0.13,-0.95,0.27,1.1,0.18,-0.79,338,268,397,462,306,19
664,-0.2,-0.95,0.22,4.39,2.99,-1.77,302,272,396,468,304,19
665,-0.15,-0.96,0.25,-5.62,-3.23,-3.23,302,267,396,460,301,19
666,-0.21,-0.95,0.25,3.66,-7.51,-1.34,302,273,397,475,308,19
667,-0.19,-0.95,0.23,-1.77,-1.89,-4.03,305,271,393,463,304,19
668,-0.13,-0.96,0.23,-1.95,1.65,-7.32,304,269,393,465,304,19
669,-0.14,-0.95,0.23,-4.46,-1.46,-3.3,305,272,393,460,303,19
670,0.03,-0.99,0.23,-20.14,15.44,-25.09,302,269,394,466,301,19
671,-0.03,-0.99,0.11,2.38,7.69,7.57,300,268,392,467,303,19
672,-0.11,-1.01,0.08,3.72,-5.92,1.71,301,271,397,466,306,19
673,-0.15,-1.04,0.15,8.97,-8.42,5.86,301,273,390,465,299,19
674,-0.17,-1.0,0.21,2.93,-1.34,2.75,303,271,394,461,304,19
675,-0.18,-0.89,0.26,-2.44,2.5,-6.16,309,268,393,464,302,19
676,-0.23,-0.91,0.22,1.95,-3.11,1.4,305,271,397,469,304,19
677,-0.15,-0.94,0.24,-11.9,-1.22,-5.55,306,272,395,459,304,19
678,-0.17,-0.94,0.26,2.01,-3.6,-4.39,304,270,391,463,301,19
679,-0.16,-0.97,0.21,3.54,-1.71,-3.97,299,273,383,464,305,19
680,-0.22,-0.96,0.23,-2.81,0.49,-1.95,303,268,392,462,307,19
681,-0.2,-0.95,0.23,0.79,-2.87,-3.23,301,276,387,461,300,19
682,-0.23,-0.92,0.25,3.91,-16.11,-0.67,302,273,390,465,298,19
683,-0.2,-0.97,0.18,0.12,-13.31,1.83,299,276,396,463,300,19
684,-0.17,-0.97,0.21,-1.65,7.14,5.0,292,269,395,461,303,19
685,-0.14,-0.98,0.25,-0.37,-1.89,-5.37,304,272,394,466,302,19
686,-0.17,-0.96,0.27,4.64,-4.52,-3.23,303,271,396,463,302,19
687,-0.19,-0.94,0.25,3.72,-10.5,1.77,304,269,395,462,307,19
688,-0.19,-0.95,0.25,-4.15,-3.91,-1.53,302,275,392,458,305,19
689,-0.17,-0.95,0.26,-0.73,-1.53,-5.43,304,277,395,462,303,19
690,-0.13,-0.95,0.24,-6.71,3.11,0.18,301,272,390,466,306,19
691,-0.14,-0.95,0.24,-2.87,-1.34,-2.38,303,267,393,464,303,19
692,-0.2,-0.95,0.23,3.78,-6.84,-1.22,302,271,389,465,308,19
693,-0.15,-0.97,0.21,0.37,-3.6,-6.23,304,269,387,458,305,19
694,-0.14,-0.97,0.21,0.73,-1.53,-0.49,303,267,396,467,302,19
695,-0.15,-0.96,0.25,-1.28,-4.33,-1.71,303,271,393,463,303,19
696,-0.13,-0.96,0.21,-0.18,-1.53,-1.28,306,262,394,464,312,19
697,-0.13,-0.96,0.23,-0.18,-3.54,-3.91,304,270,392,466,296,19
698,-0.15,-0.96,0.24,1.89,-5.92,-2.75,302,268,387,459,307,19
699,-0.13,-0.97,0.23,1.89,-3.6,-2.87,303,276,394,461,305,19
700,-0.11,-0.96,0.24,2.08,-2.99,-0.37,305,270,390,461,305,19
701,-0.15,-0.96,0.24,1.28,-1.46,-1.22,303,270,394,463,300,19
702,-0.12,-0.96,0.25,0.49,-1.28,-0.79,303,270,393,460,306,19
703,-0.11,-0.96,0.26,-0.06,-3.3,-2.56,301,270,384,464,302,19
704,-0.14,-0.96,0.25,-0.18,-2.38,0.06,309,270,392,459,305,19
705,-0.14,-0.96,0.24,-0.24,-2.62,-3.23,300,276,389,465,306,19
706,-0.13,-0.96,0.25,-2.08,-0.12,-6.84,306,272,392,459,305,19
707,-0.18,-0.95,0.27,1.53,4.52,-5.13,303,274,392,466,306,19
708,-0.14,-0.96,0.25,0.61,-3.85,-3.78,303,271,392,459,308,19
709,-0.13,-0.96,0.26,0.18,-2.08,-3.66,302,271,392,469,309,19
710,-0.13,-0.95,0.24,2.08,-1.1,-1.1,308,270,391,470,305,19
711,-0.13,-0.97,0.26,0.92,-2.44,-1.34,298,271,392,464,306,19
712,-0.13,-0.96,0.26,0.31,-1.22,-1.16,304,273,391,460,296,19
713,-0.16,-0.95,0.27,1.1,-3.05,-3.05,303,273,387,460,305,19
714,-0.14,-0.95,0.25,-0.85,-1.46,-2.69,303,271,390,467,301,19
715,-0.12,-0.96,0.24,0.37,-3.11,-3.05,302,274,390,469,307,19
716,-0.13,-0.95,0.25,0.49,-4.03,-4.82,301,272,395,466,300,19
717,-0.14,-0.95,0.25,1.77,-3.54,-2.32,302,271,394,466,308,19
718,-0.14,-0.93,0.25,0.55,-3.05,-2.32,331,268,396,459,305,19
719,-0.13,-0.94,0.26,0.85,-3.48,-3.23,302,274,395,468,309,19
720,-0.13,-0.96,0.25,0.31,-2.69,-4.64,305,269,390,459,308,19
721,-0.17,-0.96,0.25,0.67,-4.64,3.3,302,262,393,464,308,19
722,-0.18,-0.96,0.22,1.4,-1.77,-3.3,308,275,392,464,305,19
723,-0.15,-0.95,0.24,-0.85,-2.81,-6.41,304,270,393,465,305,19
724,-0.15,-0.95,0.25,0.92,-2.87,-2.26,301,270,392,462,305,19
725,-0.13,-0.96,0.25,1.46,-1.4,-4.52,305,272,385,463,304,19
726,-0.14,-0.96,0.25,1.28,-2.81,-1.16,303,270,396,467,305,19
727,-0.14,-0.95,0.25,0.67,-3.36,-3.78,301,263,393,465,304,19
728,-0.14,-0.96,0.25,-0.12,-3.36,-4.46,311,276,394,465,306,19
729,-0.13,-0.96,0.25,0.24,-3.11,-3.05,305,266,394,460,308,19
730,-0.13,-0.96,0.26,0.73,-2.32,-1.89,300,272,391,467,307,19
731,-0.14,-0.95,0.26,0.24,-2.32,-1.46,303,265,393,466,306,19
732,-0.15,-0.95,0.26,1.65,-3.05,-1.95,306,274,391,463,310,19
733,-0.14,-0.96,0.25,-0.18,-2.26,-2.99,301,273,388,467,306,19
734,-0.15,-0.95,0.26,-0.37,-2.5,-1.71,303,270,391,465,308,19
735,-0.14,-0.95,0.26,1.04,-2.87,-2.38,304,272,393,466,308,19
736,-0.14,-0.95,0.24,-0.49,-2.81,-3.91,302,272,392,463,304,19
737,-0.14,-0.96,0.25,0.06,-3.11,-3.78,301,272,390,463,307,19
738,-0.13,-0.96,0.25,0.31,-3.3,-2.69,303,270,388,468,304,19
739,-0.13,-0.96,0.25,0.49,-1.65,-2.5,305,273,393,460,309,19
740,-0.12,-0.96,0.25,-1.16,-3.36,-3.54,304,271,386,468,306,19
741,-0.14,-0.96,0.22,-2.99,1.95,-3.42,302,266,393,460,310,19
742,-0.19,-0.94,0.29,1.59,-10.38,0.67,304,266,393,465,306,19
743,-0.09,-0.97,0.23,1.59,1.83,-4.09,297,272,389,464,304,19
744,-0.18,-0.94,0.28,1.22,-6.16,-4.33,304,277,388,465,305,19
745,-0.12,-0.96,0.25,5.19,-5.0,-1.22,302,272,392,469,307,19
746,-0.15,-0.96,0.24,3.85,-1.22,-0.12,301,275,390,468,309,19
747,-0.11,-0.97,0.22,-2.99,-1.4,-3.17,302,275,391,460,309,19
748,-0.14,-0.96,0.24,-1.04,-2.44,-4.09,303,273,387,466,306,19
749,-0.14,-0.95,0.25,0.24,-1.4,-3.17,304,273,391,464,311,19
750,-0.11,-0.96,0.25,1.22,-2.75,-1.46,308,264,392,466,306,19
751,-0.12,-0.96,0.24,0.18,-4.27,-4.27,303,273,390,462,306,19
752,-0.12,-0.96,0.23,-1.95,-1.59,-3.17,302,270,391,465,305,19
753,-0.13,-0.95,0.24,-0.24,-3.66,-7.39,304,274,395,471,304,19
754,-0.11,-0.96,0.22,0.18,-1.22,-2.56,303,273,392,469,306,19
755,-0.11,-0.96,0.25,0.85,-1.89,-3.66,303,273,389,463,306,19
756,-0.1,-0.97,0.21,1.4,-2.99,-2.81,304,273,390,465,306,19
757,-0.11,-0.97,0.24,-2.56,-2.26,-1.16,307,263,390,463,305,19
758,-0.08,-0.97,0.22,-2.08,-4.7,-4.33,302,274,392,466,307,19
759,-0.13,-0.96,0.23,1.89,-2.44,1.95,298,272,394,464,305,19
760,-0.11,-0.96,0.24,-2.56,-0.31,-4.76,297,273,392,465,309,19
761,-0.1,-0.98,0.21,-2.62,-4.52,-3.78,305,268,390,468,301,19
762,-0.11,-0.97,0.19,8.36,0.12,1.83,303,274,394,467,307,19
763,-0.12,-0.96,0.26,-2.32,-1.46,-3.17,302,270,390,466,311,19
764,-0.09,-0.98,0.25,-0.92,-1.89,-1.71,307,273,389,468,316,19
765,-0.1,-0.96,0.23,2.32,-8.42,-1.34,302,273,389,476,304,19
766,-0.09,-0.98,0.2,-10.01,-1.22,-7.69,303,268,390,467,306,19
767,-0.04,-0.98,0.15,-8.42,-1.22,-5.0,301,264,394,460,298,19
768,-0.06,-0.98,0.15,1.4,-2.08,-3.85,274,261,401,464,298,19
769,-0.08,-0.99,0.13,-1.34,-3.11,-1.16,262,265,388,462,296,19
770,-0.09,-0.98,0.12,0.61,-5.49,-2.32,257,256,394,462,297,19
771,-0.08,-0.99,0.12,1.46,-0.12,-0.98,251,255,391,460,292,19
772,-0.09,-0.99,0.12,2.14,-2.93,-1.46,239,247,387,463,292,19
773,-0.07,-1.0,0.11,6.9,-1.95,-5.0,249,243,388,459,290,19
774,-0.06,-0.98,0.13,-1.1,-0.98,-3.66,254,253,392,464,294,19
775,-0.05,-0.98,0.13,-5.55,-5.43,-3.54,253,251,394,462,294,19
776,-0.09,-0.98,0.14,1.34,-0.37,-1.22,249,251,390,460,297,19
777,-0.12,-0.98,0.1,6.1,-8.61,-1.59,251,258,389,461,294,19
778,-0.07,-0.99,0.1,2.44,1.04,-1.89,245,250,382,462,291,19
779,-0.06,-0.99,0.09,-3.85,-0.24,-3.85,247,253,379,460,298,19
780,-0.04,-1.0,0.07,-2.69,-3.6,-0.73,242,250,382,460,298,19
781,-0.04,-0.99,0.08,-2.2,0.31,-4.58,242,254,379,459,301,19
782,-0.05,-0.99,0.04,-5.0,0.73,-4.64,234,253,370,460,308,19
783,-0.03,-0.99,0.02,2.08,-4.46,-3.97,212,251,375,454,328,19
784,-0.04,-0.99,0.04,8.3,-5.74,0.31,183,250,391,453,305,19
785,-0.03,-1.01,0.03,0.49,-3.36,-0.31,188,249,397,451,308,19
786,-0.06,-1.0,0.01,0.06,-0.67,0.0,189,255,395,459,307,19
787,-0.05,-0.99,0.03,-2.01,-3.97,-4.58,198,248,398,456,305,19
788,-0.06,-1.0,0.05,-2.32,-1.89,-5.86,194,251,395,450,305,19
789,-0.04,-0.99,0.08,0.98,-2.32,-6.47,199,255,395,454,306,19
790,-0.07,-0.98,0.06,2.87,-3.6,-1.53,194,253,394,455,308,19
791,-0.04,-0.99,0.05,1.34,-2.99,-1.59,203,252,393,450,305,19
792,-0.02,-1.01,0.06,1.89,-2.26,-3.42,196,249,394,456,306,19
793,-0.06,-1.0,0.06,1.04,-2.01,-1.16,198,259,392,458,305,19
794,-0.05,-1.0,0.07,-0.12,-3.11,-0.37,199,252,394,460,307,19
795,-0.07,-0.99,0.06,0.0,-4.46,-0.49,199,256,394,451,310,19
796,-0.08,-0.99,0.06,0.24,-2.93,-2.01,201,244,397,460,305,19
797,-0.08,-0.99,0.06,1.22,-3.3,-3.6,198,257,394,452,304,19
798,-0.09,-0.99,0.06,0.61,-3.17,-2.87,203,249,392,457,308,19
799,-0.08,-0.99,0.07,1.1,-1.95,-2.01,203,251,384,463,308,19
800,-0.08,-0.99,0.06,1.77,-2.5,-1.89,203,243,390,458,308,19
801,-0.1,-0.99,0.08,0.79,-3.05,1.04,210,251,387,461,308,19
802,-0.1,-0.99,0.09,0.31,-3.3,-2.32,204,254,384,459,307,19
803,-0.12,-0.98,0.09,0.73,-2.44,-1.65,202,251,400,457,308,19
804,-0.11,-0.98,0.08,0.98,-3.11,-3.05,207,257,387,453,297,19
805,-0.11,-0.99,0.09,2.56,-2.14,-3.48,201,250,389,456,306,19
806,-0.11,-0.99,0.11,0.73,-3.66,-3.42,205,250,386,460,307,19
807,-0.1,-0.99,0.1,2.38,-3.85,-2.87,204,255,384,455,309,19
808,-0.09,-1.0,0.09,1.34,-2.75,-4.88,208,256,386,458,312,19
809,-0.1,-0.98,0.12,-0.06,-2.93,-4.09,205,250,384,458,309,19
810,-0.09,-0.99,0.11,0.37,-1.89,-2.69,210,256,385,455,313,19
811,-0.09,-0.98,0.11,0.12,-2.26,-2.75,209,251,386,453,311,19
812,-0.09,-0.98,0.11,0.61,-3.17,-3.6,210,252,382,460,311,19
813,-0.09,-0.98,0.11,0.43,-3.05,-3.66,208,244,382,455,313,19
814,-0.09,-0.98,0.11,3.97,-3.05,-1.83,200,257,381,457,310,19
815,-0.12,-0.99,0.13,0.61,-2.99,-1.59,208,255,388,458,308,19
816,-0.11,-0.99,0.11,1.89,-3.42,-1.46,208,254,382,462,307,19
817,-0.11,-0.98,0.11,-0.06,-2.32,-2.44,210,256,386,461,308,19
818,-0.11,-0.98,0.12,0.55,-2.26,-3.48,208,256,382,455,310,19
819,-0.11,-0.98,0.12,-0.18,-3.17,-2.56,206,256,382,460,308,19
820,-0.11,-0.98,0.12,0.55,-2.75,-2.14,209,254,382,458,310,19
821,-0.11,-0.98,0.12,0.43,-3.23,-2.38,211,249,380,452,310,19
822,-0.11,-0.98,0.12,1.1,-3.3,-3.3,208,250,386,459,308,19
823,-0.11,-0.99,0.12,0.06,-2.44,-3.3,208,255,382,458,309,19
824,-0.11,-0.99,0.12,0.79,-3.78,-2.5,205,254,383,461,308,19
825,-0.11,-0.98,0.12,1.22,-2.93,-2.26,211,255,382,456,309,19
826,-0.11,-0.98,0.12,0.18,-3.05,-2.81,210,256,385,456,308,19
827,-0.09,-0.98,0.12,0.24,-3.11,-2.32,211,256,385,458,311,19
828,-0.1,-0.98,0.12,1.28,-3.78,-2.75,213,257,382,457,308,19
829,-0.11,-0.98,0.13,0.49,-2.62,-3.66,207,259,386,457,315,19
830,-0.1,-0.98,0.12,-0.06,-2.26,-1.77,211,253,380,462,306,19
831,-0.1,-0.98,0.13,0.55,-2.87,-2.01,212,253,382,463,310,19
832,-0.11,-0.98,0.13,0.85,-2.69,-3.66,209,265,382,457,310,19
833,-0.11,-0.98,0.13,-1.89,-2.26,-2.75,213,254,385,463,306,19
834,-0.11,-0.98,0.14,-2.14,-1.22,-3.17,210,254,374,453,307,19
835,-0.11,-0.98,0.13,0.18,-2.87,-2.44,210,257,380,458,309,19
836,-0.11,-0.99,0.13,0.67,-2.01,-2.26,212,252,379,453,311,19
837,-0.1,-0.98,0.13,-0.06,-2.99,-2.38,214,254,381,458,312,19
838,-0.1,-0.99,0.13,-0.12,-3.3,-2.69,212,253,381,449,307,19
839,-0.11,-0.98,0.12,-0.67,-3.3,-3.05,219,255,380,460,313,19
840,-0.11,-0.98,0.13,0.49,-2.75,-2.99,214,255,382,459,311,19
841,-0.11,-0.98,0.13,0.43,-2.99,-2.87,214,255,380,462,311,19
842,-0.11,-0.98,0.12,1.1,-2.44,-2.81,222,258,380,457,312,19
843,-0.1,-0.98,0.13,0.73,-2.81,-2.56,214,260,374,457,310,19
844,-0.11,-0.96,0.12,0.43,-3.23,-1.95,215,256,379,452,311,19
845,-0.12,-0.98,0.12,0.85,-2.2,-1.95,242,256,378,458,309,19
846,-0.11,-0.99,0.13,0.12,-2.62,-2.38,213,256,379,459,315,19
847,-0.11,-0.98,0.13,0.55,-2.14,-2.62,223,255,380,459,313,19
848,-0.11,-0.98,0.13,0.55,-2.93,-2.81,214,259,378,459,311,19
849,-0.11,-0.98,0.14,-0.06,-3.3,-3.05,213,259,378,459,311,19
850,-0.11,-0.98,0.13,-0.24,-2.81,-2.62,213,257,378,465,311,19
851,-0.12,-0.99,0.13,-0.61,-1.46,-3.05,212,259,379,453,311,19
852,-0.11,-0.98,0.13,-0.49,-2.81,-3.72,212,255,380,464,312,19
853,-0.1,-0.98,0.13,-0.37,-2.99,-3.48,212,264,380,454,312,19
854,-0.1,-0.98,0.13,-0.55,-2.75,-0.43,207,260,381,460,314,19
855,-0.12,-0.98,0.14,1.28,-3.36,-0.85,213,258,381,462,306,19
856,-0.12,-0.98,0.12,0.92,-2.81,-3.72,218,264,382,461,309,19
857,-0.1,-0.98,0.13,0.49,-1.83,-5.25,217,256,371,458,311,19
858,-0.09,-0.98,0.13,-0.12,-3.3,-2.32,251,258,382,465,308,19
859,-0.09,-0.99,0.13,-1.4,-3.23,-2.32,215,255,388,463,311,19
860,-0.1,-0.98,0.13,-1.16,-3.91,-2.01,214,255,390,460,308,19
861,-0.1,-0.98,0.11,-1.1,-2.5,-4.03,213,261,390,457,312,19
862,-0.07,-1.0,0.07,-3.05,-2.93,-5.92,216,253,394,462,308,19
863,-0.07,-0.99,0.08,1.83,-3.3,-2.5,210,254,391,454,309,19
864,-0.07,-0.99,0.07,-0.49,-2.01,-0.12,216,257,390,460,309,19
865,-0.09,-0.99,0.08,1.16,-2.99,-1.71,216,253,394,458,312,19
866,-0.22,-0.97,0.11,-11.17,0.98,-16.85,219,253,391,460,312,19
867,0.03,-1.01,0.03,0.24,-4.39,-3.78,213,261,394,454,312,19
868,0.01,-1.01,0.04,2.87,-3.23,-3.72,217,254,390,456,314,19
869,0.02,-1.01,0.05,2.08,-3.54,-4.82,217,262,391,454,307,19
870,0.02,-1.0,0.06,0.92,-2.69,-3.85,216,260,382,464,310,19
871,0.03,-0.99,0.06,0.06,-2.32,-2.38,215,258,393,462,308,19
872,0.02,-0.99,0.06,1.65,-4.27,-3.85,216,258,390,453,309,19
873,0.04,-0.99,0.07,1.65,-3.6,-3.66,215,260,391,458,310,19
874,0.04,-1.0,0.07,1.46,-3.17,-3.91,217,256,390,454,313,19
875,0.07,-0.99,0.09,-0.92,-2.2,-8.42,216,256,391,459,313,19
876,0.09,-1.0,0.06,0.18,-1.71,-1.28,219,257,393,455,312,19
877,0.09,-0.99,0.08,1.65,-4.88,-6.47,213,252,387,458,309,19
878,0.11,-0.99,0.07,0.31,-2.87,-3.97,209,255,391,459,309,19
879,0.13,-0.99,0.08,1.1,-3.23,-2.5,219,258,390,456,307,19
880,0.11,-0.99,0.08,-0.06,-3.78,-2.01,218,258,387,458,309,19
881,0.1,-0.99,0.07,-0.37,-2.5,-1.16,220,258,385,457,310,19
882,0.12,-0.99,0.07,-0.61,-2.93,-3.23,217,257,382,462,309,19
883,0.06,-0.98,0.05,4.7,-3.66,7.39,217,258,389,459,310,19
884,0.03,-0.98,0.1,-1.89,-2.26,-4.15,218,253,387,464,312,19
885,0.04,-0.95,0.07,2.75,-2.62,-0.98,225,253,387,460,306,19
886,0.04,-0.99,0.09,1.71,-2.69,-2.38,217,256,391,458,307,19
887,0.04,-0.99,0.09,0.92,-2.5,-3.66,219,257,387,466,305,19
888,0.05,-1.0,0.12,1.1,-2.93,-3.3,219,256,386,458,313,19
889,0.06,-0.99,0.1,0.73,-2.56,-2.44,218,259,386,454,311,19
890,0.05,-1.0,0.1,0.55,-2.75,-2.62,221,258,392,460,313,19
891,0.04,-0.99,0.1,0.31,-2.5,-2.14,215,263,387,462,314,19
892,0.04,-0.99,0.1,0.67,-3.17,-1.89,227,255,390,460,312,19
893,0.05,-1.0,0.1,1.1,-3.11,-2.81,215,267,383,458,307,19
894,0.04,-0.99,0.1,-0.24,-2.81,-3.17,221,257,388,459,314,19
895,0.04,-1.0,0.1,-0.24,-2.08,-2.56,220,264,394,465,314,19
896,0.05,-0.99,0.1,0.18,-2.44,-2.56,213,263,389,461,313,19
897,0.05,-0.99,0.1,0.37,-2.99,-2.81,221,252,389,459,309,19
898,0.05,-0.99,0.1,0.12,-3.3,-2.01,222,260,385,459,309,19
899,0.05,-0.98,0.1,0.37,-3.36,-1.95,222,261,388,453,307,19
900,0.05,-0.99,0.1,0.37,-3.3,-2.26,216,261,388,457,314,19
901,0.04,-1.0,0.1,0.06,-2.81,-2.56,221,259,387,459,313,19
902,0.04,-0.99,0.1,0.67,-3.05,-3.11,222,257,389,463,315,19
903,0.04,-1.0,0.1,-0.31,-2.32,-2.93,221,257,390,455,311,19
904,0.05,-1.01,0.1,0.85,-2.08,-2.32,231,259,387,457,313,19
905,0.05,-0.99,0.1,0.67,-3.17,-2.38,217,258,389,454,307,19
906,0.05,-0.98,0.11,-0.61,-2.93,-2.44,219,260,381,463,311,19
907,0.05,-1.0,0.1,0.31,-3.54,-3.05,219,256,385,460,316,19
908,0.04,-1.0,0.1,0.73,-1.4,-3.11,218,259,387,458,313,19
909,0.04,-1.02,0.1,-0.12,-3.05,-3.3,214,257,388,457,315,19
910,0.04,-0.99,0.11,0.79,-2.44,-3.97,221,259,379,460,310,19
911,0.05,-1.0,0.11,0.61,-2.93,-3.3,223,257,388,461,312,19
912,0.05,-0.99,0.12,1.22,-3.05,-2.01,222,259,388,459,311,19
913,0.04,-0.99,0.12,1.04,-2.75,-4.03,222,262,391,464,313,19
914,0.04,-0.99,0.11,0.61,-3.23,-3.36,215,257,385,457,313,19
915,0.04,-0.99,0.11,0.43,-2.56,-2.26,223,253,388,456,312,19
916,0.05,-0.99,0.12,0.85,-3.23,-2.62,220,255,387,456,312,19
917,0.05,-0.99,0.12,0.12,-2.93,-3.23,220,260,382,460,308,19
918,0.04,-0.99,0.12,0.61,-3.17,-2.08,219,259,388,459,308,19
919,0.05,-0.99,0.12,-0.61,-1.77,-2.5,220,260,391,461,310,19
920,0.04,-0.99,0.12,0.73,-2.69,-2.2,223,251,389,458,313,19
921,0.04,-0.99,0.11,0.61,-3.11,-3.36,222,255,388,460,312,19
922,0.04,-1.0,0.12,0.98,-2.38,-2.99,218,252,389,470,312,19
923,0.05,-1.01,0.13,1.4,-2.99,-2.69,224,257,385,459,309,19
924,0.04,-1.0,0.12,1.1,-3.36,-3.17,222,260,387,462,308,19
925,0.05,-0.98,0.12,-0.49,-2.81,-3.05,213,262,387,465,311,19
926,0.05,-1.02,0.12,1.71,-0.06,1.95,219,261,383,465,312,19
927,0.05,-1.0,0.11,1.04,-2.38,-4.03,221,260,389,459,311,19
928,0.03,-0.98,0.11,2.01,-4.21,-1.77,222,260,386,463,312,19
929,0.02,-0.99,0.11,-0.06,-2.44,-2.56,224,255,389,459,313,19
930,0.02,-0.99,0.11,-0.79,-3.6,-1.34,225,255,387,456,315,19
931,0.02,-0.99,0.11,-0.12,-2.56,-1.83,221,261,378,461,315,19
932,0.03,-1.01,0.12,0.12,-3.17,-3.11,223,263,385,459,311,19
933,0.04,-0.98,0.11,0.85,-3.3,-3.85,225,262,388,460,316,19
934,0.03,-0.98,0.11,0.12,-2.75,-1.65,221,260,394,466,313,19
935,0.03,-0.99,0.1,0.31,-2.01,-2.5,219,256,388,462,308,19
936,0.03,-0.98,0.1,1.4,-2.99,-2.32,222,255,385,456,312,19
937,0.03,-0.97,0.1,-0.85,-3.85,-2.32,228,259,388,464,313,19
938,0.03,-1.0,0.11,0.49,-2.26,-3.54,221,259,384,463,312,19
939,0.03,-0.99,0.1,0.24,-2.38,-1.89,223,261,390,457,313,19
940,0.03,-0.98,0.12,-0.18,-3.78,-2.93,223,260,391,459,312,19
941,0.04,-0.99,0.11,-2.44,-1.65,-2.56,224,261,389,466,316,19
942,0.03,-0.99,0.1,0.55,-2.75,-2.87,231,264,384,465,316,19
943,0.04,-0.99,0.12,2.56,-3.48,-2.5,225,260,381,459,316,19
944,0.03,-0.99,0.12,1.22,-3.36,-2.62,227,260,385,462,313,19
945,0.03,-0.99,0.11,1.46,-2.75,-1.95,228,254,388,464,313,19
946,0.04,-1.0,0.1,2.08,-3.05,-1.65,230,253,383,461,311,19
947,0.03,-0.99,0.1,0.92,-3.42,-3.05,226,256,387,461,315,19
948,0.01,-0.99,0.11,0.98,-3.17,-2.93,228,261,387,459,313,19
949,0.01,-0.99,0.12,-1.4,-0.24,-4.21,229,258,388,457,317,19
950,0.03,-1.0,0.09,-0.67,-2.56,-2.44,226,257,391,472,315,19
951,0.04,-1.01,0.09,-1.34,-3.91,-4.03,229,258,390,462,311,19
952,0.03,-1.01,0.09,-0.37,-2.44,-3.11,230,254,393,461,314,19
953,0.04,-1.0,0.1,0.67,-1.83,-3.78,228,263,397,462,316,19
954,0.05,-0.98,0.09,0.37,-4.09,-5.07,231,263,394,463,310,19
955,0.05,-0.99,0.08,-0.43,-1.34,-4.09,230,260,391,456,316,19
956,0.06,-1.0,0.1,1.65,-2.62,-3.23,230,262,391,457,312,19
957,0.07,-1.0,0.1,0.06,-2.99,-2.5,232,259,396,456,316,19
958,0.07,-1.01,0.11,1.22,-2.5,-3.54,229,262,392,456,315,19
959,0.07,-1.02,0.12,1.89,-2.75,-3.91,232,261,407,460,311,19
960,0.07,-0.99,0.11,0.61,-3.66,-4.27,233,258,393,460,311,19
961,0.08,-0.98,0.11,0.31,-2.75,-1.95,229,257,389,462,312,19
962,0.08,-0.99,0.11,0.12,-2.44,-0.49,229,264,390,461,311,19
963,0.07,-0.99,0.09,-2.81,0.12,3.6,230,263,393,462,315,19
964,0.0,-1.0,0.07,0.85,-3.66,-0.37,232,260,393,459,316,19
965,0.01,-0.99,0.1,2.75,-7.63,-2.75,232,259,394,462,310,19
966,0.05,-1.0,0.06,-1.83,-0.92,0.31,233,258,388,462,314,19
967,-0.01,-0.97,0.15,0.43,-3.66,-3.85,229,260,391,458,312,19
968,-0.0,-0.99,0.09,1.71,-4.58,-2.26,232,260,394,462,309,19
969,0.0,-1.01,0.1,-0.43,-1.89,-2.99,234,258,386,462,318,19
970,0.0,-0.99,0.12,2.26,-3.36,-2.69,233,256,393,460,308,19
971,-0.0,-0.99,0.11,1.77,-2.69,-2.38,235,261,391,461,315,19
972,-0.01,-1.0,0.11,1.46,-3.54,-2.08,230,260,384,461,313,19
973,-0.01,-1.0,0.11,1.04,-2.38,-2.08,234,259,389,460,312,19
974,-0.02,-0.99,0.11,0.06,-2.75,-2.81,232,258,390,463,309,19
975,-0.0,-0.98,0.1,-0.37,-3.48,-2.62,232,255,391,464,312,19
976,-0.01,-0.98,0.12,0.92,-3.36,-3.23,229,251,389,461,315,19
977,-0.0,-0.99,0.12,0.73,-3.42,-2.81,232,258,389,458,309,19
978,0.0,-0.99,0.11,0.06,-2.44,-2.56,234,260,395,467,313,19
979,-0.0,-0.99,0.1,1.71,-2.38,-2.38,237,257,394,460,316,19
980,-0.01,-0.99,0.11,0.92,-3.66,-3.23,233,262,381,458,313,19
981,-0.0,-1.0,0.12,0.61,-2.62,-3.54,233,258,389,456,315,19
982,-0.0,-0.99,0.13,0.79,-3.36,-3.05,237,262,391,464,316,19
983,-0.0,-0.98,0.11,0.49,-3.11,-2.26,235,259,391,461,311,19
984,0.01,-1.0,0.12,0.55,-2.56,-2.62,233,264,390,462,315,19
985,0.01,-0.99,0.12,0.37,-3.11,-2.38,233,260,388,461,315,19
986,-0.0,-0.99,0.12,-0.61,-2.26,-2.69,234,254,389,460,316,19
987,-0.0,-0.99,0.11,0.55,-2.56,-2.08,230,260,384,467,315,19
988,-0.01,-0.99,0.12,0.31,-1.46,-2.75,229,262,387,460,315,19
989,-0.0,-0.99,0.12,0.92,-2.75,-3.11,234,264,390,460,314,19
990,-0.01,-0.98,0.12,0.73,-3.05,-3.11,236,262,388,462,316,19
991,0.01,-1.0,0.14,1.16,-2.81,-2.38,240,263,387,462,316,19
992,0.01,-1.01,0.13,0.92,-2.87,-3.23,239,258,385,464,314,19
993,-0.0,-0.99,0.13,1.4,-3.66,-2.62,237,254,404,455,310,19
994,-0.0,-0.99,0.13,1.53,-1.83,-2.44,238,257,386,460,314,19
995,0.0,-1.0,0.14,1.04,-2.69,-2.93,238,258,386,457,316,19
996,0.0,-0.99,0.13,-2.75,-3.05,-3.36,238,259,386,464,316,19
997,0.04,-1.02,0.1,-1.46,-2.75,-5.86,236,261,390,465,315,19
998,0.0,-1.0,0.12,3.17,-4.46,-2.32,238,262,385,464,315,19
999,0.0,-0.99,0.1,-1.4,-2.44,-2.81,237,260,386,458,313,19
1000,-0.01,-0.99,0.12,-0.49,-1.77,-2.38,247,262,386,466,318,19
1001,0.0,-1.0,0.11,-0.37,-2.44,-2.56,239,256,388,471,313,19
1002,0.12,-0.99,-0.04,1.65,-2.81,-2.01,211,262,446,456,353,19
1003,0.12,-0.99,-0.03,1.4,-2.81,-2.69,206,265,446,452,353,19
1004,0.13,-0.99,-0.03,0.85,-3.3,-3.54,205,267,444,457,348,19
1005,0.12,-0.99,-0.03,0.73,-2.93,-2.93,205,267,444,456,348,19
1006,0.11,-0.99,-0.04,0.24,-2.87,-2.26,213,269,442,456,352,19
1007,0.12,-0.99,-0.05,-1.22,-2.01,-3.11,208,264,444,455,353,19
1008,0.12,-0.99,-0.05,1.59,-3.05,-2.56,208,275,440,458,351,19
1009,0.12,-0.99,-0.04,0.37,-1.71,-1.77,209,267,444,455,350,19
1010,0.12,-0.99,-0.04,1.04,-2.81,-1.83,211,266,442,452,350,19
1011,0.13,-0.99,-0.04,0.49,-2.69,-2.75,211,268,442,460,350,19
1012,0.12,-0.98,-0.02,-0.31,-1.28,-0.18,208,263,442,460,348,19
1013,0.11,-1.0,-0.07,-1.65,1.46,1.28,212,271,441,451,351,19
1014,0.1,-0.99,-0.05,1.71,-4.94,-4.76,211,268,443,462,349,19
1015,0.11,-0.99,-0.04,-0.61,-3.48,-4.09,209,269,442,452,353,19
1016,0.11,-0.99,-0.04,1.4,-2.56,-3.11,208,263,438,461,352,19
1017,0.11,-0.99,-0.04,0.18,-3.48,-2.08,207,271,439,456,353,19
1018,0.1,-0.99,-0.04,1.22,-2.93,-2.01,208,272,436,457,353,19
1019,0.1,-0.99,-0.05,0.18,-2.5,-3.05,211,271,433,457,351,19
1020,0.11,-0.99,-0.05,-0.37,-1.77,-4.27,207,272,439,456,353,19
1021,0.12,-0.99,-0.05,1.16,-2.32,-2.08,208,269,439,451,353,19
1022,0.12,-0.99,-0.03,-0.06,-2.14,-0.55,210,268,427,449,348,19
1023,0.1,-0.99,-0.05,0.12,-3.17,-0.92,208,265,433,462,350,19
1024,0.08,-1.0,-0.07,-3.78,-0.79,-0.92,210,271,430,460,351,19
1025,0.08,-1.0,-0.07,-0.55,-3.17,-2.62,206,270,431,462,350,19
1026,0.06,-0.99,-0.04,-0.18,-3.85,-2.62,208,272,434,461,350,19
1027,0.06,-0.99,-0.02,-3.66,-3.85,0.12,209,269,436,457,355,19
1028,0.12,-0.97,0.0,5.07,-9.34,-1.1,207,266,433,461,355,19
1029,0.04,-0.99,-0.04,-0.98,-1.71,-1.59,218,268,435,458,356,19
1030,0.02,-0.98,-0.0,-2.38,-6.29,-3.17,213,270,435,456,358,19
1031,0.05,-0.98,-0.01,2.99,-2.5,-0.85,204,273,436,460,356,19
1032,0.03,-1.01,-0.04,-1.16,1.89,-2.44,209,268,435,458,351,19
1033,0.04,-1.01,-0.06,-0.49,-4.27,-4.33,211,261,428,455,359,19
1034,0.05,-1.0,-0.01,5.0,-6.9,-3.66,210,265,429,462,355,19
1035,0.05,-0.98,-0.0,-3.91,-9.64,-7.57,209,264,425,457,358,19
1036,0.05,-0.98,0.01,1.71,0.98,3.17,210,276,431,456,353,19
1037,0.01,-0.99,-0.0,-6.9,-4.27,-0.31,213,276,437,457,354,19
1038,0.07,-0.98,0.02,-0.43,-1.95,-3.42,204,267,430,458,356,19
1039,0.08,-1.0,-0.04,0.67,-2.62,-5.19,211,269,430,460,353,19
1040,0.06,-1.01,-0.04,-0.61,1.95,1.04,210,265,428,458,356,19
1041,0.05,-0.99,0.01,-0.18,-4.39,-5.55,211,270,427,455,357,19
1042,0.07,-1.0,-0.01,0.43,-2.99,-3.17,208,274,432,462,353,19
1043,0.06,-1.0,-0.03,0.67,-2.99,-4.03,211,270,430,458,356,19
1044,0.06,-1.0,-0.01,1.89,-2.93,-0.06,212,270,430,462,356,19
1045,0.05,-1.0,0.0,2.87,-2.26,-1.4,209,270,429,456,357,19
1046,0.12,-1.02,-0.08,-1.83,-12.21,-1.16,210,272,426,461,356,19
1047,0.05,-0.99,-0.01,2.08,-3.48,-1.71,207,267,427,453,356,19
1048,0.05,-0.99,0.02,-1.28,-2.93,-1.89,210,267,430,458,355,19
1049,0.07,-1.01,-0.02,3.48,-2.62,-0.31,209,269,425,453,353,19
1050,0.06,-1.0,0.0,-1.77,-4.88,-6.96,218,273,427,464,356,19
1051,0.07,-0.99,-0.03,-1.28,-4.09,-6.1,209,269,429,458,351,19
1052,0.06,-1.0,-0.02,1.28,-2.38,-2.2,214,263,430,457,356,19
1053,0.09,-1.0,-0.03,4.52,2.81,3.36,205,271,426,460,353,19
1054,0.07,-0.98,0.02,-1.1,-5.31,-1.77,211,262,428,463,358,19
1055,0.08,-0.99,-0.01,-1.22,-0.12,-0.49,208,271,426,462,353,19
1056,0.06,-0.99,-0.04,-1.04,-5.13,0.06,213,269,426,461,356,19
1057,0.03,-0.99,-0.02,1.34,-3.17,-2.93,212,269,426,453,350,19
1058,0.01,-0.99,-0.0,-0.49,-0.43,-2.44,211,267,424,458,356,19
1059,0.04,-1.0,-0.02,-0.31,-3.11,-5.31,213,268,424,458,354,19
1060,0.06,-1.0,-0.02,0.06,-4.82,-3.23,214,270,423,462,354,19
1061,0.06,-0.83,-0.06,-0.18,1.53,-2.75,213,260,425,454,358,19
1062,0.14,-0.98,-0.02,-1.77,-1.83,-7.81,211,270,425,456,358,19
1063,0.12,-0.99,-0.06,0.24,-2.14,-2.2,212,268,425,459,354,19
1064,0.13,-0.98,-0.07,-3.48,-0.73,-1.83,212,269,425,461,355,19
1065,0.08,-0.97,-0.06,2.32,1.1,0.31,210,270,427,460,350,19
1066,0.06,-1.0,0.02,7.02,-8.42,-2.56,206,269,427,463,351,19
1067,0.08,-0.96,-0.01,0.61,4.88,-3.54,212,284,422,456,355,19
1068,0.08,-0.98,-0.08,1.16,-6.41,-4.46,208,271,425,456,354,19
1069,0.13,-0.99,-0.03,-0.18,-3.91,-7.87,212,267,418,460,354,19
1070,0.08,-1.0,-0.02,-0.18,-2.93,-2.75,212,273,426,458,355,19
1071,0.1,-1.0,-0.0,1.16,-2.08,0.61,214,265,424,461,356,19
1072,0.07,-0.98,-0.02,1.28,-2.99,-0.43,215,268,423,459,352,19
1073,0.09,-0.99,0.01,-0.37,-5.86,-6.04,216,271,423,457,353,19
1074,0.07,-0.99,0.01,-0.73,-0.61,-2.69,216,275,421,459,354,19
1075,0.14,-1.0,-0.03,0.24,-4.94,-2.44,217,268,420,459,356,19
1076,0.1,-0.99,-0.01,0.18,-0.49,2.38,214,270,430,463,353,19
1077,0.12,-0.98,0.01,1.89,-0.79,-1.46,208,264,422,465,357,19
1078,0.06,-0.98,-0.03,-1.83,-2.26,-2.08,206,267,422,459,357,19
1079,0.09,-0.99,-0.01,-0.24,-4.33,-3.23,215,273,424,455,356,19
1080,0.04,-0.97,-0.0,4.88,-3.66,2.5,207,273,424,456,357,19
1081,0.13,-1.04,-0.13,-10.56,-3.3,-9.58,215,265,423,464,354,19
1082,0.16,-0.98,0.02,-1.34,-6.41,-2.26,213,269,423,458,356,19
1083,0.15,-0.99,-0.01,-1.1,-4.46,6.41,213,272,423,463,357,19
1084,0.06,-1.0,-0.01,0.92,-7.51,8.54,215,271,421,459,355,19
1085,-0.02,-1.0,0.01,5.86,-4.33,-0.49,213,275,424,456,364,19
1086,0.04,-1.0,0.03,-5.8,-4.7,-7.14,213,269,424,455,351,19
1087,0.06,-1.0,-0.01,-7.87,4.94,-17.15,209,272,422,458,355,19
1088,0.13,-0.96,-0.07,-12.51,-1.1,-18.19,214,273,420,449,357,19
1089,0.08,-0.99,-0.02,-2.44,-1.4,-5.86,211,270,420,458,353,19
1090,0.17,-0.99,-0.06,-0.18,-4.58,-3.48,213,272,425,458,358,19
1091,0.12,-0.98,-0.03,-2.14,-6.9,-5.62,212,270,423,462,357,19
1092,0.16,-1.0,-0.08,1.71,-0.12,-1.28,212,273,422,454,356,19
1093,0.13,-1.02,-0.05,1.65,-1.83,-3.17,214,272,419,457,353,19
1094,0.07,-1.0,-0.01,3.72,-4.7,-3.3,214,267,422,460,354,19
1095,0.13,-1.0,-0.04,2.01,0.06,-0.85,214,270,418,454,351,19
1096,0.11,-1.0,-0.01,0.24,-3.11,-1.71,217,272,422,458,357,19
1097,0.13,-0.99,-0.04,-2.32,-1.83,-4.39,214,272,420,459,357,19
1098,0.11,-0.98,-0.03,-5.86,-10.68,-4.52,217,269,422,455,356,19
1099,0.1,-0.95,-0.01,6.16,-0.12,-3.23,222,270,417,463,357,19
1100,0.12,-0.98,-0.07,5.98,-0.55,-0.06,216,273,418,456,356,19
1101,0.14,-0.97,-0.05,2.44,-0.43,-2.14,213,272,420,463,359,19
1102,0.16,-0.98,-0.07,1.83,-2.56,-1.77,246,272,422,460,356,19
1103,0.13,-0.99,-0.07,0.43,-3.3,-3.11,211,270,417,457,356,19
1104,0.14,-0.98,-0.06,0.12,-3.05,-2.32,213,271,420,462,358,19
1105,0.14,-0.99,-0.07,-0.37,-2.75,-2.26,214,268,417,464,359,19
1106,0.12,-0.99,-0.06,-2.93,0.31,-5.07,215,269,419,458,356,19
1107,0.12,-0.98,-0.01,-2.2,0.43,-1.16,215,270,423,467,356,19
1108,0.1,-0.98,-0.03,-0.61,-1.34,-0.67,216,271,417,457,355,19
1109,0.16,-0.99,-0.04,-0.85,-3.3,-4.27,215,276,416,460,353,19
1110,0.15,-0.97,-0.07,-0.85,-2.5,-2.69,208,268,417,460,351,19
1111,0.17,-0.98,-0.07,2.5,-3.6,-3.72,214,274,417,461,355,19
1112,0.15,-0.98,-0.05,2.5,-5.0,-1.04,217,280,419,462,355,19
1113,0.15,-0.98,-0.06,1.59,-2.99,-1.04,217,271,413,463,352,19
1114,0.15,-0.98,-0.04,1.77,-3.11,-2.08,214,267,419,460,351,19
1115,0.14,-0.98,-0.05,0.67,-2.99,-2.87,215,270,417,454,353,19
1116,0.14,-0.98,-0.05,0.73,-2.56,-2.62,212,273,417,455,352,19
1117,0.14,-0.99,-0.06,-0.18,-2.5,-2.81,210,274,415,456,355,19
1118,0.14,-0.99,-0.06,-3.17,-4.64,-6.84,214,268,418,463,355,19
1119,0.12,-1.0,-0.04,2.01,-3.78,-6.1,214,276,420,475,353,19
1120,0.14,-0.98,-0.02,-0.31,-3.66,-2.26,217,272,417,461,358,19
1121,0.15,-0.99,-0.05,1.1,-3.42,-0.61,220,274,417,465,350,19
1122,0.11,-0.99,-0.0,4.82,-2.81,-2.75,212,275,418,460,358,19
1123,0.14,-0.99,-0.03,1.34,-2.08,-3.05,210,272,413,463,357,19
1124,0.16,-0.98,-0.04,2.87,-3.3,-1.46,215,277,416,465,358,19
1125,0.13,-0.99,-0.04,-0.79,-1.89,-1.89,219,271,412,458,351,19
1126,0.1,-0.99,0.0,3.66,-4.82,-0.49,216,274,415,463,356,19
1127,0.28,-0.97,-0.04,-3.97,7.45,-4.03,217,272,417,458,355,19
1128,0.17,-0.97,-0.04,-12.27,-9.22,-6.65,215,270,414,462,352,19
1129,0.2,-1.03,-0.11,-4.88,-3.72,-5.07,214,271,416,461,353,19
1130,0.14,-0.99,-0.03,-7.26,4.21,-5.98,215,270,417,464,354,19
1131,0.17,-1.01,-0.07,-6.29,-4.58,-5.74,216,273,417,463,356,19
1132,0.17,-0.98,-0.04,2.01,-2.75,-3.48,215,275,410,461,356,19
1133,0.17,-0.99,-0.03,1.83,-2.56,-4.15,214,272,411,463,352,19
1134,0.15,-0.99,-0.03,-0.43,-3.17,-1.77,216,273,416,457,355,19
1135,0.15,-0.98,-0.04,-3.78,1.53,-0.85,215,280,427,465,353,19
1136,0.16,-0.98,-0.03,-0.55,-1.46,-5.19,217,275,412,459,354,19
1137,0.07,-0.99,0.0,-8.0,-0.24,-5.92,218,276,413,461,351,19
1138,0.15,-0.98,-0.03,-6.23,-9.22,-4.46,221,270,414,460,354,19
1139,0.16,-1.0,-0.05,0.79,-3.05,-2.38,210,271,412,463,354,19
1140,0.18,-0.97,-0.02,1.4,-4.52,-2.56,223,272,410,461,351,19
1141,0.14,-0.99,-0.02,2.38,-3.6,-2.87,215,277,410,462,357,19
1142,0.15,-1.01,-0.05,-3.3,-11.78,-2.08,216,272,412,456,351,19
1143,0.14,-1.03,-0.07,4.52,-14.47,2.32,221,273,412,471,356,19
1144,0.3,-1.0,-0.08,-4.7,5.62,-15.32,215,271,416,465,355,19
1145,0.13,-0.95,-0.04,-3.66,-8.42,-8.42,215,273,411,461,357,19
1146,0.14,-0.99,-0.06,6.04,2.32,2.75,212,273,413,460,355,19
1147,0.14,-0.98,-0.04,-2.38,-1.46,-3.11,217,274,415,460,352,19
1148,0.23,-1.04,-0.1,-3.36,-3.23,-8.36,217,274,414,465,357,19
1149,0.1,-0.97,-0.05,3.42,-2.75,4.33,221,272,415,459,357,19
1150,0.13,-0.99,-0.11,-3.78,-3.3,-3.85,220,274,410,464,355,19
1151,0.12,-0.97,-0.05,-9.03,-5.19,0.85,212,272,418,462,353,19
1152,0.14,-0.98,-0.06,0.92,-3.36,-3.91,217,274,409,462,354,19
1153,0.12,-0.99,-0.09,4.15,-1.46,-1.4,216,278,413,461,357,19
1154,0.12,-1.0,-0.07,0.98,-4.27,-1.1,219,273,415,457,354,19
1155,0.15,-0.98,-0.04,9.28,-4.09,-4.64,217,274,413,457,354,19
1156,0.14,-0.97,-0.02,-2.01,-4.94,-3.85,217,273,414,459,355,19
1157,0.11,-0.99,-0.07,-3.78,0.06,-3.11,216,273,414,456,354,19
1158,0.14,-0.98,-0.04,0.49,-0.49,-3.05,216,274,408,454,353,19
1159,0.15,-0.97,-0.01,0.85,-0.18,-1.71,215,276,413,462,356,19
1160,0.15,-0.98,-0.02,-0.18,-1.1,-3.17,216,271,413,459,355,19
1161,0.17,-0.97,-0.03,1.22,-2.44,-2.38,219,274,421,456,353,19
1162,0.16,-0.98,-0.06,5.62,-1.59,-0.18,212,272,410,461,355,19
1163,0.07,-1.0,-0.05,-0.92,-2.08,5.92,216,273,414,455,351,19
1164,0.14,-1.01,-0.08,0.92,-2.69,-8.42,218,274,411,462,357,19
1165,0.1,-0.95,0.01,-3.72,-2.56,-3.3,214,274,417,459,353,19
1166,0.08,-0.98,-0.0,1.65,-1.89,-1.89,221,270,413,457,356,19
1167,0.14,-0.98,-0.03,4.7,-2.32,-2.5,219,272,415,460,355,19
1168,0.11,-0.97,-0.06,10.93,2.2,3.6,213,274,415,459,354,19
1169,0.2,-0.99,-0.05,-5.13,-4.15,-5.43,216,274,413,455,354,19
1170,0.14,-0.98,-0.06,2.26,-1.83,-2.26,217,276,413,456,354,19
1171,0.14,-0.97,-0.03,4.76,-3.72,-1.53,220,270,412,458,355,19
1172,0.2,-0.98,-0.07,1.1,-1.1,-1.28,218,277,412,457,353,19
1173,0.16,-0.99,-0.07,-1.16,-1.1,-0.67,218,272,410,461,350,19
1174,0.15,-0.99,-0.06,0.73,-2.81,-1.46,217,266,411,455,352,19
1175,0.16,-1.0,-0.06,0.67,-2.87,-0.98,223,269,412,465,352,19
1176,0.13,-0.99,-0.06,-0.92,-3.48,-0.55,217,275,410,460,354,19
1177,0.09,-0.99,-0.05,0.79,-3.05,-2.99,221,268,407,459,354,19
1178,0.12,-0.99,-0.04,-3.11,-1.71,-6.47,214,277,411,462,348,19
1179,0.15,-1.0,-0.08,-0.49,-0.12,-4.46,216,271,411,463,354,19
1180,0.15,-0.99,-0.08,2.93,-5.31,0.98,216,273,418,460,350,19
1181,0.14,-0.98,-0.07,3.23,-4.88,-0.79,217,279,412,459,352,19
1182,0.11,-0.98,-0.05,4.27,-4.27,-2.99,221,273,408,459,351,19
1183,0.11,-0.98,-0.04,-0.37,-4.52,-3.42,220,270,411,458,346,19
1184,0.15,-0.99,-0.05,-1.95,-3.72,-7.2,221,273,409,461,353,19
1185,0.18,-0.98,-0.08,0.06,-2.32,-4.64,218,271,408,457,352,19
1186,0.17,-0.98,-0.06,4.15,-4.33,3.23,219,273,410,457,355,19
1187,0.11,-0.99,-0.04,2.26,-5.86,-0.43,217,266,409,459,355,19
1188,0.11,-0.98,-0.03,-0.85,-2.5,-3.17,218,273,412,464,355,19
1189,0.18,-0.98,-0.05,-1.65,0.49,-5.62,223,272,411,459,353,19
1190,0.18,-0.98,-0.06,0.12,-2.62,-3.05,210,278,406,454,353,19
1191,0.15,-0.98,-0.04,1.89,-1.34,2.38,214,274,408,459,350,19
1192,0.13,-0.99,-0.05,2.26,-2.75,1.95,221,270,411,461,351,19
1193,0.1,-0.98,-0.02,0.06,-2.93,-1.59,218,274,411,461,356,19
1194,0.11,-0.99,-0.03,-2.75,-2.01,-7.2,219,264,412,459,354,19
1195,0.16,-0.97,-0.03,-8.91,-1.34,-2.69,217,270,411,459,354,19
1196,0.2,-1.05,-0.1,-15.14,0.18,6.23,220,274,409,457,353,19
1197,-0.03,-0.98,-0.28,-27.22,-62.87,6.16,218,276,408,460,354,19
1198,0.08,-1.0,-0.1,-2.14,-5.74,-5.13,221,276,412,455,357,19
1199,0.16,-1.0,-0.17,-1.71,0.49,-3.17,213,273,408,466,355,19
1200,0.16,-1.06,-0.24,0.18,-5.62,-12.02,220,278,411,462,357,19
1201,0.12,-0.97,-0.11,1.83,0.37,-2.44,217,274,409,461,349,19
1202,0.16,-0.97,0.04,4.52,3.11,13.92,220,276,409,460,356,19
1203,0.12,-1.0,-0.11,-0.55,13.49,6.53,215,275,407,457,357,19
1204,0.21,-0.98,-0.1,1.1,-4.58,-0.79,216,277,408,458,355,19
1205,0.27,-0.95,-0.17,-18.25,-27.16,3.48,218,276,409,459,353,19
1206,0.08,-0.96,-0.27,-6.1,-13.67,0.31,217,269,408,460,353,19
1207,0.11,-0.95,-0.32,-2.38,0.92,-6.77,226,273,409,463,356,19
1208,0.09,-0.98,-0.25,1.83,-2.87,-2.99,221,277,409,461,358,19
1209,0.1,-0.97,-0.13,0.61,-10.01,-10.68,220,273,408,460,357,19
1210,0.16,-0.96,-0.2,2.44,-7.45,-2.56,220,275,408,463,352,19
1211,0.12,-0.97,-0.19,-1.65,-2.32,-2.08,219,274,413,464,356,19
1212,0.15,-0.99,-0.2,-3.36,-4.39,-2.69,218,278,412,460,355,19
1213,0.16,-0.97,-0.19,3.78,-3.48,-3.11,240,279,403,468,353,19
1214,0.16,-0.97,-0.14,0.85,-3.42,-4.94,217,276,408,463,348,19
1215,0.16,-0.97,-0.16,2.93,-2.62,-3.85,222,280,411,460,359,19
1216,0.16,-0.96,-0.15,3.97,-3.23,0.37,215,274,410,465,358,19
1217,0.11,-0.98,-0.17,1.16,-8.18,-0.18,219,276,409,463,356,19
1218,0.11,-0.97,-0.12,-2.32,-1.95,-1.46,219,273,407,461,357,19
1219,0.09,-0.98,-0.1,-0.73,-1.65,-0.18,216,273,408,462,355,19
1220,0.09,-0.97,-0.14,7.45,-2.44,-3.66,221,275,407,455,355,19
1221,0.09,-0.95,-0.16,4.46,3.66,-0.18,223,275,407,464,354,19
1222,0.2,-0.95,-0.12,2.44,-7.63,-9.03,222,281,403,454,353,19
1223,0.15,-0.95,-0.14,1.59,-2.32,0.92,225,276,407,460,356,19
1224,0.17,-0.95,-0.14,2.62,-3.17,1.16,221,275,408,459,355,19
1225,0.19,-0.97,-0.17,-0.67,-3.66,0.98,221,275,409,464,358,19
1226,0.17,-0.98,-0.17,0.06,-2.81,-4.52,219,276,403,460,359,19
1227,0.13,-0.97,-0.13,-0.31,-5.68,-4.09,220,273,405,459,354,19
1228,0.15,-0.98,-0.16,3.36,-2.14,-3.72,219,275,403,457,356,19
1229,0.17,-0.97,-0.13,3.72,-1.77,-2.87,219,276,405,460,354,19
1230,0.15,-0.96,-0.13,-3.42,-2.01,-3.85,221,276,420,460,358,19
1231,0.15,-0.97,-0.16,-0.67,-1.95,-3.17,218,272,408,461,355,19
1232,0.16,-0.95,-0.15,5.55,-8.18,6.47,220,273,407,464,353,19
1233,0.16,-0.95,-0.09,5.55,1.59,-3.78,216,275,407,461,355,19
1234,0.23,-0.96,-0.16,5.31,-3.54,-9.22,221,273,408,463,358,19
1235,0.19,-0.97,-0.18,1.95,0.0,-4.64,220,274,405,473,357,19
1236,0.19,-1.0,-0.18,3.3,-1.59,11.84,219,279,406,458,358,19
1237,0.03,-0.93,-0.1,8.85,0.06,1.34,220,272,403,460,358,19
1238,0.23,-0.96,-0.15,-4.21,-2.81,-5.86,221,273,409,466,353,19
1239,0.19,-0.96,-0.17,1.89,-3.48,-4.03,217,279,405,461,358,19
1240,0.19,-0.96,-0.16,-1.59,-6.59,-5.0,221,272,406,463,355,19
1241,0.19,-0.97,-0.15,2.62,-1.89,-2.62,220,273,406,466,355,19
1242,0.25,-0.95,-0.15,0.85,-6.59,-6.23,219,278,406,470,350,19
1243,0.23,-0.95,-0.14,1.22,-2.99,-0.18,215,277,408,463,360,19
1244,0.22,-0.96,-0.14,0.31,-3.23,-1.46,221,270,406,460,356,19
1245,0.22,-0.97,-0.14,1.16,-1.95,-0.79,217,269,405,460,356,19
1246,0.22,-0.96,-0.13,0.79,-2.01,-1.4,221,276,409,455,356,19
1247,0.22,-0.97,-0.13,3.97,-3.11,-2.14,230,272,405,464,355,19
1248,0.21,-0.95,-0.12,-1.34,-2.69,-1.46,221,278,405,464,357,19
1249,0.21,-0.96,-0.17,2.62,-2.32,-2.81,223,276,418,462,357,19
1250,0.22,-0.97,-0.15,0.43,-3.42,-1.83,218,274,405,460,358,19
1251,0.19,-0.95,-0.12,-0.31,-2.26,-1.16,215,277,406,457,355,19
1252,0.23,-0.97,-0.14,2.2,-2.38,-0.49,221,269,406,456,358,19
1253,0.2,-0.97,-0.16,-0.06,-1.65,-2.69,220,276,405,459,354,19
1254,0.18,-0.96,-0.14,4.64,-2.32,-0.12,221,278,408,459,357,19
1255,0.21,-0.98,-0.16,1.34,-4.88,-2.81,216,276,408,458,354,19
1256,0.25,-0.97,-0.17,-0.49,-9.34,-2.32,221,276,404,462,357,19
1257,0.17,-0.96,-0.12,6.16,-1.16,-1.95,222,276,405,462,357,19
1258,0.2,-0.99,-0.17,-2.26,-0.85,-3.54,221,274,407,464,357,19
1259,0.13,-0.98,-0.16,2.69,-1.28,-1.89,220,274,404,459,355,19
1260,0.23,-1.0,-0.15,-9.7,-5.98,-8.48,223,275,408,460,357,19
1261,0.16,-0.98,-0.14,-5.25,-3.48,-7.2,219,275,401,462,354,19
1262,0.12,-0.97,-0.1,1.46,-0.73,-0.85,223,276,404,455,359,19
1263,0.17,-0.98,-0.14,3.54,-0.55,-2.5,222,276,403,461,367,19
1264,0.16,-0.98,-0.15,-1.89,-4.39,-4.94,221,275,405,459,357,19
1265,0.13,-0.98,-0.12,2.26,-2.01,-3.78,218,277,403,461,355,19
1266,0.12,-0.97,-0.11,-2.08,-0.49,-2.5,223,275,406,463,354,19
1267,0.15,-0.99,-0.13,-0.12,-1.89,-3.36,221,272,405,463,356,19
1268,0.15,-0.99,-0.14,0.85,-4.27,-2.38,219,273,415,461,355,19
1269,0.13,-0.97,-0.12,-1.22,-5.37,-5.13,219,277,401,464,359,19
1270,0.11,-0.97,-0.1,-0.31,-2.99,-3.42,222,268,405,460,356,19
1271,0.13,-0.98,-0.13,-1.83,-2.93,-3.11,222,279,405,462,359,19
1272,0.16,-0.98,-0.12,-0.73,-3.36,-3.85,221,275,405,457,358,19
1273,0.15,-0.98,-0.11,2.5,-3.05,-2.87,220,276,405,456,352,19
1274,0.17,-0.97,-0.11,5.07,-3.78,-2.14,220,279,405,458,355,19
1275,0.16,-0.97,-0.08,4.33,-1.04,-0.73,220,274,405,464,358,19
1276,0.15,-0.98,-0.1,-0.61,-2.81,-2.2,218,272,402,464,356,19
1277,0.14,-0.97,-0.09,1.4,-1.46,-2.26,220,275,402,464,354,19
1278,0.14,-0.98,-0.1,-1.34,-2.93,-2.14,221,272,400,459,357,19
1279,0.15,-0.98,-0.09,1.59,-2.87,-1.34,217,273,403,457,356,19
1280,0.13,-0.99,-0.1,2.44,-3.91,-1.34,228,272,401,461,359,19
1281,0.16,-0.98,-0.08,-1.71,-6.65,-3.78,222,273,406,453,359,19
1282,0.14,-0.98,-0.09,6.29,2.99,2.69,222,275,404,454,356,19
1283,0.15,-1.0,-0.09,0.73,-1.59,-0.31,217,275,401,459,357,19
1284,0.11,-0.97,-0.06,3.72,-3.85,-2.2,221,270,399,460,357,19
1285,0.12,-0.99,-0.1,0.24,-2.5,-3.66,220,278,402,462,355,19
1286,0.13,-1.0,-0.09,2.32,-2.99,-3.6,219,266,402,456,357,19
1287,0.15,-1.01,-0.09,1.04,-2.5,-3.66,221,273,404,458,354,19
1288,0.15,-1.0,-0.1,1.83,-3.48,-3.3,223,274,404,457,357,19
1289,0.14,-0.98,-0.1,0.24,-2.69,-3.23,219,278,402,456,352,19
1290,0.15,-0.98,-0.09,0.0,-2.99,-2.75,219,274,402,458,357,19
1291,0.13,-0.98,-0.09,0.06,-2.87,-2.75,219,275,396,454,358,19
1292,0.13,-0.98,-0.09,0.98,-3.3,-2.93,223,276,402,458,360,19
1293,0.13,-0.98,-0.08,-0.06,-2.69,-3.85,233,278,401,453,354,19
1294,0.13,-0.99,-0.08,0.37,-2.87,-4.46,228,277,398,456,353,19
1295,0.14,-0.98,-0.08,1.16,-4.09,-3.66,218,276,404,460,358,19
1296,0.16,-0.98,-0.1,0.43,-2.99,-3.05,219,274,404,456,359,19
1297,0.16,-0.98,-0.09,-0.31,-2.75,-2.01,221,275,402,461,355,19
1298,0.13,-0.99,-0.1,2.14,-1.28,-3.23,219,278,404,458,356,19
1299,0.15,-0.99,-0.08,2.32,-3.17,-0.18,219,274,403,462,357,19
1300,0.11,-0.97,-0.08,-0.24,-3.17,-1.4,222,277,407,454,358,19
1301,0.12,-0.98,-0.07,1.16,-3.3,-0.79,218,278,398,456,354,19
1302,0.12,-0.98,-0.07,0.92,-3.17,-2.2,224,274,398,457,359,19
1303,0.13,-0.99,-0.07,0.24,-3.17,-3.85,212,274,404,457,360,19
1304,0.12,-1.0,-0.06,0.92,-3.36,-2.62,231,271,400,456,357,19
1305,0.12,-0.98,-0.06,0.73,-3.05,-3.36,221,275,402,459,357,19
1306,0.13,-0.99,-0.07,-0.37,-2.62,-2.56,222,276,399,457,359,19
1307,0.12,-0.98,-0.07,0.73,-2.99,-2.2,225,272,401,454,356,19
1308,0.12,-0.99,-0.07,-0.73,-3.72,-2.69,216,276,398,453,357,19
1309,0.11,-0.99,-0.07,-0.61,-3.3,-2.75,220,277,403,457,357,19
1310,0.11,-0.99,-0.07,2.26,-2.2,-2.5,220,281,404,454,355,19
1311,0.15,-0.99,-0.06,0.49,-3.3,-3.48,219,272,411,462,363,19
1312,0.15,-0.99,-0.06,1.16,-5.37,-2.2,219,273,402,460,359,19
1313,0.12,-0.98,-0.05,0.18,-2.5,-3.05,220,276,406,459,354,19
1314,0.1,-0.99,-0.05,-0.24,-2.56,-2.62,218,277,401,452,357,19
1315,0.12,-0.99,-0.05,0.43,-2.87,-2.08,219,275,400,460,353,19
1316,0.12,-0.97,-0.05,-0.85,-2.93,-2.44,219,280,399,460,357,19
1317,0.09,-0.97,-0.07,3.3,-1.89,-1.16,219,278,399,462,358,19
1318,0.11,-0.99,-0.05,0.31,-2.69,-2.56,222,274,401,453,357,19
1319,0.1,-0.99,-0.05,-0.24,-2.62,-3.36,258,272,400,457,357,19
1320,0.1,-0.98,-0.04,-0.31,-2.44,-2.44,219,274,402,461,355,19
1321,0.09,-0.98,-0.05,0.67,-2.69,-3.36,221,285,399,458,360,19
1322,0.07,-0.99,-0.05,0.24,-2.87,-2.26,218,282,403,461,356,19
1323,0.11,-0.99,-0.05,-0.18,-2.99,-2.56,221,276,403,463,358,19
1324,0.12,-0.99,-0.06,-0.67,-4.03,-4.09,231,276,400,459,357,19
1325,0.18,-1.0,-0.08,5.49,-3.23,-2.5,220,279,399,459,358,19
1326,0.15,-0.99,-0.04,1.77,-2.75,-2.2,223,274,400,459,357,19
1327,0.13,-0.99,-0.06,0.61,-2.87,-3.23,216,274,398,454,353,19
1328,0.12,-0.98,-0.05,-0.37,-2.93,-2.44,220,275,392,459,356,19
1329,0.11,-0.99,-0.05,0.49,-3.17,-2.26,224,278,401,461,357,19
1330,0.12,-0.99,-0.05,1.59,-2.14,-1.95,219,278,399,458,357,19
1331,0.1,-0.99,-0.04,1.59,-2.32,-1.53,220,278,401,462,358,19
1332,0.12,-0.98,-0.05,-0.55,-3.3,-2.26,221,276,402,475,360,19
1333,0.12,-0.99,-0.09,-0.18,-2.75,-1.22,224,275,400,458,359,19
1334,0.12,-0.98,-0.05,2.56,-3.85,-3.48,218,272,403,457,352,19
1335,0.1,-0.98,-0.05,-1.34,-3.6,0.73,220,276,399,457,358,19
1336,0.11,-0.97,-0.07,8.97,-1.95,-7.39,219,271,398,461,358,19
1337,0.09,-1.01,-0.06,1.1,-3.3,-3.48,257,280,405,462,355,19
1338,0.1,-1.0,-0.05,-2.38,-4.33,-4.88,226,274,403,455,357,19
1339,0.11,-1.0,-0.09,-0.73,-7.93,-2.99,230,278,403,459,353,19
1340,0.16,-1.0,-0.12,-5.07,-9.09,-3.23,225,277,397,461,354,19
1341,0.15,-0.96,-0.1,-5.37,-5.92,-7.93,220,277,404,461,359,19
1342,0.16,-0.99,-0.16,-1.04,-6.65,-5.49,221,276,404,459,357,19
1343,0.12,-0.98,-0.16,-2.01,-0.31,2.93,221,276,399,452,353,19
1344,0.12,-1.0,-0.14,-0.31,-2.08,-2.01,224,277,405,459,357,19
1345,0.06,-0.99,-0.12,-0.31,-5.8,-0.49,222,281,400,459,357,19
1346,0.1,-0.99,-0.15,4.64,-7.39,-2.93,218,275,399,460,357,19
1347,0.07,-0.98,-0.12,-1.46,-4.15,-8.85,222,270,394,461,358,19
1348,0.1,-0.99,-0.12,-0.98,-3.78,-5.98,224,278,400,459,354,19
1349,0.14,-0.99,-0.14,-2.32,-3.78,-2.14,223,268,400,455,358,19
1350,0.07,-0.98,-0.07,2.08,-3.66,5.62,219,280,402,459,353,19
1351,0.07,-1.01,-0.13,-1.83,-2.81,-3.78,223,278,402,459,357,19
1352,0.1,-1.0,-0.11,1.34,-3.72,-3.48,220,275,399,458,357,19
1353,0.09,-0.99,-0.07,-3.72,-2.62,-4.52,219,266,402,463,353,19
1354,0.08,-0.98,-0.07,-1.46,-0.31,-4.03,225,276,399,462,358,19
1355,0.06,-0.99,-0.08,1.34,-1.16,-0.98,220,275,399,462,354,19
1356,0.09,-0.99,-0.09,-0.18,-2.69,-2.44,223,280,402,447,353,19
1357,0.12,-0.99,-0.09,3.3,-1.34,-2.2,220,274,399,461,357,19
1358,0.06,-1.0,-0.09,4.21,-2.08,-1.34,220,272,400,461,356,19
1359,0.09,-0.99,-0.06,2.5,1.4,1.65,218,279,398,458,356,19
1360,0.14,-0.98,-0.07,0.31,0.49,-0.92,219,274,401,458,356,19
1361,0.1,-1.01,-0.14,10.93,-10.74,3.17,217,279,397,457,358,19
1362,0.19,-1.0,-0.18,-1.89,10.44,-5.37,219,275,397,458,354,19
1363,0.02,-0.98,-0.09,8.0,-5.13,0.61,223,275,398,459,357,19
1364,0.04,-0.99,-0.11,2.56,0.49,4.27,218,275,399,459,355,19
1365,0.05,-1.0,-0.1,1.04,-2.01,-2.99,220,276,402,457,354,19
1366,0.06,-0.95,-0.03,-2.69,2.2,-10.07,221,276,402,460,355,19
1367,0.07,-0.98,-0.06,2.08,-2.32,-4.09,232,276,398,456,347,19
1368,0.07,-1.01,-0.08,0.73,-2.26,-2.75,223,273,401,462,354,19
1369,0.06,-0.99,-0.08,2.01,-1.53,-3.78,221,277,401,458,350,19
1370,0.07,-0.99,-0.09,-0.24,-1.22,-4.58,224,278,399,458,358,19
1371,0.06,-0.99,-0.09,0.85,-2.69,-1.83,222,272,400,454,353,19
1372,0.06,-0.99,-0.07,2.08,-2.32,-1.89,221,277,399,462,355,19
1373,0.04,-1.0,-0.1,0.31,-0.85,-1.04,223,273,397,459,359,19
1374,0.07,-0.99,-0.09,1.1,-3.23,-2.44,217,276,395,459,352,19
1375,0.06,-0.99,-0.08,0.12,-2.2,-2.01,223,274,400,459,358,19
1376,0.06,-0.99,-0.08,-1.1,-3.48,-1.95,224,274,398,454,354,19
1377,0.04,-0.99,-0.11,-1.28,-6.35,-10.31,224,278,401,464,355,19
1378,0.08,-0.98,-0.12,4.7,-1.53,-5.86,220,276,399,456,358,19
1379,0.09,-0.98,-0.08,3.36,-1.22,-0.49,223,272,398,455,356,19
1380,0.09,-0.98,-0.1,2.2,-4.76,-1.53,219,279,401,456,354,19
1381,0.08,-0.99,-0.07,-1.16,-2.87,-3.72,219,268,401,463,358,19
1382,0.07,-0.98,-0.09,-0.18,-3.91,-3.36,226,275,398,454,358,19
1383,0.1,-0.99,-0.08,0.61,-2.81,-2.99,221,280,401,462,358,19
1384,0.09,-0.99,-0.09,0.24,-2.75,-2.08,222,273,399,463,354,19
1385,0.08,-0.99,-0.08,0.37,-3.3,-2.93,221,277,410,464,358,19
1386,0.09,-0.99,-0.08,0.0,-3.23,-2.62,225,277,398,454,359,19
1387,0.07,-0.98,-0.08,0.61,-2.2,-3.36,221,274,399,456,353,19
1388,0.11,-0.99,-0.1,1.1,-2.87,-3.91,220,275,399,461,358,19
1389,0.1,-0.99,-0.09,-0.06,-2.62,-1.28,221,274,398,457,358,19
1390,0.07,-0.98,-0.07,0.92,-1.71,-1.95,220,275,398,459,353,19
1391,0.09,-0.99,-0.08,2.44,-4.76,0.18,220,274,403,464,360,19
1392,0.06,-0.99,-0.08,1.95,-2.26,-0.98,222,282,395,463,356,19
1393,0.04,-0.97,-0.05,2.01,-4.46,-2.62,222,275,399,457,357,19
1394,0.05,-0.98,-0.08,-0.55,-3.42,-3.66,221,274,402,458,354,19
1395,0.07,-0.99,-0.1,1.46,-3.05,-2.44,220,277,402,460,356,19
1396,0.05,-1.0,-0.01,2.44,-3.3,0.85,225,276,402,455,355,19
1397,0.05,-0.98,-0.07,5.49,-5.37,-5.25,222,279,403,453,357,19
1398,-0.0,-1.02,-0.06,2.32,-7.08,4.39,222,277,400,458,357,19
1399,-0.06,-0.96,-0.02,-3.97,-8.73,-5.74,229,276,394,451,354,19
1400,0.1,-0.99,-0.05,-5.37,0.55,-9.89,222,279,400,458,356,19
1401,0.11,-0.98,-0.06,0.79,0.92,-4.39,220,271,399,461,356,19
1402,0.14,-0.99,-0.09,3.05,-3.54,1.16,221,274,398,454,358,19
1403,0.09,-0.98,-0.08,-1.04,-4.39,-0.85,224,275,401,462,356,19
1404,0.07,-1.01,-0.08,-0.67,0.43,-5.8,223,277,399,456,357,19
1405,0.1,-0.98,-0.05,0.73,-2.32,-1.71,221,274,400,459,358,19
1406,0.1,-0.99,-0.05,-0.67,-2.87,-2.26,220,281,398,460,360,19
1407,0.1,-0.99,-0.06,0.61,-2.14,-1.22,218,275,398,455,358,19
1408,0.11,-0.98,-0.05,5.8,-2.87,-2.08,224,275,397,457,355,19
1409,0.1,-0.99,-0.03,0.37,-3.6,-3.66,224,274,401,458,356,19
1410,0.1,-1.0,-0.03,0.37,-3.78,-2.87,223,275,398,454,355,19
1411,0.1,-0.99,-0.04,0.85,-3.3,-3.17,223,272,400,458,357,19
1412,0.11,-0.99,-0.04,0.24,-2.32,-1.95,222,274,401,463,355,19
1413,0.08,-0.99,-0.02,0.12,-3.11,-2.26,223,273,399,459,358,19
1414,0.1,-0.99,-0.04,-0.61,-2.99,-2.26,221,274,400,460,356,19
1415,0.09,-1.0,-0.03,3.36,-2.32,-2.26,219,276,402,460,356,19
1416,0.1,-1.0,-0.03,1.16,-2.5,-2.62,218,274,396,457,356,19
1417,0.1,-1.0,-0.03,0.0,-3.05,-2.69,218,276,399,453,357,19
1418,0.1,-0.99,-0.02,-1.04,-4.27,-4.88,225,273,402,468,354,19
1419,0.11,-0.99,-0.03,2.81,-0.85,-0.98,225,276,400,462,357,19
1420,0.11,-0.98,0.01,2.93,-1.77,-2.26,223,277,399,462,358,19
1421,0.1,-0.99,-0.02,2.81,-2.26,-1.77,222,274,399,459,359,19
1422,0.1,-1.0,-0.04,-2.08,-3.3,-5.31,222,277,400,459,357,19
1423,0.11,-0.99,-0.01,1.53,-2.01,-4.39,228,278,399,453,356,19
1424,0.08,-1.0,-0.03,-0.06,-2.93,-2.08,222,275,399,460,363,19
1425,0.09,-0.99,-0.08,2.38,-5.37,-4.39,222,273,398,454,358,19
1426,0.08,-0.99,-0.07,-4.88,1.59,-2.75,223,274,395,458,356,19
1427,0.07,-0.99,-0.1,-3.54,-2.56,-0.67,221,275,399,459,356,19
1428,0.1,-0.98,-0.05,1.04,-3.91,-2.38,221,271,402,468,360,19
1429,0.1,-1.0,-0.08,1.46,-3.11,1.71,225,274,400,462,353,19
1430,0.11,-1.0,-0.09,0.73,-4.82,-2.44,223,278,401,455,360,19
1431,0.09,-0.98,-0.04,1.83,-3.91,-4.52,215,273,399,455,357,19
1432,0.11,-0.99,-0.06,-0.85,-3.42,-2.62,223,275,397,454,356,19
1433,0.12,-0.99,-0.05,-0.49,-3.23,-3.48,217,277,398,461,356,19
1434,0.11,-0.99,-0.04,3.78,-3.3,-2.62,220,277,401,459,356,19
1435,0.08,-0.99,-0.04,0.31,-0.98,0.18,222,277,401,456,355,19
1436,0.11,-1.0,-0.07,-3.3,-2.26,-2.32,220,277,397,455,358,19
1437,0.1,-0.99,-0.06,2.32,-2.99,-0.85,221,277,396,457,353,19
1438,0.09,-0.99,-0.06,-1.04,-2.62,-2.75,228,275,399,457,353,19
1439,0.12,-0.99,-0.05,0.24,-1.04,-2.93,222,274,395,456,355,19
1440,0.11,-0.99,-0.06,2.87,-3.11,-0.73,219,272,397,460,357,19
1441,0.1,-0.99,-0.03,1.59,0.55,0.73,223,270,392,451,355,19
1442,0.09,-1.02,-0.09,-5.62,-4.09,-6.1,220,274,397,455,346,19
1443,0.08,-0.99,-0.03,10.01,-4.64,-0.37,225,274,399,459,354,19
1444,0.09,-0.99,-0.02,3.36,-3.48,-4.76,217,279,394,460,359,19
1445,0.11,-0.99,-0.05,0.0,-3.48,-4.03,224,271,397,457,357,19
1446,0.1,-0.99,-0.02,0.85,-2.14,-3.42,219,276,391,451,352,19
1447,0.07,-0.97,0.03,11.23,-9.58,-0.12,221,275,397,460,360,19
1448,0.12,-1.01,-0.06,-5.86,0.31,-0.55,223,273,395,458,358,19
1449,0.11,-1.0,-0.04,2.99,-7.93,-6.1,224,275,400,458,356,19
1450,0.13,-0.99,-0.01,2.93,-2.56,-2.56,222,277,396,460,357,19
1451,0.11,-0.99,-0.04,-0.37,-3.66,-5.37,217,275,392,458,356,19
1452,0.11,-0.98,-0.02,-2.08,-3.42,-3.78,220,274,399,457,356,19
1453,0.13,-0.99,-0.06,0.61,-5.0,-6.35,221,274,392,459,355,19
1454,0.12,-0.99,-0.06,2.2,-4.52,-3.48,222,274,397,455,354,19
1455,0.11,-0.98,-0.04,0.49,-2.26,-2.38,221,276,393,462,357,19
1456,0.06,-0.82,-0.18,2.81,-2.08,-1.71,220,277,399,458,357,19
1457,0.14,-1.02,-0.03,1.53,-2.62,-1.89,220,282,397,452,357,19
1458,0.13,-1.0,-0.01,0.73,-2.08,0.55,225,276,397,459,353,19
1459,0.11,-0.99,-0.03,0.31,-1.83,-1.28,222,275,392,454,356,19
1460,0.14,-0.99,-0.03,-0.18,-2.87,-4.46,221,278,395,459,358,19
1461,0.12,-1.0,-0.03,1.22,-3.66,-0.12,221,280,397,456,354,19
1462,0.06,-0.99,0.01,2.56,-2.38,-0.98,221,277,397,452,357,19
1463,0.06,-0.99,0.01,-0.12,-2.87,-3.48,217,279,397,458,354,19
1464,0.09,-0.99,-0.01,-0.43,-1.77,-3.78,224,275,396,462,358,19
1465,0.11,-1.0,-0.01,0.85,-2.62,-1.04,221,277,398,456,357,19
1466,0.09,-1.0,-0.01,0.73,-1.77,-1.53,221,278,396,458,359,19
1467,0.07,-1.0,-0.01,0.12,-2.26,-2.87,224,275,397,461,359,19
1468,0.09,-0.99,-0.01,0.0,-2.99,-3.3,221,276,398,454,356,19
1469,0.1,-1.0,-0.0,0.43,-2.44,-2.14,222,275,396,457,356,19
1470,0.12,-1.0,0.0,5.55,-1.53,-0.79,222,273,397,458,356,19
1471,0.1,-1.0,-0.01,-2.56,-4.7,-4.03,221,276,398,458,351,19
1472,0.14,-0.96,0.04,-2.69,-0.61,-6.1,222,274,394,454,358,19
1473,0.11,-0.98,-0.01,-0.85,-3.91,-12.51,224,280,397,458,358,19
1474,0.19,-0.99,-0.09,1.83,-5.31,-2.32,224,275,393,458,358,19
1475,0.08,-0.98,-0.03,3.05,-1.53,-0.85,222,277,398,458,360,19
1476,0.14,-0.98,-0.03,1.71,-6.04,-7.63,231,275,396,452,358,19
1477,0.13,-0.98,-0.03,-0.37,-2.08,-5.13,227,280,398,458,356,19
1478,0.21,-0.97,-0.08,-6.71,-5.13,-10.8,224,274,398,449,356,19
1479,0.12,-0.97,-0.09,-0.49,-9.22,-5.8,221,276,396,454,356,19
1480,0.19,-0.98,-0.09,-1.95,-4.15,-1.83,222,273,396,458,357,19
1481,0.15,-0.98,-0.07,-2.81,-3.23,-6.1,224,277,396,457,360,19
1482,0.14,-0.97,-0.07,4.21,-0.43,-2.81,221,277,393,462,353,19
1483,0.17,-0.97,-0.07,0.0,-3.42,-0.24,224,275,400,456,357,19
1484,0.17,-0.96,-0.07,-0.49,-2.87,-2.99,221,276,398,461,358,19
1485,0.19,-0.98,-0.11,-1.04,-2.81,-2.87,220,277,395,457,355,19
1486,0.2,-0.98,-0.09,0.92,-2.26,-2.44,220,275,399,457,359,19
1487,0.19,-0.98,-0.09,0.98,-2.99,-2.93,221,277,398,458,358,19
1488,0.22,-0.97,-0.06,-7.26,-9.09,-7.51,223,271,396,458,357,19
1489,0.13,-0.93,-0.08,3.3,-1.22,-3.6,222,281,398,464,357,19
1490,0.35,-1.07,-0.21,-2.62,-24.72,-5.8,222,276,394,453,357,19
1491,0.19,-0.98,-0.08,1.83,-3.17,-5.68,222,278,397,458,357,19
1492,0.18,-0.99,-0.09,0.67,0.18,-2.32,221,273,394,448,357,19
1493,0.16,-0.98,-0.1,-0.43,-4.27,-1.1,219,273,398,457,355,19
1494,0.17,-1.0,-0.12,0.31,-2.62,-3.17,223,274,394,458,357,19
1495,0.17,-0.98,-0.1,2.62,-3.17,-2.44,224,276,397,457,356,19
1496,0.15,-0.97,-0.07,1.71,-3.54,-1.53,221,277,397,459,356,19
1497,0.14,-0.99,-0.09,-0.49,-1.89,-2.62,219,274,394,457,360,19
1498,0.15,-0.97,-0.09,0.79,-1.83,-2.08,223,277,396,461,360,19
1499,0.15,-0.99,-0.08,2.14,-2.81,-1.65,221,278,397,462,356,19
1500,0.14,-0.98,-0.06,-0.92,-1.53,0.43,225,276,395,457,358,19
1501,0.14,-0.99,-0.08,-0.55,-2.08,-3.05,220,278,396,459,357,19
1502,0.12,-0.98,-0.06,0.12,-1.46,-1.77,223,277,401,457,358,19
1503,0.13,-0.99,-0.08,1.65,-2.5,-2.99,221,276,395,459,355,19
1504,0.11,-0.97,-0.03,2.08,3.05,-0.79,223,279,397,462,354,19
1505,0.13,-0.99,-0.07,0.37,-3.48,-0.85,223,276,397,451,358,19
1506,0.13,-1.0,-0.05,1.34,-3.11,-2.69,225,284,401,461,358,19
1507,0.12,-0.99,-0.05,-0.06,-2.32,0.92,224,273,397,457,358,19
1508,0.07,-0.99,-0.04,2.44,-2.32,0.67,224,267,390,458,361,19
1509,0.06,-0.99,-0.04,-0.79,-2.69,-4.15,225,275,394,461,358,19
1510,0.2,-0.95,-0.09,-6.04,-25.88,2.81,222,301,440,450,357,19
1511,0.26,-1.0,0.01,96.62,31.43,39.31,222,310,437,458,330,19
1512,0.18,-0.96,0.25,-25.27,-2.14,-8.73,221,310,438,458,343,19
1513,0.33,-1.04,-0.12,-61.52,19.23,-6.71,221,307,438,451,323,19
1514,0.21,-1.02,0.03,4.09,14.16,7.2,224,311,435,454,340,19
1515,0.16,-0.96,-0.02,-11.35,-9.7,1.28,226,320,436,457,335,19
1516,0.12,-0.99,0.01,4.33,-3.6,-6.41,229,318,441,453,334,19
1517,0.19,-0.75,0.0,-22.52,-18.55,-14.04,228,317,439,452,336,19
1518,-0.17,-0.93,-0.0,33.75,103.88,19.53,227,315,440,447,334,19
1519,0.2,-1.03,-0.27,-21.42,-5.31,-14.95,260,310,435,445,305,19
1520,0.15,-1.04,-0.09,14.4,-3.85,0.98,228,312,440,447,313,19
1521,0.25,-0.98,-0.23,-16.97,-1.22,-14.71,227,312,437,451,318,19
1522,0.25,-0.94,-0.24,-16.3,-14.59,-6.41,228,311,434,453,317,19
1523,0.25,-0.94,-0.22,-2.08,3.85,-5.25,230,313,438,449,318,19
1524,0.25,-0.92,-0.28,-9.77,-1.59,-5.13,229,314,439,452,313,19
1525,0.25,-0.91,-0.31,14.59,-6.71,-2.81,227,317,437,452,308,19
1526,0.33,-0.88,-0.36,28.99,-4.94,6.41,229,316,433,445,317,19
1527,0.07,-0.99,-0.04,-9.89,14.77,-16.97,237,309,436,453,320,19
1528,0.17,-0.98,-0.14,6.84,-3.42,-0.12,241,321,437,450,313,19
1529,0.13,-1.01,-0.02,-3.42,22.52,4.15,243,320,442,450,320,19
1530,0.17,-0.98,-0.1,17.82,-0.67,-8.85,237,326,435,451,322,19
1531,0.19,-1.0,-0.04,-10.19,1.34,-1.1,237,318,440,451,318,19
1532,0.16,-0.98,-0.04,12.51,4.15,-3.23,235,319,441,454,322,19
1533,0.19,-0.95,-0.1,2.01,19.78,-5.19,240,316,438,458,324,19
1534,0.25,-0.96,-0.14,7.02,-0.92,-12.39,237,318,439,457,326,19
1535,0.39,-1.03,-0.19,-18.68,2.69,-4.46,237,320,441,454,324,19
1536,0.09,-0.9,-0.15,-21.91,21.24,-12.33,236,322,436,462,326,19
1537,0.22,-0.95,-0.14,11.84,-13.18,-3.66,239,318,438,458,324,19
1538,0.26,-0.94,-0.19,-4.58,-3.3,-3.72,237,319,434,459,323,19
1539,0.2,-0.93,-0.23,4.15,-6.04,-1.28,240,317,441,459,322,19
1540,0.25,-0.93,-0.12,0.55,-1.77,-2.32,237,329,437,456,321,19
1541,0.24,-0.94,-0.16,3.3,1.4,0.12,240,320,438,456,325,19
1542,0.25,-0.94,-0.18,2.62,-5.0,1.04,240,321,436,455,325,19
1543,0.22,-0.98,-0.15,5.43,-3.97,2.2,239,320,438,456,326,19
1544,0.25,-0.95,-0.14,-0.31,-3.48,-4.94,243,323,436,456,327,19
1545,0.25,-0.98,-0.07,1.53,-1.77,-3.36,242,323,438,456,328,19
1546,0.23,-0.96,-0.08,0.98,-2.62,-4.64,239,318,440,463,325,19
1547,0.25,-0.96,-0.07,2.14,-2.87,-1.95,240,322,434,456,329,19
1548,0.26,-0.97,-0.06,-2.62,-1.16,-4.15,239,319,440,459,329,19
1549,0.27,-0.94,-0.09,2.87,-1.89,-3.48,245,318,442,460,333,19
1550,0.27,-0.97,-0.08,3.48,-3.6,-2.2,240,319,438,459,331,19
1551,0.28,-0.95,-0.08,2.26,-4.09,-3.23,242,321,432,455,331,19
1552,0.27,-0.96,-0.08,0.43,-1.28,-1.59,239,322,438,457,332,19
1553,0.25,-0.96,-0.07,2.99,-4.27,0.06,243,316,448,460,329,19
1554,0.28,-0.94,-0.08,-20.02,7.2,-3.11,243,314,434,460,332,19
1555,0.27,-0.97,-0.09,5.68,-3.6,-0.98,241,334,439,461,333,19
1556,0.28,-0.94,-0.12,0.31,-3.66,-5.49,241,318,437,465,334,19
1557,0.28,-0.96,-0.09,0.73,-5.0,-3.23,248,321,440,461,331,19
1558,0.27,-0.94,-0.09,1.28,-2.38,-2.2,241,325,440,467,333,19
1559,0.27,-0.97,-0.06,-1.83,-1.65,-2.81,239,322,436,465,336,19
1560,0.28,-0.96,-0.1,-0.31,-2.38,-2.69,242,319,435,467,335,19
1561,0.29,-0.96,-0.12,5.74,-5.31,-2.08,242,317,436,466,336,19
1562,0.28,-0.94,-0.08,1.1,-4.27,-2.69,241,321,436,462,335,19
1563,0.28,-0.96,-0.09,5.25,-4.03,-2.5,239,322,436,460,336,19
1564,0.29,-0.95,-0.09,-9.83,-2.75,2.87,244,321,437,462,334,19
1565,0.27,-0.96,-0.12,0.85,-2.38,-3.23,241,321,436,463,335,19
1566,0.28,-0.94,-0.12,-3.11,2.81,-4.94,242,322,434,474,339,19
1567,0.28,-0.96,-0.09,2.69,-4.33,-2.26,239,321,437,464,336,19
1568,0.28,-0.95,-0.11,0.85,-2.69,-3.23,244,317,438,461,336,19
1569,0.27,-0.95,-0.1,-0.37,-3.36,-2.87,244,325,432,457,334,19
1570,0.28,-0.95,-0.13,3.17,-3.85,-2.56,243,317,436,464,333,19
1571,0.28,-0.96,-0.11,2.81,-4.21,-1.04,242,320,437,464,336,19
1572,0.27,-0.95,-0.1,5.74,-1.77,3.78,240,321,436,462,336,19
1573,0.26,-0.97,-0.05,5.0,-4.39,-2.69,242,318,433,462,340,19
1574,0.27,-0.96,-0.03,0.0,-2.93,-3.05,245,320,436,478,336,19
1575,0.26,-0.97,-0.08,0.0,-3.05,-3.48,237,320,435,460,341,19
1576,0.26,-0.96,-0.07,-0.24,-3.17,-2.81,244,318,436,465,341,19
1577,0.25,-1.0,-0.07,-12.94,6.23,3.42,250,324,434,465,344,19
1578,0.23,-0.95,-0.06,-9.64,1.46,-2.5,240,317,434,460,340,19
1579,0.2,-1.05,-0.13,39.79,-7.08,2.62,242,322,436,463,340,19
1580,0.24,-0.96,0.03,8.36,-13.79,-3.85,243,324,435,467,339,19
1581,0.24,-0.99,0.04,-7.45,-0.43,-3.05,244,317,436,468,346,19
1582,0.3,-0.95,0.09,4.52,-4.76,-4.52,245,320,436,464,340,19
1583,0.28,-0.96,0.01,-0.12,-5.49,-3.36,239,321,439,464,339,19
1584,0.29,-0.96,-0.02,-0.49,-6.84,-3.36,240,322,435,467,337,19
1585,0.28,-0.96,-0.0,2.87,-4.64,-2.32,242,324,432,462,336,19
1586,0.25,-0.95,-0.04,-26.06,-2.01,-4.15,246,327,433,455,329,19
1587,0.3,-0.95,-0.1,4.33,-1.16,-4.33,243,332,435,459,331,19
1588,0.3,-0.93,-0.08,-23.13,7.02,-2.44,241,332,436,456,330,19
1589,0.29,-0.91,-0.19,8.3,-2.38,-3.48,244,334,433,461,331,19
1590,0.29,-0.91,-0.2,6.29,-3.17,-2.38,242,335,438,458,332,19
1591,0.27,-0.95,-0.13,0.18,-4.21,-3.3,245,332,434,462,335,19
1592,0.26,-0.97,-0.1,8.06,-5.55,-1.34,244,331,436,463,331,19
1593,0.29,-0.94,-0.14,2.26,-2.87,-3.17,246,331,432,461,333,19
1594,0.3,-0.96,-0.11,5.0,-3.72,-2.01,246,333,433,459,335,19
1595,0.27,-0.96,-0.1,-3.85,-3.66,-4.27,244,332,434,459,330,19
1596,0.29,-0.93,-0.11,15.14,-10.99,2.2,247,332,435,458,333,19
1597,0.29,-0.96,-0.05,0.98,-3.3,-2.81,248,333,435,461,327,19
1598,0.26,-0.97,-0.02,-8.91,0.43,-4.09,246,328,436,465,333,19
1599,0.28,-0.96,-0.06,-3.72,-8.67,-0.31,245,328,433,461,332,19
1600,0.26,-0.97,-0.07,-2.2,0.92,-3.54,248,324,433,460,335,19
1601,0.27,-0.95,-0.05,3.23,-7.14,4.52,245,325,433,461,337,19
1602,0.2,-0.97,-0.05,1.83,-3.85,-3.78,245,325,434,459,335,19
1603,0.24,-0.97,-0.03,0.0,-4.46,-2.99,246,326,435,463,337,19
1604,0.24,-0.98,-0.05,2.87,-5.31,-2.69,247,324,435,458,333,19
1605,0.23,-0.97,-0.07,2.5,-3.17,-2.69,242,333,434,464,338,19
1606,0.25,-0.96,-0.08,0.43,-2.56,-2.14,245,329,429,464,339,19
1607,0.23,-0.96,-0.06,-1.04,-2.32,-3.23,248,326,433,465,339,19
1608,0.24,-0.97,-0.07,1.1,-4.27,-2.56,249,323,434,459,327,19
1609,0.24,-0.97,-0.06,0.85,-4.09,-2.87,247,326,430,456,339,19
1610,0.23,-0.95,-0.08,-1.77,-1.4,-2.87,246,335,433,463,338,19
1611,0.24,-0.97,-0.07,-0.79,-2.93,-2.93,243,326,434,465,342,19
1612,0.24,-0.96,-0.08,-1.83,-1.1,-3.05,254,330,433,460,335,19
1613,0.24,-0.96,-0.09,3.05,-2.81,-3.72,248,328,433,460,337,19
1614,0.22,-0.96,-0.04,-0.37,-4.09,-1.83,246,327,432,465,339,19
1615,0.25,-0.96,-0.09,1.28,-2.56,-3.11,247,328,433,460,341,19
1616,0.22,-0.96,-0.06,-0.06,-3.11,-2.08,248,324,431,460,339,19
1617,0.23,-0.96,-0.07,3.97,-4.82,-2.56,246,327,434,465,338,19
1618,0.23,-0.96,-0.04,5.55,-3.97,-4.46,246,327,434,461,341,19
1619,0.24,-0.97,-0.05,0.73,-3.11,-3.3,247,326,428,467,341,19
1620,0.24,-0.97,-0.03,0.06,-3.42,-2.5,249,323,435,457,340,19
1621,0.24,-0.96,-0.04,-0.79,-2.32,-2.93,247,325,432,462,341,19
1622,0.23,-0.97,-0.05,8.48,-2.08,8.79,246,328,432,460,339,19
1623,0.23,-0.99,-0.02,8.61,-10.19,-2.81,243,324,433,463,341,19
1624,0.25,-0.97,-0.05,-3.36,-2.81,-1.4,244,327,433,461,342,19
1625,0.24,-0.97,-0.02,0.55,5.19,-3.11,244,328,431,474,345,19
1626,0.24,-0.96,-0.01,1.22,-2.87,-3.3,242,327,433,467,343,19
1627,0.24,-0.97,0.02,-1.65,-3.78,-2.32,245,326,433,459,346,19
1628,0.27,-0.95,-0.03,-0.24,-22.95,-4.88,244,328,436,464,345,19
1629,0.25,-0.97,-0.02,0.06,-3.85,-3.11,246,327,434,465,343,19
1630,0.26,-0.96,-0.03,0.61,-2.93,-3.36,243,327,428,468,343,19
1631,0.27,-0.97,-0.04,-0.73,-2.38,-2.81,245,329,431,464,343,19
1632,0.26,-0.97,-0.04,1.83,-3.66,-2.2,246,328,432,468,346,19
1633,0.26,-0.96,-0.03,2.14,-3.54,-2.44,249,330,431,458,341,19
1634,0.26,-0.96,-0.04,0.55,-2.69,-2.56,249,331,428,458,344,19
1635,0.26,-0.96,-0.06,1.28,-2.56,-1.83,247,331,431,458,343,19
1636,0.26,-0.96,-0.04,0.31,-2.26,-2.08,248,330,432,468,345,19
1637,0.26,-0.97,-0.05,1.77,-3.66,-2.14,249,327,433,459,345,19
1638,0.26,-0.96,-0.04,0.67,-2.44,-2.87,248,329,428,463,344,19
1639,0.25,-0.97,-0.01,0.37,-3.54,-2.08,247,330,430,468,344,19
1640,0.26,-0.96,-0.02,3.42,-4.27,-1.16,250,330,431,464,344,19
1641,0.25,-0.97,-0.02,-0.85,-3.11,-3.48,248,328,431,464,345,19
1642,0.26,-0.97,-0.03,1.34,-2.93,-3.05,250,331,431,463,346,19
1643,0.25,-0.97,-0.03,-1.16,-2.08,-2.44,250,327,430,463,345,19
1644,0.25,-0.97,-0.03,0.12,-2.56,-3.17,249,331,430,467,342,19
1645,0.25,-0.96,-0.03,-0.12,-2.69,-2.44,256,331,427,464,346,19
1646,0.24,-0.97,-0.03,1.65,-3.05,-2.87,249,331,431,468,343,19
1647,0.24,-0.96,-0.02,-1.22,-2.75,-2.56,247,331,433,463,348,19
1648,0.23,-0.98,-0.03,1.71,-2.87,-1.59,246,330,433,463,343,19
1649,0.25,-0.97,-0.03,3.48,-3.3,-2.08,249,325,429,460,344,19
1650,0.23,-0.96,-0.02,0.79,-2.75,-2.08,246,325,433,464,344,19
1651,0.25,-0.97,-0.01,-0.12,-3.85,-2.5,257,327,435,463,346,19
1652,0.24,-0.97,-0.02,1.71,-2.75,-1.95,249,327,435,464,345,19
1653,0.23,-0.97,-0.01,0.43,-3.85,-2.62,250,329,428,469,342,19
1654,0.23,-0.97,-0.02,-1.28,-3.11,-2.87,250,330,430,466,345,19
1655,0.24,-0.96,-0.02,0.49,-2.99,-4.33,248,328,430,466,345,19
1656,0.25,-0.97,-0.03,-0.18,-3.23,-2.38,246,328,433,464,344,19
1657,0.25,-0.97,-0.02,-1.16,-2.56,-3.05,251,329,429,462,345,19
1658,0.29,-0.97,-0.07,-0.73,-10.07,-1.83,251,329,431,464,344,19
1659,0.23,-0.97,-0.04,0.24,-3.11,-2.75,249,329,432,466,346,19
1660,0.24,-0.97,-0.02,-0.73,-3.05,-2.32,247,326,426,462,341,19
1661,0.24,-0.97,-0.03,2.14,-4.39,-2.69,248,331,427,459,344,19
1662,0.21,-0.95,0.0,0.0,-4.39,-0.73,247,330,428,464,344,19
1663,0.38,-1.03,-0.03,-13.06,-56.64,-0.31,247,328,434,467,347,19
1664,0.18,-0.99,-0.11,-8.48,-4.21,-4.39,247,330,432,461,347,19
1665,0.22,-0.96,-0.14,2.87,-4.76,-1.22,248,329,431,462,346,19
1666,0.21,-0.96,-0.16,-0.61,-3.3,-3.17,247,331,430,464,348,19
1667,0.22,-0.96,-0.16,0.79,-5.19,-2.99,248,329,430,465,341,19
1668,0.2,-0.96,-0.14,-0.79,-2.5,-2.32,251,329,428,461,344,19
1669,0.2,-0.97,-0.16,0.92,-2.99,-2.2,249,331,431,464,346,19
1670,0.21,-0.96,-0.15,1.59,-6.04,-3.6,247,332,435,474,346,19
1671,0.2,-0.97,-0.15,2.93,-4.82,-2.5,248,331,430,462,342,19
1672,0.21,-0.96,-0.17,3.11,-5.13,-1.59,248,331,428,465,345,19
1673,0.21,-0.98,-0.16,2.26,-3.85,-2.08,249,331,430,463,347,19
1674,0.19,-0.97,-0.13,2.14,-2.69,-2.87,249,330,431,464,342,19
1675,0.2,-0.96,-0.14,-0.18,-3.17,-2.5,246,335,435,460,346,19
1676,0.2,-0.96,-0.12,0.37,-2.32,-2.38,246,333,434,464,346,19
1677,0.19,-0.97,-0.13,-0.18,-2.87,-2.26,248,328,426,462,344,19
1678,0.2,-0.97,-0.14,-1.53,-1.28,-3.6,250,331,432,464,348,19
1679,0.19,-0.98,-0.13,-1.89,-0.61,-2.81,249,329,431,464,345,19
1680,0.18,-0.97,-0.1,2.01,-10.44,-0.12,246,331,428,468,345,19
1681,0.19,-0.97,-0.12,4.33,-2.87,-4.27,243,328,429,464,342,19
1682,0.18,-0.97,-0.11,1.28,-4.76,-2.5,247,333,425,463,346,19
1683,0.18,-0.96,-0.08,1.22,-3.3,-2.56,246,328,432,458,347,19
1684,0.18,-0.97,-0.1,2.5,-3.36,-1.59,248,329,429,461,347,19
1685,0.19,-0.98,-0.1,0.31,-3.11,-1.95,246,330,432,462,350,19
1686,0.18,-0.97,-0.12,0.31,-2.93,-1.95,244,330,429,464,347,19
1687,0.14,-0.98,-0.06,4.03,10.5,-5.07,245,325,428,462,349,19
1688,0.16,-0.96,-0.08,1.71,-0.43,-5.86,242,325,428,466,349,19
1689,0.23,-0.97,-0.04,-2.5,-3.17,-2.26,239,328,424,455,353,19
1690,0.21,-0.97,-0.11,-4.7,-0.24,-2.44,244,331,428,458,352,19
1691,0.19,-0.97,-0.12,2.81,0.31,-2.08,243,324,427,460,348,19
1692,0.19,-0.98,-0.12,-1.46,1.77,-4.03,245,323,428,463,350,19
1693,0.2,-0.97,-0.05,-4.21,-0.85,-2.26,247,328,426,463,348,19
1694,0.2,-0.97,-0.12,-3.11,-1.4,-3.17,244,327,424,461,348,19
1695,0.19,-0.96,-0.07,7.08,0.0,-4.39,242,325,424,458,344,19
1696,0.2,-0.97,-0.08,3.05,-4.52,-2.14,245,325,427,463,347,19
1697,0.19,-0.97,-0.07,-0.31,-2.87,-1.53,246,327,427,456,347,19
1698,0.19,-0.97,-0.08,-12.82,-1.4,-2.08,242,326,428,460,345,19
1699,0.21,-0.98,-0.05,-0.49,-3.78,-2.93,242,327,429,462,342,19
1700,0.25,-0.96,-0.19,-1.04,-2.87,-3.6,239,323,430,455,342,19
1701,0.22,-0.96,-0.1,-3.3,-4.46,-2.2,245,331,428,458,334,19
1702,0.21,-0.95,-0.21,5.13,-4.03,-2.2,240,327,430,457,333,19
1703,0.21,-0.96,-0.12,1.1,-8.0,-3.66,241,329,426,462,334,19
1704,0.21,-0.96,-0.18,3.17,-4.03,-2.38,243,330,432,458,337,19
1705,0.2,-0.97,-0.16,-0.61,0.24,-2.99,244,332,431,463,338,19
1706,0.19,-0.97,-0.11,8.91,-3.23,-3.97,243,329,430,464,337,19
1707,0.22,-0.96,-0.15,5.49,-4.88,-1.34,250,328,426,460,340,19
1708,0.22,-0.97,-0.08,-2.32,-3.72,-2.87,244,328,427,459,335,19
1709,0.21,-0.97,-0.08,-2.08,-4.7,-2.56,242,329,427,459,339,19
1710,0.22,-0.97,-0.17,0.0,-2.56,-2.32,240,332,428,457,341,19
1711,0.19,-0.97,-0.11,1.59,-3.54,-2.93,240,326,426,462,340,19
1712,0.23,-0.97,-0.12,-1.77,-3.85,-3.3,238,328,431,460,341,19
1713,0.2,-0.96,-0.12,0.79,-3.97,-2.56,244,332,429,464,339,19
1714,0.23,-0.97,-0.13,0.61,-2.56,-2.14,241,331,428,461,339,19
1715,0.22,-0.96,-0.14,1.28,-3.54,-2.93,242,329,429,464,341,19
1716,0.21,-0.97,-0.11,0.61,-2.38,-2.5,243,329,428,461,341,19
1717,0.19,-0.96,-0.11,1.71,-3.42,-3.05,244,329,428,460,345,19
1718,0.2,-0.96,-0.11,0.43,-2.93,-2.81,245,332,428,461,343,19
1719,0.2,-0.98,-0.12,-0.67,-2.5,-2.44,244,331,427,460,342,19
1720,0.21,-0.97,-0.11,0.67,-2.62,-2.38,246,326,429,460,341,19
1721,0.2,-0.96,-0.1,-0.24,-2.5,-3.6,276,334,431,464,340,19
1722,0.21,-0.97,-0.12,1.28,-3.17,-2.14,243,332,427,461,339,19
1723,0.21,-0.98,-0.12,1.34,-2.62,-2.08,245,330,429,458,344,19
1724,0.21,-0.97,-0.11,2.62,-3.97,-1.46,245,331,427,461,342,19
1725,0.2,-0.97,-0.1,-1.89,-3.11,-2.62,243,329,426,458,344,19
1726,0.2,-0.96,-0.11,2.81,-3.97,-2.5,241,329,428,461,340,19
1727,0.18,-0.97,-0.09,-0.18,-2.93,-3.48,247,333,428,462,339,19
1728,0.19,-0.97,-0.09,0.55,-1.77,-2.01,242,325,429,461,344,19
1729,0.19,-0.98,-0.08,0.31,-2.75,-2.2,246,328,428,462,342,19
1730,0.19,-0.97,-0.1,0.79,-3.11,-2.2,242,328,426,456,344,19
1731,0.2,-0.97,-0.1,0.24,-2.99,-2.69,240,330,425,462,341,19
1732,0.19,-0.97,-0.1,-0.18,-3.78,-3.05,245,333,427,460,341,19
1733,0.2,-0.98,-0.1,-0.61,-1.53,-1.89,233,332,428,467,342,19
1734,0.2,-0.97,-0.11,1.1,-3.05,-2.93,245,333,428,465,338,19
1735,0.2,-0.97,-0.09,1.53,-2.87,-2.5,245,330,425,460,342,19
1736,0.19,-0.97,-0.11,0.79,-3.11,-3.05,245,330,428,462,341,19
1737,0.2,-0.98,-0.11,-0.31,-3.05,-3.17,244,334,431,461,340,19
1738,0.19,-0.97,-0.09,1.16,-2.32,-2.08,241,328,428,460,340,19
1739,0.18,-0.97,-0.07,-0.06,-2.93,-2.81,238,333,427,456,346,19
1740,0.2,-0.98,-0.08,-1.34,-2.2,-2.81,244,333,429,461,340,19
1741,0.19,-0.97,-0.07,-0.73,-3.23,-3.3,243,331,423,465,343,19
1742,0.2,-0.97,-0.1,-0.18,-2.62,-2.44,246,330,428,461,344,19
1743,0.19,-0.98,-0.06,-0.49,-3.11,-1.59,243,332,429,461,345,19
1744,0.19,-0.97,-0.11,1.83,-2.56,-2.5,247,333,427,460,341,19
1745,0.19,-0.98,-0.1,0.98,-2.75,-2.56,246,330,426,462,344,19
1746,0.19,-0.97,-0.09,1.83,-3.66,-2.93,245,333,429,456,344,19
1747,0.18,-0.98,-0.09,0.67,-3.66,-2.93,247,331,428,463,339,19
1748,0.18,-0.97,-0.07,-0.85,-3.3,-2.93,247,330,429,461,341,19
1749,0.2,-0.97,-0.1,1.46,-4.15,-2.5,244,333,429,455,345,19
1750,0.2,-0.98,-0.09,-0.12,-3.05,-2.99,245,327,427,461,341,19
1751,0.2,-0.97,-0.08,0.43,-2.87,-2.44,246,329,427,465,340,19
1752,0.2,-0.98,-0.09,-0.85,-2.87,-3.42,250,333,439,461,346,19
1753,0.2,-0.99,-0.12,-0.49,-2.38,-1.83,244,330,426,461,340,19
1754,0.2,-0.97,-0.09,-1.59,-2.38,-1.65,245,330,424,461,343,19
1755,0.2,-0.98,-0.1,-0.24,-2.81,-1.89,244,330,442,461,343,19
1756,0.19,-0.97,-0.09,0.85,-3.6,-3.05,243,332,432,466,343,19
1757,0.19,-0.96,-0.09,0.06,-2.32,-2.5,245,329,430,465,344,19
1758,0.19,-0.97,-0.07,0.12,-2.69,-2.38,244,331,430,461,340,19
1759,0.2,-0.98,-0.08,1.59,-3.85,-2.44,247,328,429,462,343,19
1760,0.2,-0.98,-0.08,1.53,-3.11,-2.2,244,332,427,460,342,19
1761,0.19,-0.97,-0.08,1.1,-3.3,-2.32,247,331,427,459,343,19
1762,0.19,-0.97,-0.07,-0.85,-3.11,-2.56,243,332,431,465,344,19
1763,0.18,-0.98,-0.08,-0.85,-2.26,-2.81,242,333,427,459,342,19
1764,0.2,-0.98,-0.07,0.43,-3.17,-2.01,245,333,426,464,345,19
1765,0.19,-0.97,-0.08,1.04,-2.56,-2.56,245,333,427,462,346,19
1766,0.19,-0.97,-0.09,-1.71,-2.62,-2.5,254,336,429,456,345,19
1767,0.18,-0.98,-0.07,0.92,-3.36,-2.87,245,334,428,465,345,19
1768,0.19,-0.97,-0.1,0.98,-2.81,-2.2,248,333,428,461,345,19
1769,0.18,-0.97,-0.08,-0.73,-2.08,-2.87,247,329,430,462,342,19
1770,0.19,-0.97,-0.07,0.37,-3.05,-2.99,248,332,429,461,343,19
1771,0.19,-0.98,-0.08,0.98,-2.99,-1.83,246,331,427,464,344,19
1772,0.19,-0.98,-0.07,-0.24,-1.95,-3.3,247,330,425,461,348,19
1773,0.19,-0.98,-0.07,1.77,-3.42,-0.61,245,330,425,460,343,19
1774,0.19,-0.97,-0.07,2.93,-3.17,-2.87,245,332,426,461,344,19
1775,0.17,-0.97,-0.06,-0.31,-3.17,-2.62,245,329,427,462,342,19
1776,0.18,-0.98,-0.07,0.06,-3.3,-2.62,248,329,430,455,343,19
1777,0.18,-0.97,-0.05,-2.32,-2.38,-2.93,245,330,426,462,344,19
1778,0.19,-0.98,-0.08,0.12,-2.32,-2.26,246,329,433,457,347,19
1779,0.17,-0.98,-0.07,0.98,-3.36,-2.81,248,332,426,461,346,19
1780,0.18,-0.97,-0.06,-0.18,-2.01,-2.38,246,332,426,457,343,19
1781,0.18,-0.98,-0.07,-0.24,-3.48,-2.93,246,331,425,462,344,19
1782,0.19,-0.99,-0.06,-2.01,-3.05,-2.87,247,331,428,465,347,19
1783,0.17,-0.98,-0.02,-0.43,-3.66,-1.53,249,333,426,462,344,19
1784,0.19,-0.99,-0.06,-0.37,-3.3,-1.59,249,330,426,458,345,19
1785,0.16,-0.98,-0.05,0.85,-2.62,-1.71,238,331,424,459,346,19
1786,0.15,-0.97,-0.08,0.37,-2.08,-2.93,244,330,427,457,345,19
1787,0.16,-0.97,-0.06,-0.43,-3.85,-4.94,241,329,424,467,347,19
1788,0.18,-0.98,-0.08,2.26,-3.17,-2.62,246,333,425,466,343,19
1789,0.16,-0.98,-0.05,1.16,-2.69,-2.44,242,330,426,458,344,19
1790,0.18,-0.99,-0.06,-0.79,-3.78,-2.75,245,331,425,457,342,19
1791,0.17,-0.99,-0.06,-3.66,-2.2,-3.6,239,330,426,465,346,19
1792,0.19,-0.98,-0.08,0.73,-2.32,-2.62,242,336,426,461,344,19
1793,0.17,-0.98,-0.05,0.12,-3.42,-2.2,249,332,423,461,347,19
1794,0.17,-0.98,-0.06,0.24,-3.97,-3.17,247,331,429,461,342,19
1795,0.18,-0.99,-0.06,0.61,-3.11,-2.08,250,333,426,466,349,19
1796,0.18,-0.98,-0.05,-0.55,-2.5,-3.11,246,332,424,462,343,19
1797,0.16,-0.97,-0.06,0.43,-3.85,-2.75,250,328,428,464,348,19
1798,0.18,-0.98,-0.06,1.04,-2.99,-2.99,244,334,426,456,349,19
1799,0.17,-0.97,-0.06,1.83,-2.14,-2.56,263,335,425,461,350,19
1800,0.17,-0.98,-0.04,-0.12,-2.81,-1.53,248,331,426,462,346,19
1801,0.17,-0.97,-0.07,0.43,-2.69,-1.95,249,330,424,458,347,19
1802,0.19,-0.98,-0.09,-0.61,-1.22,-3.48,245,330,423,462,348,19
1803,0.18,-0.98,-0.06,0.98,-4.27,-3.42,246,331,426,465,351,19
1804,0.18,-0.97,-0.04,-2.08,-1.65,-2.93,248,333,427,466,349,19
1805,0.17,-0.98,-0.07,0.73,-1.95,-2.81,247,327,428,462,346,19
1806,0.17,-0.97,-0.08,2.69,-3.85,-2.62,248,330,428,466,350,19
1807,0.18,-0.98,-0.09,1.34,-3.54,-3.54,249,330,428,461,345,19
1808,0.19,-0.98,-0.07,0.98,-3.72,-2.75,247,329,427,462,349,19
1809,0.18,-0.98,-0.06,1.22,-3.23,-2.62,247,330,425,462,352,19
1810,0.19,-0.98,-0.07,4.09,-3.72,-1.59,247,331,426,462,348,19
1811,0.18,-0.98,-0.04,6.04,-3.42,-3.78,245,329,426,462,350,19
1812,0.19,-0.98,-0.04,-1.46,-2.81,-2.38,272,331,426,462,349,19
1813,0.18,-0.98,-0.06,2.01,-3.66,-1.95,247,326,428,463,348,19
1814,0.19,-0.99,-0.04,-1.53,-2.75,-3.3,246,332,425,462,349,19
1815,0.18,-0.98,-0.05,0.06,-2.69,-2.56,249,327,428,466,351,19
1816,0.21,-0.98,-0.02,-2.26,-2.08,-2.2,247,328,430,465,349,19
1817,0.19,-0.98,-0.07,2.14,-2.56,-2.08,254,333,426,461,351,19
1818,0.18,-0.97,-0.06,-0.24,-2.75,-3.54,248,331,426,467,349,19
1819,0.19,-0.99,-0.05,0.06,-3.66,-3.36,249,331,423,462,349,19
1820,0.17,-0.99,-0.03,-0.18,-2.32,-2.01,247,334,425,462,351,19
1821,0.18,-0.98,-0.04,1.04,-3.3,-3.05,256,328,426,465,354,19
1822,0.18,-0.97,-0.04,0.85,-2.08,-2.44,248,330,427,461,351,19
1823,0.19,-0.98,-0.05,-0.49,-2.99,-2.5,244,330,428,465,351,19
1824,0.19,-0.98,-0.06,0.24,-2.62,-2.5,248,334,426,460,350,19
1825,0.18,-0.98,-0.04,-1.04,-2.87,-3.42,271,333,425,461,352,19
1826,0.19,-0.99,-0.06,0.85,-3.72,-2.87,252,334,427,467,349,19
1827,0.19,-0.98,-0.05,0.85,-2.56,-2.62,248,330,422,462,349,19
1828,0.19,-0.98,-0.05,-1.16,-2.08,-2.87,246,332,427,464,350,19
1829,0.18,-0.98,-0.04,0.43,-3.36,-2.38,250,329,423,459,346,19
1830,0.18,-0.99,-0.03,0.92,-2.26,-2.32,248,332,421,462,350,19
1831,0.18,-0.98,-0.04,2.44,-2.2,-2.75,248,333,424,462,350,19
1832,0.16,-1.01,-0.09,-1.1,-4.39,-5.55,249,339,422,464,352,19
1833,0.17,-0.96,-0.04,1.4,-0.24,5.31,249,330,423,464,360,19
1834,0.11,-1.0,-0.02,-12.21,10.38,8.73,251,330,427,466,350,19
1835,0.08,-1.0,-0.06,7.51,0.67,-2.69,249,331,427,459,353,19
1836,0.12,-1.02,-0.05,1.22,-1.46,-3.66,251,332,425,463,349,19
1837,0.09,-0.99,-0.05,-3.54,-6.16,-4.7,249,332,425,466,353,19
1838,0.11,-1.0,-0.04,-0.37,-5.0,-2.56,251,330,427,463,345,19
1839,0.1,-0.99,-0.05,1.04,-2.26,-2.69,251,329,422,463,346,19
1840,0.08,-1.0,-0.03,3.11,-4.64,-0.85,250,336,425,462,351,19
1841,0.07,-0.98,-0.02,-0.31,-2.93,-3.05,251,328,425,468,347,19
1842,0.1,-0.99,-0.03,0.55,-8.91,-1.65,248,328,426,462,345,19
1843,0.03,-0.97,-0.04,6.84,-3.05,-4.64,250,330,427,456,341,19
1844,0.04,-0.99,-0.06,-3.23,-2.26,-4.15,250,329,427,458,342,19
1845,0.07,-1.0,-0.05,-0.37,-3.17,-1.89,248,331,427,458,347,19
1846,0.05,-0.99,-0.06,-1.77,-0.49,-3.05,248,330,428,460,349,19
1847,0.06,-0.99,-0.03,3.54,-4.03,-2.69,248,328,432,459,343,19
1848,0.07,-1.01,-0.02,-3.91,-3.36,1.89,246,329,430,460,347,19
1849,0.07,-1.01,-0.04,-0.49,-3.48,-3.05,248,326,430,464,350,19
1850,0.07,-0.99,-0.04,2.14,-4.46,-2.14,250,328,427,455,347,19
1851,0.06,-0.99,-0.0,-1.22,-2.81,-3.3,247,329,430,455,350,19
1852,0.05,-0.99,-0.03,0.06,-2.75,-2.99,250,332,429,461,349,19
1853,0.05,-0.99,-0.03,1.71,-4.09,-2.87,248,328,426,464,349,19
1854,0.05,-0.99,-0.01,1.83,-1.83,-2.69,249,331,428,464,350,19
1855,0.05,-1.0,0.0,-3.54,-2.32,-4.09,249,329,439,460,346,19
1856,0.06,-0.99,-0.04,2.2,-3.11,-2.01,248,331,427,460,348,19
1857,0.06,-1.0,-0.02,0.85,-2.62,-2.44,251,329,425,454,348,19
1858,0.06,-0.99,-0.03,-0.43,-2.62,-3.05,248,329,429,465,348,19
1859,0.05,-1.0,-0.0,-1.4,-2.87,-2.81,248,331,425,462,345,19
1860,0.06,-1.0,-0.03,-0.24,-3.17,-3.6,247,330,426,460,348,19
1861,0.06,-1.0,-0.02,-0.24,-3.17,-2.69,247,331,426,461,348,19
1862,0.06,-1.0,-0.01,7.2,-4.94,-2.2,247,328,425,461,343,19
1863,0.06,-1.0,0.02,-1.59,-2.87,-2.5,240,325,427,459,336,19
1864,0.05,-0.99,0.0,-2.26,-2.87,-3.48,238,327,426,459,332,19
1865,0.06,-0.99,-0.01,0.92,-3.42,-1.83,243,327,429,461,336,19
1866,0.05,-0.99,0.0,-3.6,-1.65,-3.48,242,328,425,462,340,19
1867,0.05,-0.99,-0.01,-1.28,-2.14,-2.56,241,328,425,456,339,19
1868,0.05,-0.99,-0.01,0.37,-2.87,-3.36,243,330,424,454,339,19
1869,0.08,-1.0,-0.03,2.69,-4.15,-2.44,245,327,425,460,335,19
1870,0.07,-1.0,-0.01,2.01,-2.87,-1.65,243,327,426,461,338,19
1871,0.06,-0.99,-0.02,2.32,-3.91,-2.2,242,325,427,464,340,19
1872,0.06,-1.01,-0.0,0.31,-4.21,-2.69,245,328,432,461,335,19
1873,0.05,-0.99,0.0,2.38,-3.85,-1.89,241,328,426,461,340,19
1874,0.05,-0.99,-0.0,-0.06,-2.99,-2.5,243,327,429,463,338,19
1875,0.05,-0.99,0.0,-0.79,-3.48,-3.05,246,328,434,456,342,19
1876,0.05,-0.99,-0.0,1.59,-2.14,-2.56,244,328,427,456,336,19
1877,0.04,-1.0,0.0,0.24,-2.99,-2.32,244,328,427,459,338,19
1878,0.05,-0.99,-0.01,-0.49,-2.81,-3.23,244,328,426,457,343,19
1879,0.04,-0.99,0.01,0.18,-3.36,-2.44,245,328,426,459,343,19
1880,0.05,-0.99,-0.0,-0.85,-3.11,-2.87,243,329,429,460,342,19
1881,0.06,-1.0,-0.01,1.16,-2.44,-2.01,246,333,429,464,341,19
1882,0.05,-1.0,0.01,1.95,-3.72,-2.5,245,331,425,457,341,19
1883,0.04,-0.98,0.01,1.04,-3.36,-1.65,241,328,429,461,341,19
1884,0.02,-1.0,0.0,-0.55,-3.11,-2.14,243,328,422,454,340,19
1885,0.04,-1.0,-0.0,0.85,-3.97,-2.08,240,327,433,463,341,19
1886,0.03,-1.0,0.02,-0.31,-1.71,-3.36,244,329,427,459,344,19
1887,0.04,-1.0,0.01,-2.56,-0.61,-2.26,243,332,427,464,342,19
1888,0.07,-1.0,0.04,-2.38,-2.99,-0.85,245,333,425,460,341,19
1889,0.06,-0.99,0.02,2.93,-3.91,-2.14,243,330,425,463,340,19
1890,0.04,-0.99,0.03,3.36,-2.5,-1.83,244,337,427,460,341,19
1891,0.04,-0.99,0.03,2.01,-2.87,-1.83,246,328,430,475,340,19
1892,0.03,-0.98,0.06,-3.6,-1.95,-3.6,243,333,425,464,341,19
1893,0.01,-0.98,0.04,-0.79,-3.17,-3.3,245,328,428,459,341,19
1894,0.02,-0.99,0.01,-3.48,-1.77,-3.36,247,335,426,459,337,19
1895,0.04,-1.0,-0.0,-4.33,-2.99,-1.95,243,332,424,461,340,19
1896,0.02,-1.0,0.0,4.46,-3.54,-2.75,245,329,425,457,347,19
1897,0.02,-0.99,-0.0,0.92,-3.3,-2.62,243,330,427,459,337,19
1898,0.01,-0.99,0.03,-0.55,-2.5,-2.2,243,332,426,455,343,19
1899,0.02,-0.99,0.01,-0.73,-3.36,-2.75,245,330,427,456,341,19
1900,0.01,-1.0,0.01,0.92,-4.15,-2.14,246,337,424,455,340,19
1901,-0.0,-1.0,-0.01,-0.85,-1.83,1.46,244,331,422,464,336,19
1902,-0.02,-0.99,0.01,0.31,-2.08,-1.53,246,326,425,454,342,19
1903,0.01,-1.01,0.0,-0.31,-3.6,-3.78,246,331,427,460,340,19
1904,-0.01,-1.0,-0.0,-0.61,-2.38,-1.28,247,334,423,460,343,19
1905,-0.0,-1.0,-0.01,0.61,-2.87,-2.87,244,328,426,476,342,19
1906,-0.01,-1.01,-0.0,0.0,-2.2,-3.05,244,327,424,457,339,19
1907,0.04,-1.02,-0.03,0.79,8.06,-3.54,245,332,425,461,341,19
1908,-0.01,-1.0,0.02,-0.49,-3.72,-2.87,245,331,426,464,344,19
1909,-0.0,-1.0,0.03,-1.59,-2.01,-2.75,242,332,422,461,341,19
1910,-0.02,-1.0,0.03,0.06,-2.81,-1.71,246,329,426,458,344,19
1911,-0.01,-1.0,0.01,1.59,-3.78,-2.26,240,330,430,465,338,19
1912,-0.01,-0.99,0.03,0.73,-3.54,-1.95,243,330,423,465,343,19
1913,-0.03,-1.0,0.03,0.67,-2.93,-2.26,244,332,425,461,340,19
1914,-0.02,-1.0,0.01,0.55,-3.17,-3.05,246,332,425,457,340,19
1915,-0.03,-1.0,0.03,-1.46,-3.6,-3.36,245,331,425,458,342,19
1916,-0.02,-1.01,0.02,1.77,-3.36,-3.17,244,328,426,460,341,19
1917,-0.02,-1.0,0.02,2.56,-2.56,-2.2,243,331,427,458,342,19
1918,-0.01,-0.99,0.04,15.5,-3.05,-3.23,246,333,426,462,342,19
1919,-0.02,-0.99,0.03,0.43,-3.17,-2.69,247,329,428,464,341,19
1920,-0.02,-0.99,0.03,0.73,-2.81,-2.08,246,330,427,461,343,19
1921,-0.02,-1.0,0.03,2.08,-3.54,-2.32,246,329,425,463,338,19
1922,-0.02,-0.99,0.04,3.11,-3.78,-2.14,247,330,426,455,343,19
1923,-0.02,-1.0,0.03,-0.61,-2.87,-3.17,240,332,422,454,341,19
1924,-0.03,-0.99,0.04,-0.67,-2.38,-2.32,244,330,427,464,344,19
1925,-0.02,-0.99,0.04,0.43,-3.05,-2.69,242,331,423,459,342,19
1926,-0.03,-1.0,0.02,-2.01,-0.79,-2.99,245,327,426,457,343,19
1927,-0.03,-1.0,0.01,0.18,-3.42,-2.93,244,328,426,463,345,19
1928,-0.03,-1.0,0.02,0.98,-3.11,-2.99,246,329,426,457,342,19
1929,-0.04,-0.99,0.03,-0.85,-2.99,-3.11,247,333,421,458,343,19
1930,-0.03,-1.0,0.03,0.85,-2.62,-2.26,256,330,427,455,341,19
1931,-0.04,-1.0,0.06,1.22,-3.6,-2.62,244,329,425,464,341,19
1932,-0.03,-0.99,0.04,2.14,-3.54,-2.75,245,329,427,457,343,19
1933,-0.02,-0.99,0.03,1.53,-4.09,-2.5,245,330,430,459,343,19
1934,-0.03,-1.0,0.05,2.38,-2.2,-1.22,243,328,425,462,339,19
1935,-0.08,-1.03,0.03,5.31,-5.13,-7.57,244,333,426,460,340,19
1936,-0.09,-0.9,0.11,14.53,-0.06,-7.39,240,333,428,461,343,19
1937,-0.05,-0.95,0.11,4.39,6.1,-8.79,246,333,424,460,341,19
1938,0.0,-1.01,0.09,1.89,-6.16,-2.99,251,332,425,464,339,19
1939,0.01,-1.0,0.11,1.89,-4.09,-2.81,242,332,432,459,341,19
1940,0.0,-1.0,0.1,-0.18,-4.03,-2.93,245,335,436,455,342,19
1941,0.01,-0.99,0.1,0.73,-5.31,-2.38,247,332,425,461,343,19
1942,-0.0,-0.99,0.09,1.95,-4.09,-2.62,246,334,422,464,342,19
1943,-0.01,-1.0,0.09,1.83,-4.39,-2.75,247,333,423,456,344,19
1944,-0.01,-1.0,0.11,-4.09,-2.56,-4.52,246,334,428,460,342,19
1945,-0.01,-1.0,0.11,-4.21,0.98,-4.94,246,333,426,461,344,19
1946,-0.02,-1.0,0.14,-7.81,1.22,-5.0,247,333,425,464,346,19
1947,0.0,-0.99,0.09,-3.48,-0.18,-4.03,246,332,421,465,344,19
1948,-0.0,-1.0,0.11,0.18,-2.99,-3.54,247,330,424,456,343,19
1949,0.0,-0.98,0.09,4.03,-1.71,-2.56,249,330,426,468,345,19
1950,0.01,-0.99,0.09,3.3,-3.72,-2.38,248,331,423,460,348,19
1951,0.01,-1.0,0.12,0.55,-2.93,-3.05,257,332,425,460,345,19
1952,-0.0,-0.99,0.13,-1.59,-3.05,-1.89,249,330,422,459,346,19
1953,-0.01,-0.99,0.12,2.32,-2.14,-3.97,250,331,425,462,343,19
1954,0.0,-0.99,0.12,0.55,-2.38,-4.21,247,330,428,458,348,19
1955,0.0,-0.99,0.12,-0.98,-0.79,-2.5,252,330,426,462,349,19
1956,0.01,-1.0,0.16,-4.64,-2.87,-3.3,250,332,426,460,347,19
1957,0.01,-0.99,0.09,-3.11,-1.1,-2.08,248,332,427,463,350,19
1958,-0.01,-0.99,0.1,-1.28,-1.59,-2.81,249,332,423,461,350,19
1959,-0.01,-0.99,0.13,2.08,-3.3,-2.38,252,329,426,458,348,19
1960,-0.01,-1.0,0.11,-0.24,-2.87,-3.17,251,332,427,461,348,19
