,aX,aY,aZ,gX,gY,gZ,little,ring,middle,index,thumb,number
0,-0.36,0.6,0.66,61.83,-81.36,148.8,215,256,200,460,325,20
1,0.03,0.87,0.47,-7.02,-6.96,-12.27,215,260,200,462,331,20
2,0.08,0.9,0.58,4.7,11.9,-6.29,214,255,202,454,329,20
3,0.16,0.86,0.51,8.24,-4.64,-21.36,215,254,197,459,329,20
4,0.07,0.91,0.57,3.48,-8.85,3.54,217,253,200,460,333,20
5,0.12,0.85,0.56,-5.0,-7.93,8.3,216,255,197,453,331,20
6,0.1,0.83,0.58,5.74,-4.76,10.62,215,255,195,459,330,20
7,0.13,0.76,0.56,-1.53,-17.21,10.01,214,260,197,468,333,20
8,0.12,0.89,0.58,2.01,0.79,-8.67,219,253,195,461,330,20
9,0.11,0.83,0.53,-2.93,-4.94,-10.93,213,257,198,459,329,20
10,0.01,0.85,0.56,-12.57,13.98,-11.72,218,261,201,456,330,20
11,0.18,0.9,0.55,-1.34,-16.91,-3.17,217,256,198,460,328,20
12,0.17,0.89,0.56,-5.43,8.36,-9.4,216,259,197,455,329,20
13,0.14,0.86,0.53,-10.19,6.1,-14.34,215,260,201,460,330,20
14,0.17,0.85,0.52,-1.77,-2.81,-12.82,220,260,201,460,331,20
15,0.14,0.83,0.54,-4.09,4.15,-3.11,217,258,199,464,332,20
16,0.13,0.85,0.56,-2.08,9.83,-20.57,217,259,201,456,329,20
17,0.12,0.83,0.54,1.89,-5.49,-1.83,211,258,200,456,325,20
18,0.14,0.82,0.52,6.41,-6.65,-2.5,206,261,202,458,328,20
19,0.15,0.83,0.59,0.92,6.16,-13.55,208,259,199,464,329,20
20,0.19,0.75,0.51,-9.09,-1.83,0.37,210,257,198,460,328,20
21,0.23,0.91,0.55,-5.49,-15.93,-0.79,213,260,201,459,329,20
22,0.23,0.83,0.59,10.8,-8.67,-12.08,212,258,199,455,327,20
23,0.26,0.88,0.49,22.22,5.92,11.54,210,259,202,460,331,20
24,0.1,0.7,0.63,24.48,-8.61,11.54,214,255,199,463,328,20
25,0.04,0.83,0.53,8.61,-38.82,21.67,212,262,198,457,326,20
26,0.26,0.76,0.54,-21.61,12.02,-70.86,211,256,206,457,328,20
27,0.28,0.61,0.41,-6.35,4.39,8.91,215,264,198,462,326,20
28,0.03,0.87,0.67,4.64,-13.73,6.35,213,262,202,460,328,20
29,0.15,0.78,0.6,2.87,-23.07,29.05,213,258,200,460,328,20
30,0.2,0.79,0.65,-3.54,-4.21,-2.87,215,259,200,455,328,20
31,0.25,0.78,0.6,0.61,-6.29,-6.53,216,265,205,460,328,20
32,0.19,0.79,0.62,-1.59,0.55,-7.75,216,262,201,456,328,20
33,0.2,0.76,0.61,1.16,-4.27,-3.05,211,260,202,461,326,20
34,0.21,0.78,0.6,-0.55,-3.36,-2.38,214,259,202,460,324,20
35,0.24,0.78,0.6,0.73,-3.17,-1.95,214,262,204,460,329,20
36,0.17,0.8,0.62,1.22,1.53,-2.08,217,258,199,463,328,20
37,0.2,0.8,0.61,2.99,1.1,0.85,221,258,201,462,328,20
38,0.21,0.78,0.61,1.1,-4.15,-0.92,217,259,205,455,331,20
39,0.23,0.76,0.6,-1.22,-2.2,-5.37,213,262,202,460,328,20
40,0.22,0.76,0.59,-0.24,1.16,-7.26,215,260,205,463,324,20
41,0.23,0.77,0.61,0.18,-2.81,-0.24,224,259,202,465,329,20
42,0.18,0.77,0.62,-4.33,0.18,-6.29,215,256,205,460,325,20
43,0.23,0.79,0.59,-3.3,-3.97,-1.1,216,260,203,464,329,20
44,0.23,0.75,0.61,0.73,-7.81,0.06,215,263,203,461,328,20
45,0.22,0.77,0.61,1.1,-4.7,-2.56,216,260,206,462,330,20
46,0.21,0.82,0.61,2.08,-3.97,-3.78,217,260,203,460,329,20
47,0.22,0.77,0.59,1.1,-2.5,-3.23,215,258,200,465,330,20
48,0.21,0.78,0.6,0.55,-4.39,-3.36,218,263,202,461,331,20
49,0.19,0.77,0.61,-0.49,-4.46,-1.04,218,258,203,460,331,20
50,0.24,0.79,0.59,2.81,-6.77,-1.46,218,258,204,460,332,20
51,0.22,0.76,0.6,-2.38,-7.63,-0.18,214,260,204,465,327,20
52,0.26,0.79,0.6,2.75,-4.94,-2.01,216,258,206,461,331,20
53,0.27,0.76,0.58,1.1,-4.33,-1.95,216,260,207,464,328,20
54,0.24,0.78,0.59,1.83,-2.26,-1.4,218,260,204,465,333,20
55,0.25,0.77,0.59,1.04,-2.5,-3.3,219,261,211,465,330,20
56,0.26,0.77,0.58,-0.06,-3.91,-2.08,215,260,200,459,331,20
57,0.24,0.78,0.58,-0.06,-4.64,-1.95,215,260,206,461,328,20
58,0.23,0.79,0.59,1.34,-2.44,-3.48,213,263,204,456,331,20
59,0.23,0.78,0.57,-1.53,-3.91,-3.48,216,263,204,462,329,20
60,0.22,0.81,0.59,2.69,-2.87,-8.12,217,262,204,464,329,20
61,0.17,0.79,0.58,-0.49,0.67,-2.87,217,260,203,461,326,20
62,0.2,0.8,0.58,-1.83,-3.78,-0.61,219,261,204,461,332,20
63,0.19,0.78,0.58,-1.46,-3.3,-1.46,219,263,201,457,331,20
64,0.19,0.77,0.59,-0.85,-3.54,-0.61,223,260,207,462,330,20
65,0.22,0.79,0.59,0.67,-2.87,-2.01,219,260,204,460,330,20
66,0.24,0.8,0.59,2.81,-3.6,-1.89,217,263,203,463,327,20
67,0.21,0.78,0.59,1.46,-3.85,0.12,217,261,207,461,330,20
68,0.21,0.79,0.59,0.67,-2.01,-2.75,218,262,202,461,329,20
69,0.21,0.78,0.58,0.55,-4.27,-1.83,216,263,205,461,330,20
70,0.23,0.78,0.57,0.12,-2.99,-2.69,213,258,204,465,329,20
71,0.22,0.79,0.58,-1.83,-3.05,-2.38,220,260,207,461,331,20
72,0.22,0.79,0.58,-0.12,-3.11,-1.71,219,259,207,461,334,20
73,0.23,0.79,0.59,0.73,-3.3,-2.5,220,261,205,464,332,20
74,0.23,0.79,0.59,1.16,-1.59,-3.05,219,263,205,464,330,20
75,0.24,0.78,0.57,-0.18,-3.05,-3.78,219,270,205,461,330,20
76,0.21,0.78,0.59,-1.04,-3.72,-1.46,218,263,207,456,332,20
77,0.22,0.78,0.59,0.12,-2.38,-2.26,217,261,205,461,333,20
78,0.23,0.77,0.58,-0.49,-2.56,-2.99,219,260,204,464,332,20
79,0.23,0.78,0.59,-1.34,-1.1,-5.25,215,264,205,464,328,20
80,0.22,0.78,0.59,0.98,-2.26,-4.15,214,262,204,465,330,20
81,0.22,0.78,0.61,1.34,-3.17,-0.61,217,261,209,460,330,20
82,0.22,0.75,0.55,-0.73,-2.32,-4.15,215,263,205,461,330,20
83,0.24,0.71,0.55,0.79,-1.71,1.65,223,265,205,463,330,20
84,0.21,0.77,0.59,-3.6,-3.42,0.0,219,262,204,464,330,20
85,0.32,0.76,0.59,1.28,-5.74,-3.78,219,264,204,465,328,20
86,0.23,0.79,0.59,1.89,1.46,-4.88,216,263,207,460,330,20
87,0.23,0.79,0.59,-0.73,-1.65,-3.05,219,264,204,459,331,20
88,0.25,0.78,0.58,1.28,-3.91,-0.79,214,264,205,460,330,20
89,0.24,0.82,0.62,2.81,-4.46,-2.56,217,258,208,460,331,20
90,0.26,0.73,0.49,-8.42,-5.25,-1.16,215,262,209,457,333,20
91,0.25,0.83,0.61,0.43,-1.16,-3.11,217,259,206,464,333,20
92,0.22,0.77,0.59,0.92,-2.99,-2.69,221,263,206,465,330,20
93,0.23,0.78,0.59,0.12,-2.5,-1.95,214,265,207,460,332,20
94,0.22,0.81,0.59,-0.43,-2.5,-2.14,219,263,206,461,327,20
95,0.2,0.78,0.6,1.16,-3.11,-2.44,214,262,206,462,331,20
96,0.22,0.77,0.59,-2.14,0.49,-4.09,218,265,210,456,330,20
97,0.19,0.78,0.6,0.92,-2.81,-1.53,217,263,207,465,328,20
98,0.2,0.83,0.6,-3.54,5.13,-7.2,216,263,210,458,331,20
99,0.17,0.81,0.6,6.59,-15.01,9.89,216,263,220,461,330,20
100,0.21,0.77,0.59,1.1,-4.03,-3.36,217,265,205,465,332,20
101,0.19,0.8,0.59,3.05,-3.85,-0.55,220,261,209,464,332,20
102,0.19,0.81,0.6,1.71,-4.15,-3.66,219,259,209,463,332,20
103,0.2,0.78,0.59,-0.31,-7.57,5.13,223,261,210,461,324,20
104,0.19,0.79,0.6,1.22,-3.72,-3.36,216,263,210,456,328,20
105,0.21,0.78,0.57,0.79,-1.16,1.53,217,264,209,465,331,20
106,0.23,0.8,0.59,-0.24,-4.82,-1.83,217,265,209,461,332,20
107,0.23,0.78,0.58,-0.49,-2.62,-3.6,219,264,209,457,330,20
108,0.23,0.79,0.58,-0.24,-2.2,-2.81,218,265,206,462,331,20
109,0.22,0.79,0.57,0.67,-4.39,-2.38,217,262,209,460,333,20
110,0.22,0.79,0.59,0.79,-2.5,-2.01,220,262,207,465,328,20
111,0.2,0.79,0.58,-1.89,-3.23,-0.55,217,262,207,460,327,20
112,0.23,0.79,0.58,1.04,-3.91,-2.38,219,262,207,460,331,20
113,0.2,0.78,0.59,0.24,-3.3,-4.09,220,266,205,463,328,20
114,0.21,0.79,0.59,0.06,-1.34,-2.93,213,262,204,461,333,20
115,0.22,0.79,0.58,0.98,-2.81,-2.44,219,264,211,462,330,20
116,0.22,0.8,0.59,0.43,-2.69,-3.54,219,264,207,461,333,20
117,0.22,0.81,0.59,-0.18,-2.44,-2.75,217,265,208,463,334,20
118,0.22,0.79,0.58,-2.32,-3.23,-3.23,219,264,208,458,331,20
119,0.22,0.78,0.58,1.22,-3.72,-0.61,219,263,210,462,331,20
120,0.21,0.79,0.59,0.49,-3.17,-2.26,218,261,208,464,334,20
121,0.2,0.8,0.59,0.55,-1.83,-3.97,218,265,209,461,332,20
122,0.2,0.79,0.59,0.06,-4.03,-2.75,219,261,207,462,331,20
123,0.21,0.78,0.58,1.65,-2.38,-2.38,220,269,207,463,333,20
124,0.19,0.79,0.59,1.28,-2.2,-2.99,220,265,205,461,332,20
125,0.21,0.8,0.59,0.06,-2.75,-2.93,222,264,208,459,327,20
126,0.21,0.82,0.62,3.3,-4.88,-0.24,219,263,209,458,332,20
127,0.23,0.78,0.56,1.28,-2.32,-4.76,219,263,209,461,333,20
128,0.2,0.8,0.58,0.12,-2.99,-3.6,220,262,206,470,330,20
129,0.19,0.8,0.56,6.96,-4.09,0.49,220,263,208,465,330,20
130,0.2,0.91,0.55,1.34,-4.33,-5.62,218,264,208,462,333,20
131,0.29,0.81,0.55,-2.44,0.31,9.52,221,261,208,463,328,20
132,0.21,0.81,0.55,-2.81,10.07,-12.94,218,266,211,461,327,20
133,0.06,0.83,0.59,0.43,-3.42,-0.49,227,264,209,457,330,20
134,0.18,0.81,0.55,0.61,-5.49,-2.38,221,263,210,457,329,20
135,0.21,0.79,0.55,-3.23,-4.64,0.85,217,265,211,477,330,20
136,0.17,0.8,0.57,0.85,-4.27,-1.34,219,267,208,462,331,20
137,0.25,0.82,0.56,-0.12,-2.38,-3.85,219,264,205,461,331,20
138,0.21,0.8,0.56,0.37,-4.76,-3.91,221,266,205,466,331,20
139,0.23,0.79,0.55,0.98,-1.46,-5.49,214,264,209,462,331,20
140,0.22,0.8,0.56,0.18,-4.7,-1.53,222,261,208,461,331,20
141,0.2,0.81,0.56,0.61,-1.22,-1.16,217,261,210,460,331,20
142,0.23,0.8,0.55,0.37,-3.78,-2.08,221,261,211,461,332,20
143,0.22,0.81,0.56,1.4,-4.52,-3.54,220,265,208,465,331,20
144,0.23,0.8,0.55,0.24,-3.11,-2.38,221,265,211,462,335,20
145,0.2,0.81,0.55,0.31,-3.36,-0.31,216,264,208,462,332,20
146,0.23,0.8,0.55,-1.65,-2.62,0.31,221,264,212,465,330,20
147,0.24,0.8,0.56,1.71,-2.62,-1.95,220,269,208,463,333,20
148,0.23,0.81,0.56,0.49,-3.78,-4.64,219,264,208,461,331,20
149,0.21,0.81,0.56,-0.12,-4.33,-3.48,218,263,209,462,330,20
150,0.21,0.81,0.55,0.06,-3.54,-2.01,218,262,207,466,332,20
151,0.24,0.82,0.54,0.37,-5.31,-0.12,216,264,208,459,331,20
152,0.22,0.81,0.54,-0.24,-2.5,-3.05,219,264,214,461,334,20
153,0.23,0.82,0.54,2.99,-2.62,-2.08,220,265,209,462,333,20
154,0.23,0.83,0.55,2.44,-2.75,-1.16,218,261,211,462,331,20
155,0.24,0.81,0.54,0.18,-2.38,-5.92,218,264,208,465,331,20
156,0.22,0.82,0.54,-0.24,-3.23,-3.17,207,264,209,462,328,20
157,0.21,0.84,0.54,2.01,-3.42,-0.43,212,261,212,464,330,20
158,0.22,0.83,0.53,0.24,-4.64,-1.95,229,263,207,462,324,20
159,0.21,0.83,0.54,0.37,-3.6,-2.08,214,265,210,462,325,20
160,0.22,0.83,0.53,0.98,-3.11,-2.2,214,262,211,465,326,20
161,0.22,0.82,0.53,1.1,-3.6,-2.93,216,267,209,462,329,20
162,0.22,0.82,0.53,0.0,-3.6,-1.22,216,262,213,462,328,20
163,0.22,0.83,0.53,0.31,-2.93,-3.17,217,267,210,466,327,20
164,0.21,0.82,0.53,0.98,-2.69,0.31,212,264,210,465,328,20
165,0.23,0.8,0.53,0.12,-0.85,-1.53,217,262,214,459,328,20
166,0.23,0.88,0.53,0.43,-2.5,-8.73,218,267,211,463,328,20
167,0.23,0.83,0.53,-0.49,-3.42,-2.2,217,264,209,467,329,20
168,0.25,0.82,0.52,0.24,-3.85,-1.71,215,264,214,461,331,20
169,0.25,0.82,0.53,0.31,-2.2,-2.87,216,267,214,457,328,20
170,0.23,0.82,0.53,-0.12,-3.54,-3.66,216,272,210,466,327,20
171,0.24,0.82,0.53,0.49,-3.72,-2.32,218,265,211,460,329,20
172,0.25,0.83,0.53,-1.53,-2.56,-8.61,217,263,210,466,330,20
173,0.19,0.84,0.54,1.46,-3.23,-9.7,217,265,214,457,330,20
174,0.13,0.81,0.55,5.86,-17.88,12.94,214,265,213,462,327,20
175,0.18,0.82,0.56,-3.66,3.97,-8.0,218,270,210,465,329,20
176,0.22,0.8,0.53,1.4,-4.39,1.34,215,267,212,462,327,20
177,0.19,0.84,0.54,5.8,-7.75,2.2,216,266,210,466,329,20
178,0.21,0.83,0.54,-2.56,-3.78,-1.65,217,264,216,466,332,20
179,0.26,0.81,0.54,-1.1,-4.82,-2.44,217,267,212,462,329,20
180,0.27,0.82,0.55,-1.16,-0.61,-2.99,218,275,214,466,327,20
181,0.23,0.8,0.56,0.73,-3.05,-0.67,212,267,210,462,328,20
182,0.23,0.79,0.55,1.04,-2.14,-6.71,216,266,213,465,330,20
183,0.24,0.84,0.56,2.87,-3.11,0.37,217,268,213,461,328,20
184,0.22,0.81,0.55,0.31,-4.76,-2.2,217,264,211,461,329,20
185,0.25,0.8,0.54,1.71,-3.54,-4.64,219,266,215,464,329,20
186,0.26,0.83,0.54,1.65,-5.19,-3.6,219,265,209,462,329,20
187,0.24,0.81,0.53,-2.2,-0.61,-2.14,216,273,210,461,330,20
188,0.24,0.79,0.54,-2.26,-2.5,-8.06,216,272,208,460,330,20
189,0.15,0.82,0.59,3.17,-5.55,4.64,214,268,211,462,327,20
190,0.24,0.77,0.58,1.4,-5.92,0.18,219,263,214,463,328,20
191,0.21,0.77,0.56,2.2,-2.08,3.17,220,266,214,466,330,20
192,0.25,0.82,0.55,2.08,-3.85,-3.05,215,269,213,466,329,20
193,0.24,0.83,0.56,0.31,-2.2,-1.16,220,264,212,463,330,20
194,0.23,0.78,0.54,0.12,-3.23,-4.64,217,266,211,467,332,20
195,0.27,0.81,0.54,-0.55,-1.46,-4.33,219,269,210,464,331,20
196,0.23,0.79,0.55,-0.79,-3.78,-0.98,220,268,211,465,332,20
197,0.26,0.82,0.54,2.2,-2.69,-0.61,218,269,212,463,327,20
198,0.25,0.82,0.56,-0.49,-2.56,-3.17,220,268,213,462,330,20
199,0.26,0.78,0.53,0.12,-3.72,-3.17,218,266,212,462,334,20
200,0.25,0.81,0.55,1.4,-2.93,-1.4,219,267,212,466,332,20
201,0.25,0.82,0.56,-2.01,-2.14,1.65,217,266,215,462,334,20
202,0.24,0.77,0.53,5.0,-4.03,8.67,218,266,214,466,332,20
203,0.26,0.84,0.53,2.2,-4.64,1.16,219,267,212,463,332,20
204,0.28,0.83,0.54,-1.4,-9.28,-4.52,221,266,210,462,333,20
205,0.29,0.81,0.52,-0.31,-2.99,-2.93,214,266,211,467,338,20
206,0.33,0.74,0.57,3.6,-1.34,-4.27,218,269,212,466,332,20
207,0.23,0.78,0.54,-5.31,-3.3,7.2,219,268,212,457,329,20
208,0.24,0.77,0.54,0.98,-5.49,-4.52,215,270,215,465,333,20
209,0.25,0.78,0.55,1.53,-5.0,-1.46,221,270,211,467,332,20
210,0.25,0.79,0.54,-0.85,-3.6,-2.38,217,268,211,468,332,20
211,0.3,0.79,0.53,0.31,-0.31,-3.97,218,270,212,463,333,20
212,0.27,0.8,0.56,0.18,-2.08,-4.52,216,276,215,462,332,20
213,0.2,0.81,0.51,-4.39,15.63,-8.24,221,269,210,469,333,20
214,0.19,0.79,0.55,-3.66,-6.96,2.14,219,271,213,463,330,20
215,0.25,0.79,0.55,0.18,-12.51,-6.47,220,269,212,465,330,20
216,0.25,0.75,0.57,-2.81,-2.99,-6.1,218,268,214,462,333,20
217,0.26,0.8,0.55,0.43,-1.59,-1.34,218,274,212,466,343,20
218,0.3,0.79,0.56,2.08,-4.82,-3.97,221,267,212,458,333,20
219,0.26,0.77,0.56,-7.14,-0.18,-2.81,219,271,213,462,332,20
220,0.18,0.75,0.6,-0.31,4.94,-14.95,221,268,215,458,334,20
221,0.25,0.84,0.6,-1.04,-3.42,-3.17,221,271,215,466,334,20
222,0.19,0.75,0.58,-3.23,0.12,-0.92,219,267,211,464,330,20
223,0.28,0.77,0.61,-0.49,-7.02,-2.69,218,268,209,463,332,20
224,0.24,0.76,0.56,0.12,4.21,0.06,221,269,214,462,334,20
225,0.24,0.71,0.6,-2.87,-9.95,-3.42,221,269,213,460,335,20
226,0.18,0.58,0.42,14.83,-7.32,3.36,220,269,214,462,332,20
227,0.09,0.81,0.46,-12.08,23.07,-19.29,218,271,213,461,332,20
228,0.06,0.86,0.64,-19.78,-10.13,-11.66,221,271,217,461,331,20
229,0.25,0.68,0.71,3.36,-21.0,-1.16,216,267,214,464,334,20
230,0.17,0.84,0.74,46.75,-4.03,4.39,220,270,213,463,335,20
231,0.17,0.78,0.66,-0.43,-4.52,-24.48,227,270,214,459,338,20
232,0.2,0.8,0.65,-2.26,-2.93,5.43,218,270,213,458,336,20
233,0.21,0.63,0.57,-7.39,-5.13,-15.56,218,270,213,468,334,20
234,0.18,0.93,0.57,-11.84,10.25,-5.07,218,269,212,455,337,20
235,-0.1,0.92,0.81,16.97,18.31,-6.65,222,270,215,464,333,20
236,0.03,0.81,0.66,-4.15,-0.37,-22.95,219,265,214,467,336,20
237,0.1,0.71,0.62,-4.58,-13.24,7.39,221,268,213,462,336,20
238,0.12,0.7,0.67,3.54,-24.54,27.71,219,268,216,459,337,20
239,0.16,0.74,0.65,1.04,0.0,-5.68,219,272,211,470,334,20
240,-0.02,0.75,0.71,4.33,0.92,-7.08,214,268,213,466,337,20
241,-0.03,0.84,0.77,-8.48,2.81,-15.32,218,279,211,463,335,20
242,0.04,0.76,0.71,-0.49,-10.68,2.75,222,271,216,468,334,20
243,0.02,0.77,0.69,7.2,-11.72,-0.43,221,268,216,457,336,20
244,-0.03,0.7,0.76,1.4,-7.32,6.9,219,269,215,465,334,20
245,0.15,0.79,0.7,6.65,-12.7,6.9,219,267,211,463,335,20
246,0.16,0.67,0.64,1.65,-11.54,16.85,218,270,212,462,335,20
247,0.1,0.7,0.71,-9.03,3.36,-3.36,216,271,212,465,336,20
248,0.16,0.72,0.7,-2.87,5.86,-24.41,219,267,216,458,336,20
249,0.13,0.72,0.69,-4.21,18.31,-25.76,222,270,217,463,337,20
250,0.05,0.72,0.73,0.43,-4.33,2.93,219,267,214,462,335,20
251,0.12,0.76,0.77,1.77,0.92,-13.37,218,270,214,457,336,20
252,0.16,0.66,0.68,20.51,-10.68,14.59,219,268,216,464,335,20
253,0.17,0.72,0.69,-3.17,-5.98,-8.3,228,266,216,463,337,20
254,0.16,0.7,0.69,-5.13,-5.25,0.18,214,266,214,472,332,20
255,0.2,0.69,0.67,1.46,-9.46,-0.18,219,272,213,459,338,20
256,0.2,0.67,0.66,0.37,2.26,-13.55,222,272,212,463,336,20
257,0.15,0.75,0.71,-2.81,-2.56,2.44,220,269,214,465,332,20
258,0.1,0.65,0.53,2.93,-14.59,-6.23,222,269,216,463,337,20
259,0.11,0.7,0.74,6.84,-1.1,-16.91,222,268,216,458,337,20
260,0.21,0.85,0.71,0.43,-0.49,12.51,227,270,211,462,337,20
261,0.11,0.71,0.69,-5.43,3.48,3.97,220,270,215,461,336,20
262,0.23,0.68,0.68,-5.43,-1.59,-11.9,220,270,213,464,337,20
263,0.12,0.71,0.76,12.27,2.26,16.05,221,269,216,457,335,20
264,0.11,0.68,0.67,7.87,-6.35,2.99,219,268,220,463,336,20
265,0.17,0.81,0.7,1.59,-3.36,-2.44,220,270,212,462,335,20
266,0.04,0.93,0.79,-10.13,39.18,-33.39,220,268,217,465,335,20
267,0.09,0.52,0.58,22.77,-30.33,30.88,219,267,215,463,333,20
268,0.43,0.81,0.45,-26.31,41.5,-38.64,220,268,212,460,328,20
269,0.33,0.83,0.61,-8.3,9.34,-25.33,219,269,214,462,335,20
270,0.49,0.67,0.56,-22.64,-3.42,-12.08,221,269,217,463,332,20
271,0.3,0.65,0.59,1.89,1.28,1.65,220,269,214,463,336,20
272,0.38,0.64,0.54,6.84,-9.03,3.78,222,269,216,460,338,20
273,0.33,0.73,0.57,-10.25,28.14,-41.44,219,272,217,463,336,20
274,0.29,0.72,0.62,-0.43,-1.4,-9.95,233,270,215,467,335,20
275,0.25,0.75,0.62,-0.24,-1.46,-8.73,218,271,214,463,332,20
276,0.34,0.65,0.53,6.96,-3.91,-23.74,221,270,211,459,338,20
277,0.25,0.73,0.54,8.67,-28.99,30.33,223,269,212,458,338,20
278,0.37,0.73,0.59,5.98,-5.68,-8.97,224,270,215,466,340,20
279,0.38,0.85,0.61,-12.7,-7.08,2.38,223,270,212,467,336,20
280,0.3,0.75,0.63,-2.14,-1.22,-1.95,226,268,218,460,339,20
281,0.25,0.69,0.61,-2.87,-6.1,-5.55,220,269,213,461,341,20
282,0.27,0.71,0.6,-4.33,1.83,-6.23,221,271,216,458,343,20
283,0.33,0.69,0.63,4.82,-13.12,3.54,221,267,217,465,341,20
284,0.3,0.83,0.66,-1.4,8.06,-20.08,219,269,218,464,342,20
285,0.28,0.75,0.6,-2.81,-0.67,2.08,221,270,216,463,344,20
286,0.35,0.78,0.61,6.35,-11.6,1.53,245,271,214,463,341,20
287,0.23,0.63,0.45,10.99,-17.15,1.65,221,273,214,456,346,20
288,0.12,0.87,0.68,-8.85,24.17,-24.78,221,269,216,466,341,20
289,0.19,0.83,0.68,1.77,-13.55,-3.17,220,269,217,461,344,20
290,0.27,0.67,0.58,18.68,8.67,-13.98,222,271,216,462,342,20
291,0.23,0.72,0.53,3.23,-2.5,0.0,224,271,217,463,344,20
292,0.28,0.78,0.57,9.28,-34.36,19.29,221,285,216,463,344,20
293,0.41,0.78,0.58,-6.16,-5.68,8.54,221,270,216,464,344,20
294,0.22,0.8,0.61,-4.82,19.9,-17.09,220,269,215,464,344,20
295,0.21,0.78,0.59,-1.89,-5.49,-1.71,223,272,215,463,345,20
296,0.25,0.75,0.64,2.38,-15.56,-9.77,221,271,214,462,346,20
297,0.3,0.81,0.64,0.55,6.04,-6.23,224,272,216,463,344,20
298,0.21,0.77,0.62,-0.18,-1.59,-3.36,223,270,216,459,344,20
299,0.27,0.75,0.63,3.23,5.43,-6.41,222,270,217,459,341,20
300,0.13,0.77,0.62,-2.99,1.83,-0.92,220,268,215,459,340,20
301,0.24,0.75,0.63,0.98,-0.24,-5.74,220,270,215,464,345,20
302,0.34,0.71,0.55,25.82,-52.12,62.99,222,273,217,466,345,20
303,0.38,0.74,0.53,2.08,-8.12,6.29,219,272,216,465,346,20
304,0.35,0.78,0.53,-1.53,-4.09,-10.74,220,271,216,460,344,20
305,0.37,0.78,0.54,0.73,-4.27,-1.83,233,270,213,463,344,20
306,0.35,0.77,0.54,0.31,1.04,-3.11,220,270,215,465,346,20
307,0.32,0.79,0.53,2.87,-2.81,0.73,220,273,219,467,345,20
308,0.31,0.83,0.58,0.67,2.69,-9.03,220,270,217,463,342,20
309,0.27,0.81,0.58,-1.65,-1.95,-4.21,223,268,217,464,344,20
310,0.26,0.79,0.56,0.18,-4.94,-4.46,222,270,215,465,347,20
311,0.25,0.79,0.55,-4.33,7.69,-12.76,220,271,215,466,344,20
312,0.2,0.79,0.58,-2.93,10.86,-19.17,223,273,217,463,343,20
313,0.22,0.73,0.57,0.55,-6.96,2.56,223,272,218,458,346,20
314,0.25,0.82,0.55,3.66,-3.54,-1.46,224,273,218,467,342,20
315,0.28,0.82,0.56,3.97,-6.77,-0.49,221,271,217,463,345,20
316,0.26,0.78,0.56,1.46,-2.38,-2.81,221,273,217,463,343,20
317,0.26,0.8,0.56,0.79,-3.11,-4.88,223,270,214,464,345,20
318,0.26,0.79,0.55,0.55,-2.87,-1.83,217,270,215,458,341,20
319,0.26,0.79,0.55,1.4,-3.05,-1.89,219,271,216,467,346,20
320,0.25,0.79,0.56,0.55,-3.6,-2.44,221,271,215,464,342,20
321,0.24,0.8,0.55,0.31,-2.87,-1.1,223,271,216,458,348,20
322,0.24,0.83,0.55,-1.34,-2.75,-2.75,220,273,217,461,344,20
323,0.24,0.8,0.56,-1.16,0.24,-3.48,218,273,218,468,344,20
324,0.26,0.78,0.55,-1.83,-3.11,-5.37,222,273,215,463,345,20
325,0.27,0.79,0.55,0.55,-4.52,-1.28,225,272,215,467,343,20
326,0.28,0.81,0.55,1.28,-4.76,-4.52,225,273,213,467,340,20
327,0.26,0.79,0.55,0.55,-1.53,-2.81,220,271,213,461,341,20
328,0.27,0.82,0.54,2.26,-5.68,-1.71,223,271,218,460,346,20
329,0.29,0.8,0.53,0.85,-1.95,-2.81,223,273,222,458,345,20
330,0.29,0.81,0.53,0.98,-1.83,-2.81,223,271,214,462,344,20
331,0.27,0.81,0.54,-0.85,-0.43,-4.46,218,272,212,462,340,20
332,0.27,0.81,0.55,0.43,-1.65,-3.23,223,273,218,467,345,20
333,0.25,0.81,0.54,0.43,-1.89,-3.78,224,269,216,466,345,20
334,0.26,0.81,0.54,0.18,-1.89,-1.77,218,267,219,464,343,20
335,0.26,0.82,0.54,-0.18,0.18,-3.23,224,270,219,459,342,20
336,0.23,0.82,0.55,0.06,-2.69,-2.01,223,270,216,462,343,20
337,0.25,0.81,0.55,-0.12,-3.78,-2.2,223,270,215,459,343,20
338,0.21,0.81,0.55,-0.92,-1.22,-2.93,223,271,218,467,342,20
339,0.24,0.79,0.56,-3.42,0.98,-10.93,223,270,216,459,341,20
340,0.21,0.82,0.57,-0.06,-1.04,-0.61,228,269,217,479,343,20
341,0.17,0.82,0.56,0.24,-4.03,-1.59,221,272,213,464,344,20
342,0.23,0.79,0.55,0.24,-5.98,-2.38,220,272,216,459,345,20
343,0.26,0.83,0.55,1.89,-4.21,-1.4,219,268,218,468,344,20
344,0.2,0.8,0.55,-2.69,-1.22,-2.81,220,272,216,460,346,20
345,0.21,0.78,0.54,-1.1,-4.88,-4.64,222,270,216,467,346,20
346,0.24,0.84,0.57,1.22,-0.67,-1.28,216,272,218,462,346,20
347,0.2,0.78,0.55,-0.31,-3.05,-3.72,223,271,219,478,344,20
348,0.22,0.81,0.56,1.1,-5.0,2.08,224,274,216,468,343,20
349,0.22,0.78,0.54,0.06,-3.11,-2.99,221,274,219,465,344,20
350,0.23,0.83,0.56,2.14,-3.78,-2.62,220,271,211,466,350,20
351,0.21,0.81,0.56,-1.71,-2.14,-3.54,220,272,214,467,344,20
352,0.24,0.79,0.54,1.4,-4.27,-2.87,230,270,216,463,344,20
353,0.22,0.83,0.55,-0.79,-1.04,-0.98,220,272,218,459,344,20
354,0.22,0.8,0.56,-0.79,-5.55,-8.73,223,271,218,462,343,20
355,0.25,0.83,0.55,1.59,-0.73,-1.53,234,269,214,467,344,20
356,0.12,0.86,0.56,5.19,-10.86,2.81,221,280,217,472,341,20
357,0.27,0.87,0.49,-13.43,12.76,-13.37,222,273,214,469,343,20
358,0.18,0.83,0.61,-2.75,12.02,-18.19,223,271,219,463,341,20
359,0.2,0.9,0.62,-17.03,24.72,-39.37,221,268,206,464,342,20
360,0.14,0.75,0.59,-2.81,2.08,-3.72,221,272,218,459,341,20
361,0.1,0.77,0.61,1.22,-3.6,-2.44,223,273,214,464,344,20
362,0.17,0.79,0.59,1.04,-5.55,1.4,225,270,218,460,341,20
363,0.18,0.8,0.58,1.95,-4.88,-1.83,224,271,218,460,344,20
364,0.17,0.78,0.58,-0.37,-1.1,-0.55,223,270,218,463,342,20
365,0.19,0.82,0.61,-4.52,-0.43,-3.78,221,277,215,465,341,20
366,0.19,0.79,0.6,-0.67,-1.28,-2.62,223,274,216,464,345,20
367,0.17,0.78,0.6,-0.73,-2.5,-2.56,221,274,215,464,342,20
368,0.2,0.78,0.58,0.06,-4.27,-2.56,220,270,219,467,340,20
369,0.09,0.8,0.62,4.82,-15.44,7.39,220,271,215,464,341,20
370,0.18,0.79,0.59,1.22,-4.82,0.24,222,283,215,464,342,20
371,0.17,0.8,0.57,1.89,-4.39,-2.44,221,271,217,462,339,20
372,0.2,0.8,0.58,1.22,-4.94,-2.2,221,271,216,464,342,20
373,0.2,0.8,0.58,0.85,-4.58,-0.61,224,272,213,467,345,20
374,0.21,0.83,0.56,1.34,-2.26,-3.66,219,270,216,468,338,20
375,0.22,0.75,0.57,0.67,-1.53,-5.92,219,269,219,464,345,20
376,0.24,0.79,0.56,0.43,0.37,1.28,223,269,221,467,343,20
377,0.22,0.79,0.58,-1.4,-0.73,-3.42,224,271,217,467,344,20
378,0.2,0.8,0.59,-1.04,-0.73,-5.74,222,273,214,464,343,20
379,0.18,0.79,0.59,1.59,-0.67,-3.78,220,271,214,467,341,20
380,0.2,0.79,0.58,0.73,-4.39,-2.38,222,274,219,467,344,20
381,0.2,0.8,0.59,-1.1,-3.85,-1.59,220,269,217,467,344,20
382,0.2,0.8,0.58,1.34,-2.81,-2.93,221,270,217,467,346,20
383,0.21,0.79,0.58,1.34,-3.17,-2.26,222,273,215,468,338,20
384,0.2,0.79,0.58,0.43,-3.17,-2.69,221,274,217,459,342,20
385,0.2,0.8,0.58,0.85,-3.11,-3.05,219,273,218,459,342,20
386,0.19,0.79,0.58,-0.12,-2.69,-2.44,221,272,215,462,338,20
387,0.2,0.8,0.57,0.67,-1.89,-2.93,217,274,215,466,345,20
388,0.19,0.81,0.58,-0.06,-1.83,-3.11,221,271,213,461,342,20
389,0.19,0.8,0.58,0.43,-3.72,-2.08,223,272,220,460,341,20
390,0.2,0.79,0.58,0.24,-2.75,-2.26,221,271,214,465,343,20
391,0.2,0.79,0.58,-0.24,-3.54,-2.26,224,271,218,467,342,20
392,0.21,0.8,0.58,0.67,-3.23,-1.95,220,271,217,465,341,20
393,0.21,0.8,0.57,1.65,-3.23,-3.3,221,271,219,464,342,20
394,0.21,0.81,0.58,0.24,-2.93,-2.87,220,287,216,464,343,20
395,0.2,0.81,0.57,0.31,-1.83,-4.76,224,273,217,460,343,20
396,0.21,0.8,0.57,1.46,-3.42,-4.09,221,273,218,461,340,20
397,0.2,0.81,0.57,1.34,-3.05,-2.99,224,274,217,465,340,20
398,0.2,0.8,0.57,0.37,-0.37,-10.01,222,268,217,459,341,20
399,0.19,0.81,0.57,0.85,-3.54,-3.05,224,273,217,469,343,20
400,0.18,0.81,0.57,0.24,-3.17,-1.95,223,275,218,464,343,20
401,0.19,0.82,0.57,0.49,-4.52,-2.75,221,274,219,465,340,20
402,0.17,0.8,0.57,-0.24,-2.62,-3.48,225,269,223,461,341,20
403,0.18,0.81,0.57,0.73,-2.99,-2.2,224,270,216,465,342,20
404,0.18,0.81,0.58,0.12,-2.08,-3.3,222,274,216,468,343,20
405,0.17,0.8,0.57,0.61,-3.05,-2.44,223,275,216,460,342,20
406,0.18,0.82,0.57,0.43,-2.32,-2.56,222,272,219,465,343,20
407,0.16,0.8,0.58,-0.61,-2.14,-2.81,220,274,216,461,340,20
408,0.17,0.8,0.57,0.67,-1.16,-2.69,223,274,216,463,343,20
409,0.16,0.8,0.57,-0.24,-3.3,-2.5,222,274,216,459,341,20
410,0.16,0.8,0.57,0.85,-2.69,-3.48,224,271,217,464,342,20
411,0.16,0.82,0.57,0.31,-3.48,-2.44,222,272,215,461,339,20
412,0.17,0.81,0.57,0.06,-3.6,-2.32,231,273,216,460,344,20
413,0.16,0.81,0.57,-0.06,-3.6,-2.32,221,272,215,464,337,20
414,0.17,0.81,0.57,0.61,-3.48,-1.46,221,274,228,469,337,20
415,0.17,0.81,0.57,0.85,-2.75,-3.42,225,274,219,460,341,20
416,0.18,0.81,0.57,0.98,-3.97,-2.2,224,273,218,461,341,20
417,0.14,0.81,0.57,-2.38,1.28,-7.39,222,274,217,465,337,20
418,0.17,0.82,0.57,-0.49,-2.87,-3.11,225,272,218,462,343,20
419,0.17,0.81,0.57,1.16,-4.58,-2.2,223,274,217,464,343,20
420,0.17,0.81,0.57,0.98,-1.65,2.26,237,271,215,466,340,20
421,0.18,0.82,0.57,0.12,-3.97,-3.11,222,273,217,461,340,20
422,0.17,0.8,0.57,3.23,-5.13,-2.93,223,270,223,464,338,20
423,0.19,0.82,0.55,-0.67,-3.97,-2.08,221,272,217,461,341,20
424,0.21,0.81,0.55,0.31,-3.17,-2.75,219,270,217,468,335,20
425,0.2,0.81,0.55,1.16,-2.81,-3.48,223,271,216,465,339,20
426,0.19,0.8,0.56,1.4,-3.48,-2.01,222,271,215,467,337,20
427,0.2,0.81,0.55,0.31,-1.89,-3.6,224,271,214,464,338,20
428,0.19,0.81,0.56,0.18,-2.56,-2.56,225,266,219,468,335,20
429,0.21,0.86,0.54,2.26,-2.2,-0.06,220,271,217,464,340,20
430,0.18,0.81,0.55,-0.24,-2.2,-5.07,224,271,216,464,334,20
431,0.18,0.82,0.56,0.61,-3.3,-0.73,222,272,217,472,340,20
432,0.2,0.81,0.55,0.43,-2.01,-2.99,225,272,221,463,337,20
433,0.19,0.82,0.56,0.79,-2.62,-3.11,220,273,215,468,340,20
434,0.2,0.78,0.56,1.83,7.2,-12.21,222,272,216,461,338,20
435,0.19,0.76,0.56,-1.95,-1.65,-3.23,223,272,219,470,342,20
436,0.19,0.78,0.55,-4.76,-0.55,-9.22,222,271,217,465,341,20
437,0.19,0.81,0.55,2.75,-13.98,8.18,223,270,215,465,340,20
438,0.24,0.76,0.55,-1.28,-1.22,-4.09,223,269,219,467,337,20
439,0.24,0.82,0.54,-0.67,-5.49,0.18,225,276,216,465,338,20
440,0.28,0.81,0.54,2.38,-1.46,-5.0,224,270,218,465,338,20
441,0.25,0.82,0.55,1.53,-3.23,-2.56,224,273,215,465,340,20
442,0.28,0.71,0.57,4.82,-1.53,-3.42,223,272,216,464,341,20
443,0.23,0.86,0.55,-2.69,-3.11,-5.8,222,270,221,473,338,20
444,0.25,0.84,0.55,1.71,-5.86,-0.79,225,273,215,460,341,20
445,0.29,0.72,0.55,4.88,-2.5,-3.23,223,273,218,464,340,20
446,0.24,0.84,0.55,1.65,-4.15,-7.14,224,273,220,464,339,20
447,0.29,0.86,0.54,-0.98,-1.77,-2.01,222,274,217,471,339,20
448,0.28,0.79,0.58,-5.0,2.99,-0.06,223,268,219,460,338,20
449,0.21,0.81,0.56,3.91,0.06,-19.59,222,268,219,466,339,20
450,0.26,0.8,0.58,0.06,3.11,-10.93,220,270,214,465,338,20
451,0.3,0.77,0.54,0.31,11.72,-14.16,220,269,222,463,338,20
452,0.23,0.78,0.52,-1.04,-5.86,4.46,225,279,215,468,339,20
453,0.18,0.93,0.56,-37.78,27.22,-36.32,222,271,217,465,340,20
454,0.32,0.78,0.49,3.72,-10.74,-8.97,222,268,217,468,341,20
455,0.18,0.78,0.57,6.04,6.65,-10.31,223,273,220,468,341,20
456,0.15,0.9,0.64,14.65,3.48,-2.26,221,273,220,465,339,20
457,0.17,0.72,0.55,-16.85,-5.31,-3.48,235,272,217,467,336,20
458,0.31,0.83,0.65,-18.19,11.54,-11.54,221,270,220,465,342,20
459,0.19,0.8,0.72,34.55,-17.64,11.78,224,273,220,462,337,20
460,0.18,0.72,0.59,-0.73,4.76,-14.83,225,268,215,461,337,20
461,0.05,0.82,0.65,-3.54,8.48,-23.62,221,273,219,464,339,20
462,0.06,0.8,0.64,-1.28,-8.06,0.85,225,268,217,470,342,20
463,0.09,0.77,0.63,-0.67,-4.39,-1.95,230,273,216,464,341,20
464,0.03,0.78,0.61,-1.22,-2.93,0.85,218,273,215,464,344,20
465,0.07,0.79,0.63,3.42,-6.9,-0.85,221,273,216,459,338,20
466,0.08,0.78,0.61,-0.49,-2.38,2.08,224,273,219,464,338,20
467,0.1,0.79,0.61,3.05,-5.19,-1.16,223,269,218,465,340,20
468,0.1,0.81,0.59,0.37,-0.67,-11.23,224,271,220,465,341,20
469,-0.01,0.79,0.66,-6.47,8.97,12.39,238,271,220,462,340,20
470,0.11,0.74,0.6,5.43,-11.96,11.54,222,273,221,461,343,20
471,0.15,0.82,0.61,1.4,-5.74,-11.84,224,275,219,467,336,20
472,0.12,0.79,0.61,1.53,-0.18,-3.78,222,273,217,460,342,20
473,0.09,0.79,0.59,-1.4,-3.91,-2.26,224,272,220,465,341,20
474,0.12,0.79,0.61,0.18,-2.93,-2.01,223,271,221,468,340,20
475,0.1,0.78,0.62,2.93,-2.14,-4.39,222,273,221,462,337,20
476,0.12,0.75,0.59,-4.88,-2.93,3.85,222,270,219,468,345,20
477,0.08,0.79,0.63,4.94,-4.03,-4.7,224,271,219,468,340,20
478,0.14,0.77,0.61,-7.26,-11.23,3.05,220,274,215,468,340,20
479,0.26,0.85,0.61,9.77,-2.2,-7.57,221,271,220,465,340,20
480,0.15,0.75,0.67,-2.38,7.81,-14.4,222,268,221,462,341,20
481,0.19,0.89,0.68,12.94,-0.55,-1.89,224,273,213,462,341,20
482,0.11,1.0,0.72,18.31,-8.61,23.99,222,274,218,459,342,20
483,0.22,0.78,0.6,1.22,0.0,-2.99,223,270,216,463,340,20
484,0.23,0.76,0.59,-3.6,-1.1,-5.92,223,276,214,468,338,20
485,0.26,0.75,0.59,2.75,-8.24,-1.95,219,272,220,467,340,20
486,0.19,0.8,0.63,-2.2,5.55,-9.03,221,272,218,467,340,20
487,0.17,0.78,0.62,2.14,-3.78,0.06,223,276,218,473,342,20
488,0.26,0.72,0.58,-1.95,0.55,-0.43,222,272,217,465,339,20
489,0.22,0.76,0.61,3.66,-6.59,-1.77,223,275,220,459,343,20
490,0.22,0.77,0.6,0.49,-4.64,-2.08,222,269,217,469,341,20
491,0.23,0.77,0.61,1.46,-4.09,0.85,222,273,220,459,342,20
492,0.26,0.77,0.59,-0.12,-7.08,-4.15,224,273,218,468,339,20
493,0.21,0.77,0.6,0.31,-4.58,-0.49,222,269,218,465,340,20
494,0.21,0.8,0.59,-0.67,-2.44,-6.35,228,270,219,465,342,20
495,0.28,0.77,0.59,-2.75,-2.87,-3.05,224,272,218,464,341,20
496,0.2,0.79,0.6,-1.83,-0.12,-5.0,221,272,218,469,338,20
497,0.23,0.77,0.59,-1.83,-4.39,-3.91,223,278,219,465,339,20
498,0.21,0.77,0.6,0.0,2.62,-10.19,221,274,216,464,341,20
499,0.21,0.76,0.59,15.38,-4.52,-2.56,222,271,217,465,343,20
500,0.21,0.71,0.51,9.22,-6.96,-7.08,223,272,215,459,342,20
501,0.22,0.9,0.6,-3.3,3.23,-9.83,223,277,217,467,340,20
502,0.18,0.82,0.6,-1.46,1.04,-9.03,227,272,218,466,343,20
503,0.21,0.8,0.6,2.75,-4.15,-4.03,224,273,218,463,342,20
504,0.39,0.8,0.37,4.03,-34.42,-23.32,229,250,186,458,346,20
505,0.4,0.84,0.42,20.32,-2.93,-12.15,225,258,186,453,337,20
506,0.33,0.83,0.35,-12.27,-48.03,16.91,229,252,186,449,327,20
507,0.44,0.9,0.35,20.51,2.26,-12.57,226,253,185,445,328,20
508,0.27,0.86,0.18,-8.24,-27.16,-20.2,231,254,182,457,334,20
509,0.25,0.98,0.29,0.37,-8.06,-13.98,231,251,182,447,332,20
510,0.23,0.92,0.29,1.16,-0.92,-1.46,233,253,182,452,335,20
511,0.22,0.91,0.32,1.95,0.37,-2.2,230,252,185,459,334,20
512,0.27,0.92,0.29,-3.97,2.81,-6.53,232,254,184,452,337,20
513,0.22,0.94,0.29,7.51,3.48,-2.26,233,254,183,442,330,20
514,0.21,0.96,0.26,0.06,-7.51,0.73,214,245,180,468,332,20
515,0.21,0.92,0.24,8.42,-2.14,-3.97,215,248,189,455,345,20
516,0.22,0.94,0.26,-7.32,-3.91,-5.62,215,245,180,448,332,20
517,0.24,0.93,0.28,-9.22,-5.86,-5.98,220,248,176,453,336,20
518,0.21,0.9,0.3,2.32,-11.47,2.93,223,244,181,451,351,20
519,0.23,0.97,0.29,5.86,-1.22,-7.02,218,248,172,450,337,20
520,0.21,1.07,0.4,22.95,-0.85,-4.27,231,252,183,446,341,20
521,0.05,1.18,0.28,5.43,3.42,19.84,228,246,185,450,341,20
522,0.25,0.64,0.2,3.23,-11.41,2.69,223,254,188,450,341,20
523,0.15,0.97,0.19,0.85,4.03,-34.0,226,255,186,454,338,20
524,0.23,1.05,0.34,12.7,-9.09,3.36,225,254,178,457,344,20
525,0.19,0.93,0.22,-4.46,1.34,-0.43,229,252,184,450,338,20
526,0.2,0.95,0.24,-3.72,-3.54,2.56,224,252,182,458,341,20
527,0.23,0.94,0.24,2.32,3.42,2.14,228,251,191,449,346,20
528,0.24,0.94,0.23,1.59,-2.01,-1.71,227,249,189,457,346,20
529,0.26,0.93,0.23,2.93,-1.22,-1.28,227,255,186,448,345,20
530,0.25,0.96,0.23,5.68,1.16,-2.5,227,256,187,451,345,20
531,0.29,0.93,0.23,-2.14,-7.39,-7.26,230,255,188,447,347,20
532,0.25,0.94,0.28,-0.31,-6.9,-10.44,226,254,187,451,339,20
533,0.25,0.96,0.27,9.95,-2.62,-2.93,229,252,190,449,345,20
534,0.25,0.93,0.25,-6.53,-9.52,-2.2,227,251,189,449,344,20
535,0.26,0.92,0.26,0.55,-4.82,-2.69,223,256,177,449,344,20
536,0.28,0.91,0.25,-2.26,-4.39,-1.65,227,250,186,440,341,20
537,0.25,0.94,0.27,-0.67,2.62,-2.26,235,248,184,455,346,20
538,0.25,0.92,0.29,3.23,-4.21,0.18,219,253,182,460,343,20
539,0.25,0.92,0.26,2.81,-0.98,-1.89,221,256,194,454,344,20
540,0.27,0.93,0.26,1.4,-3.54,-1.65,226,245,184,451,344,20
541,0.27,0.93,0.25,-0.79,-3.48,-2.81,222,254,190,452,340,20
542,0.27,0.94,0.25,2.32,-1.65,-3.36,222,252,185,455,344,20
543,0.27,0.92,0.24,0.49,-2.93,-2.5,235,254,181,453,349,20
544,0.27,0.92,0.25,0.73,-3.11,-2.81,223,254,186,453,346,20
545,0.26,0.93,0.25,-1.89,-3.48,-2.44,224,255,189,453,343,20
546,0.27,0.94,0.25,0.61,-3.48,-1.28,226,253,192,452,345,20
547,0.27,0.93,0.25,0.18,-3.05,-2.38,225,246,189,453,347,20
548,0.27,0.93,0.25,0.24,-2.69,-1.89,225,255,187,453,352,20
549,0.27,0.93,0.25,-0.43,-1.83,-1.59,218,254,190,451,346,20
550,0.27,0.92,0.24,1.77,-3.36,-2.14,223,257,192,454,350,20
551,0.27,0.92,0.25,-1.34,-4.15,-2.69,228,243,188,452,348,20
552,0.28,0.93,0.25,0.98,-3.66,-1.59,227,253,191,454,352,20
553,0.29,0.92,0.25,-2.56,-3.05,-2.99,224,250,193,454,352,20
554,0.27,0.92,0.25,3.3,-1.28,-4.21,224,256,189,455,344,20
555,0.26,0.94,0.26,0.49,-6.59,-4.21,229,258,192,455,347,20
556,0.27,0.93,0.26,2.44,-1.4,-4.94,230,251,187,443,350,20
557,0.29,0.87,0.26,-1.89,-7.75,-2.75,220,255,194,447,351,20
558,0.27,0.89,0.34,-4.76,-12.88,-7.02,225,255,192,455,351,20
559,0.24,0.91,0.33,-3.72,-7.2,-4.03,257,254,177,451,345,20
560,0.29,0.89,0.34,-0.55,-6.47,-6.41,227,261,193,456,347,20
561,0.24,0.89,0.36,-3.54,15.14,0.67,227,253,191,456,347,20
562,0.26,0.91,0.34,-2.99,6.53,-1.4,220,256,196,455,348,20
563,0.23,0.87,0.4,-0.24,-0.73,6.47,228,255,181,459,348,20
564,0.28,0.94,0.37,-2.08,-10.56,-9.7,232,252,181,461,349,20
565,0.22,0.9,0.4,-0.49,-1.16,2.32,229,253,188,456,350,20
566,0.18,0.93,0.45,10.74,30.15,-19.35,227,257,188,456,349,20
567,0.26,0.83,0.39,-1.83,-4.21,0.79,225,254,189,456,346,20
568,0.23,0.92,0.42,0.06,2.5,-2.2,226,254,183,455,351,20
569,0.25,0.9,0.39,6.1,-1.1,0.67,230,255,194,459,349,20
570,0.28,0.87,0.37,5.07,-5.86,-0.06,224,257,189,454,348,20
571,0.26,0.85,0.37,-3.42,-5.92,-5.68,225,255,193,456,351,20
572,0.26,0.9,0.39,3.48,-5.68,-6.53,225,256,187,455,349,20
573,0.24,0.92,0.37,-5.92,-1.16,-4.76,227,256,193,455,348,20
574,0.27,0.91,0.39,8.48,1.4,-1.1,224,257,187,454,351,20
575,0.25,0.89,0.38,-0.85,-0.92,-1.16,225,252,190,459,351,20
576,0.3,0.87,0.36,-6.59,-7.57,3.78,229,256,196,450,351,20
577,0.28,0.92,0.41,-3.3,1.95,-0.24,231,254,192,460,350,20
578,0.23,0.89,0.4,-8.54,-5.74,-4.94,231,262,192,455,352,20
579,0.27,0.9,0.42,-4.7,1.89,-3.36,226,254,194,451,351,20
580,0.28,0.86,0.45,4.7,2.5,4.7,223,252,194,459,353,20
581,0.28,0.84,0.44,-5.92,-7.57,-11.35,225,256,191,459,352,20
582,0.3,0.88,0.43,8.79,-4.03,0.18,229,270,196,455,353,20
583,0.23,0.9,0.4,0.0,-0.24,-9.95,229,255,192,455,352,20
584,0.21,0.97,0.41,-10.13,-1.53,-0.24,229,253,183,450,354,20
585,0.21,0.9,0.44,3.36,-6.53,-1.89,226,255,194,461,354,20
586,0.23,0.78,0.49,-6.04,-4.88,-3.17,227,252,191,459,354,20
587,0.23,0.76,0.47,7.45,1.89,-5.31,228,251,193,454,350,20
588,0.24,0.82,0.47,10.5,1.22,3.97,230,257,196,455,350,20
589,0.28,0.81,0.42,-8.61,-8.36,-1.1,227,260,193,456,352,20
590,0.24,0.83,0.4,-20.08,-14.16,-1.34,232,255,201,452,347,20
591,0.26,0.89,0.54,3.3,2.38,-6.35,230,253,192,455,349,20
592,0.28,0.92,0.53,6.71,-11.54,1.4,229,253,194,450,354,20
593,0.28,0.88,0.46,0.79,9.4,-3.72,227,260,189,460,353,20
594,0.29,0.85,0.48,6.16,-5.43,-3.36,231,260,196,455,353,20
595,0.27,0.78,0.43,7.14,-3.6,-9.34,227,255,196,454,351,20
596,0.27,0.95,0.42,-3.54,-1.34,-3.17,231,260,192,454,345,20
597,0.32,1.01,0.44,5.86,11.78,-10.99,224,255,194,453,350,20
598,0.22,0.86,0.44,2.81,-3.17,0.12,231,255,195,453,350,20
599,0.26,0.88,0.4,2.62,-3.3,2.44,222,257,195,451,353,20
600,0.34,1.0,0.43,10.74,8.18,-7.63,232,258,196,452,351,20
601,0.27,0.88,0.38,-10.68,-9.28,-6.59,232,255,194,449,352,20
602,0.29,0.89,0.41,-3.6,-0.79,-6.65,231,257,193,448,353,20
603,0.27,0.83,0.43,3.3,-4.82,-6.77,231,255,198,448,349,20
604,0.29,0.87,0.38,2.87,0.67,-4.94,232,256,197,449,343,20
605,0.26,0.95,0.43,-1.34,8.48,-13.85,226,259,186,453,345,20
606,0.28,0.88,0.38,-1.22,-2.93,3.42,235,256,202,453,347,20
607,0.31,0.84,0.39,-2.99,-13.79,-11.84,238,259,196,450,352,20
608,0.26,0.82,0.48,-1.59,-5.98,7.51,230,256,201,457,352,20
609,0.27,0.87,0.44,-5.62,7.32,0.73,223,271,195,451,351,20
610,0.26,0.87,0.49,5.55,1.16,3.48,230,258,194,454,355,20
611,0.26,0.79,0.45,2.32,-13.31,5.74,231,257,196,450,349,20
612,0.29,0.87,0.48,1.89,-2.5,-1.4,233,260,202,452,355,20
613,0.28,0.82,0.49,1.22,-1.71,-6.96,232,258,199,457,349,20
614,0.28,0.8,0.48,0.24,-7.63,-4.58,231,251,196,453,352,20
615,0.32,0.86,0.47,-10.38,-8.18,-1.04,233,262,196,450,354,20
616,0.26,0.93,0.52,26.25,18.55,2.01,231,274,194,456,356,20
617,0.28,0.82,0.46,8.18,-7.39,2.81,234,261,198,453,353,20
618,0.3,0.86,0.45,0.37,0.18,0.55,233,256,194,449,352,20
619,0.31,0.78,0.44,14.95,2.75,-3.6,229,259,192,454,353,20
620,0.28,0.72,0.42,-3.36,-7.69,-2.14,234,259,197,453,354,20
621,0.3,0.81,0.43,-13.24,-9.16,-8.42,229,258,201,459,352,20
622,0.3,0.82,0.44,0.31,-5.55,-1.16,235,256,195,455,352,20
623,0.27,0.84,0.42,-1.46,1.1,0.06,236,260,200,455,357,20
624,0.28,0.84,0.43,3.6,-1.65,3.91,232,257,196,454,354,20
625,0.3,0.85,0.42,-1.65,-3.78,-0.67,232,261,195,454,349,20
626,0.32,0.84,0.42,4.7,-0.06,-4.58,232,261,198,458,352,20
627,0.29,0.89,0.42,-5.0,-7.69,-4.7,230,261,197,450,354,20
628,0.3,0.88,0.46,-5.31,-11.78,-6.1,234,266,191,449,356,20
629,0.26,0.94,0.44,12.7,2.2,2.87,234,260,199,455,355,20
630,0.35,0.83,0.4,2.14,-5.25,-1.59,231,255,198,454,356,20
631,0.34,0.81,0.39,1.34,-4.15,-1.34,233,270,187,453,354,20
632,0.34,0.82,0.39,2.14,-0.55,0.06,231,258,203,454,350,20
633,0.35,0.86,0.4,0.85,-3.48,-2.99,231,254,200,452,356,20
634,0.35,0.84,0.39,-7.63,-5.74,-8.79,234,261,189,455,353,20
635,0.29,0.91,0.44,-2.2,-1.1,-1.59,234,261,198,452,351,20
636,0.31,0.87,0.45,1.4,-6.16,-3.36,235,258,200,449,355,20
637,0.35,0.81,0.41,-0.98,0.49,-1.28,233,259,193,455,355,20
638,0.36,0.81,0.38,-1.71,-4.27,-0.37,236,262,199,456,358,20
639,0.35,0.8,0.41,-4.46,-4.09,-9.77,231,255,199,449,354,20
640,0.32,0.86,0.44,10.68,-1.83,1.34,234,258,202,455,355,20
641,0.29,0.85,0.42,-5.92,-8.0,-3.17,235,258,193,458,360,20
642,0.35,0.94,0.5,-6.23,1.16,-2.99,236,259,198,458,358,20
643,0.32,0.83,0.44,-0.92,-2.38,-0.31,232,259,202,458,357,20
644,0.33,0.81,0.44,0.37,-2.69,-1.22,234,263,202,453,354,20
645,0.34,0.83,0.43,-1.46,2.5,-6.59,227,257,195,452,350,20
646,0.33,0.84,0.45,-1.04,-1.34,-6.16,233,258,201,453,353,20
647,0.26,0.83,0.44,-0.79,-3.85,-3.78,235,260,197,455,357,20
648,0.3,0.85,0.45,0.24,-4.33,-3.48,232,259,196,455,353,20
649,0.3,0.83,0.43,2.38,-2.75,0.73,237,258,197,457,354,20
650,0.32,0.82,0.41,-6.41,-2.26,-4.94,232,258,199,456,357,20
651,0.34,0.83,0.43,-5.86,-10.19,-2.62,234,252,200,454,354,20
652,0.37,0.86,0.42,3.54,1.1,-3.78,240,258,198,443,354,20
653,0.37,0.83,0.45,-10.56,-4.09,0.98,237,256,199,456,358,20
654,0.35,0.77,0.46,0.06,-8.91,3.23,233,258,201,455,355,20
655,0.34,0.83,0.48,2.26,-5.43,-8.36,232,258,199,452,358,20
656,0.39,0.81,0.44,7.75,3.6,-2.56,232,258,196,458,356,20
657,0.37,0.75,0.42,-2.75,-10.25,1.34,232,260,201,454,359,20
658,0.39,0.8,0.44,3.6,2.26,0.73,223,252,202,455,356,20
659,0.36,0.8,0.42,-9.83,-13.06,-14.16,233,255,199,449,356,20
660,0.28,0.82,0.44,-3.66,-3.36,1.34,235,261,197,454,357,20
661,0.26,0.96,0.48,-4.52,-0.18,3.91,237,257,204,450,358,20
662,0.35,0.84,0.46,1.77,1.1,1.4,233,252,199,455,360,20
663,0.34,0.79,0.46,-7.39,2.01,-5.98,232,262,199,457,357,20
664,0.3,0.85,0.49,3.17,-2.69,2.62,229,261,200,452,353,20
665,0.3,0.79,0.47,0.24,-7.39,-3.91,239,263,199,452,358,20
666,0.34,0.86,0.47,6.23,0.37,0.24,236,255,196,458,354,20
667,0.33,0.8,0.41,0.0,-7.69,-4.15,233,259,199,456,356,20
668,0.33,0.82,0.49,-4.46,-4.09,-1.16,233,256,200,455,356,20
669,0.4,0.79,0.47,5.43,-6.77,-3.23,231,262,200,455,358,20
670,0.34,0.84,0.45,-3.3,-2.5,-3.54,230,264,203,457,354,20
671,0.36,0.83,0.46,-1.53,-3.78,-2.69,232,252,204,456,357,20
672,0.34,0.83,0.44,1.04,-0.73,-2.5,234,262,203,455,359,20
673,0.36,0.83,0.45,0.43,-1.16,-1.95,233,260,200,448,354,20
674,0.35,0.83,0.45,0.24,-3.85,-1.95,236,260,201,449,354,20
675,0.36,0.82,0.44,-0.43,-2.26,-2.2,231,254,199,449,357,20
676,0.36,0.83,0.45,0.98,-2.08,-3.23,229,257,205,455,353,20
677,0.36,0.82,0.44,-0.31,-2.56,-2.38,235,257,198,458,354,20
678,0.36,0.82,0.44,0.43,-2.56,-2.93,235,257,203,455,356,20
679,0.36,0.83,0.45,-0.06,-3.23,-1.77,233,261,197,448,358,20
680,0.36,0.82,0.45,0.0,-3.11,-2.62,230,260,203,454,358,20
681,0.36,0.82,0.45,0.55,-2.14,-2.87,230,260,199,451,354,20
682,0.37,0.82,0.45,1.04,-2.2,-2.69,232,260,202,451,356,20
683,0.37,0.82,0.45,0.31,-4.39,-2.62,253,258,200,458,357,20
684,0.36,0.82,0.47,0.18,-1.22,-4.03,241,256,199,450,357,20
685,0.36,0.82,0.44,1.22,-2.93,-1.65,234,261,200,458,355,20
686,0.37,0.82,0.45,-0.85,-3.78,-3.05,233,257,202,456,356,20
687,0.37,0.82,0.46,0.79,-1.83,-2.87,234,255,202,454,359,20
688,0.37,0.82,0.45,-0.49,-3.3,-2.2,235,257,205,458,359,20
689,0.36,0.81,0.43,0.43,-2.08,-1.77,234,260,197,457,358,20
690,0.36,0.81,0.46,0.92,-3.17,-2.69,232,259,203,456,360,20
691,0.37,0.81,0.45,2.14,-0.12,-2.01,236,263,201,454,360,20
692,0.35,0.82,0.45,2.2,-2.99,-3.05,232,256,197,450,357,20
693,0.39,0.81,0.46,0.12,-2.62,-1.71,234,258,198,450,356,20
694,0.37,0.82,0.45,2.26,-2.5,-2.93,234,255,200,448,358,20
695,0.37,0.82,0.45,0.55,-2.2,-3.11,234,257,202,452,356,20
696,0.37,0.82,0.45,-0.73,-2.08,-1.34,263,254,196,450,359,20
697,0.38,0.83,0.45,0.0,-1.71,-2.38,233,259,196,457,356,20
698,0.37,0.82,0.45,-1.71,-3.72,-3.97,240,262,202,453,357,20
699,0.37,0.82,0.43,-0.12,-2.69,-1.83,257,261,203,449,358,20
700,0.38,0.81,0.45,-0.43,-2.62,-2.38,231,261,198,467,357,20
701,0.37,0.84,0.44,-6.59,-5.37,0.12,237,261,199,456,360,20
702,0.38,0.81,0.45,2.01,-3.23,-2.62,239,262,198,458,360,20
703,0.37,0.81,0.45,1.22,-3.48,-3.85,236,259,199,456,356,20
704,0.35,0.83,0.46,5.0,0.0,-2.81,232,257,201,454,353,20
705,0.36,0.82,0.44,-1.16,-2.87,-4.03,229,263,189,457,360,20
706,0.35,0.83,0.45,-0.31,8.18,-11.9,234,257,199,454,355,20
707,0.31,0.84,0.45,1.53,-5.07,-2.38,237,258,208,456,357,20
708,0.34,0.83,0.44,0.79,-2.81,-3.42,232,256,204,448,356,20
709,0.33,0.84,0.43,-1.71,-3.72,-2.69,268,263,203,454,359,20
710,0.34,0.83,0.43,0.18,-3.97,-2.14,232,261,198,456,357,20
711,0.33,0.84,0.45,0.37,-3.05,-3.78,234,257,202,467,355,20
712,0.33,0.83,0.43,-1.04,-2.56,-3.11,235,257,203,451,356,20
713,0.36,0.83,0.44,-1.22,-3.85,-3.91,236,260,201,453,354,20
714,0.33,0.84,0.45,1.46,-2.2,-2.62,244,262,190,455,356,20
715,0.35,0.84,0.45,-7.26,-9.64,-5.92,228,258,199,457,359,20
716,0.35,0.84,0.44,-1.1,-6.41,-3.66,231,260,201,454,359,20
717,0.33,0.84,0.46,-3.91,-3.6,-4.27,229,262,193,456,358,20
718,0.36,0.81,0.45,-1.4,-4.64,-4.94,237,261,203,453,357,20
719,0.32,0.81,0.46,-3.36,-3.48,-1.71,232,256,209,453,359,20
720,0.33,0.81,0.45,0.06,-2.99,-2.5,235,257,206,454,357,20
721,0.32,0.84,0.47,1.53,1.46,-0.67,233,260,198,451,354,20
722,0.34,0.84,0.45,-0.37,-4.64,-3.42,236,260,197,456,357,20
723,0.35,0.82,0.45,-1.34,-3.78,-1.83,231,260,202,453,358,20
724,0.34,0.83,0.47,-0.67,-3.85,-2.14,233,262,202,448,359,20
725,0.37,0.8,0.46,-0.24,-5.19,-3.23,244,261,205,449,355,20
726,0.35,0.81,0.45,-1.71,-4.7,-3.36,236,260,192,452,355,20
727,0.35,0.82,0.46,-0.18,0.0,-2.08,230,262,196,451,359,20
728,0.32,0.8,0.44,0.12,-3.85,-2.08,236,258,194,455,358,20
729,0.34,0.8,0.46,-1.83,-3.11,-2.32,229,259,200,457,360,20
730,0.37,0.84,0.41,8.91,-5.92,0.31,235,265,202,455,357,20
731,0.41,0.82,0.45,-10.31,0.43,-7.63,234,263,204,457,355,20
732,0.33,0.85,0.5,5.37,6.23,-4.33,230,260,202,453,357,20
733,0.32,0.81,0.47,2.99,-0.24,0.79,230,264,200,458,360,20
734,0.32,0.83,0.48,3.05,0.61,-3.05,240,262,193,456,359,20
735,0.35,0.79,0.46,-6.41,-4.15,-1.71,238,257,202,452,361,20
736,0.29,0.8,0.47,0.43,-0.18,-7.08,245,261,204,454,357,20
737,0.29,0.81,0.49,-0.98,0.0,-4.46,235,264,203,450,354,20
738,0.28,0.82,0.5,5.92,-2.08,2.56,238,257,199,454,356,20
739,0.27,0.79,0.46,-6.29,-3.66,-0.92,229,254,202,455,358,20
740,0.33,0.77,0.52,-5.31,-5.55,4.39,235,263,200,451,354,20
741,0.3,0.83,0.53,-5.68,-0.61,-3.6,235,262,204,453,357,20
742,0.31,0.81,0.56,-7.14,-9.77,-4.15,234,263,204,449,357,20
743,0.32,0.78,0.55,3.23,1.83,-5.86,240,266,199,454,356,20
744,0.29,0.8,0.55,16.17,-13.37,-0.61,235,262,201,449,356,20
745,0.33,0.8,0.51,6.59,4.52,-3.6,235,255,204,454,356,20
746,0.23,0.85,0.5,-1.1,-3.05,0.12,235,258,204,453,359,20
747,0.31,0.84,0.47,1.04,1.34,-7.57,235,258,198,450,355,20
748,0.29,0.79,0.45,4.21,-2.81,5.49,238,260,201,455,354,20
749,0.31,0.82,0.45,-7.87,-13.85,0.67,237,260,201,443,356,20
750,0.31,0.77,0.47,-0.31,-0.55,-2.14,238,259,201,450,357,20
751,0.29,0.81,0.48,-1.1,-8.06,-3.42,245,255,195,457,356,20
752,0.27,0.88,0.5,1.04,-2.87,-0.37,233,262,202,453,353,20
753,0.31,0.89,0.48,2.99,-2.26,-6.35,231,256,202,457,354,20
754,0.32,0.81,0.46,-3.72,-5.86,-3.36,233,261,204,458,361,20
755,0.35,0.82,0.45,2.26,4.7,1.53,238,262,208,448,357,20
756,0.33,0.82,0.47,-8.61,2.14,-1.53,236,260,207,456,358,20
757,0.32,0.83,0.5,2.38,-5.19,-2.69,234,258,205,455,356,20
758,0.33,0.8,0.49,-5.37,-9.34,-4.52,234,260,203,451,358,20
759,0.34,0.83,0.5,5.49,-7.14,-1.65,233,259,201,451,357,20
760,0.34,0.79,0.45,-6.59,-3.66,-4.52,234,264,208,456,360,20
761,0.37,0.84,0.49,3.23,1.53,1.83,233,257,202,451,360,20
762,0.34,0.79,0.48,-1.16,-1.89,-3.85,236,257,203,454,359,20
763,0.33,0.8,0.49,3.17,1.4,-2.26,237,257,202,457,360,20
764,0.32,0.82,0.48,3.48,5.0,0.12,238,259,204,458,359,20
765,0.32,0.84,0.48,-2.87,-3.72,-3.36,235,262,204,455,362,20
766,0.32,0.79,0.49,2.62,0.73,-1.04,238,262,200,452,360,20
767,0.35,0.84,0.49,6.1,-1.77,-4.52,236,264,201,455,363,20
768,0.34,0.85,0.52,-0.98,-1.95,-7.2,233,263,204,452,354,20
769,0.31,0.8,0.5,-0.12,-6.41,-2.93,235,257,214,449,358,20
770,0.31,0.82,0.49,1.53,-0.12,-1.59,235,266,204,456,361,20
771,0.34,0.84,0.52,-1.95,-0.92,-2.26,235,263,202,462,355,20
772,0.31,0.82,0.51,1.89,-0.31,-2.08,235,269,206,454,358,20
773,0.3,0.8,0.51,5.55,-1.59,-2.38,234,261,205,456,358,20
774,0.31,0.78,0.47,0.18,-2.56,-3.72,234,261,202,457,361,20
775,0.33,0.82,0.48,-1.4,-3.85,-3.42,236,262,203,453,358,20
776,0.35,0.79,0.49,-3.78,-1.53,-0.73,238,259,199,454,357,20
777,0.32,0.82,0.54,-4.21,-2.5,-4.15,231,260,196,455,358,20
778,0.3,0.83,0.55,4.82,-4.39,-5.13,233,261,199,460,360,20
779,0.3,0.8,0.52,5.62,-1.16,-2.62,237,262,207,451,359,20
780,0.31,0.76,0.48,3.11,-4.7,-1.46,235,259,204,454,358,20
781,0.29,0.84,0.49,1.46,-1.59,-1.4,235,260,204,450,356,20
782,0.33,0.83,0.51,-3.66,-3.11,-4.76,237,269,205,455,360,20
783,0.35,0.79,0.5,-7.32,-5.13,-4.39,234,257,203,452,359,20
784,0.32,0.78,0.51,-2.32,-4.82,-5.49,234,260,200,457,357,20
785,0.33,0.8,0.51,-0.18,-3.66,-2.2,238,264,204,455,360,20
786,0.33,0.79,0.51,-1.65,-4.58,-3.36,239,261,199,451,359,20
787,0.33,0.79,0.51,1.46,-3.6,-3.17,236,256,201,453,356,20
788,0.33,0.77,0.49,0.73,-4.88,-5.25,238,261,204,450,366,20
789,0.32,0.81,0.52,0.73,-3.78,-2.01,235,261,199,458,356,20
790,0.32,0.81,0.51,1.4,-3.91,-4.52,235,261,205,453,363,20
791,0.34,0.82,0.5,-2.08,-4.7,-4.33,233,257,199,453,362,20
792,0.32,0.83,0.52,6.23,-1.04,-4.88,239,260,207,456,362,20
793,0.32,0.8,0.49,5.07,1.4,-5.07,234,260,201,459,356,20
794,0.29,0.81,0.5,-1.22,-6.16,-2.2,238,262,202,454,358,20
795,0.33,0.79,0.5,1.16,-1.89,-0.85,271,260,203,454,355,20
796,0.3,0.81,0.52,-0.43,-2.81,-1.04,237,261,207,449,354,20
797,0.32,0.83,0.52,6.16,2.69,0.98,237,259,194,453,362,20
798,0.3,0.8,0.49,-1.16,-0.31,-1.16,241,264,208,453,359,20
799,0.27,0.82,0.5,-2.14,-5.31,-0.67,231,261,204,449,359,20
800,0.35,0.76,0.49,2.01,-3.17,-1.65,237,257,204,453,356,20
801,0.35,0.79,0.49,5.86,-0.92,-2.08,238,258,200,454,360,20
802,0.35,0.81,0.47,5.31,0.06,-2.62,237,259,203,447,359,20
803,0.32,0.82,0.47,0.61,-5.19,-1.77,251,263,203,455,355,20
804,0.35,0.82,0.46,1.1,-5.62,-3.48,238,254,201,456,358,20
805,0.36,0.81,0.46,-0.98,-3.85,-2.44,240,259,205,455,359,20
806,0.37,0.81,0.46,-3.54,-3.78,-4.39,236,261,196,451,356,20
807,0.36,0.81,0.48,0.85,-1.65,-1.59,242,263,204,457,360,20
808,0.35,0.81,0.48,-1.65,-4.64,-3.11,240,263,197,453,357,20
809,0.36,0.8,0.48,-1.22,-3.72,-2.2,242,262,202,455,360,20
810,0.35,0.79,0.49,-0.67,-3.11,-3.72,241,261,200,452,359,20
811,0.35,0.79,0.49,2.75,-3.36,-3.05,252,262,200,454,358,20
812,0.34,0.81,0.47,1.22,-1.4,-2.26,243,259,204,453,361,20
813,0.36,0.8,0.48,-1.53,-2.2,-2.44,241,260,205,458,360,20
814,0.35,0.81,0.49,-0.79,-2.81,-3.17,241,260,200,457,357,20
815,0.35,0.8,0.49,0.0,-2.5,-1.95,243,260,202,459,358,20
816,0.33,0.82,0.51,-1.65,-4.58,-3.66,243,257,204,454,358,20
817,0.35,0.81,0.5,0.24,-3.66,-3.05,240,261,202,454,359,20
818,0.32,0.82,0.5,-2.26,-3.91,-3.42,238,261,205,455,360,20
819,0.34,0.8,0.51,-0.98,-3.17,-3.23,249,257,203,449,359,20
820,0.33,0.81,0.5,2.56,-2.69,-2.81,238,252,201,458,359,20
821,0.32,0.8,0.51,2.01,-2.38,-2.5,237,261,205,452,360,20
822,0.33,0.8,0.5,1.34,-2.75,-2.62,237,260,200,459,364,20
823,0.33,0.81,0.5,0.43,-4.03,-3.78,239,261,203,453,357,20
824,0.35,0.8,0.5,0.49,-1.71,-2.69,240,259,201,453,358,20
825,0.34,0.81,0.5,-0.67,-1.34,-2.26,240,260,205,453,357,20
826,0.35,0.78,0.48,-1.16,-3.6,-3.23,247,261,201,455,357,20
827,0.34,0.81,0.5,0.98,-2.08,-2.99,239,264,206,449,361,20
828,0.35,0.8,0.5,2.08,-1.95,-2.5,236,268,209,453,359,20
829,0.33,0.81,0.5,0.73,-2.81,-2.69,237,261,206,453,361,20
830,0.32,0.8,0.5,0.06,-1.95,-1.04,239,261,202,452,360,20
831,0.34,0.8,0.5,-0.49,-3.3,-3.78,239,261,206,452,361,20
832,0.33,0.8,0.5,0.24,-1.95,-2.01,243,258,200,454,355,20
833,0.33,0.8,0.51,-1.22,-3.91,-3.3,241,260,204,454,363,20
834,0.34,0.8,0.51,0.31,-2.87,-2.93,242,261,205,458,360,20
835,0.33,0.8,0.51,-0.12,-3.23,-2.81,241,261,198,454,359,20
836,0.32,0.8,0.51,0.67,-1.71,-2.2,242,261,205,452,359,20
837,0.33,0.8,0.5,1.46,-1.71,-3.17,237,262,200,453,360,20
838,0.32,0.81,0.5,0.24,-2.81,-2.44,238,259,207,453,357,20
839,0.33,0.81,0.51,1.59,-3.36,-4.03,238,258,206,456,360,20
840,0.32,0.8,0.5,0.12,-3.05,-1.65,241,261,205,456,357,20
841,0.33,0.8,0.51,-0.67,-3.3,-2.32,241,263,202,449,356,20
842,0.32,0.8,0.5,0.37,-2.69,-2.44,241,263,200,456,359,20
843,0.31,0.81,0.5,1.4,-1.77,-2.14,238,260,206,454,360,20
844,0.33,0.8,0.5,0.18,-1.53,-1.04,239,263,206,450,358,20
845,0.32,0.81,0.52,-0.55,-2.62,-1.71,240,259,207,458,359,20
846,0.33,0.82,0.51,-3.23,-2.62,-2.81,239,263,209,457,359,20
847,0.32,0.77,0.51,-2.14,-2.08,-0.67,239,257,205,458,359,20
848,0.34,0.77,0.52,-3.54,-3.3,-6.47,239,258,205,449,357,20
849,0.29,0.82,0.53,2.75,0.31,-2.69,239,259,205,456,359,20
850,0.32,0.81,0.53,-2.81,-2.93,-4.03,241,256,202,450,354,20
851,0.37,0.79,0.52,-3.23,-6.41,-3.42,241,259,202,450,355,20
852,0.33,0.78,0.52,-0.98,-0.98,0.85,233,262,208,458,359,20
853,0.32,0.78,0.49,5.31,3.23,-0.49,239,262,204,454,359,20
854,0.32,0.79,0.51,-0.37,-3.85,-1.89,242,262,203,466,359,20
855,0.32,0.8,0.52,1.16,-2.08,-0.55,233,260,202,454,358,20
856,0.33,0.8,0.53,-2.56,-5.74,-3.6,243,259,203,450,359,20
857,0.34,0.79,0.53,-0.55,-4.09,-2.5,239,262,205,455,359,20
858,0.32,0.8,0.52,3.11,-1.28,-3.78,242,265,204,456,359,20
859,0.31,0.79,0.5,1.71,-1.04,-0.49,239,260,203,454,360,20
860,0.33,0.81,0.5,3.42,-1.22,-1.95,238,261,205,447,356,20
861,0.32,0.8,0.5,1.4,-3.54,-1.83,240,258,206,453,361,20
862,0.32,0.8,0.5,-0.79,-3.42,-2.87,240,259,202,446,361,20
863,0.34,0.81,0.5,0.85,-2.93,-4.03,239,253,204,453,361,20
864,0.33,0.82,0.51,0.43,-1.77,-2.69,239,262,203,454,354,20
865,0.33,0.81,0.5,-0.24,-3.42,-3.05,243,261,207,453,358,20
866,0.32,0.81,0.5,-0.06,-3.66,-2.2,242,263,206,461,360,20
867,0.33,0.8,0.5,-0.31,-2.69,-1.34,235,261,201,459,360,20
868,0.32,0.81,0.51,0.92,-3.3,-1.83,239,258,207,454,356,20
869,0.33,0.8,0.51,-0.79,-4.27,-3.36,237,264,201,456,360,20
870,0.34,0.8,0.51,-0.31,-3.42,-3.05,240,260,203,457,357,20
871,0.34,0.8,0.5,-0.85,-3.05,-2.69,234,261,203,456,357,20
872,0.34,0.79,0.51,-0.85,-3.23,-2.2,241,260,207,457,360,20
873,0.34,0.79,0.51,0.31,-2.99,-3.97,248,256,205,458,359,20
874,0.36,0.79,0.52,0.49,-2.08,-2.14,241,257,208,452,360,20
875,0.34,0.79,0.52,-0.67,-2.93,-1.71,241,263,204,450,354,20
876,0.34,0.79,0.52,1.83,-2.75,-2.14,240,258,205,454,360,20
877,0.34,0.79,0.52,-0.06,-3.42,-2.08,241,264,204,457,359,20
878,0.33,0.78,0.52,0.49,-2.69,-2.93,237,258,205,449,358,20
879,0.34,0.79,0.52,0.18,-3.54,-2.44,243,265,205,454,361,20
880,0.35,0.79,0.52,1.1,-3.42,-2.62,237,263,203,458,362,20
881,0.33,0.79,0.51,1.59,-1.71,-2.08,242,257,204,459,360,20
882,0.33,0.8,0.51,2.14,-0.61,-2.5,243,260,202,458,359,20
883,0.34,0.8,0.5,-0.06,-3.91,-2.87,267,264,206,457,362,20
884,0.34,0.81,0.51,0.43,-2.69,-2.99,241,261,203,453,358,20
885,0.34,0.8,0.51,0.55,-3.97,-3.36,242,262,207,455,361,20
886,0.34,0.8,0.51,0.98,-2.87,-2.44,237,262,203,451,362,20
887,0.33,0.8,0.51,-0.37,-3.3,-3.17,234,261,205,458,358,20
888,0.34,0.79,0.51,0.43,-5.86,-2.32,239,264,204,454,359,20
889,0.34,0.8,0.52,1.16,0.31,-1.77,239,258,205,451,358,20
890,0.33,0.8,0.53,2.26,-0.79,-0.18,237,259,201,454,358,20
891,0.35,0.8,0.53,-0.61,-5.19,-4.64,239,265,198,449,362,20
892,0.33,0.78,0.5,-3.91,-5.8,-4.39,240,265,208,466,359,20
893,0.37,0.77,0.47,2.56,-1.22,-3.78,239,256,195,459,357,20
894,0.33,0.81,0.51,2.87,-2.08,-1.89,242,263,204,454,360,20
895,0.32,0.81,0.49,1.16,-1.65,-1.34,243,259,204,450,358,20
896,0.33,0.81,0.5,0.0,-1.28,-2.56,241,264,205,456,360,20
897,0.33,0.81,0.51,-1.04,-5.0,-2.44,241,265,202,453,364,20
898,0.33,0.81,0.51,-1.34,-3.42,-0.85,244,263,206,458,362,20
899,0.36,0.78,0.51,-0.31,-4.03,-3.78,241,259,205,454,358,20
900,0.34,0.8,0.5,3.36,-3.11,0.85,243,263,206,459,359,20
901,0.31,0.66,0.56,6.35,-52.73,33.57,238,259,200,450,356,20
902,0.4,0.77,0.45,7.51,16.3,-13.73,237,259,201,457,356,20
903,0.36,0.83,0.52,2.2,-9.77,-4.52,240,259,204,451,358,20
904,0.42,0.77,0.51,-2.81,-7.14,0.55,239,259,207,453,360,20
905,0.35,0.72,0.52,-7.39,-6.35,-0.18,237,262,201,459,357,20
906,0.33,0.77,0.51,-2.26,-1.89,-0.43,243,263,204,448,361,20
907,0.4,0.81,0.53,1.46,-5.86,-5.37,238,274,205,456,356,20
908,0.33,0.81,0.53,-3.66,-0.18,-6.35,244,262,204,457,358,20
909,0.44,0.78,0.49,1.95,6.35,-2.81,242,263,205,451,360,20
910,0.3,0.95,0.62,-7.87,10.25,-6.84,243,260,202,452,357,20
911,0.25,0.83,0.6,3.6,0.49,-3.23,243,263,207,451,356,20
912,0.4,0.73,0.53,9.52,-20.75,-3.85,240,268,201,454,360,20
913,0.42,0.65,0.54,0.98,12.76,0.24,240,262,207,452,359,20
914,0.18,0.65,0.54,-8.54,11.54,-1.65,240,277,206,452,361,20
915,0.24,0.7,0.59,-2.38,-12.76,14.22,241,259,203,451,360,20
916,0.35,0.62,0.57,-14.47,-29.48,10.44,236,261,207,457,357,20
917,0.15,0.96,0.57,19.65,-50.23,-27.95,241,260,209,456,361,20
918,0.33,0.66,0.66,4.33,6.9,6.16,241,257,207,450,359,20
919,0.07,0.67,0.54,1.71,21.3,17.64,241,262,201,451,360,20
920,0.24,0.83,0.41,-1.16,2.2,-4.39,239,264,212,455,361,20
921,0.28,0.8,0.54,-15.01,-17.4,-6.9,243,262,206,453,369,20
922,0.29,0.82,0.5,2.32,-3.72,0.55,241,262,206,453,358,20
923,0.3,0.82,0.54,-5.31,3.72,-4.03,241,265,204,457,360,20
924,0.31,0.72,0.52,7.51,-4.82,0.49,244,262,205,455,362,20
925,0.29,0.82,0.53,2.5,-1.1,-3.17,241,266,199,452,357,20
926,0.3,0.79,0.54,3.3,-2.2,-1.71,242,261,203,452,362,20
927,0.3,0.81,0.54,1.4,-0.06,-1.59,241,262,204,448,361,20
928,0.33,0.75,0.52,-1.65,-6.1,-0.43,234,261,206,453,360,20
929,0.32,0.79,0.56,-1.95,-4.09,-0.61,242,261,203,448,364,20
930,0.34,0.74,0.54,2.01,-2.32,-2.87,236,263,197,456,358,20
931,0.32,0.78,0.55,1.83,-3.78,-4.76,243,257,206,452,359,20
932,0.32,0.78,0.54,-4.58,-6.16,-5.8,243,265,199,456,363,20
933,0.33,0.79,0.55,1.16,-2.2,-2.69,235,261,200,452,359,20
934,0.31,0.79,0.54,1.28,-3.3,-2.62,240,266,205,452,356,20
935,0.32,0.79,0.54,0.31,-2.81,-2.93,242,262,202,453,359,20
936,0.36,0.75,0.54,0.73,-6.04,-0.79,239,263,206,449,358,20
937,0.31,0.79,0.55,-0.18,-4.7,-5.43,243,265,204,449,361,20
938,0.33,0.75,0.5,-4.33,-9.28,-5.8,244,262,215,455,357,20
939,0.31,0.76,0.53,1.77,-2.14,-2.62,242,261,209,452,359,20
940,0.33,0.78,0.52,-0.37,4.33,-2.01,243,256,209,450,358,20
941,0.38,0.75,0.54,-12.82,-16.72,-8.24,241,260,206,453,360,20
942,0.39,0.81,0.57,2.75,-4.03,-5.49,240,260,204,455,363,20
943,0.37,0.78,0.54,3.72,-3.3,-1.59,241,256,207,448,359,20
944,0.37,0.78,0.53,-0.61,-2.2,-2.32,242,263,212,455,360,20
945,0.36,0.76,0.54,-2.56,-4.58,-2.69,239,262,197,448,364,20
946,0.4,0.75,0.52,5.19,-3.78,-0.79,241,258,209,450,363,20
947,0.35,0.74,0.51,1.04,-10.62,-2.87,231,262,205,450,360,20
948,0.4,0.79,0.46,4.21,-0.49,-1.16,240,271,204,449,359,20
949,0.39,0.84,0.48,-8.42,-3.97,-4.33,240,263,207,455,359,20
950,0.41,0.79,0.48,-5.62,-2.44,-0.55,238,261,199,458,361,20
951,0.37,0.77,0.5,-6.53,-1.83,-1.4,242,263,206,453,362,20
952,0.4,0.73,0.52,1.59,-3.42,-4.82,241,259,205,448,354,20
953,0.35,0.75,0.52,2.26,-3.05,-2.75,245,260,207,457,361,20
954,0.36,0.77,0.52,0.55,-2.56,-6.59,240,262,202,452,362,20
955,0.36,0.8,0.55,1.28,-3.97,-3.23,246,262,208,458,358,20
956,0.37,0.77,0.51,0.18,-7.87,-1.34,240,264,213,453,358,20
957,0.38,0.74,0.53,-3.42,-5.07,-4.27,245,263,200,455,360,20
958,0.4,0.72,0.53,4.94,-3.78,-3.6,238,260,205,456,361,20
959,0.4,0.75,0.5,6.41,-3.11,-3.05,241,264,203,453,361,20
960,0.37,0.75,0.52,-7.51,0.31,-4.03,242,261,205,452,360,20
961,0.34,0.77,0.53,4.39,0.0,-1.28,235,264,204,451,357,20
962,0.36,0.76,0.54,-3.17,-3.85,-2.2,241,279,203,449,361,20
963,0.38,0.76,0.52,1.65,-2.44,-0.92,240,262,209,453,363,20
964,0.36,0.78,0.55,-1.65,-4.27,-4.39,242,260,209,454,364,20
965,0.39,0.76,0.56,0.73,-3.85,-3.11,247,261,206,457,362,20
966,0.4,0.74,0.53,6.35,0.37,0.24,238,262,204,453,364,20
967,0.4,0.77,0.51,10.01,-2.81,-2.14,242,261,202,453,359,20
968,0.4,0.76,0.49,-14.04,-2.99,-8.18,240,258,206,456,361,20
969,0.38,0.75,0.54,2.14,0.18,-1.77,242,266,209,457,364,20
970,0.34,0.8,0.56,0.61,3.36,3.17,240,256,205,450,361,20
971,0.38,0.75,0.53,-4.64,-7.2,-5.13,242,262,204,453,357,20
972,0.38,0.78,0.56,0.73,-0.67,-2.38,243,270,209,456,359,20
973,0.41,0.72,0.51,11.54,-3.54,-10.38,238,262,206,453,362,20
974,0.39,0.74,0.55,-3.23,0.06,-2.99,241,264,194,458,360,20
975,0.41,0.7,0.51,-5.74,-1.04,3.78,239,266,207,454,357,20
976,0.33,0.73,0.53,10.44,10.13,-6.04,243,264,207,452,361,20
977,0.33,0.82,0.5,2.32,-0.85,-5.25,245,269,202,457,358,20
978,0.26,0.87,0.51,8.06,1.28,-5.37,240,263,207,454,358,20
979,0.27,0.85,0.45,5.43,-2.08,-2.38,240,263,208,446,358,20
980,0.27,0.86,0.47,4.7,-0.98,-1.89,241,260,211,453,362,20
981,0.24,0.86,0.46,-9.7,-6.29,-3.42,245,264,208,457,362,20
982,0.29,0.81,0.49,-2.87,-7.63,-3.05,269,263,211,458,359,20
983,0.29,0.84,0.51,-3.6,-4.88,-2.87,276,262,207,457,356,20
984,0.27,0.78,0.56,-4.33,-11.29,-4.64,240,265,207,458,359,20
985,0.3,0.82,0.49,10.68,0.79,2.2,238,266,210,456,360,20
986,0.28,0.86,0.53,-2.69,-5.0,-3.66,245,269,211,455,360,20
987,0.37,0.84,0.52,8.06,1.46,-0.49,244,262,203,454,360,20
988,0.28,0.88,0.53,13.92,7.51,-1.4,247,265,207,451,363,20
989,0.39,0.81,0.48,-16.05,-11.72,-11.9,242,264,211,467,357,20
990,0.27,0.8,0.57,4.88,3.66,2.87,243,260,212,455,365,20
991,0.23,0.7,0.58,-13.61,2.44,-7.2,243,263,201,453,360,20
992,0.29,0.82,0.52,21.55,13.55,-5.31,239,261,204,455,360,20
993,0.23,0.91,0.55,-4.27,-17.09,4.94,245,267,205,456,360,20
994,0.4,0.74,0.52,-38.64,-21.3,-7.45,231,256,208,458,361,20
995,0.22,0.74,0.55,-9.77,-20.94,-0.79,244,261,205,458,359,20
996,0.34,0.75,0.5,-47.0,-25.7,2.5,242,265,218,452,363,20
997,0.34,0.68,0.5,4.64,23.01,-3.72,241,262,197,448,359,20
998,0.37,0.74,0.55,1.16,-26.12,-2.69,246,260,209,449,358,20
999,0.36,0.85,0.61,8.0,6.84,-0.18,245,263,207,452,361,20
1000,0.26,0.66,0.46,-1.65,9.03,7.32,242,262,222,452,361,20
1001,0.32,0.72,0.53,-30.33,-11.6,6.65,247,263,210,454,360,20
1002,0.33,0.7,0.48,15.63,21.85,-24.05,243,265,202,456,361,20
1003,0.33,0.72,0.56,20.57,-6.59,0.0,239,266,206,465,357,20
1004,0.25,0.8,0.5,0.49,38.82,1.34,240,264,207,459,359,20
1005,0.34,0.81,0.57,7.32,-15.14,-4.7,238,263,205,456,362,20
1006,0.29,1.13,0.4,31.74,54.5,-52.31,245,262,213,452,365,20
1007,0.27,0.79,0.55,2.62,-13.79,-2.99,245,262,201,451,363,20
1008,0.27,0.82,0.46,-2.14,-7.87,-2.38,246,261,208,452,361,20
1009,0.23,0.84,0.47,-18.25,1.28,-36.8,240,263,200,450,356,20
1010,0.27,0.88,0.47,17.46,-7.75,-10.74,245,263,203,459,362,20
1011,0.21,0.89,0.4,-5.0,-2.14,-5.43,244,264,214,455,363,20
1012,0.24,0.86,0.41,2.99,-1.04,-2.14,245,261,210,457,362,20
1013,0.18,0.9,0.41,1.83,-2.08,-6.04,245,262,201,459,360,20
1014,0.19,0.9,0.41,-3.66,-2.14,-5.98,245,262,213,456,359,20
1015,0.18,0.86,0.4,5.25,-0.12,-6.29,245,265,215,454,364,20
1016,0.17,0.87,0.39,-2.5,-0.18,-0.31,239,259,203,455,362,20
1017,0.15,0.91,0.39,4.39,1.34,-3.17,247,264,207,449,372,20
1018,0.17,0.9,0.39,0.49,-3.42,-2.14,245,263,208,454,366,20
1019,0.51,0.81,0.09,-3.85,0.49,-6.41,215,270,183,444,305,20
1020,0.54,0.88,0.12,-17.7,0.67,0.92,213,278,181,446,298,20
1021,0.44,0.91,0.13,-8.54,-14.53,-16.48,209,275,185,443,308,20
1022,0.39,0.89,0.17,-0.37,-11.9,-5.86,211,274,183,444,310,20
1023,0.34,0.92,0.14,2.38,-1.95,-17.46,216,273,187,451,310,20
1024,0.34,0.91,0.16,-3.72,-4.88,-2.87,210,270,187,441,307,20
1025,0.27,0.98,0.17,-0.06,-5.43,1.28,215,272,187,447,312,20
1026,0.3,0.88,0.13,4.27,-2.81,-6.04,213,264,187,437,313,20
1027,0.25,0.99,0.13,4.09,2.87,-0.55,217,269,182,439,321,20
1028,0.29,0.94,0.16,-1.4,-4.82,-2.26,212,269,175,442,324,20
1029,0.28,0.95,0.16,2.99,-4.58,-4.09,215,267,182,447,327,20
1030,0.33,1.02,0.12,4.46,-2.26,1.4,211,265,188,458,329,20
1031,0.26,0.89,0.12,-1.4,-5.43,-2.14,215,265,177,450,328,20
1032,0.24,0.93,0.14,-1.53,-3.97,-1.71,218,269,188,450,334,20
1033,0.29,1.0,0.09,6.1,2.5,4.46,218,274,186,448,331,20
1034,0.23,0.91,0.04,-2.99,-2.44,4.76,216,270,180,452,330,20
1035,0.24,0.95,0.11,-0.31,-4.64,-3.6,215,265,194,456,334,20
1036,0.25,0.96,0.07,1.89,-1.77,-1.65,218,270,190,452,329,20
1037,0.29,0.94,0.09,-2.26,-2.56,-5.37,227,283,191,457,328,20
1038,0.28,0.95,0.09,-6.9,-2.99,-2.08,236,273,191,458,328,20
1039,0.3,0.96,0.11,3.11,-3.6,-2.93,215,276,194,455,328,20
1040,0.29,0.99,0.14,-6.16,-0.73,-6.29,210,271,189,461,325,20
1041,0.28,0.96,0.12,-1.22,-6.35,0.79,215,274,192,454,325,20
1042,0.31,0.95,0.13,-0.37,-3.6,-0.24,217,271,187,451,324,20
1043,0.29,0.93,0.12,4.15,-1.95,-0.43,218,270,194,459,329,20
1044,0.31,0.92,0.13,-0.61,-0.12,2.5,217,273,188,451,328,20
1045,0.29,0.94,0.14,-1.83,-4.7,-5.8,216,271,185,454,329,20
1046,0.3,0.93,0.16,-2.69,-1.95,10.25,218,273,194,460,328,20
1047,0.37,0.9,0.16,-1.28,-6.1,0.92,217,281,191,458,328,20
1048,0.37,0.91,0.16,-3.17,-5.0,-2.01,217,273,190,458,327,20
1049,0.35,0.94,0.17,2.75,-0.24,-3.42,220,276,181,453,329,20
1050,0.34,0.94,0.15,2.2,-2.44,-4.94,217,270,196,457,326,20
1051,0.37,0.91,0.12,1.83,-3.23,-1.53,218,265,188,458,327,20
1052,0.34,0.93,0.13,2.93,-2.32,-0.06,228,271,190,460,329,20
1053,0.36,0.93,0.14,1.22,-4.76,-4.64,220,273,195,458,328,20
1054,0.35,0.92,0.15,-6.29,-1.1,-6.47,216,269,198,460,329,20
1055,0.37,0.92,0.13,1.65,0.43,-8.67,218,275,195,462,330,20
1056,0.36,0.92,0.13,1.16,-7.39,-3.3,216,266,187,462,331,20
1057,0.37,0.92,0.16,-0.37,1.89,-0.67,219,275,192,452,330,20
1058,0.41,0.93,0.13,6.59,-5.68,6.35,220,273,193,455,326,20
1059,0.47,0.88,0.11,2.08,0.79,1.04,219,274,190,461,325,20
1060,0.41,0.91,0.17,4.82,-3.17,-2.5,212,268,196,454,329,20
1061,0.38,0.89,0.15,1.22,0.92,-10.8,219,275,193,455,328,20
1062,0.4,0.91,0.14,-0.73,2.62,-5.43,221,262,191,455,326,20
1063,0.4,0.91,0.13,3.36,-5.68,-7.51,219,271,198,456,331,20
1064,0.37,0.91,0.15,6.53,-8.18,-6.59,218,271,189,464,328,20
1065,0.39,0.95,0.15,4.52,-7.69,-6.9,218,274,200,460,329,20
1066,0.37,0.96,0.12,4.52,-2.38,-2.56,217,274,191,456,330,20
1067,0.33,0.92,0.1,-1.16,-3.66,0.92,216,270,195,461,330,20
1068,0.34,0.93,0.11,8.97,-3.97,-1.22,220,272,196,459,328,20
1069,0.35,0.93,0.1,-4.09,-2.14,0.31,220,276,185,453,330,20
1070,0.35,0.94,0.12,2.93,-1.71,-4.39,219,271,194,449,333,20
1071,0.37,0.93,0.09,-2.69,-2.32,-5.74,219,277,202,459,328,20
1072,0.35,0.86,0.12,-0.98,-0.98,5.13,214,275,194,459,330,20
1073,0.37,0.86,0.1,-3.42,1.1,-1.77,243,269,202,451,328,20
1074,0.32,0.92,0.13,8.61,-0.79,-2.99,220,269,195,458,329,20
1075,0.38,0.96,0.13,0.24,-4.58,-3.17,217,275,198,453,329,20
1076,0.31,0.88,0.09,-5.86,-5.25,-1.95,213,268,199,457,331,20
1077,0.32,0.94,0.1,-0.73,-4.64,-1.83,219,271,198,456,328,20
1078,0.32,0.9,0.11,-7.93,-2.38,-3.36,218,275,198,461,320,20
1079,0.32,0.94,0.11,-2.08,-0.67,9.58,214,274,201,455,329,20
1080,0.31,0.93,0.18,13.18,-0.73,-7.69,218,270,201,455,325,20
1081,0.3,0.92,0.16,-3.78,-1.53,2.32,228,277,207,461,332,20
1082,0.26,0.9,0.13,0.85,1.71,-5.19,218,277,198,458,332,20
1083,0.31,0.93,0.19,3.78,-8.61,5.49,217,279,193,462,331,20
1084,0.25,0.96,0.16,-0.67,-4.27,-4.76,221,277,200,459,332,20
1085,0.31,0.95,0.15,0.37,-6.04,-3.42,218,279,196,450,330,20
1086,0.31,0.93,0.14,-0.24,-2.75,-0.98,218,278,205,453,330,20
1087,0.33,0.93,0.15,-4.52,-4.82,-3.85,217,275,206,455,329,20
1088,0.33,0.94,0.14,2.38,0.37,-2.75,220,279,199,456,332,20
1089,0.31,0.95,0.15,1.53,-1.59,-3.23,218,271,200,458,333,20
1090,0.31,0.92,0.12,1.53,-5.19,-2.38,217,278,202,454,331,20
1091,0.32,0.94,0.13,-1.28,-4.94,-2.5,219,276,203,451,334,20
1092,0.21,0.93,0.1,7.14,-12.76,-11.78,221,275,204,450,326,20
1093,0.25,0.95,0.13,-2.38,-1.53,-3.3,221,272,203,455,331,20
1094,0.24,0.95,0.11,-2.81,-7.08,-3.6,221,272,201,460,334,20
1095,0.3,0.97,0.09,2.62,-4.09,-3.6,219,274,199,457,332,20
1096,0.28,0.93,0.08,-3.54,-2.93,-3.78,220,280,198,456,334,20
1097,0.3,0.97,0.09,3.66,-2.32,1.83,218,277,203,453,331,20
1098,0.29,0.91,0.08,-1.65,-4.39,-0.67,209,277,205,460,332,20
1099,0.31,0.95,0.09,-4.88,-4.94,1.34,220,275,199,457,333,20
1100,0.28,0.94,0.1,-2.2,-1.71,-16.85,220,277,197,455,333,20
1101,0.31,0.93,0.11,-0.79,-3.78,-3.36,220,278,198,459,332,20
1102,0.25,0.92,0.14,0.85,1.34,-1.71,219,270,205,454,332,20
1103,0.28,0.95,0.14,3.85,0.49,3.11,220,280,203,456,332,20
1104,0.33,0.93,0.14,3.66,-4.39,3.36,218,281,207,463,332,20
1105,0.3,0.96,0.14,1.16,-2.62,-4.33,221,272,205,462,334,20
1106,0.33,0.93,0.12,1.04,-1.71,-2.44,220,275,201,455,332,20
1107,0.33,0.93,0.14,0.73,-5.07,-0.79,217,280,204,457,332,20
1108,0.33,0.92,0.13,-2.5,-3.05,-1.46,219,278,203,468,331,20
1109,0.3,0.94,0.14,2.93,-1.22,-0.31,220,272,204,453,331,20
1110,0.32,0.91,0.12,-2.75,-2.99,0.43,217,280,209,455,332,20
1111,0.31,0.93,0.15,0.12,-5.25,-1.16,217,277,199,455,331,20
1112,0.31,0.93,0.14,1.04,-2.5,-2.08,218,281,208,453,332,20
1113,0.34,0.91,0.13,1.22,-7.93,0.61,219,279,199,458,332,20
1114,0.31,0.94,0.13,0.37,-1.53,-5.13,221,279,203,455,338,20
1115,0.32,0.94,0.13,2.14,-0.67,-1.34,222,275,200,458,332,20
1116,0.3,0.93,0.14,1.04,-1.16,0.0,227,275,201,451,332,20
1117,0.33,0.93,0.13,-0.79,-4.39,-2.56,226,278,202,454,332,20
1118,0.32,0.94,0.14,1.71,-2.14,-2.69,218,280,207,456,332,20
1119,0.33,0.96,0.11,-2.32,-2.38,-1.89,221,278,206,457,329,20
1120,0.32,0.94,0.12,1.28,-5.68,-3.48,220,275,201,453,336,20
1121,0.33,0.94,0.11,2.2,-0.37,-1.71,218,277,195,457,330,20
1122,0.34,0.94,0.09,-0.55,-2.2,-0.18,218,278,194,446,337,20
1123,0.31,0.92,0.12,-1.28,-2.14,-1.4,220,282,202,454,331,20
1124,0.31,0.93,0.11,-3.85,-5.55,-2.87,222,276,201,455,333,20
1125,0.3,0.93,0.12,-1.04,-3.05,-1.71,218,278,202,455,332,20
1126,0.34,0.95,0.12,1.04,-4.58,-4.88,221,282,204,452,331,20
1127,0.32,0.91,0.13,-2.38,-3.17,-3.66,221,282,208,465,335,20
1128,0.29,0.94,0.15,1.46,-1.1,-2.99,221,278,204,456,332,20
1129,0.25,0.93,0.14,-1.65,-2.14,-2.08,217,280,204,455,336,20
1130,0.28,0.93,0.16,-2.56,-3.48,-1.77,221,278,202,450,332,20
1131,0.26,0.91,0.15,0.18,-1.46,-8.73,218,277,197,447,327,20
1132,0.29,0.95,0.15,1.1,-1.16,0.12,223,279,207,450,332,20
1133,0.26,0.97,0.17,-0.73,-1.1,-2.14,216,276,194,454,332,20
1134,0.29,0.94,0.15,-1.4,-3.05,-2.2,221,277,202,459,335,20
1135,0.3,0.92,0.15,-0.55,-6.84,-1.89,220,284,207,456,332,20
1136,0.29,0.92,0.16,-1.28,-8.67,0.92,222,280,197,453,332,20
1137,0.31,0.94,0.16,0.06,0.79,0.79,216,278,195,459,331,20
1138,0.34,0.94,0.16,-2.14,-3.36,5.0,218,281,205,459,335,20
1139,0.37,0.9,0.17,-1.16,-2.87,-2.75,218,277,209,455,332,20
1140,0.37,0.9,0.2,-3.6,0.55,-3.6,219,270,208,456,334,20
1141,0.41,0.92,0.17,2.44,-2.14,-1.28,219,271,207,450,333,20
1142,0.44,0.91,0.19,1.04,0.43,-3.78,218,277,197,454,324,20
1143,0.39,0.92,0.21,2.38,-1.4,-4.15,220,280,204,458,332,20
1144,0.41,0.92,0.19,1.04,-2.2,-2.14,212,277,203,455,335,20
1145,0.44,0.91,0.18,-2.08,-5.74,1.71,215,278,207,450,329,20
1146,0.46,0.89,0.19,3.23,-0.31,-0.85,219,279,204,455,333,20
1147,0.5,0.86,0.18,-3.42,-3.17,0.24,220,278,203,458,334,20
1148,0.5,0.84,0.23,-3.85,-3.48,-3.42,214,276,205,448,333,20
1149,0.49,0.78,0.26,-2.08,-3.97,4.15,220,277,203,451,332,20
1150,0.45,0.77,0.26,-8.61,-6.71,3.85,220,278,212,441,332,20
1151,0.56,0.84,0.24,1.59,-0.79,-6.96,219,282,202,446,330,20
1152,0.52,0.79,0.23,0.12,-2.99,-0.18,219,274,208,452,333,20
1153,0.54,0.82,0.24,-3.54,-1.71,-5.8,220,280,204,458,331,20
1154,0.5,0.84,0.28,1.95,-3.97,-2.26,224,281,202,452,332,20
1155,0.54,0.75,0.24,3.66,-0.92,-4.46,217,279,204,446,334,20
1156,0.56,0.86,0.23,3.97,-1.46,-12.02,212,272,211,443,330,20
1157,0.51,0.89,0.25,7.51,-2.32,-5.31,217,261,209,448,331,20
1158,0.49,0.85,0.22,1.34,-2.5,-0.85,216,278,204,451,331,20
1159,0.53,0.85,0.25,-3.17,-0.31,-1.1,220,282,205,453,320,20
1160,0.55,0.75,0.22,-1.34,-13.73,2.87,220,279,198,450,330,20
1161,0.57,0.79,0.21,-0.37,-7.75,2.2,221,278,209,452,329,20
1162,0.52,0.81,0.21,-3.78,-5.43,-1.95,219,278,200,450,331,20
1163,0.62,0.82,0.17,-2.08,-7.14,-2.08,221,279,208,450,332,20
1164,0.61,0.79,0.17,-2.08,-13.67,12.94,218,275,204,455,328,20
1165,0.61,0.82,0.18,1.34,-3.54,-10.38,221,279,209,450,328,20
1166,0.56,0.81,0.17,-6.71,3.3,-10.74,220,276,204,451,328,20
1167,0.55,0.83,0.18,0.0,0.49,-0.24,221,279,204,451,328,20
1168,0.53,0.85,0.22,-3.05,-6.9,-4.64,217,278,205,452,333,20
1169,0.49,0.88,0.19,-0.37,-2.08,-10.56,219,278,200,452,333,20
1170,0.44,0.82,0.26,-13.0,-8.24,-0.92,217,277,210,455,325,20
1171,0.36,0.85,0.27,3.6,-1.89,-23.32,219,279,205,453,331,20
1172,0.29,0.96,0.32,6.53,-22.83,-1.16,222,273,204,451,327,20
1173,0.26,0.88,0.29,-11.05,-0.61,2.87,221,274,210,451,330,20
1174,0.34,0.92,0.27,-6.1,-4.64,0.67,217,285,206,458,335,20
1175,0.23,0.9,0.36,-4.15,-0.37,-1.1,217,281,194,454,332,20
1176,0.29,0.87,0.35,-8.97,-4.03,-3.11,222,281,205,454,329,20
1177,0.32,0.91,0.35,0.98,-3.54,-2.5,229,273,205,455,333,20
1178,0.3,0.87,0.35,-3.91,-4.15,0.12,221,280,206,452,330,20
1179,0.35,0.88,0.36,-3.17,-3.36,-1.77,222,283,202,455,333,20
1180,0.33,0.89,0.38,-5.13,-7.2,-10.13,219,275,205,455,334,20
1181,0.39,0.89,0.33,-2.5,-5.19,-4.21,211,280,208,454,331,20
1182,0.36,0.87,0.37,0.73,-4.7,0.37,219,281,210,453,332,20
1183,0.35,0.85,0.35,-0.18,-2.75,-2.14,222,281,203,452,332,20
1184,0.36,0.88,0.35,-2.75,-3.42,-3.23,219,281,208,454,336,20
1185,0.37,0.88,0.36,-2.2,-2.08,-6.47,217,280,208,457,332,20
1186,0.34,0.88,0.37,0.79,-2.26,-2.26,221,280,206,453,334,20
1187,0.36,0.86,0.37,1.83,-2.56,-3.97,221,275,205,453,330,20
1188,0.34,0.86,0.36,-1.28,-3.11,-4.46,220,285,208,452,334,20
1189,0.35,0.88,0.37,1.1,-2.99,-4.88,222,275,209,454,334,20
1190,0.35,0.87,0.36,-0.98,-4.76,-3.48,221,280,209,452,338,20
1191,0.34,0.89,0.35,-0.43,-2.32,-1.65,246,280,209,452,329,20
1192,0.36,0.86,0.34,-1.04,-1.04,-2.32,254,284,209,455,336,20
1193,0.34,0.85,0.35,1.59,-2.2,-1.34,217,281,211,455,335,20
1194,0.29,0.85,0.36,-2.5,-1.65,0.55,225,280,202,450,328,20
1195,0.32,0.87,0.36,0.31,-0.85,-1.89,221,279,207,455,333,20
1196,0.33,0.89,0.35,-0.37,-3.42,-2.32,223,282,209,443,330,20
1197,0.35,0.89,0.33,0.49,-1.04,-3.66,224,281,208,446,329,20
1198,0.32,0.88,0.35,-0.37,-2.38,-1.22,222,283,212,450,331,20
1199,0.34,0.88,0.34,2.5,-3.54,-3.78,221,285,206,446,329,20
1200,0.36,0.86,0.33,0.67,-1.59,-0.73,225,281,203,450,329,20
1201,0.33,0.87,0.33,2.87,-0.92,0.0,227,283,211,448,333,20
1202,0.33,0.87,0.33,1.1,-4.46,-1.95,219,280,207,446,332,20
1203,0.36,0.92,0.33,-1.83,-2.01,-3.6,261,279,208,446,324,20
1204,0.35,0.92,0.34,1.71,-4.46,-4.21,219,279,206,448,332,20
1205,0.35,0.87,0.32,4.03,-4.09,-3.42,218,282,211,453,331,20
1206,0.34,0.87,0.29,-0.31,-2.26,-1.16,224,277,211,450,334,20
1207,0.36,0.87,0.33,2.38,-4.15,-5.55,223,282,199,452,338,20
1208,0.36,0.87,0.32,2.14,-4.21,-2.69,221,273,210,450,333,20
1209,0.35,0.86,0.32,-1.34,-1.28,-2.75,222,275,208,449,334,20
1210,0.39,0.9,0.33,2.38,-4.64,-5.43,220,282,210,453,334,20
1211,0.37,0.88,0.32,-0.73,-0.98,-2.75,223,280,208,451,337,20
1212,0.37,0.87,0.34,1.22,-2.81,-1.28,248,281,210,448,338,20
1213,0.37,0.86,0.33,0.79,-3.3,-2.69,223,278,211,452,333,20
1214,0.33,0.86,0.33,1.89,-3.36,-0.73,217,285,206,449,334,20
1215,0.39,0.89,0.33,-0.79,-0.73,0.98,222,281,211,453,334,20
1216,0.41,0.87,0.33,-2.62,0.67,0.55,217,282,210,450,329,20
1217,0.42,0.85,0.36,-2.32,-6.71,-7.51,217,281,211,445,329,20
1218,0.36,0.83,0.37,-1.95,-5.86,-6.41,218,279,210,450,329,20
1219,0.4,0.92,0.32,2.26,2.01,-0.73,220,282,209,463,332,20
1220,0.31,0.89,0.35,7.08,0.49,-1.95,217,279,218,457,336,20
1221,0.39,0.81,0.38,-4.58,-7.32,-5.92,223,279,210,460,331,20
1222,0.36,0.88,0.36,0.73,-3.05,-2.99,220,279,211,457,336,20
1223,0.38,0.89,0.36,0.98,-1.65,-5.19,220,279,209,449,334,20
1224,0.34,0.86,0.34,-1.04,-3.23,-1.34,221,279,212,453,335,20
1225,0.32,0.89,0.39,-0.55,-5.43,-4.15,222,280,214,458,330,20
1226,0.35,0.88,0.35,2.14,-3.48,-2.14,219,282,210,455,333,20
1227,0.36,0.87,0.34,1.04,1.59,-3.36,219,279,213,460,335,20
1228,0.32,0.87,0.34,-2.08,-2.5,-2.2,220,283,209,454,334,20
1229,0.35,0.88,0.36,1.71,-2.44,-6.16,220,280,204,454,334,20
1230,0.32,0.9,0.33,2.26,-1.22,-3.05,220,279,205,451,335,20
1231,0.32,0.88,0.33,-2.2,-2.26,-1.28,221,280,210,455,334,20
1232,0.31,0.87,0.34,-0.67,-2.81,-0.43,222,286,212,450,336,20
1233,0.32,0.88,0.34,-0.98,-3.36,-1.83,215,282,213,451,343,20
1234,0.33,0.89,0.33,0.12,-2.01,-1.22,220,279,210,450,327,20
1235,0.33,0.87,0.33,1.59,-2.38,-1.04,223,280,212,444,336,20
1236,0.34,0.88,0.32,1.65,-1.28,-2.75,223,283,212,448,336,20
1237,0.34,0.85,0.34,-0.43,-2.69,1.1,223,279,209,452,334,20
1238,0.37,0.82,0.33,-1.28,-0.55,2.01,221,282,211,449,336,20
1239,0.36,0.86,0.32,-0.49,-5.19,-3.91,220,276,213,441,333,20
1240,0.38,0.82,0.32,-4.46,-0.43,3.66,222,281,218,446,336,20
1241,0.34,0.83,0.35,-2.87,-4.03,-1.46,223,284,207,445,335,20
1242,0.37,0.83,0.34,1.1,-2.75,-1.4,221,282,211,449,334,20
1243,0.38,0.89,0.37,0.67,2.32,1.22,224,274,208,446,335,20
1244,0.43,0.92,0.3,5.8,-2.38,-3.17,219,283,212,449,330,20
1245,0.42,0.84,0.33,-5.19,-5.43,0.06,219,278,204,448,335,20
1246,0.41,0.85,0.35,-3.05,1.1,-3.91,223,279,209,447,329,20
1247,0.39,0.86,0.33,1.71,-3.91,-2.87,221,273,208,445,333,20
1248,0.39,0.86,0.33,1.46,0.06,-3.3,222,279,207,449,333,20
1249,0.38,0.86,0.32,-0.43,-2.69,-1.71,222,285,208,451,327,20
1250,0.4,0.87,0.34,-0.31,-3.91,-3.11,220,278,213,448,330,20
1251,0.37,0.86,0.34,1.4,-2.2,-3.66,222,282,209,448,336,20
1252,0.39,0.87,0.34,-0.55,-3.6,-2.56,222,276,223,444,334,20
1253,0.38,0.86,0.33,-0.12,-2.69,-2.99,223,281,202,448,330,20
1254,0.37,0.87,0.34,0.73,-0.98,-3.05,222,284,208,449,333,20
1255,0.38,0.86,0.34,-0.61,-1.65,-2.81,220,281,204,445,331,20
1256,0.39,0.87,0.33,2.5,-1.28,-2.38,221,283,212,444,331,20
1257,0.41,0.88,0.32,0.85,-3.72,-0.98,221,280,211,450,331,20
1258,0.4,0.86,0.33,0.85,-5.07,-2.26,220,283,207,448,330,20
1259,0.38,0.85,0.32,1.16,-3.91,-2.38,221,281,209,447,338,20
1260,0.38,0.87,0.33,1.22,-2.81,-1.16,223,286,212,442,332,20
1261,0.37,0.86,0.35,1.28,-1.53,-1.28,217,282,213,442,334,20
1262,0.37,0.86,0.35,-1.22,-2.93,-3.3,220,281,210,448,331,20
1263,0.38,0.86,0.33,0.37,-1.83,-2.5,221,275,204,453,334,20
1264,0.37,0.88,0.34,6.35,-2.01,-2.14,218,282,211,454,334,20
1265,0.37,0.86,0.33,0.49,-2.44,-1.83,220,276,209,454,335,20
1266,0.32,0.82,0.35,2.75,-0.92,4.39,219,275,208,451,336,20
1267,0.34,0.86,0.35,3.72,-4.58,-0.85,221,282,200,450,335,20
1268,0.37,0.88,0.33,1.22,-2.69,-2.99,220,281,212,446,332,20
1269,0.37,0.87,0.33,0.43,-3.05,-2.14,222,276,209,451,334,20
1270,0.36,0.86,0.34,1.4,-5.43,-1.77,221,282,208,451,335,20
1271,0.34,0.8,0.34,1.53,-5.49,-2.56,219,281,210,451,334,20
1272,0.37,0.88,0.3,-0.55,-5.0,-6.04,219,279,213,453,331,20
1273,0.37,0.9,0.3,-0.49,-2.5,-2.01,218,277,209,446,335,20
1274,0.37,0.89,0.3,1.65,-1.71,-2.38,225,278,211,454,331,20
1275,0.37,0.88,0.31,-1.22,-3.72,-2.38,224,281,215,460,335,20
1276,0.4,0.9,0.32,1.71,-7.32,-3.6,216,281,212,451,332,20
1277,0.38,0.92,0.33,0.37,-3.54,-4.27,222,286,216,453,336,20
1278,0.33,0.87,0.34,-0.49,0.85,-5.13,220,281,218,450,335,20
1279,0.37,0.87,0.33,1.89,-0.98,-3.48,224,279,215,449,333,20
1280,0.37,0.88,0.34,0.85,-3.97,-1.1,217,278,215,449,331,20
1281,0.35,0.85,0.37,-1.59,-4.7,-1.71,220,285,210,453,334,20
1282,0.33,0.86,0.36,-1.95,-4.76,-3.78,223,283,209,450,333,20
1283,0.35,0.84,0.35,-3.72,-5.55,-4.82,222,284,212,454,336,20
1284,0.37,0.87,0.35,-1.22,-3.6,-4.33,220,285,209,455,336,20
1285,0.37,0.86,0.35,-0.67,-3.36,-2.32,221,282,213,447,336,20
1286,0.35,0.86,0.36,-3.72,-3.6,-1.4,221,277,208,450,338,20
1287,0.35,0.87,0.36,-2.5,-2.56,-2.75,221,282,215,454,337,20
1288,0.36,0.86,0.36,0.67,-2.2,-2.81,224,283,208,451,333,20
1289,0.35,0.86,0.35,-1.53,-2.87,-0.98,224,281,212,452,336,20
1290,0.34,0.86,0.36,-0.12,-2.5,-2.14,221,282,213,452,332,20
1291,0.36,0.86,0.36,-0.06,-3.42,-2.62,225,280,198,452,339,20
1292,0.34,0.86,0.36,1.04,-2.81,-1.89,221,283,215,448,337,20
1293,0.35,0.86,0.36,0.61,-2.99,-0.61,221,285,213,452,335,20
1294,0.36,0.84,0.36,0.49,-3.11,-2.93,223,278,206,454,333,20
1295,0.34,0.87,0.37,0.24,0.24,0.06,223,283,211,452,329,20
1296,0.42,0.89,0.35,3.97,-0.18,-3.72,224,277,211,451,331,20
1297,0.37,0.88,0.36,1.4,-4.88,-3.6,217,277,212,448,332,20
1298,0.36,0.86,0.36,2.62,-3.85,-1.89,221,278,218,453,337,20
1299,0.36,0.87,0.35,0.73,-3.05,-3.11,223,277,207,460,334,20
1300,0.36,0.86,0.36,0.24,-1.89,-3.17,223,277,216,453,334,20
1301,0.35,0.86,0.34,0.67,-1.71,-1.22,225,277,212,453,333,20
1302,0.34,0.86,0.36,0.73,-6.65,-2.93,225,280,214,454,334,20
1303,0.32,0.85,0.38,-0.37,-4.52,-1.04,219,278,219,456,329,20
1304,0.34,0.86,0.34,-0.06,-4.15,-2.56,225,280,209,448,336,20
1305,0.36,0.86,0.35,-2.93,-5.0,-2.62,219,278,216,452,335,20
1306,0.34,0.85,0.34,-0.18,-2.44,-3.17,224,284,210,455,330,20
1307,0.34,0.87,0.36,-1.04,-2.5,-3.05,220,280,213,455,331,20
1308,0.34,0.88,0.36,-0.92,-1.77,-2.2,220,281,213,453,335,20
1309,0.32,0.86,0.36,2.26,-1.28,-0.92,223,282,217,452,336,20
1310,0.33,0.86,0.36,0.43,-1.4,-2.5,220,283,213,451,334,20
1311,0.35,0.88,0.34,1.59,-3.6,-1.53,222,280,209,452,337,20
1312,0.35,0.87,0.35,0.24,-3.78,-1.46,220,281,219,446,336,20
1313,0.36,0.89,0.35,-2.08,-2.5,-3.05,220,280,223,449,334,20
1314,0.38,0.87,0.34,-2.56,-3.3,-2.26,232,283,201,451,337,20
1315,0.35,0.84,0.36,2.38,-5.98,-2.14,220,282,210,451,330,20
1316,0.34,0.85,0.36,0.85,-2.56,-2.87,223,280,209,455,337,20
1317,0.33,0.88,0.35,-0.06,-3.6,-2.44,222,279,212,453,336,20
1318,0.37,0.86,0.36,-0.73,-2.81,-2.81,222,281,213,455,333,20
1319,0.38,0.89,0.34,4.09,0.55,-3.54,222,282,215,456,334,20
1320,0.37,0.85,0.35,0.37,-6.29,-2.56,220,279,211,451,336,20
1321,0.34,0.85,0.35,-0.67,-1.89,-1.46,222,279,214,452,337,20
1322,0.36,0.88,0.35,-1.46,-4.03,-1.65,222,281,210,452,335,20
1323,0.39,0.87,0.35,-0.43,-3.23,-2.14,223,278,212,453,331,20
1324,0.36,0.86,0.35,0.31,-2.01,-2.56,221,281,212,450,331,20
1325,0.37,0.8,0.37,1.34,-2.32,0.06,218,278,210,464,335,20
1326,0.37,0.84,0.35,3.78,-1.16,-1.46,218,292,220,455,332,20
1327,0.39,0.88,0.34,2.14,-2.99,-2.14,222,279,212,449,336,20
1328,0.37,0.84,0.36,0.0,-4.7,-1.34,221,282,209,448,338,20
1329,0.41,0.84,0.33,-0.31,-4.27,-0.37,225,279,209,456,331,20
1330,0.42,0.86,0.34,-0.92,-3.23,-6.1,221,278,212,452,336,20
1331,0.41,0.87,0.34,-0.67,-8.06,-4.15,223,280,213,453,333,20
1332,0.41,0.84,0.33,-0.98,-2.5,-1.77,224,281,210,453,337,20
1333,0.42,0.87,0.34,0.43,-3.72,-2.75,224,281,211,450,332,20
1334,0.4,0.84,0.34,-0.31,-2.2,-1.53,220,280,210,451,335,20
1335,0.38,0.87,0.34,2.99,-2.32,-2.81,223,279,219,448,336,20
1336,0.39,0.86,0.33,4.64,-5.0,-0.79,222,281,215,451,335,20
1337,0.4,0.88,0.33,3.42,-1.4,-3.17,221,279,214,450,335,20
1338,0.39,0.86,0.32,1.83,-3.36,4.7,221,279,204,448,334,20
1339,0.35,0.82,0.32,-1.77,-2.2,3.85,223,281,211,451,334,20
1340,0.4,0.85,0.32,1.28,0.24,-1.71,216,278,209,456,334,20
1341,0.4,0.87,0.34,0.06,-1.16,-2.87,221,280,213,456,333,20
1342,0.41,0.86,0.33,3.3,-0.98,-6.65,219,282,210,454,340,20
1343,0.46,0.9,0.34,2.93,-2.81,-3.85,226,277,214,455,336,20
1344,0.37,0.82,0.35,1.89,-7.32,-2.87,222,282,202,453,336,20
1345,0.42,0.84,0.34,0.67,-9.52,-2.5,218,277,207,458,337,20
1346,0.43,0.85,0.35,1.04,-1.95,-6.96,223,276,214,455,333,20
1347,0.42,0.87,0.36,0.43,0.85,-4.52,227,281,217,452,335,20
1348,0.44,0.81,0.33,1.1,-3.54,-3.85,221,277,214,456,331,20
1349,0.45,0.86,0.35,2.08,-3.6,-4.39,218,282,210,453,329,20
1350,0.44,0.83,0.32,4.33,-0.98,-4.82,220,282,215,453,337,20
1351,0.43,0.83,0.35,0.18,-2.14,-4.15,225,281,213,456,337,20
1352,0.44,0.83,0.37,1.4,-4.27,-4.33,225,281,213,455,331,20
1353,0.43,0.84,0.33,1.89,-5.13,0.67,225,281,215,462,334,20
1354,0.46,0.83,0.34,-1.4,-2.26,-3.91,220,282,210,447,337,20
1355,0.45,0.84,0.34,2.26,-2.81,0.49,221,279,214,450,333,20
1356,0.43,0.82,0.34,1.95,-2.2,-2.08,221,283,214,446,336,20
1357,0.45,0.86,0.34,-0.79,-3.36,0.12,220,283,214,448,340,20
1358,0.45,0.82,0.36,1.16,-3.72,-3.54,220,280,210,452,335,20
1359,0.43,0.82,0.33,-2.44,-0.12,-2.01,232,280,214,451,335,20
1360,0.55,0.83,0.3,-2.26,-12.82,-1.4,220,280,209,451,333,20
1361,0.47,0.84,0.34,-2.01,-6.96,-2.99,221,280,212,460,335,20
1362,0.47,0.83,0.34,-0.61,-3.66,-3.85,221,285,211,456,328,20
1363,0.42,0.85,0.36,2.14,0.24,-4.94,223,287,213,456,331,20
1364,0.43,0.83,0.34,1.53,-2.69,-1.34,224,283,203,450,334,20
1365,0.44,0.84,0.34,-1.95,-1.77,-3.11,223,280,217,449,337,20
1366,0.41,0.83,0.36,0.24,-1.04,-3.54,218,278,214,452,336,20
1367,0.36,0.83,0.37,-3.11,0.55,-4.82,221,280,210,449,335,20
1368,0.41,0.84,0.36,-0.67,-4.64,-2.2,223,284,209,443,330,20
1369,0.43,0.84,0.34,-0.12,-4.15,-1.22,223,276,211,449,332,20
1370,0.41,0.84,0.38,0.12,-2.14,-2.56,223,282,213,449,333,20
1371,0.41,0.84,0.36,-0.67,-2.44,-3.48,240,283,213,447,330,20
1372,0.42,0.82,0.36,0.18,-4.03,-2.5,222,282,214,443,337,20
1373,0.4,0.83,0.34,3.91,0.79,-3.05,218,280,211,451,335,20
1374,0.39,0.86,0.35,6.23,1.04,-5.13,218,283,205,450,330,20
1375,0.45,0.85,0.35,1.65,-4.76,0.37,218,280,215,450,336,20
1376,0.44,0.86,0.33,1.77,-2.2,-1.89,221,282,211,447,335,20
1377,0.42,0.86,0.33,-1.59,-0.92,-1.04,220,285,211,448,338,20
1378,0.44,0.84,0.34,5.0,-4.27,-2.14,219,279,208,449,339,20
1379,0.47,0.86,0.3,0.49,-10.56,1.83,219,282,216,451,334,20
1380,0.47,0.82,0.32,-5.43,-4.52,-4.33,223,279,212,451,333,20
1381,0.41,0.84,0.38,-4.58,-1.65,-4.27,223,281,210,451,332,20
1382,0.47,0.8,0.37,0.67,-9.7,-7.45,222,282,211,449,334,20
1383,0.46,0.79,0.34,-0.06,-5.25,-1.71,223,282,214,448,338,20
1384,0.43,0.79,0.34,-3.23,-3.48,-0.85,226,282,216,449,334,20
1385,0.48,0.85,0.35,-3.66,-1.77,-7.26,222,276,214,446,336,20
1386,0.42,0.79,0.36,-0.85,2.08,-0.43,223,285,215,451,331,20
1387,0.43,0.79,0.35,2.87,-2.44,2.56,222,283,215,448,336,20
1388,0.46,0.94,0.4,4.09,0.12,-7.32,216,281,215,443,336,20
1389,0.49,0.8,0.33,-2.99,-4.58,-6.71,217,280,212,455,335,20
1390,0.45,0.82,0.39,9.28,-7.26,0.67,221,282,219,449,338,20
1391,0.42,0.79,0.33,-2.99,-1.71,2.87,223,275,214,446,332,20
1392,0.45,0.82,0.38,-2.08,-2.2,1.53,221,285,211,449,336,20
1393,0.48,0.82,0.36,-1.89,-6.16,-2.38,225,280,212,451,330,20
1394,0.48,0.81,0.36,-3.3,-1.59,2.08,221,285,209,448,339,20
1395,0.49,0.77,0.36,-0.55,-6.71,0.24,224,278,212,446,339,20
1396,0.48,0.78,0.37,-2.01,-1.89,0.18,220,275,214,451,336,20
1397,0.51,0.79,0.37,-2.5,-2.99,-2.62,223,284,221,448,332,20
1398,0.51,0.78,0.38,-1.16,-8.91,-2.44,220,285,212,448,337,20
1399,0.5,0.74,0.39,-5.74,-4.27,2.75,221,284,212,451,336,20
1400,0.52,0.76,0.44,-8.36,-1.71,-10.8,216,280,210,446,336,20
1401,0.52,0.75,0.51,-13.79,-6.04,-1.83,222,283,216,446,338,20
1402,0.49,0.73,0.51,-18.55,-9.46,2.99,223,281,215,444,336,20
1403,0.5,0.71,0.53,-3.05,-5.0,-2.5,222,282,213,448,334,20
1404,0.46,0.7,0.53,0.31,-0.55,-4.88,221,282,211,450,338,20
1405,0.43,0.69,0.53,4.09,2.5,-8.91,227,288,213,446,339,20
1406,0.42,0.71,0.54,2.99,-3.23,-0.37,223,284,212,443,337,20
1407,0.43,0.73,0.54,-0.67,-5.19,-1.34,223,282,216,451,338,20
1408,0.42,0.72,0.54,-1.65,-2.56,0.18,223,280,214,440,336,20
1409,0.44,0.72,0.55,2.56,-4.58,-2.56,220,279,215,454,336,20
1410,0.44,0.73,0.54,1.95,-3.85,-2.14,222,281,211,446,339,20
1411,0.42,0.77,0.52,14.47,-3.17,-12.27,220,284,214,447,334,20
1412,0.41,0.85,0.46,18.92,-6.71,-9.4,218,281,216,448,335,20
1413,0.41,0.92,0.35,23.99,-3.05,-11.6,222,283,214,444,331,20
1414,0.34,0.85,0.27,-11.11,-1.4,8.36,218,282,215,447,335,20
1415,0.42,0.84,0.31,0.24,-6.16,0.73,221,279,215,442,338,20
1416,0.41,0.86,0.31,-7.08,-5.92,-2.5,223,281,212,447,335,20
1417,0.44,0.83,0.34,-3.85,-5.07,-3.36,220,281,213,448,331,20
1418,0.43,0.84,0.36,-0.12,-1.28,-5.07,220,284,226,451,339,20
1419,0.45,0.84,0.36,-2.08,-1.4,-1.89,220,283,215,448,337,20
1420,0.42,0.82,0.37,0.0,-2.01,-1.71,221,283,212,449,329,20
1421,0.43,0.83,0.39,2.32,-2.69,-2.26,222,281,213,448,328,20
1422,0.43,0.83,0.38,1.46,-2.38,-2.93,223,285,217,449,336,20
1423,0.43,0.82,0.36,0.49,-3.36,0.12,222,282,213,447,335,20
1424,0.45,0.81,0.39,-4.15,-4.39,-0.79,223,284,215,446,335,20
1425,0.47,0.77,0.34,3.23,-3.23,-1.34,222,281,216,449,336,20
1426,0.42,0.81,0.39,-0.61,-2.14,-3.91,219,282,216,438,333,20
1427,0.41,0.8,0.39,-2.08,-1.53,-2.87,223,283,219,443,337,20
1428,0.41,0.81,0.39,2.14,0.43,-3.85,222,282,212,445,335,20
1429,0.42,0.82,0.4,0.43,-3.97,-0.98,220,285,218,446,332,20
1430,0.44,0.84,0.4,2.01,-1.89,-2.69,221,281,218,449,336,20
1431,0.43,0.84,0.41,-1.46,-2.5,0.12,224,285,218,441,332,20
1432,0.4,0.79,0.4,-1.28,-2.99,-3.6,221,282,218,450,331,20
1433,0.42,0.81,0.42,-2.44,-2.56,-4.15,221,283,211,446,334,20
1434,0.42,0.82,0.41,1.4,-1.46,-1.34,221,279,215,450,335,20
1435,0.42,0.81,0.42,-1.71,-1.77,-3.23,221,283,217,445,336,20
1436,0.44,0.81,0.41,3.42,-2.08,-1.53,220,281,213,449,337,20
1437,0.41,0.81,0.41,-0.61,-3.23,0.18,227,281,217,450,337,20
1438,0.46,0.83,0.41,-0.55,-4.58,-1.65,221,280,214,449,335,20
1439,0.45,0.81,0.43,0.55,-4.09,-2.93,222,282,219,445,334,20
1440,0.45,0.81,0.43,-1.4,-4.03,-3.54,222,278,217,447,335,20
1441,0.43,0.81,0.44,0.85,-0.85,-2.14,222,280,213,440,332,20
1442,0.42,0.81,0.44,0.43,-3.05,-3.17,249,278,210,451,338,20
1443,0.43,0.81,0.43,-0.43,-3.17,-2.44,222,281,217,450,335,20
1444,0.42,0.82,0.43,-0.61,-1.53,-2.69,220,277,213,449,337,20
1445,0.41,0.8,0.42,0.43,-2.75,-2.81,222,280,210,445,338,20
1446,0.41,0.81,0.43,0.49,-1.83,-1.59,223,283,215,446,338,20
1447,0.39,0.79,0.43,0.55,-5.07,-2.69,226,281,210,447,337,20
1448,0.42,0.79,0.42,-0.37,-3.66,-2.69,223,280,215,445,333,20
1449,0.41,0.8,0.43,0.49,-5.07,-4.15,223,280,212,445,343,20
1450,0.42,0.8,0.42,0.61,-3.36,-2.44,221,283,208,448,335,20
1451,0.41,0.81,0.44,1.1,-3.42,-2.38,222,285,209,446,337,20
1452,0.42,0.81,0.43,-0.37,-1.77,-2.5,218,281,208,444,333,20
1453,0.44,0.8,0.43,0.85,-2.87,-2.14,221,281,215,441,336,20
1454,0.42,0.8,0.44,1.4,-2.56,-2.99,223,281,215,453,336,20
1455,0.42,0.79,0.43,-0.98,-2.93,-2.62,221,284,213,442,336,20
1456,0.45,0.79,0.42,2.32,-6.41,-3.72,221,280,220,446,337,20
1457,0.44,0.8,0.42,1.59,-2.08,-2.08,224,281,222,450,332,20
1458,0.44,0.79,0.43,0.67,-3.23,-3.42,222,277,215,446,331,20
1459,0.44,0.8,0.42,-0.31,-3.3,-1.71,224,282,214,442,337,20
1460,0.43,0.79,0.42,1.04,-2.08,-2.5,221,281,218,447,328,20
1461,0.46,0.79,0.43,0.49,-4.03,-1.59,222,281,215,444,334,20
1462,0.42,0.79,0.42,-0.49,-2.14,-2.08,223,282,216,449,335,20
1463,0.42,0.78,0.44,1.1,-3.17,-4.15,222,283,213,443,335,20
1464,0.44,0.81,0.41,1.59,-2.08,-2.75,222,279,215,450,338,20
1465,0.44,0.8,0.41,-1.16,-3.23,-1.28,223,297,210,451,334,20
1466,0.44,0.8,0.42,-0.24,-3.3,-1.77,220,282,216,444,338,20
1467,0.44,0.8,0.42,-0.24,-3.05,-1.71,220,281,214,445,336,20
1468,0.44,0.79,0.42,-0.49,-3.72,-2.62,222,282,213,446,337,20
1469,0.44,0.8,0.42,0.61,-2.62,-2.2,221,283,215,448,332,20
1470,0.44,0.8,0.43,0.73,-2.56,-2.26,225,283,210,449,333,20
1471,0.44,0.8,0.42,0.0,-3.11,-2.81,219,280,215,447,336,20
1472,0.44,0.8,0.43,0.85,-3.78,-1.95,224,282,210,446,336,20
1473,0.44,0.79,0.42,-0.55,-2.01,-2.44,231,284,209,450,337,20
1474,0.43,0.79,0.42,1.1,-3.66,-3.23,222,284,209,457,334,20
1475,0.44,0.79,0.41,0.55,-1.89,-2.62,220,281,213,451,330,20
1476,0.44,0.8,0.41,1.16,-2.5,-2.44,218,284,210,449,338,20
1477,0.44,0.8,0.41,-0.67,-2.44,-0.73,224,281,212,449,333,20
1478,0.44,0.79,0.42,0.37,-4.58,-2.5,222,287,213,448,337,20
1479,0.44,0.78,0.42,0.92,-3.23,-3.3,223,281,213,445,338,20
1480,0.45,0.8,0.42,-1.4,-3.91,-2.5,224,281,215,445,337,20
1481,0.45,0.81,0.42,0.12,-3.05,-2.75,222,281,220,449,338,20
1482,0.44,0.81,0.44,-0.49,-0.73,-2.44,222,281,218,450,335,20
1483,0.42,0.8,0.4,1.65,-2.44,-0.61,224,285,219,457,334,20
1484,0.46,0.8,0.42,-1.65,-2.81,-2.32,220,281,217,446,335,20
1485,0.44,0.8,0.43,0.06,-4.09,-1.46,222,282,216,445,337,20
1486,0.43,0.79,0.41,1.59,-1.77,-2.5,222,280,216,442,336,20
1487,0.42,0.79,0.42,-0.06,-2.62,-2.69,218,273,215,450,334,20
1488,0.49,0.79,0.4,-4.15,0.0,1.34,225,284,213,449,336,20
1489,0.47,0.78,0.43,0.79,-1.46,-0.49,223,283,216,448,334,20
1490,0.46,0.79,0.44,1.59,-2.44,-6.35,222,284,220,443,333,20
1491,0.45,0.78,0.4,1.95,-0.18,-1.04,222,282,217,446,340,20
1492,0.42,0.81,0.42,0.06,-2.99,-2.26,224,280,216,446,336,20
1493,0.44,0.79,0.41,-2.81,-3.54,-3.54,222,283,213,444,336,20
1494,0.45,0.81,0.43,-0.55,-1.95,-3.78,221,280,215,444,336,20
1495,0.44,0.8,0.39,-0.55,-2.87,-1.4,220,283,210,461,339,20
1496,0.45,0.83,0.42,0.67,-2.44,-4.21,222,279,215,447,336,20
1497,0.47,0.8,0.38,0.85,-1.71,-2.32,221,285,212,449,336,20
1498,0.44,0.8,0.4,1.89,-3.48,-0.85,221,282,213,446,338,20
1499,0.44,0.8,0.41,-2.26,-2.81,-2.26,220,277,214,448,337,20
1500,0.48,0.78,0.39,-2.87,-3.72,1.46,221,280,216,451,336,20
1501,0.45,0.78,0.43,1.71,1.16,0.43,221,285,216,449,336,20
1502,0.46,0.76,0.42,2.69,0.18,-1.65,223,283,214,448,336,20
1503,0.49,0.8,0.42,4.88,-2.62,-0.31,226,284,215,450,334,20
1504,0.45,0.77,0.41,0.31,-0.31,-1.77,223,282,219,445,334,20
1505,0.46,0.78,0.42,-3.23,-3.91,-6.53,223,277,218,448,334,20
1506,0.47,0.82,0.44,2.44,-3.42,-2.32,220,282,212,448,335,20
1507,0.47,0.77,0.46,4.03,-2.5,-3.91,217,284,213,446,334,20
1508,0.46,0.75,0.44,1.34,-3.66,-3.6,222,278,214,446,336,20
1509,0.49,0.76,0.46,-0.79,-3.23,-3.66,221,281,214,446,330,20
1510,0.47,0.75,0.44,1.53,-4.64,-1.1,223,285,209,448,331,20
1511,0.5,0.77,0.42,3.11,-0.73,1.53,222,283,216,449,339,20
1512,0.51,0.79,0.41,9.52,-1.22,-5.07,220,280,214,445,334,20
1513,0.51,0.78,0.41,-1.71,-2.56,-2.44,222,281,214,446,338,20
1514,0.5,0.76,0.41,0.0,-3.36,-2.56,220,283,213,446,336,20
1515,0.49,0.76,0.43,-0.92,-2.93,-3.3,225,283,215,446,337,20
1516,0.48,0.77,0.43,0.73,-0.37,-3.36,222,283,216,445,339,20
1517,0.49,0.76,0.43,-1.71,-4.46,-1.53,224,284,215,448,336,20
1518,0.49,0.77,0.43,-0.31,-3.6,-0.18,223,297,216,446,332,20
1519,0.49,0.76,0.44,-0.24,-1.53,-2.69,221,280,229,446,336,20
1520,0.48,0.76,0.44,1.59,-7.45,-2.75,221,280,217,443,336,20
1521,0.46,0.76,0.44,0.12,-4.33,-5.0,226,284,211,445,333,20
1522,0.22,0.78,0.62,7.63,-3.48,-26.86,255,330,253,443,341,20
1523,0.12,0.82,0.53,17.58,10.8,10.44,282,330,255,446,346,20
1524,0.24,0.84,0.48,6.16,-9.52,-3.42,262,329,253,452,350,20
1525,0.2,0.87,0.49,6.53,7.57,-5.37,256,336,253,451,348,20
1526,0.24,0.87,0.45,2.32,-4.39,5.74,264,328,251,450,356,20
1527,0.23,0.84,0.46,-5.0,-0.49,-7.2,256,329,252,452,355,20
1528,0.14,0.87,0.43,-0.12,-1.46,-2.75,265,329,251,451,355,20
1529,0.22,0.95,0.43,4.82,-3.78,-5.55,257,331,253,442,357,20
1530,0.19,0.83,0.43,2.99,-5.37,-3.23,259,328,251,453,357,20
1531,0.17,0.89,0.45,-0.67,-2.81,-7.32,260,333,249,447,360,20
1532,0.19,0.91,0.42,1.22,-2.32,-1.71,257,326,255,450,357,20
1533,0.17,0.84,0.39,9.34,-1.77,-4.88,257,328,251,450,358,20
1534,0.17,0.93,0.39,3.05,-0.61,-17.64,255,332,249,449,361,20
1535,0.16,0.97,0.36,2.44,-3.54,-8.67,261,330,249,450,358,20
1536,0.18,0.92,0.36,6.29,-1.59,-7.14,260,333,251,446,357,20
1537,0.14,0.89,0.33,-1.1,-2.75,-0.92,261,331,250,450,362,20
1538,0.18,0.94,0.32,1.53,-2.26,-1.95,258,329,251,451,357,20
1539,0.16,0.92,0.31,3.78,-2.44,-2.69,259,330,248,442,359,20
1540,0.14,0.95,0.28,3.66,0.85,-7.87,258,334,247,453,362,20
1541,0.12,0.95,0.28,0.43,-2.08,-2.93,263,329,250,448,361,20
1542,0.13,0.9,0.25,5.43,-4.7,-1.04,258,331,250,449,363,20
1543,0.12,0.93,0.27,-3.17,-5.74,0.31,259,335,253,450,361,20
1544,0.15,0.97,0.3,-5.68,-5.8,2.62,264,333,247,449,364,20
1545,0.17,0.93,0.32,1.04,-4.58,-1.65,257,333,247,459,361,20
1546,0.16,0.92,0.32,1.95,-2.69,-0.49,259,331,249,452,361,20
1547,0.17,0.94,0.31,0.55,-3.11,-2.01,260,328,245,452,364,20
1548,0.19,0.92,0.31,-1.65,-4.15,0.31,260,327,249,455,364,20
1549,0.17,0.94,0.34,-2.14,-1.04,-3.11,263,341,247,445,361,20
1550,0.21,0.9,0.36,-1.59,-2.56,-0.55,262,330,245,451,364,20
1551,0.2,0.92,0.38,-1.59,-4.52,2.14,262,330,248,450,364,20
1552,0.18,0.88,0.37,3.17,-0.43,5.31,257,328,249,448,366,20
1553,0.19,0.9,0.36,2.38,-0.92,1.1,260,330,244,453,366,20
1554,0.18,0.9,0.38,-0.43,-5.55,-3.54,261,330,245,454,368,20
1555,0.2,0.91,0.36,-2.08,-3.23,-3.17,261,333,251,451,367,20
1556,0.2,0.92,0.32,11.47,-0.61,-5.49,261,335,249,451,363,20
1557,0.2,0.91,0.3,1.95,-1.53,-2.99,261,332,248,450,363,20
1558,0.18,0.93,0.3,0.12,-2.32,-2.38,264,333,250,451,368,20
1559,0.18,0.95,0.31,-2.99,-3.66,-1.71,263,332,253,451,377,20
1560,0.2,0.92,0.32,-0.61,-4.88,-2.14,261,334,250,448,365,20
1561,0.2,0.9,0.29,11.29,-3.23,2.38,257,333,248,447,367,20
1562,0.19,0.92,0.29,-1.1,-2.56,-5.49,261,333,255,446,366,20
1563,0.21,0.93,0.3,-1.22,-4.21,-0.61,261,332,252,453,368,20
1564,0.19,0.94,0.31,4.27,-1.77,-2.93,261,333,251,451,369,20
1565,0.22,0.93,0.29,0.43,-2.26,-3.42,260,329,252,453,364,20
1566,0.2,0.91,0.31,-0.49,-3.05,-3.54,260,335,248,450,374,20
1567,0.17,0.93,0.32,-1.95,-1.46,-2.08,262,335,253,454,367,20
1568,0.21,0.92,0.3,3.85,-2.87,-0.37,262,332,249,445,368,20
1569,0.19,0.93,0.32,-10.44,-4.09,-4.33,263,336,251,452,365,20
1570,0.17,0.94,0.29,4.15,-1.28,-4.82,261,336,250,454,364,20
1571,0.18,0.93,0.31,0.79,-3.66,-5.8,261,333,250,445,364,20
1572,0.17,0.93,0.31,-0.18,-3.66,-2.14,260,336,250,453,366,20
1573,0.19,0.94,0.29,-2.93,-4.15,-2.14,267,332,250,456,365,20
1574,0.17,0.93,0.32,-0.98,-2.56,-2.2,262,332,250,447,368,20
1575,0.19,0.95,0.31,1.16,-2.32,-2.87,268,333,254,457,370,20
1576,0.21,0.95,0.32,-0.67,-5.31,1.46,264,335,249,452,370,20
1577,0.22,0.9,0.33,0.55,-3.17,-2.2,261,334,250,451,366,20
1578,0.22,0.92,0.34,-3.36,-4.88,-4.21,261,336,250,448,369,20
1579,0.22,0.89,0.31,4.03,-3.85,-3.05,264,336,251,454,367,20
1580,0.23,0.93,0.32,1.83,-3.48,-1.65,257,330,252,448,369,20
1581,0.21,0.94,0.33,3.6,-3.6,-2.69,262,333,253,450,369,20
1582,0.24,0.91,0.32,-0.43,-4.03,-1.89,261,333,248,456,368,20
1583,0.22,0.91,0.32,-1.4,-3.6,-2.32,272,333,254,456,367,20
1584,0.21,0.93,0.33,4.46,-1.04,-3.66,262,331,253,449,367,20
1585,0.21,0.92,0.33,0.61,-3.11,-1.77,264,332,254,450,369,20
1586,0.21,0.91,0.3,-2.75,-1.89,-4.09,264,335,253,455,368,20
1587,0.2,0.93,0.32,-0.79,-3.97,-2.2,260,334,251,456,368,20
1588,0.19,0.93,0.34,-5.55,-4.64,-5.8,262,332,252,452,368,20
1589,0.19,0.91,0.33,3.42,-5.55,-1.16,258,338,252,449,367,20
1590,0.2,0.92,0.32,2.01,-4.03,-3.36,258,334,252,453,367,20
1591,0.2,0.92,0.32,-0.98,-3.78,-0.98,264,335,264,454,367,20
1592,0.21,0.9,0.3,3.85,-3.85,1.04,263,336,255,453,368,20
1593,0.22,0.92,0.31,-1.59,-0.55,-0.85,262,331,254,454,369,20
1594,0.23,0.91,0.31,-2.5,-5.07,-4.09,265,337,254,452,367,20
1595,0.22,0.92,0.3,9.22,-0.61,-1.16,260,334,255,456,370,20
1596,0.28,0.92,0.29,7.75,-7.87,13.37,262,330,251,453,368,20
1597,0.25,0.89,0.3,0.06,-2.08,-5.98,263,330,253,454,367,20
1598,0.25,0.93,0.32,-0.79,-2.69,-2.69,262,332,255,449,369,20
1599,0.25,0.91,0.31,2.38,-2.99,-3.05,264,334,255,450,367,20
1600,0.27,0.91,0.3,1.95,-2.26,2.32,265,336,253,454,371,20
1601,0.25,0.91,0.31,1.83,-3.11,-3.48,265,334,255,453,367,20
1602,0.25,0.9,0.32,0.49,-1.77,0.0,271,333,251,450,369,20
1603,0.28,0.9,0.32,1.1,-3.42,-3.48,265,336,253,454,369,20
1604,0.28,0.89,0.33,-4.09,-5.13,-2.38,265,331,254,454,367,20
1605,0.24,0.9,0.32,3.17,-4.15,-2.62,263,334,253,455,369,20
1606,0.26,0.91,0.31,4.46,-1.89,-3.3,265,336,252,457,366,20
1607,0.26,0.91,0.32,-0.61,-2.87,-2.32,264,336,253,452,367,20
1608,0.26,0.91,0.32,-0.73,-3.6,-2.99,262,336,254,457,368,20
1609,0.24,0.92,0.32,-2.69,-3.66,-3.78,260,335,253,453,368,20
1610,0.27,0.92,0.31,-5.62,-4.27,-4.76,262,336,253,453,368,20
1611,0.23,0.9,0.31,1.53,-5.0,-2.38,259,336,253,453,367,20
1612,0.25,0.9,0.32,2.08,-2.08,-2.26,265,335,252,452,368,20
1613,0.29,0.9,0.31,-1.53,-8.12,6.77,264,335,255,454,365,20
1614,0.27,0.89,0.31,1.34,-2.5,-6.84,262,335,253,453,366,20
1615,0.26,0.89,0.32,-0.37,-3.78,-1.89,264,335,257,455,367,20
1616,0.28,0.91,0.31,-1.53,-2.26,-3.97,262,336,252,450,369,20
1617,0.33,0.92,0.28,-14.83,-0.79,-4.27,265,337,254,464,368,20
1618,0.31,0.9,0.3,-0.31,-1.46,-6.53,262,336,256,458,366,20
1619,0.3,0.91,0.3,3.48,-0.49,-3.3,263,334,253,450,367,20
1620,0.33,0.91,0.29,12.63,1.28,1.4,262,336,254,454,369,20
1621,0.29,0.9,0.3,-3.23,-3.23,-3.54,262,336,254,454,368,20
1622,0.29,0.92,0.3,4.94,-2.87,-2.75,269,335,253,454,369,20
1623,0.3,0.93,0.3,2.14,-4.58,-1.89,262,337,253,450,369,20
1624,0.3,0.9,0.29,1.89,-4.21,-0.92,263,338,250,450,368,20
1625,0.29,0.91,0.3,0.0,-3.17,-2.81,265,336,256,453,368,20
1626,0.31,0.91,0.31,1.59,-3.17,-2.56,263,334,255,454,367,20
1627,0.32,0.91,0.3,2.62,-2.81,-0.98,263,337,253,455,366,20
1628,0.31,0.9,0.29,0.06,-1.83,-3.42,263,332,253,454,370,20
1629,0.29,0.92,0.31,-0.12,-3.85,-2.56,265,333,256,450,371,20
1630,0.3,0.9,0.3,0.31,-3.97,1.59,265,335,253,452,365,20
1631,0.29,0.89,0.32,-0.37,-3.97,-3.36,263,337,254,452,365,20
1632,0.3,0.9,0.31,2.99,-3.11,-3.72,265,335,254,457,369,20
1633,0.29,0.9,0.3,3.48,-2.5,-1.95,262,335,252,454,368,20
1634,0.28,0.89,0.3,-2.08,-2.75,-5.19,267,332,258,457,370,20
1635,0.28,0.91,0.31,-6.96,-5.62,-1.46,264,341,254,455,369,20
1636,0.28,0.92,0.31,-0.67,-3.17,-2.38,264,333,258,455,368,20
1637,0.28,0.9,0.31,0.98,-2.62,-1.59,266,330,254,454,371,20
1638,0.28,0.91,0.3,-1.22,-1.71,-2.26,264,331,255,457,370,20
1639,0.28,0.92,0.31,0.92,-2.81,-3.48,256,333,258,456,370,20
1640,0.28,0.92,0.31,1.04,-2.87,-2.44,266,335,255,453,370,20
1641,0.27,0.91,0.31,2.14,-3.11,-3.11,264,335,256,451,368,20
1642,0.25,0.9,0.31,0.67,-2.44,-2.87,264,335,256,453,370,20
1643,0.26,0.92,0.32,2.14,-3.3,-1.83,265,336,258,452,368,20
1644,0.26,0.92,0.33,-2.08,-5.19,-4.03,265,332,258,450,366,20
1645,0.28,0.91,0.33,0.18,-1.89,-2.38,259,336,258,450,369,20
1646,0.27,0.93,0.31,1.28,-2.14,-2.14,260,333,259,455,370,20
1647,0.27,0.91,0.33,-7.45,-6.65,-3.17,265,334,257,454,368,20
1648,0.28,0.9,0.31,-2.38,-4.64,-2.26,266,334,258,455,366,20
1649,0.26,0.91,0.33,-0.55,-3.23,-2.44,264,339,259,455,370,20
1650,0.26,0.92,0.32,0.12,-3.48,-3.36,264,335,259,457,370,20
1651,0.26,0.91,0.31,1.1,-2.56,-4.88,267,334,257,459,369,20
1652,0.28,0.91,0.31,-0.85,-2.5,-2.81,262,335,254,454,369,20
1653,0.27,0.91,0.31,-6.23,-2.56,-4.46,265,335,257,454,369,20
1654,0.25,0.93,0.31,2.44,-1.59,-3.3,267,336,258,450,370,20
1655,0.22,0.91,0.31,-0.98,-1.77,-4.03,263,336,258,456,371,20
1656,0.27,0.92,0.31,-2.14,-2.69,-4.09,264,336,258,455,371,20
1657,0.25,0.93,0.31,-0.37,-3.11,-1.89,264,338,259,457,372,20
1658,0.25,0.91,0.32,-1.1,-3.72,-3.6,266,335,258,454,370,20
1659,0.27,0.91,0.3,-0.18,-4.03,-2.01,265,336,257,462,368,20
1660,0.25,0.91,0.32,0.73,-2.38,-2.93,266,335,259,459,372,20
1661,0.26,0.91,0.3,7.26,-0.61,-2.2,267,337,258,457,370,20
1662,0.26,0.91,0.33,-2.14,-3.3,-1.53,267,336,259,454,370,20
1663,0.27,0.91,0.33,0.37,-2.62,-3.23,265,337,258,454,370,20
1664,0.25,0.9,0.33,2.08,-1.53,-3.42,265,337,256,455,372,20
1665,0.25,0.91,0.33,-0.67,-2.26,-2.62,262,342,259,457,372,20
1666,0.26,0.93,0.33,0.37,-2.08,-3.85,264,333,259,453,370,20
1667,0.24,0.9,0.33,1.59,-2.32,-2.38,263,337,258,453,370,20
1668,0.25,0.92,0.29,-3.17,-3.36,-3.97,267,336,259,454,366,20
1669,0.28,0.91,0.28,7.93,-3.23,-1.83,267,337,258,454,372,20
1670,0.25,0.91,0.32,-1.71,-3.66,-3.23,264,336,258,456,370,20
1671,0.26,0.91,0.3,2.26,-3.48,-0.98,272,336,257,454,368,20
1672,0.26,0.91,0.31,-1.16,-4.46,-0.55,265,339,259,454,369,20
1673,0.26,0.91,0.32,0.12,-2.69,-2.56,265,339,258,449,371,20
1674,0.26,0.92,0.3,1.34,-1.95,-3.11,261,335,257,454,373,20
1675,0.28,0.91,0.3,-5.31,-2.99,-2.99,269,338,258,454,371,20
1676,0.26,0.91,0.3,1.34,-3.36,-2.87,271,336,261,453,370,20
1677,0.26,0.96,0.32,-3.17,2.08,-0.79,266,332,257,456,368,20
1678,0.31,0.93,0.33,-6.9,0.43,-4.94,262,337,260,455,371,20
1679,0.24,0.84,0.36,-2.32,-3.6,0.73,268,338,260,453,368,20
1680,0.27,0.89,0.33,5.43,-3.6,-5.25,266,338,257,453,368,20
1681,0.27,0.94,0.29,-2.32,-7.32,4.64,269,337,259,457,365,20
1682,0.25,0.96,0.3,-0.73,-1.53,0.0,267,333,259,455,366,20
1683,0.24,0.98,0.36,-2.93,-8.18,-3.91,265,333,263,455,367,20
1684,0.21,0.93,0.34,-6.16,-1.65,1.46,265,336,262,456,369,20
1685,0.25,0.88,0.36,5.07,-3.3,-2.75,266,334,260,454,369,20
1686,0.21,0.92,0.36,-1.77,-2.81,-1.16,268,334,258,449,364,20
1687,0.23,0.9,0.35,-1.71,-3.17,-1.46,266,336,262,455,367,20
1688,0.27,0.92,0.34,2.62,-3.66,-2.08,266,336,266,452,368,20
1689,0.25,0.9,0.35,2.2,-1.46,-1.4,266,336,261,455,370,20
1690,0.26,0.89,0.36,-1.89,-2.69,-3.11,278,335,260,451,369,20
1691,0.24,0.91,0.35,2.75,-2.44,-3.36,266,335,261,455,370,20
1692,0.26,0.89,0.32,4.76,-1.95,-2.5,269,334,261,452,371,20
1693,0.23,0.91,0.35,-1.16,-3.11,-3.17,263,338,260,458,369,20
1694,0.27,0.91,0.34,4.27,-4.21,-1.71,266,338,256,449,368,20
1695,0.25,0.88,0.33,-0.67,-2.75,-3.17,267,336,262,449,369,20
1696,0.26,0.9,0.31,2.62,-8.48,-1.95,269,333,261,454,372,20
1697,0.26,0.9,0.32,-1.16,-2.81,-1.95,269,336,261,449,369,20
1698,0.27,0.91,0.32,-0.79,-2.32,-0.98,268,335,260,454,372,20
1699,0.25,0.91,0.33,2.38,-3.48,-4.09,266,336,259,455,369,20
1700,0.25,0.93,0.32,1.16,-1.16,-3.72,265,336,261,456,370,20
1701,0.26,0.9,0.33,-3.23,-4.03,-3.78,269,337,261,453,370,20
1702,0.24,0.92,0.33,-1.16,-2.93,-3.23,269,336,263,453,368,20
1703,0.25,0.92,0.33,2.87,-2.38,-3.97,264,335,264,449,371,20
1704,0.24,0.93,0.33,1.16,-2.93,-2.14,266,333,261,458,370,20
1705,0.23,0.91,0.32,-15.99,27.22,-34.48,267,336,267,457,370,20
1706,0.25,0.92,0.32,5.49,-7.63,1.04,275,334,265,454,369,20
1707,0.26,0.94,0.33,-2.01,-5.13,-2.32,268,335,263,458,370,20
1708,0.25,0.91,0.33,-3.72,-5.74,0.12,267,338,262,460,368,20
1709,0.24,0.91,0.34,1.16,-3.91,-3.91,265,338,259,455,370,20
1710,0.25,0.89,0.33,0.0,-5.25,-0.55,267,333,260,454,368,20
1711,0.26,0.89,0.34,-1.89,-3.78,-0.55,269,338,261,453,371,20
1712,0.25,0.91,0.35,0.0,-2.5,-2.32,268,338,264,459,370,20
1713,0.25,0.91,0.35,0.0,-3.3,-2.38,307,337,262,458,369,20
1714,0.27,0.89,0.34,-0.24,-6.1,-0.55,266,337,263,454,370,20
1715,0.26,0.91,0.33,3.97,-2.44,-2.62,269,338,265,454,371,20
1716,0.28,0.9,0.33,-0.55,-2.69,-3.3,267,339,265,455,370,20
1717,0.27,0.92,0.32,1.53,-2.75,-3.42,269,338,265,455,370,20
1718,0.26,0.9,0.33,-1.83,-3.17,-6.04,268,338,263,458,368,20
1719,0.27,0.91,0.32,0.85,-3.17,-0.85,268,336,262,459,368,20
1720,0.26,0.89,0.33,5.07,-2.01,-1.89,267,337,263,459,370,20
1721,0.26,0.92,0.32,1.28,-3.23,-2.93,268,334,264,456,367,20
1722,0.3,0.91,0.32,0.61,-3.05,-5.49,267,338,264,455,369,20
1723,0.28,0.89,0.32,1.46,-3.11,-2.75,269,338,262,469,366,20
1724,0.28,0.9,0.29,3.97,-6.53,4.94,270,339,260,449,371,20
1725,0.27,0.88,0.31,-1.34,-2.38,-2.26,267,337,259,459,370,20
1726,0.27,0.92,0.34,0.85,-5.13,-2.56,266,339,262,452,370,20
1727,0.28,0.89,0.34,-5.0,-2.99,-0.85,269,337,261,460,369,20
1728,0.27,0.9,0.33,-1.16,-2.56,-0.98,268,337,264,455,373,20
1729,0.27,0.89,0.35,-1.22,-1.71,-1.04,268,339,262,454,370,20
1730,0.29,0.89,0.34,2.38,-3.54,-2.14,268,338,262,463,369,20
1731,0.29,0.89,0.34,0.92,-0.85,-3.23,267,338,262,450,370,20
1732,0.28,0.88,0.36,0.06,-2.32,-3.17,267,336,265,448,369,20
1733,0.34,0.87,0.37,-17.21,-7.2,15.38,266,335,262,454,367,20
1734,0.33,0.85,0.38,5.13,-4.33,-4.03,269,337,261,455,370,20
1735,0.35,0.86,0.38,-1.16,0.73,-6.77,268,335,263,454,371,20
1736,0.34,0.86,0.35,2.14,-5.43,-1.89,270,337,264,457,371,20
1737,0.33,0.86,0.38,-1.34,-2.5,-0.37,268,338,260,448,371,20
1738,0.35,0.87,0.38,-0.98,-3.6,-2.62,265,338,259,456,366,20
1739,0.35,0.86,0.37,1.53,-4.15,-2.5,269,336,262,459,370,20
1740,0.33,0.86,0.38,0.12,-2.87,-2.08,270,335,263,458,370,20
1741,0.36,0.88,0.37,-1.83,-3.11,-1.89,269,337,264,448,370,20
1742,0.32,0.86,0.39,3.78,-1.71,-3.78,270,345,263,457,370,20
1743,0.32,0.85,0.38,0.79,-0.55,-2.81,268,344,264,456,370,20
1744,0.32,0.86,0.38,0.61,-4.33,-2.69,269,351,262,457,369,20
1745,0.27,0.86,0.36,2.93,0.06,-5.37,270,339,263,453,371,20
1746,0.29,0.88,0.34,6.41,0.12,-11.23,269,339,263,451,370,20
1747,0.25,0.95,0.31,1.59,-10.25,-3.3,269,338,261,452,360,20
1748,0.28,0.89,0.3,-0.92,-0.18,0.12,265,336,260,455,361,20
1749,0.27,0.92,0.31,-3.36,-0.43,1.16,270,336,260,452,359,20
1750,0.31,0.92,0.33,1.16,0.67,-3.17,266,336,263,449,364,20
1751,0.27,0.91,0.32,-3.6,-0.67,1.1,270,339,266,453,361,20
1752,0.28,0.9,0.34,1.83,-5.07,-3.85,269,339,264,457,360,20
1753,0.25,0.88,0.36,-5.13,4.52,1.59,267,339,263,453,362,20
1754,0.29,0.88,0.35,-1.16,-3.91,-5.25,270,337,264,457,364,20
1755,0.28,0.89,0.37,2.32,-1.04,-2.32,269,336,263,454,363,20
1756,0.29,0.88,0.36,-3.05,-3.6,-3.48,269,336,261,458,365,20
1757,0.29,0.95,0.38,3.97,-4.21,-2.87,270,335,260,457,365,20
1758,0.31,0.88,0.34,5.07,-4.21,-2.69,267,336,259,457,366,20
1759,0.29,0.89,0.35,-4.03,-5.86,-2.69,270,336,260,453,368,20
1760,0.29,0.88,0.38,-0.55,-2.14,-3.42,268,338,260,453,365,20
1761,0.29,0.88,0.36,1.28,-3.11,-1.77,269,336,262,454,365,20
1762,0.3,0.85,0.36,1.71,-5.19,-2.14,269,337,264,458,363,20
1763,0.26,0.86,0.34,-1.1,-0.24,-2.38,268,336,262,458,366,20
1764,0.29,0.91,0.37,-1.4,-5.49,-3.36,276,337,263,455,365,20
1765,0.28,0.86,0.38,-1.22,-4.09,-2.01,265,333,263,455,367,20
1766,0.29,0.89,0.38,1.65,-2.93,-5.0,270,338,265,453,367,20
1767,0.29,0.86,0.39,-3.48,-4.33,-3.17,271,336,264,453,368,20
1768,0.27,0.87,0.39,-1.1,-2.14,-3.17,269,333,263,450,366,20
1769,0.29,0.88,0.38,5.55,-1.83,-1.65,270,336,264,448,366,20
1770,0.28,0.89,0.39,1.53,-2.99,-2.01,270,337,265,452,367,20
1771,0.28,0.87,0.38,0.0,-3.17,-2.01,276,335,263,452,366,20
1772,0.28,0.88,0.4,-1.71,-3.11,-2.08,269,337,264,457,365,20
1773,0.29,0.88,0.39,-1.34,-2.38,-2.44,271,337,266,453,363,20
1774,0.3,0.88,0.4,4.03,-3.85,-2.99,268,338,263,455,368,20
1775,0.3,0.87,0.38,0.0,-4.15,-2.26,275,333,264,454,365,20
1776,0.31,0.87,0.39,0.55,-3.66,-1.89,269,336,264,454,370,20
1777,0.31,0.87,0.39,-1.22,-3.36,-2.99,269,336,266,454,365,20
1778,0.31,0.86,0.39,4.76,-1.65,-2.69,271,338,264,456,369,20
1779,0.31,0.87,0.38,2.08,-2.69,-2.44,268,343,267,459,366,20
1780,0.29,0.86,0.39,0.43,-1.4,-2.87,269,336,261,458,368,20
1781,0.31,0.86,0.39,-0.79,-2.93,-2.56,268,339,265,457,369,20
1782,0.29,0.87,0.4,2.81,-0.24,-3.78,270,336,263,450,369,20
1783,0.3,0.88,0.39,-0.55,-3.3,-2.99,284,336,265,454,370,20
1784,0.3,0.87,0.38,1.22,-1.95,-3.17,271,337,266,455,366,20
1785,0.31,0.88,0.39,1.1,-2.32,-2.99,269,335,264,449,370,20
1786,0.31,0.87,0.38,-0.24,-3.23,-2.87,269,336,263,454,367,20
1787,0.31,0.88,0.38,0.79,-3.36,-2.14,265,342,266,457,367,20
1788,0.28,0.88,0.39,3.3,-1.95,-2.93,268,335,263,459,369,20
1789,0.31,0.86,0.39,-0.61,-3.91,-3.11,266,338,265,454,372,20
1790,0.3,0.88,0.38,0.55,-2.81,-2.56,271,336,262,454,369,20
1791,0.32,0.87,0.39,0.43,-3.6,-2.26,269,339,265,458,370,20
1792,0.3,0.86,0.39,-2.69,-3.78,-3.11,283,337,263,459,367,20
1793,0.31,0.87,0.38,1.53,-2.08,-1.77,266,337,268,458,369,20
1794,0.3,0.87,0.4,1.34,-2.99,-3.48,269,339,261,450,371,20
1795,0.31,0.86,0.4,-0.79,-3.72,-1.77,271,337,264,454,371,20
1796,0.3,0.87,0.39,0.85,-3.36,-2.38,269,338,263,455,370,20
1797,0.3,0.86,0.39,0.67,-2.93,-1.53,269,334,266,450,369,20
1798,0.31,0.88,0.39,1.77,-3.11,-2.01,270,335,266,458,367,20
1799,0.31,0.88,0.37,12.88,5.25,-1.28,266,338,267,455,370,20
1800,0.31,0.87,0.39,0.12,-3.36,-2.75,269,346,267,457,368,20
1801,0.3,0.88,0.39,-0.92,-3.97,-3.66,271,338,263,456,366,20
1802,0.31,0.86,0.38,0.61,-3.17,-1.65,268,337,265,455,370,20
1803,0.31,0.87,0.39,-0.06,-3.85,-2.69,267,335,273,450,370,20
1804,0.3,0.87,0.39,2.32,-4.39,-1.1,275,337,266,454,369,20
1805,0.31,0.88,0.37,3.11,-1.71,-3.48,270,336,264,452,369,20
1806,0.31,0.87,0.39,0.85,-3.36,-2.38,269,340,266,455,369,20
1807,0.32,0.87,0.38,-0.55,-3.54,-2.75,269,336,265,458,368,20
1808,0.31,0.87,0.39,-1.28,-3.3,-2.75,269,336,264,457,370,20
1809,0.31,0.87,0.38,-3.54,-4.46,-2.87,270,337,265,457,368,20
1810,0.31,0.88,0.39,1.95,-2.69,-0.67,269,334,264,455,370,20
1811,0.33,0.87,0.38,1.77,-3.48,-1.83,269,334,266,455,370,20
1812,0.32,0.87,0.39,-0.85,-3.05,-2.69,269,336,262,454,367,20
1813,0.33,0.86,0.38,0.67,-3.36,-2.01,269,339,266,455,372,20
1814,0.31,0.86,0.38,1.95,-2.99,-3.91,269,337,267,456,368,20
1815,0.32,0.87,0.38,-2.99,-4.03,-1.71,271,338,265,455,370,20
1816,0.33,0.85,0.39,-0.79,-5.86,-4.82,270,337,264,455,369,20
1817,0.32,0.87,0.39,3.05,-0.98,1.22,269,336,268,459,369,20
1818,0.37,0.85,0.41,-0.06,-2.75,-4.7,272,339,267,454,369,20
1819,0.33,0.85,0.4,0.67,-5.92,-3.78,270,338,267,458,371,20
1820,0.34,0.85,0.42,2.38,-1.53,-3.6,271,337,267,456,371,20
1821,0.32,0.85,0.41,4.15,-2.81,-2.14,269,338,265,459,370,20
1822,0.32,0.79,0.41,-3.36,-8.3,-8.0,269,339,265,454,370,20
1823,0.36,0.84,0.42,-0.98,-2.26,-2.5,269,337,265,455,369,20
1824,0.33,0.87,0.42,2.08,-2.08,-1.22,272,338,263,457,370,20
1825,0.36,0.89,0.37,-0.85,-3.97,-4.7,268,336,265,456,369,20
1826,0.38,0.83,0.38,7.57,-8.85,-3.91,302,337,268,459,365,20
1827,0.34,0.87,0.37,-1.4,-4.82,-2.32,270,335,266,459,369,20
1828,0.32,0.85,0.4,0.31,1.77,-2.2,271,337,268,454,372,20
1829,0.35,0.83,0.38,-2.69,-5.37,-1.65,269,337,264,457,369,20
1830,0.36,0.86,0.37,-0.37,-2.2,-2.01,269,348,266,453,366,20
1831,0.35,0.84,0.38,-1.16,-4.03,-5.19,271,337,266,452,369,20
1832,0.34,0.87,0.38,0.24,-4.76,-3.78,270,337,268,455,369,20
1833,0.34,0.85,0.38,5.31,-1.59,-0.85,270,337,266,456,370,20
1834,0.35,0.86,0.39,-2.99,-4.39,-3.17,271,339,267,457,370,20
1835,0.33,0.86,0.38,-0.37,-4.39,-3.72,268,337,265,455,366,20
1836,0.35,0.86,0.38,1.4,-1.53,-0.92,269,340,265,453,368,20
1837,0.35,0.84,0.38,-2.56,-4.64,-1.53,270,336,263,457,372,20
1838,0.36,0.86,0.36,2.56,-4.7,-1.83,274,341,267,454,369,20
1839,0.35,0.86,0.37,1.89,-4.88,0.43,272,337,266,453,369,20
1840,0.35,0.87,0.38,2.26,-2.56,-2.99,273,335,266,451,369,20
1841,0.35,0.85,0.38,0.73,-1.83,-1.77,271,337,263,454,369,20
1842,0.35,0.87,0.37,2.5,-3.3,-2.32,271,346,265,456,371,20
1843,0.35,0.87,0.38,0.0,-2.99,-2.75,269,339,273,455,376,20
1844,0.36,0.87,0.37,1.59,-4.64,-0.98,269,335,264,464,372,20
1845,0.41,0.86,0.4,3.05,6.96,-1.65,299,338,270,456,370,20
1846,0.34,0.87,0.38,-3.97,-35.03,2.38,267,340,264,450,369,20
1847,0.7,0.96,0.64,26.25,-23.56,3.91,270,341,262,452,372,20
1848,0.51,0.68,0.69,-3.54,-13.55,-17.46,277,339,267,455,369,20
1849,0.45,0.56,0.64,-34.42,-36.56,5.13,270,341,265,445,370,20
1850,0.67,0.55,0.57,-2.01,4.52,-21.79,267,335,266,451,371,20
1851,0.5,0.64,0.66,-8.79,49.32,-38.76,270,339,264,448,371,20
1852,0.44,0.62,0.67,8.61,-2.87,-1.89,270,340,278,451,371,20
1853,0.43,0.57,0.63,10.07,19.41,-20.45,269,340,264,448,371,20
1854,0.36,0.66,0.67,0.24,-4.64,-4.94,270,337,266,451,372,20
1855,0.35,0.7,0.67,4.33,-2.69,0.73,270,340,265,446,369,20
1856,0.36,0.68,0.66,3.6,-4.94,-2.26,269,339,263,450,374,20
1857,0.37,0.7,0.66,-1.65,-5.55,0.43,269,338,265,460,378,20
1858,0.4,0.7,0.64,1.34,-3.48,-2.93,272,336,262,450,376,20
1859,0.39,0.67,0.64,-1.89,-5.19,-4.03,270,337,267,449,373,20
1860,0.4,0.69,0.62,1.59,-2.75,-4.33,269,339,264,449,373,20
1861,0.39,0.68,0.63,1.46,-3.11,-2.2,269,335,264,449,372,20
1862,0.39,0.68,0.63,2.08,-2.2,-2.2,272,336,266,450,373,20
1863,0.44,0.67,0.69,2.99,3.3,-1.34,273,336,264,448,374,20
1864,0.27,0.48,0.67,58.65,-38.21,52.25,272,337,263,450,371,20
1865,0.3,0.72,0.5,7.26,-23.32,-4.46,270,337,263,448,373,20
1866,0.26,0.77,0.59,4.82,2.75,-21.0,270,336,265,452,374,20
1867,0.23,0.76,0.59,4.27,-1.34,-8.91,269,339,264,448,372,20
1868,0.21,0.84,0.51,-4.7,-6.71,-1.95,266,334,275,453,370,20
1869,0.2,0.82,0.54,2.08,-3.72,-1.83,271,337,264,448,374,20
1870,0.19,0.79,0.56,-3.11,-5.92,-2.99,267,336,265,449,373,20
1871,0.2,0.83,0.53,0.37,-0.49,-2.75,268,337,263,453,372,20
1872,0.19,0.83,0.52,1.71,-2.44,-5.62,270,338,267,446,374,20
1873,0.18,0.84,0.48,15.08,2.14,1.28,271,335,263,441,372,20
1874,0.18,0.85,0.48,1.04,-0.98,-2.38,270,339,265,447,371,20
1875,0.17,0.83,0.49,-1.28,-4.09,-5.13,267,337,265,449,372,20
1876,0.15,0.87,0.48,7.93,0.0,-5.0,269,338,268,445,372,20
1877,0.15,0.87,0.47,1.89,-3.3,-1.22,271,337,266,449,373,20
1878,0.16,0.88,0.48,0.43,-2.26,-4.46,271,337,263,445,371,20
1879,0.16,0.86,0.48,-4.94,-3.17,-2.93,271,337,263,452,373,20
1880,0.15,0.85,0.49,-0.43,-4.15,-3.36,270,339,265,448,375,20
1881,0.16,0.85,0.5,0.49,-3.23,-3.36,271,338,265,448,370,20
1882,0.16,0.84,0.51,0.18,-3.05,-3.11,272,341,262,448,374,20
1883,0.16,0.85,0.51,4.27,-1.65,-2.5,270,336,262,448,376,20
1884,0.16,0.85,0.52,1.59,-4.27,-1.53,270,337,262,451,372,20
1885,0.15,0.85,0.51,1.1,-1.89,-3.85,307,338,265,454,373,20
1886,0.16,0.85,0.51,1.28,-2.69,-2.14,273,339,266,449,376,20
1887,0.15,0.85,0.51,3.23,-2.44,-3.3,271,342,265,453,374,20
1888,0.14,0.86,0.51,0.79,-2.62,-2.93,272,337,265,447,372,20
1889,0.14,0.85,0.5,2.56,-2.32,-3.48,271,341,267,450,371,20
1890,0.14,0.86,0.49,10.19,-1.59,-1.71,276,339,269,454,376,20
1891,0.15,0.87,0.49,1.77,-2.08,-1.95,268,339,261,444,374,20
1892,0.17,0.86,0.48,0.18,-1.83,-1.95,271,339,260,450,374,20
1893,0.16,0.86,0.49,-2.2,-5.25,-2.32,270,342,260,447,375,20
1894,0.15,0.84,0.52,-2.01,-3.05,-2.14,272,338,262,451,376,20
1895,0.16,0.86,0.52,2.99,-0.49,-2.56,272,341,269,453,375,20
1896,0.19,0.84,0.52,0.55,-3.36,-2.75,271,339,259,448,375,20
1897,0.17,0.84,0.53,-2.08,-2.32,-2.93,268,338,261,452,375,20
1898,0.17,0.85,0.52,2.26,-3.11,-2.2,269,337,258,454,374,20
1899,0.17,0.83,0.51,-0.18,-2.14,-2.56,268,340,264,452,374,20
1900,0.16,0.85,0.52,-1.71,-2.62,-2.38,272,337,264,453,375,20
1901,0.16,0.86,0.54,-2.69,-3.72,-2.08,268,338,264,456,368,20
1902,0.15,0.86,0.52,-2.56,-2.32,-2.38,271,338,262,453,373,20
1903,0.16,0.84,0.5,2.87,-3.05,-2.69,279,340,263,452,373,20
1904,0.17,0.84,0.53,3.78,-4.03,-2.87,272,337,265,451,373,20
1905,0.16,0.86,0.54,0.43,-5.31,-1.83,266,341,263,457,380,20
1906,0.17,0.84,0.52,0.98,-3.6,-3.36,268,338,262,446,377,20
1907,0.15,0.84,0.53,-0.61,-2.2,-3.72,273,340,262,454,375,20
1908,0.16,0.86,0.53,2.44,-3.05,-3.48,270,340,263,452,373,20
1909,0.16,0.85,0.52,-0.06,-3.6,-2.87,272,338,264,452,378,20
1910,0.18,0.83,0.52,-0.61,-3.48,-1.16,294,337,266,451,376,20
1911,0.16,0.85,0.51,-0.24,-2.99,-4.39,273,338,265,451,375,20
1912,0.16,0.84,0.51,3.11,-3.36,-2.62,289,337,263,455,375,20
1913,0.17,0.84,0.53,-2.5,-2.32,-2.56,283,339,263,450,377,20
1914,0.16,0.85,0.51,4.33,-2.08,-2.38,272,338,264,454,375,20
1915,0.16,0.83,0.51,7.02,-0.79,-1.83,272,338,263,451,376,20
1916,0.16,0.86,0.52,0.92,-2.01,-2.87,273,339,262,452,376,20
1917,0.16,0.85,0.53,-2.14,2.93,1.53,269,337,270,457,375,20
1918,0.17,0.8,0.55,16.72,6.23,2.62,273,342,266,451,375,20
1919,0.1,0.79,0.52,-0.79,16.36,18.92,262,341,264,451,375,20
1920,0.25,0.82,0.53,-4.27,-5.55,6.35,271,338,265,451,376,20
1921,0.19,0.81,0.53,0.12,0.49,0.31,272,346,262,455,375,20
1922,0.19,0.83,0.52,8.3,1.65,-11.47,271,339,263,449,371,20
1923,0.2,0.82,0.53,0.18,-5.13,-1.89,274,341,261,448,375,20
1924,0.21,0.83,0.52,-3.23,-8.61,2.38,270,339,263,454,376,20
1925,0.23,0.81,0.52,1.16,-9.09,-1.83,275,342,265,450,374,20
1926,0.24,0.83,0.53,-0.73,-7.39,-4.7,272,341,263,448,372,20
1927,0.22,0.88,0.51,-0.85,2.38,-12.21,274,343,263,452,376,20
1928,0.29,0.84,0.53,3.17,-10.19,-27.71,272,341,265,451,375,20
1929,0.21,0.91,0.44,8.67,-2.44,9.34,275,340,267,452,375,20
1930,0.23,0.89,0.42,-3.72,8.54,-1.77,274,342,264,456,376,20
1931,0.22,0.8,0.46,-11.17,-7.45,14.22,281,343,265,453,375,20
1932,0.29,0.89,0.44,19.65,-8.12,-22.22,274,339,265,451,373,20
1933,0.16,0.9,0.37,-0.85,2.01,-4.33,270,339,269,454,373,20
1934,0.17,0.88,0.38,-8.67,-7.51,2.01,272,337,265,451,374,20
1935,0.19,0.89,0.4,2.08,2.14,-1.46,271,339,270,448,371,20
1936,0.2,0.92,0.4,0.55,-2.75,-2.44,270,343,268,452,372,20
1937,0.19,0.89,0.38,1.89,-3.05,-1.77,270,339,261,448,376,20
1938,0.19,0.9,0.39,-2.01,-4.21,-1.89,272,343,269,447,372,20
1939,0.19,0.9,0.4,-8.12,-5.62,-3.97,270,339,267,456,374,20
1940,0.19,0.9,0.38,1.46,-3.42,-2.69,272,339,265,455,373,20
1941,0.19,0.9,0.39,-1.65,-4.09,-1.1,273,339,266,454,373,20
1942,0.18,0.91,0.38,-0.73,-3.11,-3.11,271,342,264,453,373,20
1943,0.19,0.9,0.37,3.48,-2.01,-0.85,271,343,267,454,374,20
1944,0.19,0.91,0.38,-0.37,-3.97,-2.81,271,343,268,452,371,20
1945,0.21,0.89,0.38,4.03,-1.71,-3.48,275,343,266,453,375,20
1946,0.18,0.9,0.37,2.2,-3.23,-2.87,272,342,263,452,375,20
1947,0.19,0.9,0.34,0.31,-2.62,-2.99,273,340,264,455,375,20
1948,0.19,0.92,0.35,2.38,-2.75,-1.53,270,344,263,453,373,20
1949,0.19,0.9,0.35,-1.16,-3.91,-2.2,269,340,269,456,372,20
1950,0.19,0.92,0.36,0.43,-3.36,-2.26,273,340,263,454,372,20
1951,0.18,0.91,0.36,1.65,-3.85,-2.26,280,340,263,452,370,20
1952,0.19,0.92,0.36,-1.34,-3.6,-2.2,284,341,265,454,377,20
1953,0.19,0.9,0.35,1.16,-2.14,-2.26,269,338,265,452,375,20
1954,0.2,0.92,0.36,0.0,-3.36,-2.38,273,339,267,456,376,20
1955,0.19,0.92,0.37,1.28,-3.54,-1.77,274,340,265,453,375,20
1956,0.19,0.91,0.36,0.67,-2.56,-3.78,275,339,266,459,376,20
1957,0.19,0.9,0.35,2.38,-1.46,-2.5,272,341,265,455,374,20
1958,0.19,0.92,0.35,2.93,-3.11,-2.69,275,342,267,458,377,20
1959,0.19,0.93,0.35,1.46,-3.6,-1.28,272,339,265,453,376,20
1960,0.19,0.92,0.34,5.37,-0.85,-2.87,273,337,266,452,372,20
1961,0.18,0.91,0.35,0.67,-3.11,-2.44,270,343,265,454,375,20
1962,0.19,0.91,0.36,-0.61,-2.93,-2.26,270,340,266,454,376,20
1963,0.19,0.92,0.35,-0.24,-3.3,-2.5,274,341,269,458,370,20
1964,0.2,0.91,0.36,2.75,-2.26,-2.38,274,342,266,453,376,20
1965,0.19,0.92,0.35,2.14,-3.05,-2.44,270,340,266,455,375,20
1966,0.19,0.91,0.36,-1.53,-4.27,-2.87,271,343,267,450,375,20
1967,0.19,0.91,0.35,1.1,-3.23,-2.32,271,341,266,454,375,20
1968,0.21,0.91,0.34,1.28,-3.23,-3.42,279,344,265,457,378,20
1969,0.18,0.93,0.35,-1.04,-3.97,-1.34,272,341,266,453,375,20
1970,0.2,0.91,0.35,-0.73,-2.62,-2.44,272,340,265,464,373,20
1971,0.21,0.92,0.34,-0.43,-3.66,-2.32,269,339,267,453,373,20
1972,0.2,0.91,0.33,11.47,-1.04,-3.17,274,337,264,459,375,20
1973,0.19,0.91,0.33,1.46,-2.2,-1.53,274,339,267,454,375,20
1974,0.2,0.92,0.33,3.91,-2.01,-2.93,274,340,266,453,375,20
1975,0.22,0.94,0.33,-1.04,-2.38,-3.85,269,339,264,453,376,20
1976,0.19,0.92,0.34,0.55,-4.64,-3.05,273,343,264,453,374,20
1977,0.21,0.92,0.33,1.1,-4.88,-1.77,274,341,263,452,378,20
1978,0.2,0.92,0.33,-5.0,-5.8,-2.93,274,340,262,454,375,20
1979,0.2,0.92,0.32,1.34,-1.83,-2.32,271,339,262,448,375,20
1980,0.26,0.92,0.32,1.4,-1.16,-3.6,272,342,267,457,375,20
1981,0.19,0.91,0.33,-0.61,-6.59,-1.95,271,340,268,454,377,20
1982,0.21,0.92,0.34,-2.38,-1.95,-1.46,269,344,265,458,376,20
1983,0.2,0.88,0.34,-0.73,-6.65,-1.16,272,341,265,453,373,20
1984,0.2,0.91,0.34,1.89,-3.05,-3.78,272,341,264,457,377,20
1985,0.2,0.92,0.32,0.0,-2.2,-2.62,272,339,265,451,371,20
1986,0.2,0.92,0.34,1.95,-3.05,-1.65,272,340,267,457,373,20
1987,0.21,0.89,0.33,-3.3,-5.49,-1.65,270,340,264,454,373,20
1988,0.21,0.91,0.33,1.4,-3.97,-1.77,272,342,262,453,374,20
1989,0.24,0.92,0.34,0.18,-2.69,-3.05,271,342,265,450,371,20
1990,0.21,0.92,0.33,0.06,-3.36,-2.32,274,340,265,453,371,20
1991,0.23,0.91,0.34,-1.59,-3.48,-2.14,271,344,265,454,373,20
1992,0.21,0.92,0.33,1.83,-3.6,-2.93,273,341,262,451,375,20
1993,0.21,0.91,0.33,2.38,-2.62,-2.75,270,341,268,452,371,20
1994,0.2,0.91,0.33,0.92,-1.95,-2.99,273,348,264,449,375,20
1995,0.21,0.91,0.33,2.62,-2.5,-4.58,275,340,266,451,373,20
1996,0.23,0.93,0.32,0.85,-3.36,-2.26,270,341,266,453,373,20
1997,0.2,0.91,0.32,2.14,-3.42,-2.93,275,343,267,457,375,20
1998,0.22,0.92,0.32,4.58,-2.2,-0.55,271,339,265,453,376,20
1999,0.21,0.93,0.33,0.49,-3.23,-3.48,273,339,267,451,375,20
2000,0.22,0.92,0.33,-1.53,-3.48,-3.05,273,343,266,455,374,20
2001,0.22,0.92,0.33,-0.31,-4.03,-2.38,274,343,265,455,373,20
2002,0.22,0.91,0.33,3.05,-3.36,-2.26,276,347,264,456,376,20
2003,0.22,0.91,0.34,-0.73,-3.3,-3.6,275,343,266,453,374,20
2004,0.21,0.92,0.33,-0.49,-3.23,-1.83,272,342,267,454,372,20
2005,0.22,0.92,0.33,1.46,-2.26,-1.89,274,352,268,450,373,20
2006,0.21,0.9,0.33,-0.73,-3.78,-2.38,272,340,266,459,376,20
2007,0.24,0.89,0.33,-11.84,-7.57,-3.78,274,342,267,458,371,20
2008,0.21,0.88,0.34,-1.46,1.1,-3.85,269,343,262,455,372,20
2009,0.24,0.92,0.36,-2.69,-4.46,-2.69,271,341,263,455,375,20
2010,0.23,0.9,0.38,1.1,-2.5,-1.95,275,337,265,453,372,20
2011,0.24,0.9,0.39,-2.75,-3.11,-3.3,273,342,268,455,373,20
2012,0.25,0.89,0.37,4.7,-4.82,-0.85,273,341,273,455,373,20
2013,0.22,0.86,0.4,5.86,1.59,-5.07,274,339,267,454,372,20
2014,0.22,0.89,0.41,-1.1,-3.23,-4.09,271,339,264,453,374,20
2015,0.22,0.87,0.4,-0.49,-4.52,-3.97,270,342,265,458,371,20
2016,0.22,0.88,0.4,0.49,-1.59,-2.87,275,340,265,459,375,20
2017,0.21,0.9,0.41,-3.72,-1.53,-1.53,274,341,263,456,375,20
2018,0.16,0.83,0.42,4.94,-9.16,0.85,279,341,267,458,378,20
2019,0.05,0.8,0.53,-13.37,23.68,-6.29,272,344,266,455,370,20
2020,0.4,0.84,0.41,-4.7,8.36,-18.37,272,341,266,451,375,20
2021,0.27,0.81,0.44,22.71,-7.69,2.75,270,342,263,460,373,20
2022,0.13,0.82,0.58,21.0,-0.37,5.8,272,340,263,464,373,20
2023,0.28,0.8,0.5,9.46,5.31,-2.26,275,347,268,450,370,20
2024,0.18,0.84,0.48,-0.67,8.91,3.23,273,341,266,454,374,20
2025,0.25,0.83,0.49,-5.37,-6.16,2.01,274,340,266,450,375,20
