,aX,aY,aZ,gX,gY,gZ,little,ring,middle,index,thumb,number
0,0.12,0.81,0.55,0.49,-3.48,-3.6,359,260,219,459,325,29
1,0.11,0.83,0.55,-0.73,-2.01,-3.3,362,263,219,460,323,29
2,0.1,0.84,0.56,0.37,-2.62,-0.79,360,265,218,460,324,29
3,0.1,0.84,0.56,1.46,-5.13,-1.71,359,280,222,459,325,29
4,0.11,0.83,0.56,-3.23,-5.31,-2.93,357,264,219,455,326,29
5,0.13,0.84,0.55,1.1,-5.55,-0.79,358,259,218,460,327,29
6,0.12,0.84,0.55,-0.49,-3.78,-3.05,361,266,221,460,327,29
7,0.13,0.84,0.55,2.38,-4.46,-3.85,360,266,218,461,326,29
8,0.14,0.82,0.54,-0.31,-3.42,-3.17,359,264,219,458,326,29
9,0.13,0.83,0.55,-0.85,-3.66,-2.69,366,264,219,461,322,29
10,0.13,0.82,0.55,0.24,-3.23,-2.44,362,267,222,461,323,29
11,0.13,0.83,0.56,-0.06,-3.6,-3.3,361,266,228,457,324,29
12,0.13,0.82,0.56,0.43,-2.75,-1.53,366,273,219,458,328,29
13,0.14,0.83,0.55,0.79,-3.54,-2.14,362,265,219,466,323,29
14,0.14,0.82,0.55,-0.55,-3.36,1.71,362,264,220,458,325,29
15,0.13,0.82,0.55,-0.49,-2.69,-3.72,360,264,219,460,324,29
16,0.13,0.82,0.55,-0.43,-2.93,-1.65,361,265,219,462,329,29
17,0.15,0.83,0.56,-0.06,-4.33,-5.0,363,267,218,462,328,29
18,0.14,0.81,0.56,1.71,-1.77,-2.01,361,275,222,464,323,29
19,0.14,0.83,0.57,2.08,-4.58,-1.77,362,272,222,460,326,29
20,0.14,0.82,0.56,0.61,-3.05,-0.61,364,265,220,464,326,29
21,0.14,0.82,0.56,-1.22,-2.81,-2.62,363,270,223,456,327,29
22,0.14,0.82,0.56,0.98,-3.23,-1.89,362,268,220,460,327,29
23,0.17,0.83,0.54,0.73,-4.15,-3.05,365,265,220,460,327,29
24,0.12,0.83,0.55,-0.49,-2.32,-2.32,365,264,220,464,330,29
25,0.14,0.82,0.56,-0.12,-3.91,-2.32,361,269,219,461,327,29
26,0.14,0.82,0.55,0.18,-3.36,-2.62,363,264,222,459,327,29
27,0.15,0.82,0.55,0.49,-3.54,-2.01,366,265,220,457,330,29
28,0.14,0.83,0.55,0.92,-2.44,-3.17,362,264,222,461,328,29
29,0.15,0.83,0.55,1.04,-4.21,-2.44,361,265,223,465,329,29
30,0.14,0.83,0.56,-0.49,-2.87,-2.5,365,268,217,470,327,29
31,0.15,0.82,0.56,-0.31,-2.38,-2.56,364,264,223,462,318,29
32,0.15,0.83,0.56,0.12,-2.5,-4.33,366,266,220,459,328,29
33,0.13,0.83,0.56,0.79,-2.87,-1.46,363,269,221,464,325,29
34,0.16,0.83,0.54,2.56,-3.91,-3.91,362,268,222,461,327,29
35,0.15,0.83,0.54,-1.34,-4.03,-3.78,364,266,223,464,327,29
36,0.14,0.84,0.55,0.92,-1.95,0.0,362,267,220,457,326,29
37,0.14,0.82,0.55,-0.12,-2.5,-3.3,361,266,221,460,325,29
38,0.14,0.82,0.54,0.12,-4.39,-2.2,358,267,223,461,328,29
39,0.15,0.84,0.55,0.67,-3.97,-3.72,358,275,220,460,330,29
40,0.16,0.83,0.54,0.85,-2.81,-3.36,357,262,224,457,325,29
41,0.15,0.83,0.55,0.67,-3.11,-2.75,357,269,217,462,327,29
42,0.16,0.83,0.54,1.34,-2.99,-3.36,362,266,223,463,327,29
43,0.16,0.84,0.54,-0.43,-2.44,-2.56,360,266,224,464,325,29
44,0.15,0.82,0.54,1.53,-3.48,-1.95,368,269,220,456,327,29
45,0.16,0.83,0.54,-1.83,-2.56,-3.05,362,269,223,460,328,29
46,0.15,0.83,0.54,0.92,-2.32,-3.36,361,266,220,466,328,29
47,0.16,0.84,0.55,0.79,-2.81,-0.92,363,267,221,464,328,29
48,0.16,0.81,0.53,1.95,-3.85,-2.5,363,269,222,464,329,29
49,0.16,0.83,0.54,-0.79,-3.66,-1.65,367,264,220,458,329,29
50,0.16,0.83,0.54,-0.49,-3.42,-2.5,365,268,223,462,330,29
51,0.16,0.83,0.54,0.18,-2.87,-1.71,363,269,222,462,329,29
52,0.16,0.82,0.54,1.59,-4.88,-2.2,363,265,221,460,331,29
53,0.16,0.8,0.53,1.95,-3.11,-1.53,365,266,221,460,329,29
54,0.16,0.83,0.54,-0.18,-3.17,-3.05,365,269,222,461,330,29
55,0.16,0.84,0.54,0.31,-3.36,-2.14,361,266,226,461,330,29
56,0.16,0.83,0.54,0.43,-2.87,-3.11,365,267,221,460,329,29
57,0.16,0.82,0.54,1.34,-3.17,-2.93,365,266,219,463,328,29
58,0.17,0.83,0.54,-0.61,-2.69,-2.2,364,267,223,462,329,29
59,0.17,0.83,0.54,0.49,-3.66,-4.09,361,264,224,464,329,29
60,0.16,0.83,0.53,0.24,-2.26,-0.98,363,278,221,463,326,29
61,0.17,0.83,0.53,0.06,-4.21,-2.69,364,266,220,460,331,29
62,0.18,0.83,0.53,0.55,-2.08,-1.46,364,267,222,460,331,29
63,0.18,0.83,0.53,0.12,-3.36,-2.99,366,271,224,460,329,29
64,0.17,0.82,0.53,1.22,-4.15,-1.89,365,266,219,463,332,29
65,0.18,0.84,0.53,0.85,-3.54,-2.44,364,265,223,460,328,29
66,0.18,0.83,0.53,-0.73,-3.17,-2.81,365,269,223,456,329,29
67,0.17,0.83,0.53,1.1,-3.42,-1.95,365,267,223,464,329,29
68,0.19,0.85,0.54,0.12,-2.56,-2.56,370,269,219,462,327,29
69,0.18,0.82,0.54,1.1,-2.38,-0.67,362,264,222,455,331,29
70,0.18,0.83,0.53,0.98,-5.25,-4.21,364,268,221,463,329,29
71,0.19,0.84,0.53,1.22,-3.42,-1.34,363,269,226,461,331,29
72,0.18,0.83,0.54,1.04,-3.6,-2.32,360,269,221,463,326,29
73,0.2,0.83,0.53,0.43,-2.87,-1.83,367,269,222,462,329,29
74,0.19,0.83,0.52,-0.43,-3.05,-3.66,363,268,219,461,330,29
75,0.18,0.84,0.53,1.28,-3.42,-1.04,364,269,221,458,332,29
76,0.2,0.83,0.53,2.5,-2.69,-3.11,361,268,218,462,328,29
77,0.18,0.83,0.51,0.73,-3.54,-3.97,363,269,223,462,325,29
78,0.19,0.83,0.52,-0.43,-2.93,-3.11,366,269,222,461,331,29
79,0.2,0.84,0.52,-0.24,-2.69,-3.05,364,267,221,465,330,29
80,0.19,0.84,0.52,-0.06,-2.87,-2.38,366,264,222,464,326,29
81,0.2,0.84,0.52,2.14,-2.93,-3.97,366,270,223,461,329,29
82,0.19,0.82,0.51,0.18,-2.2,-3.36,362,268,220,460,326,29
83,0.2,0.85,0.52,2.2,-2.99,-3.11,362,268,224,465,330,29
84,0.2,0.84,0.52,0.61,-2.32,-2.87,361,265,223,462,329,29
85,0.19,0.85,0.53,1.28,-3.97,-3.91,373,267,220,465,330,29
86,0.19,0.83,0.52,-2.93,-3.48,-1.22,367,266,230,462,330,29
87,0.18,0.82,0.52,0.31,-3.11,-3.66,361,267,224,460,330,29
88,0.19,0.84,0.53,-0.92,-5.68,-1.4,366,266,224,457,329,29
89,0.21,0.84,0.52,0.79,-3.54,-1.71,365,269,225,461,333,29
90,0.19,0.84,0.52,1.28,-3.23,-1.4,366,267,219,465,326,29
91,0.23,0.84,0.52,7.2,-1.53,-5.86,361,269,223,464,329,29
92,0.2,0.87,0.48,1.89,-5.98,-7.81,365,267,223,467,325,29
93,0.23,0.8,0.51,4.09,-8.42,8.54,365,266,234,461,329,29
94,0.18,0.82,0.52,-1.77,-1.04,-3.05,361,266,218,460,327,29
95,0.25,0.83,0.5,-0.98,1.34,1.53,367,266,224,462,328,29
96,0.21,0.79,0.5,4.33,-6.29,-3.3,367,269,221,460,326,29
97,0.22,0.84,0.51,2.01,-1.77,3.3,361,267,224,457,325,29
98,0.24,0.84,0.53,-9.52,0.49,-6.41,364,264,222,466,328,29
99,0.25,0.87,0.53,-8.06,-0.43,-3.17,363,266,219,462,333,29
100,0.24,0.84,0.56,1.34,-2.32,-6.23,364,267,222,461,327,29
101,0.29,0.86,0.52,8.85,-4.94,-0.61,363,269,223,462,328,29
102,0.27,0.81,0.47,-6.35,-6.1,0.43,364,281,219,462,331,29
103,0.36,0.99,0.51,-15.32,-0.12,-16.11,363,268,221,466,328,29
104,0.3,0.85,0.49,-2.62,-1.28,-7.39,366,267,218,467,328,29
105,0.26,0.86,0.54,-3.17,-13.12,9.83,361,267,222,461,328,29
106,0.3,0.82,0.56,-0.73,0.61,-5.07,364,265,224,465,328,29
107,0.3,0.8,0.52,-0.55,-0.61,-2.69,364,267,222,462,333,29
108,0.31,0.8,0.52,1.89,-3.91,-5.98,365,267,219,460,330,29
109,0.31,0.84,0.53,5.37,-0.98,0.85,363,268,225,458,330,29
110,0.39,0.88,0.5,8.48,-12.45,4.7,365,265,221,466,331,29
111,0.38,0.85,0.5,1.95,-4.52,-2.75,362,267,223,463,329,29
112,0.37,0.82,0.48,1.4,-1.04,-4.09,363,268,223,461,326,29
113,0.36,0.83,0.49,0.73,-6.1,-0.06,365,268,222,462,329,29
114,0.37,0.83,0.48,0.79,-1.77,-3.17,363,270,220,462,331,29
115,0.35,0.83,0.5,0.43,-3.17,-1.89,365,270,221,461,328,29
116,0.34,0.81,0.5,0.55,-3.3,-0.79,366,269,221,465,330,29
117,0.34,0.79,0.5,-0.92,-2.62,-1.95,365,269,222,465,330,29
118,0.36,0.8,0.49,-0.73,-3.6,-3.23,363,267,221,463,325,29
119,0.36,0.79,0.5,-0.37,-2.5,-2.32,364,268,222,462,332,29
120,0.36,0.79,0.5,0.37,-2.87,-1.77,367,267,224,456,341,29
121,0.36,0.8,0.49,-0.98,-2.99,-3.17,366,270,225,462,326,29
122,0.36,0.8,0.5,0.31,-2.5,-2.62,363,270,221,461,332,29
123,0.36,0.79,0.49,1.16,-3.66,-2.56,366,268,221,467,326,29
124,0.36,0.79,0.49,0.12,-2.93,-2.44,362,269,222,466,327,29
125,0.36,0.8,0.5,0.49,-2.44,-1.95,365,269,218,462,326,29
126,0.36,0.79,0.5,0.92,-3.3,-2.5,366,267,219,466,330,29
127,0.36,0.79,0.5,0.49,-3.36,-1.34,366,271,222,461,328,29
128,0.35,0.8,0.51,-0.06,-2.38,-2.2,366,264,220,461,329,29
129,0.37,0.79,0.49,-0.43,-3.6,-2.93,366,267,220,462,330,29
130,0.36,0.79,0.5,1.04,-2.08,-2.62,363,268,223,462,327,29
131,0.36,0.81,0.5,0.49,-2.62,-3.54,367,267,222,466,327,29
132,0.36,0.81,0.5,-0.92,-2.87,-2.38,362,267,222,462,333,29
133,0.36,0.81,0.49,-1.89,-2.75,-3.91,362,268,225,458,330,29
134,0.35,0.79,0.5,0.06,-2.62,-2.01,366,267,225,460,331,29
135,0.36,0.8,0.5,-1.04,-2.14,-2.5,360,266,224,459,330,29
136,0.35,0.8,0.5,0.49,-3.36,-2.32,364,269,222,456,332,29
137,0.35,0.8,0.5,0.0,-1.59,-2.44,365,264,223,466,330,29
138,0.37,0.91,0.5,0.43,-1.77,-2.08,359,266,224,458,333,29
139,0.33,0.8,0.49,-0.37,-6.23,-1.71,363,269,220,462,329,29
140,0.33,0.79,0.51,1.16,-4.39,0.12,364,270,221,462,326,29
141,0.36,0.78,0.5,2.38,-5.0,-0.92,361,270,225,464,330,29
142,0.36,0.81,0.51,2.01,0.18,-4.39,363,270,224,461,327,29
143,0.35,0.77,0.49,0.92,-4.39,0.06,363,271,224,466,330,29
144,0.35,0.82,0.5,-0.18,-2.38,-5.19,365,267,222,462,327,29
145,0.36,0.82,0.49,-0.92,-2.81,-2.01,364,267,225,464,331,29
146,0.31,0.84,0.52,1.77,-8.06,-0.85,361,267,229,463,330,29
147,0.36,0.8,0.5,2.56,-2.44,-4.39,363,267,223,457,330,29
148,0.34,0.81,0.51,-0.55,-1.46,-2.99,364,268,226,461,330,29
149,0.35,0.79,0.48,0.0,-5.62,-1.95,364,269,222,465,333,29
150,0.34,0.78,0.5,0.55,-3.36,-0.37,364,270,224,461,330,29
151,0.35,0.8,0.49,0.92,-2.2,-3.66,364,268,229,466,328,29
152,0.32,0.8,0.5,0.98,-3.17,-1.59,361,269,225,462,330,29
153,0.35,0.8,0.5,0.43,-3.17,-1.89,366,270,225,464,331,29
154,0.34,0.82,0.52,-1.95,-2.44,-2.69,365,269,224,462,332,29
155,0.34,0.78,0.5,0.31,-3.3,-3.66,366,269,222,463,329,29
156,0.34,0.81,0.51,0.79,-0.85,-1.46,365,267,221,464,329,29
157,0.32,0.8,0.49,0.12,-4.76,-1.65,365,268,222,462,333,29
158,0.35,0.82,0.5,1.04,-3.36,-2.81,363,269,221,462,330,29
159,0.37,0.82,0.51,0.31,-4.33,-2.2,364,267,223,466,328,29
160,0.34,0.79,0.5,-0.55,-2.5,-3.11,365,267,224,460,331,29
161,0.34,0.79,0.5,-0.06,-2.62,-2.56,364,270,223,463,331,29
162,0.35,0.82,0.5,1.28,-3.66,-6.47,362,269,222,463,333,29
163,0.34,0.8,0.5,0.79,-3.66,-2.38,364,265,226,468,328,29
164,0.34,0.8,0.5,-1.04,-1.89,-3.42,366,269,225,465,331,29
165,0.34,0.79,0.5,-0.18,-2.69,-3.23,362,265,222,465,331,29
166,0.34,0.8,0.5,-0.18,-2.5,-2.44,366,270,221,462,330,29
167,0.34,0.79,0.5,0.67,-2.87,-2.01,364,269,221,462,331,29
168,0.34,0.8,0.51,0.31,-3.3,-2.87,367,270,224,458,331,29
169,0.34,0.8,0.51,-1.89,-2.87,-1.95,364,268,222,462,334,29
170,0.34,0.79,0.5,-0.98,-2.2,-2.44,366,268,223,458,332,29
171,0.34,0.79,0.51,0.55,-3.11,-3.05,366,272,224,463,331,29
172,0.35,0.8,0.51,0.85,-2.14,-3.78,362,274,225,466,331,29
173,0.34,0.79,0.51,0.85,-3.97,-3.3,359,270,225,464,330,29
174,0.34,0.79,0.52,1.53,-1.65,-4.39,362,268,220,463,337,29
175,0.32,0.8,0.51,0.24,-2.62,-2.99,362,270,225,462,331,29
176,0.34,0.8,0.51,0.06,-2.75,-2.32,361,268,225,467,333,29
177,0.33,0.8,0.51,0.0,-1.53,-3.17,376,269,221,465,330,29
178,0.34,0.79,0.5,0.0,-3.05,-2.14,364,269,222,457,333,29
179,0.33,0.81,0.51,0.67,-3.17,-3.42,364,274,222,463,333,29
180,0.33,0.8,0.51,-0.06,-3.42,-2.2,366,267,221,460,331,29
181,0.33,0.79,0.5,-0.18,-2.26,-2.62,368,267,227,463,329,29
182,0.33,0.79,0.51,0.0,-3.36,-2.99,364,269,225,464,332,29
183,0.33,0.8,0.51,0.18,-2.81,-2.75,366,270,225,458,330,29
184,0.33,0.8,0.51,0.61,-3.6,-1.1,366,270,228,463,333,29
185,0.34,0.8,0.52,-1.1,-4.33,-2.01,373,270,226,471,333,29
186,0.33,0.8,0.52,0.98,-4.58,-1.59,365,268,220,464,338,29
187,0.34,0.79,0.51,0.85,-1.89,-1.34,365,268,223,466,330,29
188,0.34,0.8,0.52,0.0,-3.23,-3.36,364,271,225,463,334,29
189,0.34,0.8,0.52,-0.24,-3.3,-2.38,366,267,225,463,335,29
190,0.3,0.78,0.52,-4.03,5.49,-10.86,365,268,223,467,334,29
191,0.31,0.86,0.55,-7.32,0.49,-13.0,367,268,223,458,333,29
192,0.25,0.85,0.57,9.28,-9.64,-8.61,367,265,223,460,334,29
193,0.26,0.78,0.55,1.53,-2.62,-5.07,362,267,222,465,337,29
194,0.2,0.74,0.54,0.12,-4.52,-8.42,365,268,226,458,333,29
195,0.22,0.81,0.54,0.79,-2.5,-1.28,364,267,225,464,332,29
196,0.22,0.78,0.55,-1.16,-4.15,3.85,365,268,222,466,335,29
197,0.21,0.79,0.56,0.43,0.12,-4.52,361,268,225,459,333,29
198,0.22,0.79,0.57,0.98,-4.33,-4.88,365,269,224,463,334,29
199,0.21,0.84,0.57,0.79,-3.3,-4.94,363,269,223,463,335,29
200,0.21,0.8,0.57,0.49,-2.93,2.14,363,264,226,461,334,29
201,0.18,0.79,0.57,3.48,-4.94,-0.12,365,268,221,463,333,29
202,0.21,0.81,0.55,-3.72,-1.46,-7.63,366,268,221,466,334,29
203,0.19,0.79,0.58,-0.18,-0.92,-6.96,367,271,221,463,334,29
204,0.2,0.81,0.57,-2.56,-4.33,0.31,356,270,222,461,336,29
205,0.21,0.82,0.58,2.26,-0.79,-1.65,366,267,223,463,330,29
206,0.21,0.85,0.56,4.76,-3.11,-5.86,367,269,223,462,334,29
207,0.23,0.81,0.6,-3.42,-2.56,-5.62,364,269,223,458,337,29
208,0.21,0.75,0.55,0.49,-4.39,-2.38,361,270,223,457,332,29
209,0.23,0.81,0.55,1.46,-3.6,-3.3,361,269,225,460,336,29
210,0.18,0.81,0.53,9.58,-7.63,-1.53,361,268,224,462,334,29
211,0.24,0.83,0.54,-1.89,-3.3,-2.2,364,268,224,458,336,29
212,0.23,0.83,0.54,3.48,-14.04,4.94,365,267,221,466,335,29
213,0.23,0.87,0.57,-2.87,1.16,-10.5,363,269,223,478,330,29
214,0.2,0.84,0.57,4.09,-3.36,0.06,361,269,225,461,334,29
215,0.25,0.79,0.56,0.55,2.99,-0.79,361,268,224,462,334,29
216,0.11,0.8,0.61,0.49,2.01,-9.64,361,267,223,461,336,29
217,0.28,0.71,0.56,-4.76,-7.81,27.47,363,263,221,464,333,29
218,0.31,0.78,0.59,-4.64,4.09,-9.77,363,269,219,462,334,29
219,0.28,0.78,0.59,-5.13,-4.21,-14.1,364,266,221,464,333,29
220,0.3,0.77,0.58,3.36,-0.43,-0.43,360,267,223,462,344,29
221,0.25,0.77,0.57,-3.91,-8.67,-2.81,359,270,222,461,335,29
222,0.29,0.77,0.57,-0.73,-1.1,-4.21,362,269,224,462,331,29
223,0.28,0.8,0.57,2.2,-5.86,3.66,362,270,225,464,332,29
224,0.27,0.79,0.58,-5.07,-0.85,-1.71,362,265,223,463,334,29
225,0.24,0.8,0.6,-7.26,3.36,-11.78,363,268,222,457,331,29
226,0.25,0.75,0.57,-1.4,-0.98,-1.89,359,266,224,463,334,29
227,0.27,0.76,0.59,1.22,-2.32,-2.26,363,268,224,462,329,29
228,0.24,0.77,0.6,0.37,-3.42,-2.01,362,271,222,463,334,29
229,0.28,0.8,0.61,-3.42,17.27,-21.73,363,267,223,465,334,29
230,0.24,0.74,0.54,-0.67,-19.23,12.27,363,271,226,466,332,29
231,0.28,0.76,0.57,3.11,-2.81,3.78,364,271,224,463,335,29
232,0.27,0.77,0.55,3.66,-0.85,2.08,360,271,225,465,335,29
233,0.29,0.78,0.56,-3.66,1.1,-6.96,363,269,225,464,334,29
234,0.31,0.78,0.57,-0.49,-4.15,-1.65,380,265,225,461,335,29
235,0.27,0.77,0.57,-0.61,-0.85,-4.76,360,271,223,457,335,29
236,0.28,0.76,0.56,-0.24,-3.05,-3.66,362,268,223,459,334,29
237,0.25,0.76,0.56,2.44,-3.66,-4.15,364,268,225,466,334,29
238,0.29,0.77,0.57,0.18,-1.83,-2.32,364,268,225,462,333,29
239,0.28,0.8,0.59,-0.67,-3.66,-1.77,364,268,223,462,336,29
240,0.29,0.76,0.57,0.61,-4.09,-1.16,367,268,223,462,335,29
241,0.29,0.78,0.57,0.37,-1.53,-2.14,363,268,225,464,335,29
242,0.28,0.78,0.56,-0.12,-2.14,-3.36,364,269,226,464,334,29
243,0.29,0.78,0.57,-1.1,-2.62,-2.69,365,272,225,464,335,29
244,0.28,0.77,0.57,1.22,-1.28,-1.89,365,265,223,474,332,29
245,0.28,0.79,0.58,-0.92,-2.14,-3.66,366,268,225,466,331,29
246,0.28,0.78,0.57,0.24,-4.21,-1.59,364,272,225,465,332,29
247,0.28,0.78,0.57,0.37,-2.75,-2.44,364,267,223,462,331,29
248,0.27,0.77,0.57,0.61,-3.3,-3.3,364,269,226,460,326,29
249,0.29,0.78,0.57,0.12,-3.3,-1.83,363,268,223,465,333,29
250,0.28,0.77,0.57,0.18,-2.56,-2.69,367,271,227,464,336,29
251,0.26,0.76,0.57,1.04,-4.46,-1.59,365,268,222,458,334,29
252,0.28,0.78,0.56,0.37,-3.85,-1.89,365,269,223,465,335,29
253,0.34,0.71,0.54,2.14,1.34,-8.54,367,271,223,460,335,29
254,0.21,0.79,0.55,-4.7,4.7,-1.59,362,269,225,463,339,29
255,0.18,0.81,0.59,0.61,-1.34,-2.75,390,272,223,456,336,29
256,0.26,0.8,0.57,1.4,-11.23,-0.37,376,267,223,471,336,29
257,0.28,0.78,0.57,-3.11,-0.73,-11.29,364,272,226,458,335,29
258,0.27,0.79,0.58,1.16,-5.25,0.24,367,271,223,462,338,29
259,0.29,0.78,0.57,-1.46,0.37,-0.24,366,267,226,464,335,29
260,0.26,0.8,0.58,-0.98,-0.55,-2.62,366,272,226,463,338,29
261,0.28,0.78,0.57,1.22,-4.76,-3.05,367,269,224,463,336,29
262,0.25,0.75,0.57,-0.43,1.22,-5.13,364,269,220,458,336,29
263,0.25,0.78,0.58,0.67,-1.89,-4.27,362,269,223,463,336,29
264,0.26,0.79,0.57,1.65,-3.66,-2.32,367,272,222,466,334,29
265,0.27,0.78,0.56,0.61,-3.17,-4.09,364,269,223,459,337,29
266,0.26,0.79,0.56,1.65,-4.15,-2.32,365,268,226,457,336,29
267,0.25,0.79,0.57,0.92,-2.14,-2.81,366,271,225,461,335,29
268,0.26,0.79,0.57,0.49,-3.11,-2.69,367,268,226,461,337,29
269,0.26,0.79,0.57,0.24,-2.87,-2.62,362,272,223,460,333,29
270,0.25,0.79,0.57,-0.06,-2.5,-3.85,365,269,225,459,337,29
271,0.25,0.79,0.57,0.67,-2.93,-2.38,367,270,223,459,332,29
272,0.24,0.79,0.57,1.1,-2.81,-2.56,365,271,224,458,333,29
273,0.25,0.8,0.58,0.24,-3.97,-1.34,365,274,222,455,338,29
274,0.24,0.78,0.58,-0.43,-2.81,-2.87,366,269,222,462,332,29
275,0.24,0.79,0.58,-0.92,-2.93,-2.75,366,271,222,461,338,29
276,0.24,0.77,0.58,-1.77,-3.6,-1.95,368,268,224,461,334,29
277,0.24,0.78,0.58,0.61,-2.5,-2.93,365,269,223,463,335,29
278,0.24,0.78,0.58,0.31,-2.81,-2.99,363,273,226,462,336,29
279,0.25,0.78,0.58,0.06,-2.01,-3.05,366,269,226,463,337,29
280,0.25,0.78,0.58,0.31,-2.56,-3.23,366,271,223,462,336,29
281,0.24,0.78,0.58,1.1,-2.93,-2.2,362,271,225,462,332,29
282,0.24,0.75,0.57,-1.71,-2.2,-2.99,362,273,224,454,336,29
283,0.24,0.79,0.58,-1.34,-3.23,-1.83,365,269,224,458,335,29
284,0.25,0.78,0.58,1.59,-3.78,-2.14,365,270,226,453,334,29
285,0.24,0.78,0.57,-0.12,-2.93,-3.17,365,269,223,454,338,29
286,0.25,0.78,0.58,0.31,-2.69,-2.75,365,272,223,462,336,29
287,0.24,0.78,0.58,0.55,-2.93,-2.99,367,269,223,463,336,29
288,0.25,0.76,0.59,3.6,-4.03,-3.48,365,270,226,456,338,29
289,0.25,0.77,0.59,0.18,-2.62,-3.23,364,269,223,460,338,29
290,0.24,0.78,0.59,-1.22,-3.11,-1.95,364,270,223,460,338,29
291,0.24,0.77,0.59,0.18,-3.23,-1.77,364,268,224,455,336,29
292,0.25,0.78,0.59,0.61,-2.99,-2.26,364,271,226,461,335,29
293,0.25,0.77,0.59,-0.67,-2.08,-2.01,365,272,226,460,335,29
294,0.25,0.77,0.6,0.12,-2.81,-3.05,366,269,226,466,334,29
295,0.25,0.78,0.59,0.92,-3.36,-2.87,368,269,224,458,335,29
296,0.25,0.77,0.59,0.79,-2.56,-2.99,368,269,225,458,331,29
297,0.24,0.78,0.59,0.49,-3.23,-2.32,367,270,223,460,332,29
298,0.25,0.77,0.59,0.43,-2.87,-2.62,363,269,226,459,334,29
299,0.25,0.78,0.59,-0.55,-3.48,-2.62,366,267,223,461,330,29
300,0.24,0.77,0.59,-0.18,-2.44,-2.62,365,269,231,464,338,29
301,0.25,0.78,0.6,0.06,-3.23,-2.14,356,268,224,464,333,29
302,0.25,0.78,0.6,0.61,-3.05,-2.56,365,270,225,460,338,29
303,0.25,0.77,0.59,-0.55,-2.99,-2.81,364,267,223,454,332,29
304,0.24,0.77,0.59,-0.12,-2.87,-2.32,365,269,223,461,334,29
305,0.25,0.77,0.59,0.79,-2.93,-2.75,365,269,223,463,336,29
306,0.25,0.78,0.59,0.55,-2.44,-3.05,365,278,224,465,335,29
307,0.25,0.77,0.59,0.43,-3.6,-2.26,367,275,223,464,335,29
308,0.25,0.77,0.59,-0.49,-2.81,-2.56,364,270,226,460,335,29
309,0.24,0.77,0.59,0.31,-2.69,-2.75,365,270,223,455,339,29
310,0.25,0.78,0.58,0.24,-3.54,-1.77,363,270,222,461,336,29
311,0.25,0.78,0.59,0.43,-2.93,-2.62,364,270,229,461,338,29
312,0.25,0.78,0.6,1.28,-3.23,-1.22,366,271,222,460,336,29
313,0.25,0.78,0.59,0.43,-2.75,-2.26,365,271,226,461,327,29
314,0.25,0.77,0.59,0.37,-3.66,-2.62,363,269,223,465,337,29
315,0.25,0.78,0.59,0.67,-3.48,-2.2,364,270,219,461,336,29
316,0.25,0.78,0.59,1.16,-2.5,-1.89,367,270,224,465,337,29
317,0.26,0.78,0.59,0.31,-3.66,-2.2,363,267,223,457,336,29
318,0.26,0.78,0.59,1.53,-3.85,-2.01,364,268,223,463,337,29
319,0.26,0.78,0.59,0.0,-2.62,-4.03,365,269,224,461,335,29
320,0.25,0.78,0.58,0.43,-3.36,-2.14,365,269,224,464,336,29
321,0.26,0.78,0.58,0.92,-3.23,-2.93,363,271,226,455,333,29
322,0.26,0.78,0.58,1.59,-2.44,-2.99,362,271,225,466,332,29
323,0.25,0.77,0.59,-0.98,-3.6,-2.38,364,269,222,460,335,29
324,0.25,0.79,0.59,0.49,-3.54,-1.95,364,272,223,461,335,29
325,0.25,0.77,0.58,0.55,-3.05,-2.62,362,267,225,459,334,29
326,0.25,0.78,0.59,-2.26,-2.38,-3.42,361,269,225,464,330,29
327,0.25,0.78,0.59,-0.67,-2.99,-2.2,361,272,224,456,332,29
328,0.25,0.77,0.59,0.37,-2.62,-2.93,363,270,224,459,333,29
329,0.25,0.78,0.59,1.53,-2.32,-3.05,361,278,225,463,333,29
330,0.25,0.77,0.58,0.55,-3.05,-2.5,362,272,227,464,333,29
331,0.25,0.8,0.6,0.37,-2.44,-2.08,363,269,222,464,333,29
332,0.25,0.78,0.59,0.55,-3.17,-3.17,364,269,223,461,335,29
333,0.23,0.76,0.57,1.16,-3.36,0.18,363,269,225,461,333,29
334,0.27,0.79,0.6,-0.61,-3.17,-2.01,364,274,225,460,331,29
335,0.24,0.78,0.59,0.12,-2.38,-2.69,364,274,224,463,335,29
336,0.25,0.78,0.59,-0.79,-2.44,-2.38,363,266,222,456,336,29
337,0.25,0.77,0.59,0.85,-3.36,-2.81,362,270,224,456,336,29
338,0.24,0.78,0.59,-0.24,-3.23,-2.44,362,267,225,464,331,29
339,0.25,0.79,0.59,0.98,-3.72,-2.75,362,270,223,461,334,29
340,0.24,0.79,0.59,0.61,-3.23,-2.62,363,265,224,461,333,29
341,0.24,0.78,0.58,-0.31,-2.08,-2.93,363,270,227,468,333,29
342,0.24,0.78,0.59,0.49,-3.05,-2.5,362,270,226,463,333,29
343,0.24,0.77,0.58,-0.61,-3.54,-1.53,363,273,227,460,335,29
344,0.24,0.77,0.59,-0.79,-2.75,-2.75,363,268,224,461,334,29
345,0.25,0.78,0.59,1.4,-4.03,-1.34,361,268,223,460,334,29
346,0.25,0.79,0.59,2.2,-2.93,-3.6,364,269,226,461,331,29
347,0.24,0.82,0.62,1.89,-3.6,-1.71,363,270,224,463,338,29
348,0.24,0.78,0.59,-0.92,-2.56,-3.17,359,273,226,456,334,29
349,0.23,0.78,0.59,-0.06,-3.97,-1.59,361,271,227,457,333,29
350,0.24,0.78,0.59,0.18,-3.11,-2.32,361,269,225,465,334,29
351,0.24,0.78,0.59,0.24,-3.17,-2.93,361,272,226,459,335,29
352,0.24,0.79,0.59,-0.43,-2.99,-1.65,362,268,222,462,336,29
353,0.23,0.78,0.59,0.0,-2.75,-3.66,362,268,225,461,330,29
354,0.24,0.79,0.6,0.73,-1.95,-3.42,361,269,226,459,330,29
355,0.24,0.78,0.59,0.31,-2.14,-3.85,362,269,223,466,336,29
356,0.23,0.78,0.6,0.18,-2.81,-2.5,361,268,223,462,334,29
357,0.23,0.78,0.59,0.0,-3.66,-2.69,359,269,225,461,334,29
358,0.23,0.78,0.59,0.37,-4.03,-2.44,363,269,224,458,332,29
359,0.22,0.79,0.6,0.31,-2.14,-1.83,362,271,223,456,334,29
360,0.24,0.8,0.59,2.14,-2.32,-3.78,361,272,224,465,334,29
361,0.24,0.79,0.59,1.53,-3.48,-1.65,360,278,226,461,333,29
362,0.25,0.8,0.59,1.22,-3.05,-2.14,361,267,232,462,334,29
363,0.24,0.78,0.58,0.0,-2.5,-2.99,359,272,221,461,335,29
364,0.23,0.79,0.58,-1.16,-1.83,-3.11,363,277,222,461,335,29
365,0.24,0.79,0.59,-0.92,-2.38,-4.52,361,276,221,465,335,29
366,0.22,0.77,0.58,0.43,-2.99,-2.32,360,268,223,461,334,29
367,0.23,0.78,0.58,-0.55,-2.5,-3.17,363,271,226,466,333,29
368,0.24,0.78,0.58,-0.18,-3.36,-2.08,362,270,229,466,335,29
369,0.24,0.79,0.59,0.43,-2.99,-2.69,359,270,223,461,335,29
370,0.22,0.78,0.59,2.08,-3.42,-2.38,370,271,223,464,336,29
371,0.22,0.78,0.58,0.43,-3.54,-2.26,363,270,223,465,333,29
372,0.23,0.79,0.58,-0.12,-3.6,-2.2,363,269,226,461,334,29
373,0.22,0.77,0.57,0.18,-2.44,-2.81,351,269,220,466,334,29
374,0.23,0.79,0.58,-0.37,-3.72,-2.87,362,272,226,458,335,29
375,0.22,0.79,0.58,0.37,-2.75,-2.5,362,270,224,462,334,29
376,0.22,0.8,0.6,1.28,-2.44,-2.69,361,269,224,466,334,29
377,0.23,0.79,0.58,-0.61,-2.69,-2.99,361,268,222,457,333,29
378,0.24,0.79,0.58,-0.18,-3.23,-3.36,361,268,225,458,335,29
379,0.22,0.79,0.59,-0.31,-2.93,-1.83,362,270,227,460,333,29
380,0.21,0.78,0.59,1.16,-3.17,-2.44,360,267,223,465,332,29
381,0.2,0.77,0.58,-1.65,-2.75,-3.54,363,265,222,461,336,29
382,0.22,0.79,0.6,1.77,-3.72,-1.89,357,269,226,458,334,29
383,0.22,0.79,0.59,0.61,-3.54,-2.44,360,270,227,461,336,29
384,0.22,0.79,0.59,0.24,-2.62,-2.69,358,271,222,465,334,29
385,0.22,0.79,0.59,0.0,-3.17,-2.01,364,272,224,467,330,29
386,0.21,0.78,0.59,1.28,-2.81,-2.69,362,273,225,463,334,29
387,0.22,0.79,0.59,0.31,-2.5,-2.75,368,271,224,460,333,29
388,0.21,0.79,0.6,0.98,-2.2,-3.23,360,270,224,465,335,29
389,0.2,0.77,0.58,0.0,-1.53,-3.3,361,272,224,461,334,29
390,0.21,0.79,0.59,0.67,-2.69,-2.87,387,273,224,462,332,29
391,0.22,0.79,0.59,-0.43,-2.44,-3.36,360,272,225,455,332,29
392,0.21,0.79,0.59,0.61,-2.56,-2.26,364,273,226,466,336,29
393,0.21,0.78,0.59,0.73,-2.99,-2.44,361,271,225,461,336,29
394,0.21,0.77,0.58,0.18,-2.87,-2.38,361,272,227,465,337,29
395,0.22,0.79,0.59,-0.55,-2.38,-3.11,362,269,222,462,334,29
396,0.22,0.79,0.6,-0.61,-3.85,-2.32,364,272,225,463,331,29
397,0.23,0.79,0.58,0.85,-2.99,-2.99,363,274,225,457,336,29
398,0.23,0.78,0.58,0.43,-3.54,-2.26,360,272,223,463,332,29
399,0.22,0.78,0.58,0.0,-2.5,-2.81,361,273,226,464,333,29
400,0.22,0.79,0.59,0.79,-3.36,-1.83,363,272,227,456,330,29
401,0.23,0.79,0.59,0.55,-2.5,-3.42,364,271,227,469,336,29
402,0.22,0.78,0.58,-0.85,-2.14,-2.87,360,270,222,459,330,29
403,0.22,0.78,0.58,-0.67,-3.72,-1.95,362,271,223,461,334,29
404,0.22,0.78,0.58,-0.55,-3.05,-1.34,362,275,227,461,336,29
405,0.24,0.8,0.59,1.46,-3.72,-2.75,358,269,225,460,335,29
406,0.22,0.79,0.59,0.24,-2.87,-3.78,364,270,228,457,336,29
407,0.22,0.78,0.59,0.92,-2.99,-2.69,364,270,226,457,333,29
408,0.23,0.78,0.58,-0.18,-3.17,-2.75,357,270,225,465,333,29
409,0.23,0.79,0.58,0.61,-3.36,-3.05,363,270,228,457,340,29
410,0.22,0.78,0.59,-0.31,-3.66,-3.05,360,267,227,460,333,29
411,0.23,0.78,0.58,0.24,-2.5,-2.62,362,268,224,464,335,29
412,0.23,0.78,0.59,-0.06,-2.62,-1.34,361,268,223,456,331,29
413,0.23,0.82,0.6,1.04,-4.39,-2.56,362,270,224,456,334,29
414,0.22,0.8,0.6,0.61,-4.94,-1.46,362,271,225,462,332,29
415,0.23,0.77,0.58,-1.59,-4.21,-2.32,363,276,226,466,333,29
416,0.23,0.79,0.59,-0.31,-3.3,-1.04,361,270,226,465,333,29
417,0.25,0.78,0.59,-0.73,-4.94,-1.53,361,272,224,458,337,29
418,0.23,0.78,0.6,0.18,-0.73,-3.05,378,267,227,459,338,29
419,0.25,0.77,0.59,1.22,-0.79,-3.72,361,272,227,463,337,29
420,0.23,0.78,0.59,0.37,-2.75,-3.42,364,271,223,461,331,29
421,0.23,0.75,0.57,-0.24,-1.28,-2.75,361,270,226,465,335,29
422,0.23,0.79,0.59,1.34,-3.72,-2.69,364,272,227,465,332,29
423,0.22,0.78,0.6,0.18,-2.69,-2.75,361,268,224,461,335,29
424,0.21,0.79,0.58,-0.12,-4.64,-0.85,364,270,223,462,336,29
425,0.23,0.79,0.59,-0.18,-2.38,-3.6,363,270,224,460,334,29
426,0.22,0.78,0.58,0.06,-1.71,-3.6,364,272,226,466,331,29
427,0.22,0.8,0.59,0.92,-3.91,-1.65,359,269,223,462,336,29
428,0.25,0.77,0.58,-0.61,-4.94,-2.62,364,270,228,462,333,29
429,0.2,0.77,0.59,-0.61,-1.53,-1.59,359,271,221,466,336,29
430,0.22,0.77,0.59,1.4,-2.14,-2.87,364,270,228,461,337,29
431,0.23,0.78,0.58,1.65,-1.4,-3.72,363,271,227,466,334,29
432,0.25,0.78,0.59,0.49,-4.94,-3.42,362,271,222,462,335,29
433,0.24,0.79,0.58,1.34,-2.2,-1.28,372,269,226,458,336,29
434,0.23,0.8,0.6,0.49,-1.59,-2.26,361,272,227,465,334,29
435,0.25,0.77,0.58,1.4,-3.36,-2.01,362,271,224,457,333,29
436,0.23,0.78,0.59,0.06,-2.01,-3.23,362,271,227,463,334,29
437,0.26,0.8,0.59,2.08,-3.17,-3.23,364,268,224,462,336,29
438,0.2,0.77,0.59,0.67,0.06,-5.25,363,272,224,462,342,29
439,0.25,0.79,0.57,1.89,-4.7,0.24,362,269,227,464,335,29
440,0.22,0.79,0.58,3.11,-6.96,3.23,364,273,228,457,335,29
441,0.23,0.77,0.58,1.1,-4.27,-0.55,361,268,227,461,335,29
442,0.21,0.77,0.59,0.37,-1.65,-1.89,361,270,227,463,334,29
443,0.24,0.81,0.61,1.28,-2.99,-2.5,358,272,224,463,331,29
444,0.23,0.77,0.58,-0.43,-1.46,-2.62,359,270,226,465,337,29
445,0.22,0.75,0.52,-0.49,-6.04,9.09,361,272,227,459,335,29
446,0.21,0.82,0.62,0.06,-8.79,1.28,364,271,227,465,333,29
447,0.32,0.8,0.55,-1.28,-3.91,-6.23,364,270,225,463,332,29
448,0.22,0.94,0.68,-7.87,-2.87,1.16,361,271,222,463,335,29
449,0.28,0.73,0.6,11.17,-0.18,-8.73,361,269,225,462,337,29
450,0.23,0.74,0.67,2.14,-8.48,0.31,360,268,227,457,336,29
451,0.24,0.76,0.63,1.71,-2.56,-8.91,364,267,227,458,336,29
452,0.12,0.93,0.71,8.3,5.68,6.96,363,269,233,465,338,29
453,0.27,0.58,0.47,2.99,-16.91,10.74,360,273,225,464,335,29
454,0.16,0.81,0.65,-4.46,6.59,-6.53,364,271,227,462,336,29
455,0.15,0.78,0.61,-3.72,-0.67,-2.26,368,268,223,461,341,29
456,0.22,0.79,0.63,7.2,-4.09,2.62,360,274,224,462,336,29
457,0.21,0.78,0.61,-0.18,-3.85,-2.62,361,269,224,472,337,29
458,0.25,0.91,0.68,-3.66,-2.38,2.69,362,272,229,465,332,29
459,0.24,0.77,0.6,-2.5,0.0,-7.93,363,267,231,467,335,29
460,0.27,0.82,0.62,0.43,6.71,-11.9,362,273,224,463,336,29
461,0.18,0.77,0.58,-8.06,0.12,1.16,361,272,226,463,335,29
462,0.17,0.74,0.56,8.97,-6.65,1.4,359,269,223,457,337,29
463,0.2,0.82,0.62,-6.77,1.71,-4.33,358,276,223,461,336,29
464,0.11,0.69,0.51,5.86,-7.81,13.0,359,271,224,460,336,29
465,0.24,0.87,0.72,14.16,-0.12,-11.84,357,269,227,458,335,29
466,0.13,0.68,0.57,-11.05,0.73,4.03,359,270,224,463,338,29
467,0.14,0.76,0.6,1.65,-5.92,1.46,359,271,226,462,337,29
468,0.21,0.74,0.61,2.81,-3.42,2.01,360,273,226,457,340,29
469,0.17,0.77,0.59,0.37,-2.38,0.67,356,276,224,470,339,29
470,0.22,0.79,0.57,-0.92,-5.25,-5.31,358,272,225,464,333,29
471,0.22,0.83,0.6,2.99,-4.82,-2.5,359,268,228,458,334,29
472,0.22,0.81,0.6,1.16,-4.7,-0.79,364,268,227,466,338,29
473,0.23,0.79,0.6,-15.2,-2.2,-2.75,358,270,225,462,339,29
474,0.21,0.79,0.6,1.1,-1.46,-3.11,360,273,227,462,339,29
475,0.22,0.78,0.6,0.73,-2.01,-2.87,356,268,222,465,337,29
476,0.25,0.78,0.58,1.65,-5.74,-1.71,364,270,226,465,344,29
477,0.21,0.78,0.59,0.92,-3.05,-2.08,357,272,223,463,336,29
478,0.2,0.79,0.59,-0.18,-2.32,-0.92,359,273,225,463,337,29
479,0.22,0.78,0.58,2.93,-2.69,-2.87,359,268,225,463,338,29
480,0.22,0.8,0.59,-0.37,-2.14,-1.46,359,274,226,466,337,29
481,0.2,0.78,0.59,-0.18,-2.38,-2.44,366,272,224,463,346,29
482,0.19,0.78,0.59,-2.2,-2.38,-3.54,361,274,225,463,337,29
483,0.2,0.81,0.61,2.75,-1.59,-3.78,361,274,225,457,340,29
484,0.19,0.79,0.59,-0.67,-4.64,-2.93,360,271,225,464,338,29
485,0.21,0.8,0.6,0.18,-2.32,-1.65,358,273,227,463,337,29
486,0.19,0.79,0.59,0.55,-2.26,-3.42,360,271,227,468,338,29
487,0.22,0.79,0.58,0.43,-2.26,-2.62,357,270,221,463,336,29
488,0.2,0.79,0.58,-0.67,-2.99,-2.44,356,271,226,459,336,29
489,0.2,0.79,0.58,-1.16,-5.68,-2.2,359,273,226,466,337,29
490,0.2,0.79,0.6,2.01,-2.93,0.18,358,274,239,463,338,29
491,0.21,0.79,0.59,2.26,-4.15,-2.01,356,273,225,466,339,29
492,0.22,0.79,0.58,0.79,-2.81,-2.26,363,274,228,466,338,29
493,0.21,0.81,0.6,1.34,-2.08,-3.72,359,269,227,460,339,29
494,0.22,0.79,0.59,-0.49,-1.46,-4.46,360,272,226,458,338,29
495,0.22,0.81,0.59,0.24,-3.42,-4.33,358,273,226,462,340,29
496,0.21,0.78,0.59,0.06,-2.32,-3.23,361,282,226,466,338,29
497,0.21,0.79,0.58,0.18,-4.15,-2.26,360,272,224,462,339,29
498,0.21,0.79,0.59,0.67,-2.44,-2.5,361,272,224,462,337,29
499,0.21,0.78,0.58,-0.55,-2.81,-2.56,361,270,225,463,336,29
500,0.35,0.9,0.2,-6.35,0.92,-3.78,379,298,234,463,311,29
501,0.42,0.88,0.15,-3.3,-10.44,-0.79,382,303,235,453,312,29
502,0.45,0.89,0.12,3.66,-7.57,-5.86,373,300,224,458,310,29
503,0.42,0.89,0.15,1.28,-0.85,-4.33,388,292,230,457,310,29
504,0.41,0.89,0.14,2.2,-1.77,-4.21,392,297,236,461,310,29
505,0.39,0.9,0.14,1.83,-3.3,-2.14,404,296,231,459,309,29
506,0.42,0.9,0.14,0.12,-1.95,-3.23,396,299,238,457,320,29
507,0.41,0.9,0.14,0.92,-3.48,-2.5,397,293,236,451,308,29
508,0.4,0.91,0.15,1.4,-3.36,-3.97,399,301,235,457,315,29
509,0.41,0.9,0.14,-0.43,-5.37,-1.28,401,307,234,460,312,29
510,0.41,0.9,0.13,2.2,-4.64,-1.95,398,299,230,449,309,29
511,0.4,0.9,0.14,-0.06,-3.72,-2.69,403,300,238,456,316,29
512,0.41,0.9,0.13,1.22,-3.97,-4.33,396,301,235,453,312,29
513,0.4,0.9,0.12,0.0,-6.23,-1.53,398,298,226,455,314,29
514,0.4,0.9,0.13,-2.87,-5.49,-0.49,393,297,225,461,312,29
515,0.43,0.9,0.14,-1.16,-3.66,-2.32,393,301,234,460,314,29
516,0.41,0.9,0.12,2.26,-0.92,-2.44,394,306,237,458,315,29
517,0.4,0.92,0.18,-3.05,1.59,-1.89,391,307,231,459,316,29
518,0.43,0.9,0.16,-1.16,6.65,-0.55,396,303,235,457,318,29
519,0.41,0.91,0.17,4.09,6.96,-4.94,398,303,232,450,324,29
520,0.41,0.9,0.17,5.86,7.02,-4.09,385,298,238,457,312,29
521,0.42,0.91,0.17,-2.75,-3.85,-2.38,401,298,226,454,316,29
522,0.42,0.88,0.17,-7.02,-9.95,0.85,395,304,232,457,317,29
523,0.44,0.87,0.21,-7.39,-14.77,-2.2,388,299,226,457,315,29
524,0.46,0.88,0.2,-4.21,-9.46,-1.1,387,302,236,457,321,29
525,0.45,0.86,0.16,4.88,-6.29,-2.01,384,301,230,456,320,29
526,0.47,0.87,0.18,-2.38,-4.76,-2.99,378,304,234,461,316,29
527,0.45,0.87,0.18,1.34,-2.08,-2.87,399,303,237,462,320,29
528,0.45,0.87,0.19,3.42,-3.05,-3.05,382,305,230,455,318,29
529,0.47,0.87,0.17,0.24,-1.71,-1.53,380,308,228,458,320,29
530,0.48,0.88,0.17,2.08,-3.23,-3.11,380,306,231,461,320,29
531,0.47,0.86,0.15,2.5,-4.33,-4.39,376,305,234,456,321,29
532,0.46,0.88,0.17,0.37,-1.46,-0.85,377,300,234,451,321,29
533,0.46,0.87,0.16,2.26,-2.69,-2.44,376,304,225,456,320,29
534,0.46,0.87,0.14,-3.97,-3.66,1.53,378,303,228,458,319,29
535,0.5,0.85,0.14,0.43,-5.25,-1.1,378,304,232,456,317,29
536,0.49,0.86,0.15,2.32,-3.54,-0.49,376,303,230,459,320,29
537,0.51,0.86,0.13,2.81,-2.2,0.06,376,314,225,453,316,29
538,0.5,0.84,0.11,-1.22,-8.24,3.54,375,298,230,452,316,29
539,0.52,0.86,0.13,-0.43,-5.62,1.83,375,301,231,457,318,29
540,0.53,0.84,0.1,2.08,-7.45,-2.2,375,302,230,458,319,29
541,0.6,0.8,0.05,-7.02,-12.02,10.8,377,299,234,458,320,29
542,0.65,0.65,0.1,-16.6,-24.41,18.98,373,305,244,459,323,29
543,0.76,0.64,0.13,-20.14,-16.54,6.47,336,301,237,455,323,29
544,0.72,0.64,0.18,0.92,17.94,-11.23,356,302,222,460,323,29
545,0.45,0.7,0.29,-5.98,23.01,-22.83,375,315,222,458,321,29
546,0.5,0.84,0.29,10.74,11.11,-24.54,382,306,238,462,320,29
547,0.47,0.84,0.28,6.04,-3.91,-1.28,414,304,229,457,319,29
548,0.52,0.86,0.23,5.49,-11.47,3.42,380,302,232,450,323,29
549,0.49,0.86,0.2,2.87,19.1,2.75,380,297,233,457,321,29
550,0.45,0.83,0.29,2.26,3.48,1.89,385,299,234,461,324,29
551,0.49,0.83,0.25,2.01,-6.9,-2.93,381,304,230,459,322,29
552,0.49,0.82,0.25,-3.66,-13.0,0.55,379,303,231,454,323,29
553,0.5,0.84,0.24,-2.99,-1.16,-1.71,380,297,231,461,327,29
554,0.47,0.83,0.27,-2.2,-1.95,-3.17,377,300,230,457,325,29
555,0.5,0.81,0.27,-6.53,-13.0,-0.43,378,304,228,454,324,29
556,0.49,0.84,0.27,-2.32,-5.74,-6.59,389,299,223,452,324,29
557,0.48,0.83,0.24,1.77,-1.04,-8.48,383,301,229,458,321,29
558,0.45,0.84,0.25,2.32,-5.07,-2.01,373,303,230,463,328,29
559,0.47,0.84,0.23,-0.12,2.08,-1.46,376,304,231,455,326,29
560,0.46,0.86,0.26,4.27,-1.46,-5.0,376,305,227,458,324,29
561,0.48,0.87,0.23,1.16,-5.07,0.18,370,303,232,459,330,29
562,0.46,0.84,0.2,-5.49,-7.51,1.04,365,305,233,457,329,29
563,0.51,0.85,0.21,5.49,-2.08,-7.08,370,302,233,457,324,29
564,0.47,0.85,0.22,-0.37,-3.05,-0.12,392,296,231,452,330,29
565,0.47,0.85,0.19,3.36,-1.89,-3.11,375,298,236,459,327,29
566,0.47,0.87,0.21,3.54,-0.55,-4.03,375,301,228,457,330,29
567,0.47,0.86,0.2,1.59,-2.93,-4.15,374,293,225,454,323,29
568,0.48,0.86,0.2,3.23,-3.42,-1.4,373,296,234,461,327,29
569,0.48,0.86,0.18,-1.71,-2.08,-0.79,372,305,229,460,325,29
570,0.48,0.86,0.2,0.43,-3.6,-3.91,373,305,232,457,325,29
571,0.47,0.85,0.2,-0.92,-1.95,-2.38,369,304,232,460,327,29
572,0.47,0.86,0.21,1.89,-3.3,-2.87,371,302,233,452,326,29
573,0.47,0.86,0.2,-0.61,-2.56,-1.28,399,302,233,457,329,29
574,0.49,0.87,0.21,1.89,-4.15,-2.5,369,306,227,453,328,29
575,0.47,0.85,0.21,-1.71,-0.43,-3.97,372,306,223,453,328,29
576,0.47,0.86,0.23,5.13,-0.61,-3.97,371,304,221,460,326,29
577,0.47,0.86,0.22,-0.24,-1.89,-4.15,373,306,235,455,330,29
578,0.48,0.87,0.22,1.65,-2.87,-2.81,374,299,229,453,327,29
579,0.46,0.86,0.21,-1.46,-4.03,-1.28,372,304,224,459,328,29
580,0.46,0.86,0.22,0.49,-2.14,-4.33,374,302,219,455,324,29
581,0.46,0.86,0.21,1.59,-1.77,-2.01,372,304,228,458,331,29
582,0.48,0.86,0.22,-0.06,-2.69,-2.87,368,304,227,459,326,29
583,0.46,0.86,0.21,0.61,-2.93,-2.44,371,303,234,456,328,29
584,0.46,0.86,0.22,-0.98,-4.33,-3.48,371,303,233,455,333,29
585,0.46,0.86,0.21,0.85,-2.32,-1.16,371,303,228,456,329,29
586,0.46,0.87,0.22,-0.67,-3.66,-3.17,374,301,227,454,328,29
587,0.47,0.86,0.22,-2.75,-6.59,-5.19,371,308,235,456,325,29
588,0.46,0.86,0.21,1.16,-4.88,-0.06,373,303,231,454,328,29
589,0.5,0.85,0.2,-2.69,-6.59,-3.11,371,303,231,460,329,29
590,0.48,0.86,0.22,2.01,-2.56,0.67,373,301,232,452,327,29
591,0.5,0.85,0.21,-0.49,-2.81,-5.55,370,301,230,461,327,29
592,0.47,0.85,0.22,1.28,-1.83,-2.56,371,306,234,461,329,29
593,0.48,0.85,0.22,2.01,0.73,-8.18,379,303,243,459,331,29
594,0.46,0.87,0.22,1.46,-2.99,-5.62,385,303,233,459,329,29
595,0.45,0.87,0.22,3.05,-0.98,-4.33,394,308,232,461,330,29
596,0.46,0.87,0.21,0.43,-1.65,-4.15,386,302,233,456,327,29
597,0.46,0.87,0.21,0.06,-3.91,-2.01,393,300,230,464,326,29
598,0.47,0.9,0.23,6.53,0.0,-4.03,399,302,234,455,327,29
599,0.46,0.87,0.2,0.37,-1.71,-3.6,389,305,233,458,331,29
600,0.43,0.9,0.23,3.48,5.0,-2.26,395,300,227,458,328,29
601,0.46,0.88,0.2,8.97,7.69,-3.72,397,303,237,461,329,29
602,0.41,0.91,0.22,5.13,-1.95,-3.36,396,303,229,456,333,29
603,0.45,0.88,0.19,4.82,0.31,-4.7,393,305,224,456,330,29
604,0.42,0.89,0.18,-0.85,-1.28,-0.49,394,305,230,461,332,29
605,0.42,0.88,0.19,-3.48,-7.14,-2.56,393,296,232,463,328,29
606,0.41,0.88,0.19,-11.17,-7.45,-9.34,402,307,230,462,328,29
607,0.4,0.89,0.2,4.03,-2.81,-5.43,398,306,237,457,325,29
608,0.41,0.88,0.19,-1.95,-8.24,-1.22,397,308,227,463,331,29
609,0.41,0.89,0.19,-1.4,-7.57,-1.28,404,307,231,459,330,29
610,0.41,0.91,0.22,1.89,-0.85,1.34,396,315,234,456,329,29
611,0.43,0.85,0.21,8.12,-1.77,-4.09,396,303,235,464,328,29
612,0.46,0.92,0.2,0.43,-11.54,-4.64,394,304,232,455,329,29
613,0.42,0.85,0.24,-14.71,-10.5,-2.44,394,302,235,463,330,29
614,0.44,0.9,0.23,5.19,10.62,-4.21,404,303,223,457,328,29
615,0.4,0.86,0.26,-2.75,-3.3,-4.46,393,306,231,458,333,29
616,0.42,0.88,0.26,-1.16,-1.89,-2.93,387,302,231,471,332,29
617,0.44,0.87,0.26,0.79,-2.69,-3.3,392,302,234,463,333,29
618,0.41,0.86,0.25,0.79,-3.6,-2.01,392,317,233,461,331,29
619,0.42,0.88,0.26,3.48,0.61,-0.92,386,304,233,465,333,29
620,0.41,0.87,0.24,0.49,-6.59,0.67,387,306,229,459,331,29
621,0.42,0.86,0.24,-4.88,-10.01,-1.28,386,295,232,451,330,29
622,0.44,0.86,0.22,4.39,2.81,0.55,385,299,230,461,334,29
623,0.46,0.87,0.22,5.31,-5.92,-2.87,387,303,235,459,325,29
624,0.44,0.86,0.21,0.37,-2.99,-1.95,382,307,233,463,331,29
625,0.44,0.86,0.22,-2.44,-6.41,-1.53,396,301,233,470,326,29
626,0.45,0.86,0.21,2.56,-0.06,-0.12,388,305,234,458,326,29
627,0.47,0.87,0.22,1.89,0.67,-3.91,390,303,231,467,333,29
628,0.45,0.87,0.23,-1.1,-3.3,-1.53,389,305,230,467,331,29
629,0.47,0.89,0.23,4.33,0.37,-0.31,389,301,236,459,335,29
630,0.47,0.86,0.22,-0.98,-5.98,-2.01,390,303,221,464,333,29
631,0.46,0.85,0.2,-2.87,-10.13,-2.01,417,305,221,463,332,29
632,0.49,0.87,0.21,1.89,-8.0,1.53,388,307,232,462,333,29
633,0.43,0.88,0.22,0.79,-21.36,2.5,389,304,233,466,330,29
634,0.5,0.87,0.18,1.46,5.13,-6.9,384,306,234,461,328,29
635,0.51,0.85,0.17,0.06,-4.82,-5.19,385,308,223,462,331,29
636,0.47,0.87,0.19,-1.65,-3.17,-5.31,385,305,242,458,335,29
637,0.47,0.87,0.2,3.36,0.55,-2.81,386,306,234,464,332,29
638,0.47,0.85,0.2,-1.71,-1.59,-1.59,385,304,233,456,333,29
639,0.46,0.86,0.2,0.37,-2.62,-3.36,386,323,232,463,331,29
640,0.45,0.85,0.19,-1.1,-3.11,-0.98,386,305,234,462,337,29
641,0.49,0.89,0.17,6.23,-0.85,-8.91,381,306,233,466,334,29
642,0.46,0.87,0.17,1.89,-1.34,-2.69,387,307,231,454,332,29
643,0.45,0.87,0.16,0.49,-2.99,-4.21,385,302,231,460,326,29
644,0.45,0.89,0.15,1.22,-1.89,-2.62,386,305,234,460,331,29
645,0.46,0.88,0.15,-0.92,-3.97,-3.05,387,307,232,455,332,29
646,0.46,0.87,0.14,-1.22,-4.39,-1.53,388,303,236,459,332,29
647,0.46,0.89,0.14,-2.01,-0.98,-3.85,385,302,235,462,333,29
648,0.48,0.86,0.14,-4.21,-2.14,-3.11,386,304,229,459,332,29
649,0.45,0.89,0.18,4.52,1.46,-5.37,386,304,228,457,332,29
650,0.47,0.91,0.18,0.79,17.64,-3.48,385,304,233,462,331,29
651,0.47,0.86,0.17,4.33,2.2,-8.12,389,304,230,465,336,29
652,0.44,0.85,0.17,2.69,-2.69,-5.68,383,300,235,460,334,29
653,0.44,0.86,0.16,1.4,0.55,-1.16,387,303,232,462,334,29
654,0.44,0.86,0.19,1.89,-7.02,-3.91,386,305,234,459,335,29
655,0.45,0.89,0.15,1.22,-4.39,-2.32,390,303,236,461,332,29
656,0.4,0.89,0.2,-0.49,0.43,-4.52,389,296,236,458,336,29
657,0.42,0.9,0.17,1.95,2.75,5.0,393,304,235,465,332,29
658,0.46,0.86,0.24,-7.26,7.45,-2.08,386,303,232,459,329,29
659,0.46,0.86,0.23,1.16,0.55,-0.85,388,299,238,456,333,29
660,0.46,0.86,0.24,-2.01,-4.21,0.92,386,305,239,461,334,29
661,0.45,0.86,0.24,-0.37,-3.72,-2.01,383,301,232,463,330,29
662,0.45,0.85,0.24,-2.56,0.73,1.46,390,300,231,465,331,29
663,0.44,0.81,0.25,-4.64,-12.88,12.88,390,304,231,458,337,29
664,0.48,0.84,0.26,1.89,-3.36,-6.04,387,305,232,462,333,29
665,0.49,0.8,0.24,0.37,-6.9,0.61,386,300,230,465,334,29
666,0.48,0.84,0.25,-9.03,-18.74,-2.87,385,302,230,465,335,29
667,0.5,0.83,0.25,-6.47,-19.84,-1.04,386,305,231,455,335,29
668,0.5,0.82,0.23,0.98,-0.55,-2.32,396,305,226,461,331,29
669,0.45,0.94,0.34,-1.65,-0.92,-10.13,386,306,230,464,330,29
670,0.5,0.82,0.25,-3.36,-8.97,4.88,421,302,233,464,335,29
671,0.47,0.83,0.25,3.6,-0.43,4.52,386,306,234,461,330,29
672,0.46,0.82,0.27,7.08,-0.55,-5.13,388,306,234,457,333,29
673,0.44,0.86,0.27,-7.32,-20.87,2.69,385,300,237,456,332,29
674,0.53,0.84,0.19,4.03,-4.46,-12.02,387,303,237,458,324,29
675,0.46,0.81,0.21,-3.36,5.25,-4.82,388,302,236,461,337,29
676,0.44,0.82,0.23,8.61,0.55,-0.18,386,302,233,464,336,29
677,0.51,0.79,0.19,-11.66,-14.04,2.2,385,302,231,464,334,29
678,0.48,0.84,0.23,4.39,-5.43,-4.27,390,303,248,460,337,29
679,0.45,0.85,0.27,2.26,1.53,-6.71,386,303,234,460,340,29
680,0.47,0.84,0.26,-2.26,-5.92,-2.99,386,304,232,465,334,29
681,0.46,0.79,0.28,1.89,-2.38,-4.64,388,306,232,460,332,29
682,0.5,0.81,0.21,-3.72,8.73,-1.28,383,302,233,458,333,29
683,0.47,0.84,0.27,0.79,-7.26,8.12,389,301,233,459,335,29
684,0.48,0.82,0.24,5.07,0.0,-7.63,387,316,232,462,338,29
685,0.48,0.85,0.25,-7.26,-8.12,1.04,382,306,232,463,338,29
686,0.52,0.85,0.24,0.79,1.16,-7.02,404,307,238,466,334,29
687,0.51,0.84,0.23,-5.13,0.79,-4.27,386,301,234,461,339,29
688,0.52,0.84,0.25,10.74,1.1,3.91,383,303,233,462,337,29
689,0.47,0.84,0.29,-0.55,3.91,2.99,385,301,235,459,336,29
690,0.5,0.81,0.24,0.67,-3.78,-6.47,384,306,228,459,337,29
691,0.47,0.8,0.27,1.65,-7.32,-1.77,386,302,233,465,325,29
692,0.48,0.83,0.24,-2.38,-6.35,-1.04,384,305,234,460,338,29
693,0.48,0.85,0.25,2.26,-2.81,-2.62,380,302,224,463,338,29
694,0.49,0.84,0.24,0.67,-5.43,-6.29,382,308,234,461,335,29
695,0.48,0.85,0.23,-0.98,-0.67,-4.46,404,305,238,458,331,29
696,0.47,0.86,0.24,2.08,-0.73,-1.34,384,307,233,459,336,29
697,0.47,0.86,0.25,-0.18,-2.08,-3.11,381,303,230,462,333,29
698,0.47,0.85,0.24,1.1,-1.1,-3.78,380,305,231,458,336,29
699,0.46,0.85,0.25,-1.4,1.04,-4.46,384,304,232,460,336,29
700,0.43,0.85,0.25,1.71,-4.7,0.61,385,306,233,460,336,29
701,0.46,0.86,0.26,-1.53,-2.87,-0.31,383,306,229,460,338,29
702,0.47,0.85,0.26,1.83,-2.01,-1.71,382,304,233,465,335,29
703,0.47,0.84,0.25,-1.28,-4.76,-1.34,378,303,238,457,334,29
704,0.46,0.85,0.28,5.62,-1.28,-5.43,382,305,233,460,339,29
705,0.49,0.86,0.26,0.0,-6.41,-3.85,380,315,229,462,338,29
706,0.46,0.88,0.27,4.15,0.98,-4.33,407,302,231,455,339,29
707,0.47,0.85,0.22,2.44,-3.48,-4.7,382,308,231,460,342,29
708,0.45,0.86,0.22,1.71,-2.14,-1.59,380,305,230,451,339,29
709,0.45,0.86,0.23,-2.56,-2.44,-1.59,376,306,233,464,332,29
710,0.47,0.87,0.25,-1.71,-3.66,-3.54,382,306,226,461,337,29
711,0.45,0.86,0.24,1.95,-1.34,-2.81,379,309,235,465,337,29
712,0.44,0.86,0.24,1.77,-2.2,-1.95,378,298,234,463,338,29
713,0.46,0.86,0.23,1.59,-2.56,-3.3,380,304,232,460,337,29
714,0.44,0.86,0.23,1.71,-1.59,-2.69,377,305,235,453,332,29
715,0.46,0.86,0.24,0.31,-1.53,-3.05,377,303,233,461,337,29
716,0.47,0.86,0.24,0.61,-1.77,-3.66,374,306,230,462,339,29
717,0.46,0.85,0.24,1.1,-2.99,-3.23,374,302,228,463,339,29
718,0.46,0.86,0.24,-0.43,-0.79,-3.54,373,302,226,457,337,29
719,0.46,0.86,0.24,2.44,-3.97,-3.05,376,304,230,461,339,29
720,0.47,0.86,0.23,0.18,-2.69,-3.36,375,320,231,463,335,29
721,0.47,0.86,0.24,0.79,-4.27,-2.01,376,303,226,460,338,29
722,0.45,0.85,0.23,1.28,-3.23,-2.2,375,302,228,463,336,29
723,0.45,0.86,0.24,1.83,-4.52,-2.44,375,303,230,463,341,29
724,0.47,0.86,0.25,-0.85,-1.4,-4.58,376,306,235,459,338,29
725,0.46,0.86,0.22,-0.79,-1.16,-2.08,366,303,230,459,339,29
726,0.45,0.84,0.24,0.85,-3.6,-1.89,371,303,234,460,337,29
727,0.47,0.86,0.25,-0.85,-2.2,-3.36,375,309,227,456,337,29
728,0.47,0.85,0.25,1.28,-2.32,-3.05,374,303,222,461,336,29
729,0.47,0.86,0.24,-0.73,-2.75,-1.95,377,298,230,463,338,29
730,0.48,0.86,0.23,-1.71,-3.36,-1.04,373,306,233,458,337,29
731,0.48,0.85,0.21,-0.98,-1.71,-1.16,374,307,235,458,339,29
732,0.45,0.85,0.22,1.22,-2.26,-1.59,375,304,232,461,337,29
733,0.44,0.85,0.25,1.83,-2.14,-3.85,372,302,235,465,338,29
734,0.46,0.87,0.23,-1.59,-3.05,-2.69,370,304,233,460,335,29
735,0.47,0.86,0.22,0.43,-0.79,-2.62,376,305,232,461,338,29
736,0.46,0.85,0.24,2.2,-4.7,-2.38,371,304,238,476,338,29
737,0.47,0.86,0.25,-0.43,-4.33,-2.69,375,303,234,464,339,29
738,0.47,0.85,0.23,-0.79,-2.69,-1.77,373,302,230,458,337,29
739,0.44,0.85,0.23,2.69,-2.08,-2.93,374,306,239,461,340,29
740,0.45,0.86,0.23,2.75,-2.81,-3.23,372,322,231,464,339,29
741,0.44,0.85,0.23,0.98,-4.03,-1.4,375,303,236,459,335,29
742,0.45,0.87,0.23,0.43,-1.77,-3.6,374,306,229,465,333,29
743,0.45,0.86,0.23,-0.24,-2.69,-2.32,375,306,234,456,338,29
744,0.46,0.86,0.23,-0.24,-3.78,-3.17,376,303,231,457,338,29
745,0.46,0.86,0.24,1.59,-3.6,-3.48,373,304,236,460,334,29
746,0.45,0.86,0.24,2.01,-3.66,-4.64,374,305,235,457,338,29
747,0.45,0.86,0.23,0.43,-2.99,-3.23,375,306,237,462,338,29
748,0.44,0.86,0.23,0.79,-3.78,-2.14,376,303,229,462,338,29
749,0.46,0.86,0.24,-0.18,-2.75,-3.23,373,303,233,465,336,29
750,0.46,0.86,0.22,-0.06,-2.14,-2.08,376,301,231,455,336,29
751,0.46,0.85,0.23,-0.49,-2.01,-1.16,375,301,221,458,334,29
752,0.45,0.85,0.23,0.31,-3.78,-0.43,374,307,237,462,333,29
753,0.46,0.86,0.25,0.79,-2.87,-3.48,375,303,233,454,336,29
754,0.45,0.86,0.23,1.28,-1.77,-2.69,374,306,235,455,339,29
755,0.44,0.86,0.22,0.98,-3.6,-1.53,370,305,235,461,332,29
756,0.44,0.87,0.24,2.44,-3.85,-2.99,375,302,233,462,340,29
757,0.45,0.87,0.25,0.49,-4.03,-3.72,376,305,230,460,336,29
758,0.47,0.87,0.23,0.61,-3.42,-4.15,370,304,237,462,341,29
759,0.46,0.87,0.23,2.14,-2.14,-2.44,375,304,231,463,334,29
760,0.44,0.86,0.24,2.2,0.12,-2.75,373,305,232,465,337,29
761,0.45,0.85,0.22,1.04,-7.69,-2.26,373,300,236,453,336,29
762,0.46,0.85,0.22,-1.4,-4.03,-2.99,377,304,233,461,342,29
763,0.46,0.86,0.23,1.83,-3.78,-1.77,374,308,235,460,334,29
764,0.46,0.86,0.23,-6.1,-4.15,-0.37,377,304,230,464,336,29
765,0.45,0.85,0.23,-2.99,-2.32,-1.95,377,301,234,454,336,29
766,0.49,0.84,0.2,-1.95,-5.8,-1.83,379,306,235,460,338,29
767,0.46,0.85,0.21,-1.65,-5.92,-1.83,377,305,231,458,330,29
768,0.47,0.86,0.22,0.0,-1.34,-3.36,377,307,235,463,336,29
769,0.46,0.86,0.22,-0.49,-2.2,-2.87,375,303,231,460,341,29
770,0.46,0.87,0.22,-0.18,-1.34,-3.23,368,305,235,459,336,29
771,0.46,0.86,0.22,0.12,-2.26,-2.69,373,305,236,457,340,29
772,0.45,0.85,0.23,0.73,-4.21,-2.14,374,301,232,460,338,29
773,0.45,0.86,0.22,-0.98,-2.26,-2.44,377,302,231,454,334,29
774,0.45,0.83,0.19,-3.72,-4.94,-1.04,375,305,233,460,337,29
775,0.46,0.87,0.23,1.16,-0.06,-2.56,376,305,232,460,336,29
776,0.45,0.85,0.2,2.32,-3.17,-0.49,377,305,234,458,337,29
777,0.45,0.87,0.22,0.79,-4.7,-3.36,376,304,234,459,339,29
778,0.46,0.86,0.22,1.04,-2.69,-3.6,376,307,234,454,337,29
779,0.46,0.87,0.22,0.67,-1.65,-3.23,375,303,230,457,350,29
780,0.45,0.87,0.22,1.16,-4.15,-3.05,375,304,235,461,336,29
781,0.46,0.87,0.23,0.55,-0.98,-2.62,370,311,234,459,338,29
782,0.46,0.86,0.21,0.92,-2.44,-2.5,371,307,234,458,338,29
783,0.47,0.87,0.21,0.12,-3.91,-3.23,374,303,234,454,337,29
784,0.46,0.86,0.2,0.79,-2.62,-2.62,372,303,232,456,334,29
785,0.45,0.86,0.22,0.85,-2.56,-2.93,376,303,224,460,340,29
786,0.45,0.87,0.22,0.79,-1.71,-3.6,372,296,234,459,332,29
787,0.46,0.87,0.21,-1.71,-2.99,-2.56,374,306,241,459,338,29
788,0.46,0.87,0.22,-0.85,-2.62,-3.11,378,303,227,461,330,29
789,0.46,0.87,0.22,-0.18,-3.36,-2.26,375,303,235,463,338,29
790,0.45,0.86,0.21,-0.12,-5.37,-2.87,375,306,229,453,338,29
791,0.46,0.87,0.22,0.61,-3.05,-3.97,374,304,235,452,336,29
792,0.46,0.87,0.21,0.06,-4.03,0.18,368,303,233,458,336,29
793,0.45,0.85,0.21,-0.67,-0.24,-2.32,376,302,242,462,340,29
794,0.43,0.86,0.22,3.05,-1.71,-2.56,373,295,235,463,337,29
795,0.46,0.87,0.2,0.79,-2.44,-3.91,374,302,230,454,340,29
796,0.44,0.86,0.2,1.4,-2.56,-1.34,374,308,234,463,336,29
797,0.44,0.87,0.2,0.18,-3.85,-2.44,372,304,233,474,341,29
798,0.45,0.86,0.19,-0.37,-2.87,-2.14,371,304,225,463,339,29
799,0.44,0.87,0.2,-0.43,-1.1,-2.99,374,300,231,455,338,29
800,0.45,0.87,0.18,1.53,-3.36,-4.27,377,299,238,455,338,29
801,0.45,0.9,0.19,2.62,1.46,-1.22,382,302,225,465,338,29
802,0.43,0.89,0.19,-1.46,-5.0,0.24,383,310,237,461,332,29
803,0.44,0.89,0.18,2.75,-4.58,-0.12,381,306,239,459,340,29
804,0.48,0.88,0.14,1.71,-5.49,-2.75,386,307,229,468,337,29
805,0.42,0.88,0.14,1.59,-2.26,-3.78,382,305,227,460,339,29
806,0.43,0.85,0.13,4.21,-1.65,-6.47,379,308,236,460,341,29
807,0.45,0.88,0.11,0.85,0.92,-5.37,380,307,235,461,337,29
808,0.42,0.89,0.15,4.27,-2.81,-3.91,386,308,231,454,334,29
809,0.44,0.89,0.15,0.79,-1.4,-3.3,375,311,240,460,338,29
810,0.46,0.9,0.14,4.94,1.65,-4.33,375,303,230,456,335,29
811,0.44,0.9,0.15,2.75,-0.92,-4.03,374,308,235,453,334,29
812,0.41,0.89,0.15,1.34,0.43,-3.54,375,313,234,460,338,29
813,0.43,0.92,0.19,-3.11,-0.73,-4.64,374,304,237,462,338,29
814,0.39,0.9,0.19,-0.12,-5.74,-0.24,376,306,234,460,338,29
815,0.42,0.86,0.15,-5.07,-10.74,3.05,377,309,233,462,334,29
816,0.45,0.89,0.16,1.77,-4.03,-4.21,378,303,231,459,340,29
817,0.42,0.9,0.19,1.34,-1.28,-0.61,381,307,235,460,337,29
818,0.44,0.89,0.17,3.54,-1.95,-0.79,370,308,234,460,335,29
819,0.48,0.87,0.16,7.26,2.99,-0.67,376,313,237,456,328,29
820,0.47,0.89,0.15,0.79,-4.58,-1.1,375,309,235,458,335,29
821,0.47,0.85,0.14,-3.42,-7.93,-0.85,381,309,236,457,339,29
822,0.48,0.86,0.15,-0.18,-3.72,-1.53,377,307,232,454,339,29
823,0.48,0.85,0.15,0.43,-2.81,-1.83,376,308,231,458,337,29
824,0.48,0.86,0.15,1.83,-2.5,-1.77,376,308,236,454,338,29
825,0.49,0.86,0.15,1.1,-1.83,-2.93,369,311,238,470,338,29
826,0.45,0.87,0.18,-1.46,-5.31,-2.93,377,301,237,462,336,29
827,0.47,0.87,0.14,-1.53,-2.69,-3.36,374,308,233,460,334,29
828,0.46,0.89,0.16,-7.14,-9.4,-1.34,365,309,234,459,338,29
829,0.47,0.86,0.15,2.32,-2.08,-6.41,375,307,236,460,340,29
830,0.46,0.88,0.14,4.09,-3.3,-3.91,372,305,235,462,338,29
831,0.45,0.89,0.14,-0.37,-1.4,-4.15,378,307,232,462,335,29
832,0.45,0.88,0.13,-2.01,-5.19,-3.36,376,308,235,454,339,29
833,0.45,0.88,0.12,0.24,-5.62,-1.59,377,308,231,458,340,29
834,0.44,0.88,0.12,-1.53,-2.99,-2.44,372,306,234,460,336,29
835,0.43,0.89,0.12,-4.76,-6.41,-0.18,371,307,233,459,338,29
836,0.46,0.89,0.14,-2.93,-4.15,-3.6,376,299,232,459,338,29
837,0.45,0.89,0.15,2.08,-1.53,-2.87,377,308,232,464,338,29
838,0.45,0.89,0.14,1.4,-3.11,-1.71,376,306,238,462,341,29
839,0.45,0.88,0.14,-0.73,-2.93,-2.62,370,307,232,459,339,29
840,0.45,0.88,0.13,1.04,-3.05,-2.5,370,309,232,455,338,29
841,0.45,0.88,0.13,1.46,-3.36,-2.75,374,303,231,463,334,29
842,0.45,0.88,0.13,0.12,-3.91,-2.26,374,309,237,455,338,29
843,0.45,0.88,0.13,-0.92,-2.62,-2.99,372,311,238,462,341,29
844,0.45,0.88,0.12,-0.37,-3.6,-2.14,374,306,236,462,338,29
845,0.45,0.88,0.13,0.43,-1.65,-2.56,371,309,233,456,337,29
846,0.46,0.84,0.12,-2.81,-5.31,2.99,369,308,235,460,335,29
847,0.47,0.89,0.13,-2.32,2.38,3.6,375,310,231,464,339,29
848,0.52,0.86,0.16,-1.4,-1.16,1.1,374,309,236,457,338,29
849,0.5,0.84,0.18,-0.85,-4.27,-2.32,381,321,242,461,339,29
850,0.47,0.88,0.18,4.46,-1.16,-8.36,374,311,229,457,336,29
851,0.46,0.89,0.14,-5.86,-4.58,-3.97,370,310,234,449,342,29
852,0.45,0.82,0.2,0.55,9.4,-0.49,372,303,240,451,337,29
853,0.48,0.85,0.18,2.56,-1.89,-2.01,378,303,234,460,335,29
854,0.46,0.85,0.2,-1.77,-4.82,1.16,372,308,235,458,340,29
855,0.48,0.86,0.2,-1.95,-4.7,0.85,370,305,227,458,334,29
856,0.49,0.89,0.23,4.15,2.01,-1.59,372,308,230,462,351,29
857,0.48,0.84,0.19,-0.79,-6.59,-0.73,367,308,237,454,338,29
858,0.48,0.85,0.18,-1.83,-6.59,-3.05,410,308,238,458,340,29
859,0.48,0.85,0.19,-0.67,-2.75,-1.34,370,307,234,457,340,29
860,0.48,0.84,0.19,2.26,-3.6,-4.15,368,301,237,457,338,29
861,0.45,0.84,0.2,-2.44,-4.15,1.22,371,308,235,459,339,29
862,0.48,0.87,0.22,1.95,-2.62,-2.14,370,307,236,457,342,29
863,0.53,0.83,0.19,-1.89,-3.48,-3.97,373,305,235,463,340,29
864,0.46,0.84,0.23,0.06,-8.85,9.09,370,307,242,460,337,29
865,0.46,0.81,0.29,0.98,-3.36,-6.04,371,302,233,458,339,29
866,0.5,0.86,0.27,6.29,-5.55,-0.79,372,309,237,458,334,29
867,0.51,0.84,0.25,5.19,-4.58,-3.11,372,306,235,448,341,29
868,0.5,0.85,0.23,1.4,0.49,0.55,368,308,240,460,339,29
869,0.52,0.82,0.27,-5.43,-11.35,-8.85,375,308,237,457,337,29
870,0.46,0.84,0.27,1.1,11.96,-4.09,370,307,236,452,339,29
871,0.46,0.86,0.27,3.6,-1.4,-3.11,374,306,234,462,340,29
872,0.46,0.87,0.25,5.13,-1.46,-3.3,376,304,240,454,340,29
873,0.43,0.84,0.24,-0.55,-1.16,-2.08,370,310,228,460,338,29
874,0.44,0.87,0.3,3.36,-0.49,-2.26,372,308,236,458,334,29
875,0.43,0.87,0.29,-1.1,-2.5,-2.62,374,309,240,458,336,29
876,0.41,0.87,0.26,-1.22,2.62,0.06,372,309,237,460,339,29
877,0.37,0.85,0.29,0.79,-7.69,0.43,371,304,233,460,339,29
878,0.49,0.86,0.29,-0.61,-5.13,-7.51,372,309,237,457,334,29
879,0.45,0.83,0.27,0.67,0.43,-7.08,372,306,237,461,338,29
880,0.43,0.84,0.26,3.48,0.67,-2.5,372,306,240,456,339,29
881,0.41,0.94,0.28,-1.1,-16.91,-12.21,403,306,237,457,337,29
882,0.41,0.86,0.3,4.39,-5.07,-4.33,375,306,239,461,338,29
883,0.44,0.86,0.26,-0.98,0.43,-3.54,374,310,231,460,339,29
884,0.41,0.84,0.25,-3.05,-3.6,-0.43,368,309,225,454,338,29
885,0.43,0.87,0.26,0.12,5.25,-4.21,375,308,233,458,339,29
886,0.36,0.86,0.25,4.46,-2.69,-7.26,377,308,232,457,339,29
887,0.38,0.88,0.23,-0.24,-6.04,-1.04,377,308,229,458,325,29
888,0.37,0.89,0.24,-0.12,-3.85,-1.65,380,319,234,457,340,29
889,0.38,0.89,0.25,0.67,-3.42,-1.34,376,306,225,453,340,29
890,0.38,0.89,0.25,0.12,-3.91,-1.16,373,312,232,456,339,29
891,0.39,0.88,0.23,2.81,-6.23,-3.91,376,303,227,459,335,29
892,0.4,0.89,0.22,-0.12,-4.7,-2.01,375,311,231,455,338,29
893,0.4,0.89,0.22,1.89,-3.11,-2.44,374,307,237,462,337,29
894,0.4,0.89,0.22,-1.28,-3.66,-1.95,371,305,238,460,339,29
895,0.4,0.89,0.22,0.18,-2.81,-2.56,372,306,235,456,339,29
896,0.41,0.88,0.23,-0.67,-2.81,-2.08,373,306,234,455,333,29
897,0.39,0.89,0.23,0.49,-1.22,-2.93,373,306,234,455,337,29
898,0.4,0.88,0.23,-0.24,-2.69,-2.62,370,307,236,456,339,29
899,0.41,0.89,0.22,-0.06,-1.89,-2.62,373,309,233,450,339,29
900,0.41,0.88,0.25,-3.72,-4.88,-0.24,366,310,233,458,339,29
901,0.43,0.88,0.25,1.53,3.36,1.04,366,301,234,452,335,29
902,0.44,0.86,0.27,-1.28,-0.43,-1.59,369,304,231,459,339,29
903,0.43,0.86,0.29,0.06,-1.59,-1.89,371,309,233,455,336,29
904,0.43,0.85,0.29,0.31,-2.69,-3.36,367,307,227,460,340,29
905,0.42,0.86,0.3,1.59,-1.4,-4.39,357,311,242,452,339,29
906,0.41,0.86,0.3,1.22,-0.31,-2.38,369,313,235,454,340,29
907,0.5,0.83,0.3,-11.78,-14.65,8.18,371,309,233,457,335,29
908,0.48,0.8,0.28,5.19,-3.23,-1.77,369,302,232,459,341,29
909,0.46,0.84,0.3,8.06,-0.31,1.1,372,305,234,462,337,29
910,0.4,0.85,0.33,-1.53,3.17,-3.54,382,308,238,453,339,29
911,0.48,0.86,0.29,-1.28,2.56,-5.74,372,305,233,459,330,29
912,0.46,0.82,0.28,2.75,-0.92,-8.67,368,308,236,454,332,29
913,0.45,0.84,0.28,9.22,4.7,-6.9,384,308,230,458,336,29
914,0.42,0.86,0.3,2.2,-6.59,0.98,380,310,231,460,337,29
915,0.48,0.85,0.26,2.2,-1.59,-3.11,376,307,232,459,335,29
916,0.46,0.86,0.25,-0.18,-1.59,-4.21,374,309,232,463,336,29
917,0.44,0.87,0.27,-2.5,-4.52,-4.27,379,305,231,451,339,29
918,0.45,0.86,0.27,1.59,-1.95,-1.22,376,306,232,464,335,29
919,0.45,0.86,0.28,-0.43,-0.67,-2.14,379,306,222,456,337,29
920,0.44,0.86,0.3,0.06,-1.1,-3.78,374,310,229,457,334,29
921,0.43,0.86,0.29,0.37,-3.3,-2.69,378,311,231,461,332,29
922,0.43,0.86,0.28,1.34,-2.69,-1.46,376,306,232,462,339,29
923,0.42,0.86,0.28,3.11,-3.05,-1.1,378,308,238,454,336,29
924,0.44,0.86,0.28,-0.12,-2.56,-1.95,377,303,235,458,337,29
925,0.44,0.86,0.28,0.73,-3.11,-1.46,378,307,235,461,340,29
926,0.44,0.85,0.28,0.24,-4.21,-2.5,379,307,230,454,337,29
927,0.44,0.85,0.27,-0.31,-2.2,-4.03,376,310,232,461,333,29
928,0.44,0.85,0.27,2.69,-3.97,-4.09,377,308,234,458,335,29
929,0.43,0.85,0.27,-1.22,-4.82,-1.95,380,308,236,460,334,29
930,0.44,0.87,0.28,0.06,-5.62,-2.38,375,309,229,457,335,29
931,0.44,0.86,0.27,0.06,-2.14,-1.28,379,313,236,454,336,29
932,0.43,0.86,0.27,-0.49,-5.49,-4.46,380,308,236,457,340,29
933,0.44,0.83,0.25,-2.44,-10.13,2.44,377,307,237,455,337,29
934,0.44,0.85,0.21,13.06,24.05,-19.35,375,308,232,455,338,29
935,0.45,0.84,0.25,-2.26,-8.61,-4.33,377,311,236,458,338,29
936,0.45,0.86,0.28,2.14,-11.35,2.87,376,307,227,460,340,29
937,0.42,0.87,0.28,4.33,-1.89,-3.23,378,309,234,460,338,29
938,0.5,0.74,0.15,-7.39,-41.02,10.13,391,305,235,457,339,29
939,0.52,0.82,0.2,6.29,-10.38,-4.21,375,308,226,461,335,29
940,0.44,0.88,0.27,2.93,4.58,-0.31,377,309,235,464,338,29
941,0.55,0.82,0.23,-5.31,-5.55,-9.4,378,310,231,459,336,29
942,0.48,0.83,0.19,2.44,3.72,-0.92,374,298,233,462,329,29
943,0.5,0.84,0.25,-2.81,-13.55,6.96,377,305,232,457,327,29
944,0.49,0.79,0.22,-2.99,-0.31,-5.13,373,306,233,454,327,29
945,0.45,0.86,0.3,-2.81,4.39,-5.62,368,297,230,450,296,29
946,0.39,0.87,0.35,2.2,13.55,-12.45,353,299,234,456,284,29
947,0.37,0.86,0.33,10.86,-2.01,-5.8,356,297,234,455,286,29
948,0.4,0.87,0.34,-12.76,-11.9,-11.23,361,294,240,457,296,29
949,0.38,0.88,0.31,7.08,-0.06,2.2,372,293,235,453,297,29
950,0.4,0.86,0.28,-0.49,-2.69,-0.85,371,293,234,451,299,29
951,0.39,0.89,0.3,1.71,-0.92,-5.98,370,293,238,453,299,29
952,0.4,0.89,0.3,17.52,11.6,-13.85,374,297,238,454,299,29
953,0.39,0.9,0.38,17.03,6.23,-14.16,366,313,244,455,303,29
954,0.36,0.93,0.29,14.71,3.23,-5.07,372,296,240,456,300,29
955,0.35,0.87,0.28,3.6,-3.3,-0.49,380,297,235,456,304,29
956,0.4,0.87,0.29,0.31,-5.49,0.85,373,287,235,452,301,29
957,0.46,0.9,0.28,-10.99,10.99,-2.14,369,297,235,453,303,29
958,0.5,0.9,0.32,-8.36,-11.11,1.53,357,293,217,455,314,29
959,0.44,0.9,0.37,9.89,-2.93,-13.0,366,285,227,458,349,29
960,0.45,0.81,0.32,-12.08,15.63,-0.12,369,290,219,452,300,29
961,0.4,0.88,0.46,-1.46,-10.13,3.97,365,287,230,452,280,29
962,0.35,0.86,0.36,13.67,-3.72,-4.21,367,285,226,457,285,29
963,0.3,0.89,0.32,5.0,2.38,-2.44,378,293,235,453,293,29
964,0.4,0.9,0.31,-5.0,-8.36,-2.56,375,296,236,454,298,29
965,0.35,0.87,0.29,-0.49,-0.98,0.12,377,292,234,457,297,29
966,0.37,0.89,0.29,1.04,-0.92,-1.46,376,303,239,451,299,29
967,0.38,0.94,0.34,3.97,1.28,-3.17,368,292,239,459,297,29
968,0.33,0.86,0.28,-8.06,-3.23,-0.43,375,296,237,453,299,29
969,0.37,0.85,0.27,0.31,-5.0,-4.03,368,291,236,451,294,29
970,0.3,0.89,0.31,4.21,0.24,-4.94,372,295,235,449,300,29
971,0.31,0.92,0.36,2.44,-6.65,7.32,369,289,242,446,296,29
972,0.34,0.92,0.32,1.28,1.22,-4.03,369,294,238,451,301,29
973,0.35,0.93,0.27,1.4,7.45,-4.03,366,294,241,454,299,29
974,0.34,0.89,0.35,-0.79,2.93,0.92,369,293,237,449,300,29
975,0.36,0.88,0.32,6.84,-4.76,-2.62,363,293,238,449,302,29
976,0.34,0.88,0.3,2.26,-3.48,-3.23,366,295,239,454,303,29
977,0.33,0.9,0.32,-8.85,-5.8,1.65,366,297,238,454,301,29
978,0.34,0.87,0.34,2.01,-4.03,-2.38,363,290,240,453,297,29
979,0.35,0.88,0.3,-4.52,-8.24,-3.72,364,299,230,451,306,29
980,0.34,0.91,0.33,0.61,3.05,-1.89,358,300,237,451,301,29
981,0.32,0.88,0.37,3.17,-1.1,-2.87,362,289,240,450,304,29
982,0.32,0.89,0.38,-1.46,0.98,-4.33,361,296,228,452,300,29
983,0.36,0.85,0.38,5.13,-2.93,-7.93,363,300,230,453,302,29
984,0.38,0.81,0.36,11.96,-11.96,-5.8,366,296,241,450,303,29
985,0.35,0.8,0.38,-0.85,-9.03,-5.25,364,300,243,449,306,29
986,0.35,0.84,0.38,3.54,0.49,-4.82,367,287,239,448,306,29
987,0.34,0.79,0.31,10.13,2.26,-1.59,366,301,243,458,304,29
988,0.34,0.84,0.33,1.46,-12.45,-2.69,366,287,239,457,301,29
989,0.32,0.88,0.36,-6.23,-5.31,-3.42,365,293,238,447,304,29
990,0.34,0.88,0.34,0.37,2.01,1.4,367,296,236,448,308,29
991,0.32,0.88,0.33,0.24,-5.19,-2.44,369,295,234,450,304,29
992,0.31,0.9,0.39,-2.75,-4.64,-3.17,365,299,243,449,301,29
993,0.33,0.88,0.34,7.75,-3.91,-0.61,371,297,239,448,303,29
994,0.33,0.89,0.35,8.36,-1.1,-2.56,373,297,242,445,303,29
995,0.29,0.83,0.33,-3.11,-7.02,1.1,380,299,240,447,305,29
996,0.28,0.88,0.32,-7.63,-8.3,-3.3,373,295,235,448,302,29
997,0.33,0.9,0.33,-0.98,-4.03,-2.93,367,294,238,449,309,29
998,0.32,0.97,0.34,-1.59,-5.19,-4.58,368,287,239,448,306,29
999,0.33,0.9,0.35,2.14,1.53,-6.47,371,297,239,442,308,29
1000,0.31,0.9,0.35,-2.26,-5.68,-1.53,380,301,243,449,307,29
1001,0.32,0.91,0.35,1.1,-1.04,-1.22,375,298,238,448,308,29
1002,0.33,0.86,0.32,2.32,-0.61,-1.65,367,295,242,443,313,29
1003,0.32,0.81,0.25,-3.72,-12.33,7.08,371,298,239,448,309,29
1004,0.34,0.88,0.31,-0.49,-1.28,2.93,373,300,241,457,312,29
1005,0.33,0.88,0.32,3.54,-3.11,-3.78,371,299,238,452,309,29
1006,0.32,0.9,0.32,1.83,-2.56,-1.28,370,300,240,448,309,29
1007,0.33,0.89,0.29,2.32,-2.62,-2.5,374,300,240,450,305,29
1008,0.33,0.89,0.29,1.4,-2.93,-2.38,394,298,240,451,310,29
1009,0.42,0.89,0.19,-5.68,-10.68,-8.79,380,276,206,439,360,29
1010,0.37,0.88,0.28,2.93,-1.4,-6.41,382,275,200,447,358,29
1011,0.38,0.94,0.27,-2.5,-1.77,-2.14,384,280,198,444,362,29
1012,0.39,0.88,0.3,-0.06,-1.16,-3.36,381,277,201,442,360,29
1013,0.37,0.95,0.29,2.44,1.46,1.34,378,277,205,443,359,29
1014,0.35,0.88,0.31,-5.74,-7.02,-2.08,378,280,206,443,361,29
1015,0.41,0.82,0.27,-12.51,5.49,-4.64,378,277,202,438,358,29
1016,0.37,0.86,0.33,-0.79,8.61,6.23,367,278,205,440,355,29
1017,0.42,0.92,0.29,-8.18,-10.86,7.02,367,277,201,437,354,29
1018,0.42,0.8,0.33,0.49,-0.61,-1.4,379,277,205,445,358,29
1019,0.42,0.82,0.32,0.67,8.42,-13.67,367,277,205,439,355,29
1020,0.45,0.85,0.35,4.64,-4.58,-3.78,370,276,201,438,358,29
1021,0.42,0.84,0.33,-2.08,-2.56,-0.73,370,278,209,447,359,29
1022,0.43,0.84,0.34,0.0,-1.1,1.71,369,280,200,457,357,29
1023,0.44,0.83,0.34,2.44,-3.05,-1.46,370,278,202,445,359,29
1024,0.44,0.84,0.33,-1.28,-3.11,-0.31,368,281,202,442,357,29
1025,0.43,0.82,0.35,-0.55,-3.97,-1.95,370,280,203,444,358,29
1026,0.44,0.83,0.33,2.56,-2.81,-3.23,371,281,199,447,358,29
1027,0.46,0.84,0.3,5.98,-7.75,-1.22,368,277,202,438,357,29
1028,0.46,0.83,0.32,2.56,-2.62,-3.3,369,275,202,443,358,29
1029,0.48,0.85,0.3,-0.12,-1.53,-6.9,370,279,203,444,360,29
1030,0.47,0.83,0.28,-0.79,-2.62,0.37,371,288,202,439,356,29
1031,0.5,0.83,0.29,-1.22,-3.17,-1.65,368,281,203,443,360,29
1032,0.5,0.82,0.29,3.23,-3.42,-2.08,370,278,203,445,353,29
1033,0.49,0.82,0.29,0.18,-1.34,-0.73,366,278,202,444,357,29
1034,0.49,0.82,0.31,-0.31,0.12,-4.39,365,278,205,442,356,29
1035,0.49,0.82,0.3,2.5,-2.81,-5.25,370,280,205,444,357,29
1036,0.48,0.82,0.3,0.67,-0.73,-3.17,365,285,202,442,358,29
1037,0.49,0.85,0.31,-2.44,-0.31,-3.36,365,278,204,445,361,29
1038,0.46,0.86,0.31,2.87,-4.88,-7.57,368,277,205,450,358,29
1039,0.44,0.85,0.31,-3.23,-0.06,-9.28,367,275,202,437,358,29
1040,0.46,0.8,0.29,0.79,-12.57,-6.16,366,279,201,448,359,29
1041,0.46,0.8,0.27,3.72,-2.26,-0.67,367,278,204,442,360,29
1042,0.5,0.85,0.23,6.35,-5.74,-2.44,362,277,205,440,360,29
1043,0.5,0.82,0.24,-4.33,-1.95,-0.49,367,280,205,441,358,29
1044,0.5,0.82,0.25,-1.46,-6.9,-3.05,368,277,202,437,356,29
1045,0.51,0.81,0.24,-7.81,-2.69,-0.98,371,276,203,442,358,29
1046,0.52,0.82,0.24,1.95,-1.83,-3.05,370,278,204,442,360,29
1047,0.5,0.81,0.25,0.12,-2.62,-2.44,371,275,201,442,355,29
1048,0.5,0.84,0.26,3.17,0.24,-3.66,369,277,204,439,357,29
1049,0.53,0.86,0.25,2.5,0.85,-4.88,369,277,202,442,358,29
1050,0.51,0.86,0.23,4.64,0.0,-1.95,368,278,201,443,360,29
1051,0.51,0.86,0.27,0.55,-0.24,-2.44,364,277,205,443,356,29
1052,0.54,0.82,0.27,6.77,-1.83,-5.49,368,279,204,446,355,29
1053,0.51,0.79,0.25,3.48,-8.18,-2.81,365,280,202,446,358,29
1054,0.5,0.82,0.27,-5.8,-7.51,-3.54,379,280,203,444,358,29
1055,0.52,0.81,0.25,0.85,-8.06,-4.03,368,280,201,443,358,29
1056,0.5,0.82,0.25,6.65,-3.72,-4.21,370,278,202,437,358,29
1057,0.51,0.85,0.27,4.15,-1.65,-6.29,370,277,204,443,356,29
1058,0.49,0.86,0.26,5.92,-4.39,-1.71,372,278,203,437,359,29
1059,0.49,0.82,0.24,0.31,-4.33,-2.44,367,277,199,446,357,29
1060,0.5,0.84,0.24,0.49,-2.38,-2.2,371,278,203,440,361,29
1061,0.52,0.84,0.24,2.81,-3.3,-3.48,369,277,205,442,358,29
1062,0.5,0.83,0.24,2.01,-1.77,-3.48,368,278,200,443,357,29
1063,0.51,0.82,0.23,2.93,-1.83,-2.26,368,280,202,448,360,29
1064,0.52,0.81,0.23,-4.46,3.78,-5.86,367,277,205,442,360,29
1065,0.5,0.82,0.26,-0.67,-2.69,0.24,396,279,205,442,358,29
1066,0.51,0.82,0.27,2.26,-3.66,-2.44,364,280,204,442,361,29
1067,0.5,0.81,0.27,1.34,0.12,-4.27,368,280,202,443,361,29
1068,0.5,0.81,0.26,1.59,-2.93,-3.05,368,281,201,446,362,29
1069,0.5,0.82,0.27,-0.24,-3.78,-2.93,365,281,203,446,359,29
1070,0.49,0.82,0.27,0.06,-4.76,-2.2,370,278,201,445,359,29
1071,0.49,0.83,0.28,1.4,-2.75,-2.62,366,278,199,442,355,29
1072,0.47,0.81,0.26,-1.89,-1.71,-1.59,367,275,205,440,361,29
1073,0.51,0.83,0.24,1.4,-1.16,-2.08,365,277,197,443,355,29
1074,0.49,0.83,0.24,1.95,-3.72,-1.04,357,279,204,442,361,29
1075,0.5,0.83,0.24,1.04,-3.97,-0.92,365,277,204,445,356,29
1076,0.49,0.82,0.24,-0.49,-2.08,-0.67,363,276,205,442,357,29
1077,0.51,0.83,0.25,-0.24,-2.62,-2.62,370,277,203,448,360,29
1078,0.51,0.83,0.26,-1.46,-2.2,-1.34,370,279,204,444,359,29
1079,0.52,0.83,0.25,-0.12,-3.6,-1.95,369,279,204,443,361,29
1080,0.51,0.82,0.25,1.16,-2.87,-3.05,366,281,202,441,359,29
1081,0.51,0.82,0.25,-1.16,-2.38,-1.65,370,276,217,442,359,29
1082,0.52,0.82,0.25,0.31,-3.3,-2.81,366,277,202,442,355,29
1083,0.52,0.82,0.25,-1.16,-2.56,-2.08,368,279,202,448,360,29
1084,0.51,0.83,0.26,1.04,-2.5,-2.56,368,281,204,442,358,29
1085,0.52,0.82,0.26,2.87,-2.26,-1.83,367,280,204,442,360,29
1086,0.52,0.82,0.25,1.1,-1.53,-3.17,365,278,207,444,360,29
1087,0.52,0.83,0.25,2.81,-5.07,-2.38,367,277,204,439,360,29
1088,0.51,0.82,0.26,1.59,-0.55,-3.23,365,279,203,437,354,29
1089,0.5,0.81,0.27,-0.73,-2.26,1.34,367,280,205,442,359,29
1090,0.52,0.82,0.27,-0.49,-1.83,-1.71,366,279,201,440,358,29
1091,0.51,0.82,0.27,0.98,-4.09,-3.17,368,278,204,445,360,29
1092,0.52,0.81,0.26,0.06,-3.11,-2.2,369,281,205,442,360,29
1093,0.52,0.82,0.26,0.06,-3.3,-2.01,365,284,205,445,358,29
1094,0.51,0.82,0.27,-0.43,-2.14,-2.08,367,278,206,441,355,29
1095,0.52,0.82,0.25,3.05,-2.87,-4.94,366,280,205,448,365,29
1096,0.51,0.82,0.25,2.01,-2.87,-1.89,365,276,201,437,361,29
1097,0.5,0.82,0.25,-0.55,-1.95,-2.93,369,281,203,442,360,29
1098,0.52,0.82,0.24,-0.12,-3.3,-1.77,371,278,202,443,359,29
1099,0.51,0.83,0.26,0.12,-3.23,-2.44,366,279,202,441,356,29
1100,0.52,0.83,0.24,0.0,-2.38,-2.75,370,278,204,437,357,29
1101,0.52,0.82,0.25,-0.18,-3.05,-0.79,367,279,203,443,359,29
1102,0.52,0.81,0.24,1.22,-3.78,-1.16,364,280,207,441,360,29
1103,0.51,0.83,0.24,1.46,-2.01,-2.69,369,283,205,442,362,29
1104,0.53,0.83,0.25,-0.61,-5.62,-0.37,365,279,219,438,361,29
1105,0.52,0.82,0.25,1.22,-1.34,-3.42,370,278,202,442,359,29
1106,0.51,0.83,0.25,-2.75,-3.72,-2.32,369,280,202,445,361,29
1107,0.53,0.8,0.25,0.0,-3.91,-1.34,367,278,202,436,359,29
1108,0.52,0.81,0.24,-1.4,-3.6,-1.28,368,279,201,451,357,29
1109,0.54,0.81,0.25,2.26,-3.05,-0.79,367,277,204,437,360,29
1110,0.52,0.8,0.25,-1.34,-1.65,-1.16,368,281,207,442,359,29
1111,0.53,0.82,0.27,1.04,-2.56,-2.38,368,281,202,443,359,29
1112,0.54,0.8,0.26,0.61,-2.01,-3.23,378,283,210,444,359,29
1113,0.53,0.81,0.27,0.61,-1.28,-2.62,365,278,202,446,360,29
1114,0.51,0.81,0.26,0.24,-3.17,-3.05,369,278,203,440,360,29
1115,0.52,0.8,0.26,-1.04,-3.6,-4.64,364,277,204,444,357,29
1116,0.52,0.81,0.27,0.18,-3.3,-2.81,369,282,206,442,362,29
1117,0.52,0.8,0.25,1.28,-4.46,-4.27,369,279,203,440,360,29
1118,0.52,0.81,0.26,0.12,-2.81,-1.89,366,280,203,442,361,29
1119,0.51,0.82,0.26,-1.83,-2.99,-2.81,368,281,204,443,360,29
1120,0.52,0.81,0.25,0.49,-3.05,-2.44,367,288,205,440,362,29
1121,0.53,0.83,0.29,-6.35,-2.87,2.01,368,279,204,440,360,29
1122,0.55,0.82,0.27,-2.38,-5.25,-1.83,367,282,202,445,360,29
1123,0.53,0.79,0.26,-1.28,-2.44,-3.97,368,278,207,435,360,29
1124,0.53,0.82,0.28,1.34,-1.53,2.38,368,279,207,443,361,29
1125,0.54,0.79,0.27,0.73,-3.66,-1.34,366,279,208,446,360,29
1126,0.53,0.8,0.28,2.01,-0.12,-4.03,371,278,219,442,359,29
1127,0.53,0.76,0.27,-3.78,-6.47,-3.85,368,281,207,441,359,29
1128,0.52,0.77,0.28,-1.28,-5.92,-4.21,367,278,206,440,358,29
1129,0.52,0.79,0.28,-1.65,-2.75,-2.69,370,278,203,439,361,29
1130,0.54,0.79,0.29,0.67,-3.36,-1.1,370,279,209,441,356,29
1131,0.55,0.8,0.29,0.61,-3.54,-2.2,370,279,203,441,360,29
1132,0.56,0.8,0.28,2.99,-3.48,-3.66,370,281,217,436,356,29
1133,0.53,0.8,0.28,2.2,-2.99,-4.09,368,277,204,443,359,29
1134,0.56,0.79,0.26,0.55,-4.58,-1.89,369,276,205,439,359,29
1135,0.55,0.78,0.29,-1.4,-3.48,0.79,370,279,204,441,358,29
1136,0.54,0.77,0.28,-3.97,-4.52,-3.05,368,279,206,445,360,29
1137,0.53,0.78,0.28,4.52,-0.85,-6.29,370,278,208,439,359,29
1138,0.54,0.8,0.29,-1.4,-2.62,-3.23,372,280,206,445,364,29
1139,0.55,0.8,0.28,1.89,-3.05,-3.85,367,279,202,440,360,29
1140,0.56,0.82,0.27,4.39,-1.22,-3.66,368,281,206,440,363,29
1141,0.55,0.81,0.28,1.77,-4.64,-4.58,368,282,201,440,354,29
1142,0.56,0.81,0.26,4.33,-3.42,-1.71,370,280,206,442,358,29
1143,0.55,0.81,0.27,1.89,-3.72,-6.23,369,280,203,444,361,29
1144,0.53,0.79,0.27,-2.01,-4.21,-2.5,369,279,207,441,361,29
1145,0.52,0.81,0.27,-3.17,-2.38,-2.2,367,280,203,441,362,29
1146,0.55,0.79,0.29,2.56,-2.5,-2.26,369,281,203,442,362,29
1147,0.54,0.8,0.29,1.16,-2.01,-3.23,369,278,206,441,360,29
1148,0.55,0.79,0.26,1.65,-3.78,-0.61,369,278,203,441,360,29
1149,0.53,0.79,0.27,1.04,0.31,-4.52,368,279,204,439,358,29
1150,0.54,0.81,0.26,1.53,-3.6,-0.18,371,282,207,442,358,29
1151,0.54,0.8,0.27,-0.85,-2.32,-1.28,370,280,207,442,362,29
1152,0.56,0.79,0.26,1.83,-5.19,-1.71,369,279,206,442,359,29
1153,0.55,0.8,0.26,0.98,-4.27,-2.5,371,279,218,442,362,29
1154,0.55,0.79,0.26,-0.61,-3.54,-3.05,371,282,206,436,356,29
1155,0.54,0.79,0.27,-3.54,-2.5,-0.73,368,278,204,441,359,29
1156,0.55,0.8,0.26,0.31,-3.85,-1.95,368,276,205,436,359,29
1157,0.54,0.8,0.27,-1.77,-1.65,-2.32,369,279,201,440,360,29
1158,0.53,0.8,0.27,1.46,-2.2,-2.93,372,280,204,436,360,29
1159,0.55,0.79,0.27,0.18,-1.4,-2.75,370,282,203,439,359,29
1160,0.55,0.8,0.27,-0.24,-2.32,-1.22,369,285,204,445,356,29
1161,0.55,0.78,0.28,2.2,-3.05,-2.75,368,281,208,445,361,29
1162,0.55,0.79,0.27,1.71,-3.3,-3.54,369,279,204,442,361,29
1163,0.54,0.8,0.27,1.4,-4.39,-5.31,368,281,204,442,360,29
1164,0.56,0.82,0.28,3.78,-2.26,-2.14,369,281,207,441,360,29
1165,0.55,0.8,0.26,0.24,-4.33,-3.6,369,278,204,440,360,29
1166,0.54,0.81,0.27,-2.14,-3.66,-6.71,367,285,204,442,361,29
1167,0.54,0.81,0.28,-2.01,-2.75,-0.31,370,280,201,436,356,29
1168,0.56,0.81,0.28,0.73,-4.76,-3.78,367,288,203,439,360,29
1169,0.55,0.8,0.29,-1.1,-1.28,-2.38,370,276,205,445,357,29
1170,0.54,0.8,0.28,3.05,-4.03,1.04,367,279,213,441,362,29
1171,0.56,0.78,0.27,-0.43,-3.36,-1.65,368,281,201,445,356,29
1172,0.55,0.78,0.28,0.43,-1.95,-4.09,371,284,209,443,356,29
1173,0.55,0.79,0.27,0.37,-2.75,-2.44,368,282,209,445,360,29
1174,0.55,0.79,0.29,1.04,-3.97,-2.75,372,275,204,442,358,29
1175,0.56,0.78,0.28,1.28,-4.15,-2.62,368,277,204,441,362,29
1176,0.55,0.79,0.29,0.18,-2.38,-2.56,368,281,209,444,361,29
1177,0.55,0.79,0.28,-0.31,-3.17,-4.58,370,282,207,437,358,29
1178,0.56,0.79,0.26,1.83,-3.3,-2.14,368,277,206,441,362,29
1179,0.55,0.79,0.28,0.12,-3.72,-2.38,366,282,203,442,362,29
1180,0.56,0.78,0.27,-1.77,-2.32,-2.99,367,282,207,439,360,29
1181,0.55,0.79,0.27,1.71,-2.93,-1.83,367,279,203,441,361,29
1182,0.55,0.78,0.27,-0.61,-2.5,-2.81,368,281,204,438,360,29
1183,0.55,0.78,0.27,1.16,-3.78,-3.3,375,279,205,444,357,29
1184,0.54,0.8,0.28,1.59,-3.3,-0.67,368,278,204,437,357,29
1185,0.55,0.79,0.27,1.53,-2.26,-2.14,368,280,203,442,361,29
1186,0.55,0.8,0.26,1.77,-2.26,-3.17,368,280,204,442,361,29
1187,0.56,0.8,0.26,-1.4,-1.71,-3.6,365,281,203,442,361,29
1188,0.56,0.8,0.26,-0.12,-3.42,-2.01,370,282,205,442,362,29
1189,0.56,0.81,0.27,1.22,-2.2,-4.03,369,280,207,441,361,29
1190,0.56,0.8,0.26,2.14,-3.42,-1.83,370,279,207,442,357,29
1191,0.55,0.8,0.25,-0.43,-3.23,-2.99,369,279,203,435,359,29
1192,0.56,0.78,0.26,-2.69,-3.66,-2.69,370,279,207,441,361,29
1193,0.55,0.79,0.26,0.61,-2.01,-1.77,371,275,203,444,360,29
1194,0.55,0.79,0.27,-0.06,-2.87,-3.54,365,279,204,444,364,29
1195,0.55,0.8,0.26,1.53,-2.87,-2.44,366,280,203,445,364,29
1196,0.55,0.8,0.27,0.24,-3.48,-2.81,368,280,211,442,359,29
1197,0.54,0.8,0.28,-0.18,-2.5,-1.71,368,280,207,443,362,29
1198,0.54,0.79,0.28,-0.49,-2.62,-1.65,367,281,207,440,361,29
1199,0.54,0.79,0.28,-2.26,-2.69,-1.83,371,279,202,444,362,29
1200,0.55,0.78,0.28,-0.73,-2.38,-2.08,368,280,206,442,361,29
1201,0.55,0.79,0.29,-0.79,-2.44,-3.3,365,282,206,442,362,29
1202,0.55,0.78,0.28,-0.37,-3.11,-2.93,369,280,207,442,363,29
1203,0.54,0.79,0.28,1.4,-3.17,-2.2,374,281,205,438,361,29
1204,0.54,0.79,0.29,-0.37,-1.65,-2.93,371,282,207,436,357,29
1205,0.55,0.79,0.28,1.16,-2.14,-2.75,369,280,207,440,363,29
1206,0.55,0.8,0.28,1.4,-3.48,-2.99,371,279,208,445,360,29
1207,0.54,0.79,0.28,-0.12,-2.93,-2.56,367,279,205,444,360,29
1208,0.55,0.79,0.28,0.98,-4.88,-1.28,370,280,208,441,362,29
1209,0.53,0.78,0.28,-0.06,-2.32,-2.62,369,282,205,440,362,29
1210,0.54,0.8,0.28,-0.73,-1.34,-2.44,371,279,207,445,363,29
1211,0.55,0.8,0.29,0.73,-3.11,-2.62,366,282,203,440,359,29
1212,0.54,0.79,0.28,-0.49,-2.01,-3.6,367,280,206,441,360,29
1213,0.54,0.8,0.28,-1.16,-2.44,-2.93,369,281,207,442,361,29
1214,0.54,0.8,0.29,0.67,-1.83,-1.53,369,280,205,446,362,29
1215,0.56,0.8,0.29,-0.92,-3.23,-1.65,365,278,203,440,362,29
1216,0.55,0.79,0.28,-0.24,-2.14,-2.93,371,279,205,443,361,29
1217,0.54,0.78,0.3,1.34,-3.48,-2.32,382,282,204,443,361,29
1218,0.55,0.79,0.29,1.22,-2.69,-2.62,366,285,206,442,361,29
1219,0.55,0.79,0.29,-0.24,-3.11,-2.2,368,281,204,442,363,29
1220,0.57,0.79,0.3,1.34,-1.83,-1.95,368,284,204,445,362,29
1221,0.56,0.79,0.3,0.37,-3.42,-2.93,372,279,206,438,363,29
1222,0.54,0.77,0.3,-2.32,-4.15,-2.99,373,280,206,440,362,29
1223,0.55,0.79,0.31,-0.24,-1.89,-1.53,369,283,203,440,361,29
1224,0.55,0.77,0.31,-0.67,-2.5,-0.73,370,283,208,442,361,29
1225,0.57,0.78,0.3,0.18,-2.93,-2.2,367,282,205,440,362,29
1226,0.55,0.77,0.32,-0.79,-3.11,-2.08,367,279,203,438,361,29
1227,0.58,0.79,0.3,0.73,-2.2,-3.23,366,281,205,441,361,29
1228,0.56,0.78,0.3,-3.36,-3.78,-3.72,370,281,208,441,360,29
1229,0.53,0.75,0.34,1.4,2.26,-12.88,369,282,205,441,362,29
1230,0.49,0.82,0.37,0.37,0.85,-6.1,371,286,207,444,364,29
1231,0.37,0.77,0.45,5.74,-3.42,4.09,369,279,206,445,359,29
1232,0.41,0.88,0.38,-0.85,0.06,-11.9,369,280,203,442,362,29
1233,0.41,0.8,0.38,-4.64,-2.81,-6.16,369,282,208,441,362,29
1234,0.42,0.79,0.41,1.28,-1.04,-2.08,370,281,206,443,365,29
1235,0.4,0.85,0.44,-0.43,-0.06,0.0,369,280,205,445,364,29
1236,0.36,0.78,0.43,-1.77,0.98,-3.11,372,280,209,445,363,29
1237,0.39,0.84,0.48,-1.89,-1.1,-11.41,368,280,208,436,363,29
1238,0.39,0.79,0.43,0.06,-4.76,-11.6,368,279,210,443,363,29
1239,0.38,0.82,0.47,0.49,-1.59,-3.05,366,279,208,437,363,29
1240,0.36,0.82,0.44,0.92,-4.15,-1.46,368,282,205,439,361,29
1241,0.4,0.8,0.41,0.98,-6.53,-2.5,375,292,207,440,361,29
1242,0.38,0.82,0.41,3.78,-1.83,-1.34,367,279,201,443,362,29
1243,0.41,0.81,0.41,3.54,-2.62,-2.5,368,281,202,442,363,29
1244,0.4,0.81,0.4,0.67,-3.05,-0.85,366,280,204,444,363,29
1245,0.37,0.82,0.4,4.58,-1.22,1.22,372,283,203,444,361,29
1246,0.41,0.84,0.39,0.31,-0.37,-0.98,367,283,204,444,364,29
1247,0.42,0.8,0.38,-0.06,-4.7,-2.01,369,282,206,441,363,29
1248,0.42,0.83,0.37,-2.32,-3.48,-2.01,367,281,202,442,362,29
1249,0.42,0.89,0.37,-5.25,0.49,0.85,369,282,206,438,360,29
1250,0.44,0.87,0.37,-1.28,-1.16,0.06,364,281,205,442,362,29
1251,0.44,0.84,0.39,-0.12,-2.32,-5.37,396,281,202,436,366,29
1252,0.42,0.83,0.38,-1.04,-2.14,0.92,369,282,204,444,375,29
1253,0.44,0.79,0.38,-0.61,-2.56,-2.01,366,294,207,441,365,29
1254,0.45,0.81,0.38,0.37,-3.97,-2.38,371,283,205,445,361,29
1255,0.45,0.81,0.39,-0.24,-1.59,-2.5,371,283,206,441,363,29
1256,0.44,0.8,0.38,-2.26,-3.6,-2.08,368,282,204,442,364,29
1257,0.45,0.81,0.38,-0.24,-2.99,-1.71,370,282,204,442,361,29
1258,0.45,0.81,0.37,-0.49,-3.11,-1.34,367,281,204,445,360,29
1259,0.43,0.81,0.39,-1.1,-3.78,-0.73,371,278,205,441,362,29
1260,0.48,0.8,0.39,-15.44,-4.15,-5.74,365,280,205,441,364,29
1261,0.44,0.82,0.39,1.83,-1.46,-1.53,369,282,203,441,360,29
1262,0.45,0.82,0.39,-3.11,-2.69,-3.91,369,282,203,437,366,29
1263,0.46,0.81,0.38,-1.89,-3.54,-1.1,368,282,205,440,360,29
1264,0.47,0.8,0.38,-0.31,-3.97,-2.56,366,280,205,440,363,29
1265,0.47,0.8,0.4,3.36,-1.28,-2.56,366,284,203,442,360,29
1266,0.47,0.82,0.4,3.36,-3.36,-2.87,367,281,205,445,364,29
1267,0.45,0.82,0.38,0.12,-4.58,-1.65,365,283,204,445,366,29
1268,0.47,0.82,0.36,0.73,-4.76,-5.62,369,281,205,435,364,29
1269,0.44,0.8,0.37,2.5,-0.31,-4.09,365,284,204,442,366,29
1270,0.46,0.83,0.39,-0.12,-4.64,-5.92,365,283,205,440,366,29
1271,0.47,0.81,0.33,-1.46,-2.38,-2.44,366,282,205,441,364,29
1272,0.45,0.78,0.35,-3.17,-5.13,-0.92,367,282,208,444,359,29
1273,0.46,0.82,0.36,0.49,-3.42,0.85,368,281,205,436,364,29
1274,0.44,0.77,0.38,-2.2,-0.49,-4.94,365,281,207,440,362,29
1275,0.46,0.82,0.39,2.87,2.14,-3.23,367,281,207,444,366,29
1276,0.45,0.8,0.4,-2.08,-2.44,-0.67,363,283,207,443,366,29
1277,0.47,0.81,0.4,-0.92,-4.33,0.67,363,287,207,448,364,29
1278,0.47,0.81,0.38,0.92,-1.89,0.12,365,283,206,446,366,29
1279,0.49,0.8,0.34,7.32,-3.42,-1.34,364,281,205,442,367,29
1280,0.46,0.8,0.37,-1.46,-4.46,-1.83,366,277,204,437,362,29
1281,0.47,0.82,0.39,-0.98,-1.34,-3.36,364,284,202,441,357,29
1282,0.45,0.83,0.39,-1.4,-2.5,-1.71,363,280,208,443,361,29
1283,0.46,0.82,0.38,-0.18,-3.97,-2.56,362,281,208,438,364,29
1284,0.47,0.8,0.37,-1.53,-3.6,-2.81,361,281,204,441,360,29
1285,0.49,0.79,0.36,0.12,-3.23,-2.69,362,284,211,441,364,29
1286,0.45,0.81,0.4,-3.36,-0.43,-4.46,361,281,205,445,366,29
1287,0.47,0.79,0.37,0.43,-4.64,-2.32,360,285,207,440,365,29
1288,0.47,0.81,0.37,2.44,-3.17,-1.65,362,281,208,436,360,29
1289,0.45,0.79,0.37,-2.08,-5.49,-0.79,360,282,207,444,360,29
1290,0.47,0.82,0.38,-1.34,-4.15,-5.49,360,284,204,445,370,29
1291,0.45,0.8,0.39,-0.49,-4.33,-1.83,361,284,206,440,360,29
1292,0.45,0.83,0.37,-0.49,-3.3,-4.21,365,283,206,443,367,29
1293,0.5,0.87,0.39,13.18,-9.52,9.83,356,281,206,440,364,29
1294,0.45,0.86,0.39,29.6,-1.83,-23.19,362,281,207,442,359,29
1295,0.42,0.82,0.33,7.45,-5.43,-0.98,359,283,208,437,362,29
1296,0.41,0.8,0.28,3.23,-1.1,-0.79,362,282,206,443,365,29
1297,0.48,0.87,0.24,8.42,-9.77,-0.37,363,283,203,446,363,29
1298,0.5,0.88,0.22,1.16,-1.59,1.16,363,281,208,438,363,29
1299,0.48,0.81,0.25,-2.44,-5.8,-3.05,364,279,207,443,365,29
1300,0.51,0.88,0.21,3.42,-1.04,0.49,362,281,205,432,366,29
1301,0.49,0.81,0.2,-3.85,-4.94,1.1,364,279,207,442,364,29
1302,0.57,0.81,0.24,5.43,1.46,3.78,363,278,205,445,363,29
1303,0.53,0.78,0.26,-0.49,0.98,-4.21,363,281,204,436,364,29
1304,0.53,0.78,0.25,7.75,4.03,2.93,357,277,205,440,365,29
1305,0.58,0.78,0.23,1.77,-3.11,2.01,361,280,205,445,364,29
1306,0.58,0.79,0.21,3.11,-1.83,-5.0,362,280,206,444,366,29
1307,0.55,0.79,0.22,0.18,-5.31,-6.35,363,279,201,444,362,29
1308,0.55,0.8,0.22,0.31,-2.32,-3.97,361,281,206,441,364,29
1309,0.53,0.8,0.23,-1.89,-2.69,-4.03,361,280,205,443,366,29
1310,0.53,0.81,0.25,-2.08,-2.44,-1.28,358,278,205,441,364,29
1311,0.54,0.79,0.24,0.92,-4.15,-0.55,363,284,208,440,371,29
1312,0.55,0.79,0.25,-0.61,-2.62,-1.34,361,283,205,443,364,29
1313,0.58,0.75,0.24,-11.6,-4.58,1.34,362,280,208,442,361,29
1314,0.56,0.8,0.28,0.37,-3.05,-4.52,360,286,209,445,363,29
1315,0.57,0.79,0.25,1.34,-3.23,-3.85,361,284,207,441,363,29
1316,0.58,0.8,0.26,2.75,-2.44,-1.83,366,283,220,444,365,29
1317,0.57,0.8,0.25,1.22,-2.14,-3.17,360,282,210,442,364,29
1318,0.54,0.79,0.27,0.92,-2.2,-3.66,360,284,204,442,367,29
1319,0.55,0.8,0.26,0.43,-2.99,-2.38,361,283,207,442,362,29
1320,0.55,0.79,0.25,0.12,-4.64,-1.83,359,296,206,445,363,29
1321,0.56,0.79,0.24,0.79,-3.17,-3.54,361,284,201,443,363,29
1322,0.55,0.8,0.25,-0.12,-2.69,-2.5,360,282,209,441,364,29
1323,0.57,0.8,0.25,2.01,-3.66,-2.56,362,282,209,442,364,29
1324,0.55,0.79,0.25,0.18,-2.2,-1.65,362,281,207,445,364,29
1325,0.57,0.8,0.25,-0.98,-2.26,-2.75,359,284,206,442,365,29
1326,0.56,0.79,0.26,-0.98,-1.22,-2.75,356,283,206,440,365,29
1327,0.57,0.79,0.26,2.93,-3.36,-2.62,359,281,204,443,364,29
1328,0.56,0.78,0.25,1.46,-2.93,-1.95,359,282,206,441,367,29
1329,0.56,0.78,0.25,-0.67,-2.38,-2.93,359,280,206,440,365,29
1330,0.57,0.78,0.25,0.18,-1.77,-1.83,360,283,208,441,366,29
1331,0.57,0.78,0.25,0.37,-2.26,-3.23,362,279,209,442,364,29
1332,0.57,0.79,0.25,0.12,-2.44,-2.56,358,282,207,444,365,29
1333,0.56,0.79,0.25,-0.12,-2.5,-2.14,361,283,210,447,365,29
1334,0.56,0.78,0.26,-0.79,-2.75,-2.38,361,281,208,441,366,29
1335,0.58,0.77,0.25,-0.43,-1.89,-1.95,360,281,203,442,368,29
1336,0.59,0.78,0.27,-2.62,-3.78,-2.32,360,281,214,441,361,29
1337,0.58,0.77,0.28,-2.93,-1.77,-3.17,360,284,202,443,362,29
1338,0.56,0.75,0.29,-0.92,-5.25,-4.88,360,285,206,441,362,29
1339,0.58,0.75,0.29,-1.71,-4.33,-2.01,359,282,206,444,362,29
1340,0.56,0.76,0.3,0.0,-3.66,-2.01,381,283,207,442,363,29
1341,0.58,0.74,0.29,-0.31,-3.91,-2.32,364,281,207,443,363,29
1342,0.57,0.76,0.3,-1.46,-2.2,-3.3,359,298,209,441,363,29
1343,0.59,0.76,0.29,2.32,-5.07,-5.92,360,281,206,442,365,29
1344,0.56,0.78,0.28,7.02,1.59,-8.18,361,282,208,440,359,29
1345,0.54,0.82,0.28,-5.98,2.93,-12.39,358,281,204,444,360,29
1346,0.54,0.83,0.29,2.87,-8.12,-6.96,361,281,219,441,362,29
1347,0.46,0.85,0.27,3.36,1.89,-9.89,359,282,212,434,363,29
1348,0.49,0.85,0.26,1.77,-2.38,-0.06,357,281,206,438,363,29
1349,0.49,0.85,0.26,-1.04,-1.89,-3.66,359,284,206,444,364,29
1350,0.46,0.85,0.26,-0.24,-2.99,-3.6,359,281,205,442,366,29
1351,0.46,0.86,0.27,0.61,-2.93,-0.55,361,280,203,443,360,29
1352,0.46,0.84,0.26,1.83,-3.11,-0.24,359,284,206,439,366,29
1353,0.46,0.84,0.26,0.31,-2.5,-2.87,358,284,209,438,364,29
1354,0.46,0.84,0.28,-2.08,-2.75,-2.5,368,284,206,438,365,29
1355,0.47,0.84,0.27,2.14,-3.17,-2.99,359,281,204,440,364,29
1356,0.48,0.85,0.26,3.17,-4.88,-3.17,357,281,206,444,365,29
1357,0.48,0.84,0.27,-0.37,-1.53,-3.17,359,284,208,446,363,29
1358,0.48,0.85,0.25,2.93,-0.79,-5.62,359,283,208,445,365,29
1359,0.47,0.84,0.25,1.71,-1.83,-2.56,358,276,211,440,362,29
1360,0.47,0.85,0.26,-0.92,-4.09,-2.26,359,284,206,445,365,29
1361,0.48,0.83,0.27,0.06,-2.32,-2.14,358,284,207,437,361,29
1362,0.49,0.85,0.26,0.31,-2.44,-5.55,360,281,204,441,363,29
1363,0.48,0.85,0.26,3.48,-6.9,-2.93,357,284,207,445,364,29
1364,0.48,0.84,0.25,0.85,-3.36,-2.44,358,283,206,446,363,29
1365,0.46,0.83,0.25,1.53,-2.69,-2.26,361,288,209,441,366,29
1366,0.47,0.86,0.25,0.73,-5.43,-3.6,358,278,206,443,359,29
1367,0.43,0.87,0.25,-0.31,-4.7,-1.4,357,280,205,442,361,29
1368,0.44,0.86,0.24,-0.61,-3.17,1.04,360,282,215,441,363,29
1369,0.47,0.85,0.24,-2.08,-6.47,1.34,360,281,205,442,361,29
1370,0.49,0.84,0.24,-0.31,-0.31,0.24,366,282,205,441,363,29
1371,0.5,0.79,0.23,-0.92,-5.86,-1.59,359,282,206,442,359,29
1372,0.54,0.82,0.23,0.49,-2.62,-1.59,358,287,209,441,359,29
1373,0.51,0.83,0.22,-0.67,-5.13,-3.72,358,281,207,439,360,29
1374,0.5,0.84,0.21,0.67,-4.27,-8.54,360,281,208,446,361,29
1375,0.46,0.87,0.21,1.77,-1.1,-7.75,358,281,208,443,362,29
1376,0.43,0.86,0.22,-0.55,-2.44,2.56,359,284,207,442,364,29
1377,0.47,0.84,0.21,0.31,-4.27,1.95,357,283,206,441,366,29
1378,0.47,0.84,0.21,-0.12,-1.89,-1.59,353,282,206,443,363,29
1379,0.52,0.84,0.23,2.14,-4.7,-5.49,356,281,207,441,362,29
1380,0.51,0.82,0.21,-2.69,-3.78,-0.67,358,282,206,445,365,29
1381,0.5,0.85,0.23,3.6,-3.48,-5.55,356,281,208,445,365,29
1382,0.49,0.85,0.22,0.18,-1.22,-1.95,357,282,207,440,363,29
1383,0.48,0.83,0.23,-0.31,-4.94,-4.27,359,285,205,446,361,29
1384,0.5,0.84,0.23,2.32,-3.85,-1.71,360,280,209,447,363,29
1385,0.5,0.84,0.23,-0.43,-2.93,-2.56,357,281,211,444,365,29
1386,0.5,0.83,0.25,-1.28,-3.11,-1.46,360,282,206,438,365,29
1387,0.5,0.82,0.25,-2.26,0.31,-1.04,360,281,213,440,363,29
1388,0.53,0.82,0.25,-0.43,-5.74,-2.32,361,284,205,440,359,29
1389,0.51,0.82,0.25,-1.53,-2.5,-1.65,356,282,220,441,362,29
1390,0.53,0.82,0.25,-1.28,-2.44,-3.42,351,280,208,440,365,29
1391,0.5,0.81,0.25,-1.16,-2.26,-0.06,359,281,206,441,364,29
1392,0.52,0.82,0.24,0.18,-3.05,-0.98,359,283,205,441,360,29
1393,0.53,0.82,0.25,0.24,-3.11,-3.05,353,284,206,444,363,29
1394,0.52,0.81,0.25,1.71,-3.3,-2.62,357,285,210,444,364,29
1395,0.52,0.79,0.24,2.14,-3.05,-3.23,362,284,206,442,364,29
1396,0.51,0.82,0.24,1.59,-3.23,-2.62,355,294,207,438,363,29
1397,0.51,0.82,0.24,2.2,-3.48,-2.32,357,279,206,448,365,29
1398,0.52,0.83,0.24,0.73,-5.19,-2.93,355,283,206,440,360,29
1399,0.51,0.82,0.25,0.79,0.61,-2.56,357,281,208,440,364,29
1400,0.51,0.82,0.24,-0.12,-3.66,-2.38,358,281,208,441,365,29
1401,0.52,0.83,0.25,-1.16,-3.17,-2.69,357,294,205,442,363,29
1402,0.51,0.81,0.25,-0.18,-2.87,-1.65,357,282,204,441,366,29
1403,0.52,0.82,0.25,-0.37,-2.87,-2.69,358,283,208,443,363,29
1404,0.52,0.82,0.25,0.12,-2.62,-3.3,360,281,208,443,367,29
1405,0.52,0.82,0.26,0.18,-2.26,-1.4,358,283,208,445,362,29
1406,0.52,0.81,0.25,0.37,-2.93,-2.01,361,281,209,443,366,29
1407,0.52,0.82,0.26,0.43,-2.44,-2.93,364,280,203,438,363,29
1408,0.51,0.82,0.26,1.1,-3.11,-2.99,359,283,206,439,365,29
1409,0.51,0.82,0.25,-0.12,-1.83,-3.3,357,281,209,442,362,29
1410,0.52,0.82,0.25,3.05,-2.44,-3.78,359,283,205,445,361,29
1411,0.51,0.83,0.27,-0.06,-1.83,-2.08,356,283,203,443,363,29
1412,0.52,0.78,0.24,4.33,-7.14,0.98,358,282,209,443,363,29
1413,0.51,0.8,0.21,0.18,-6.59,-1.95,355,282,206,444,362,29
1414,0.52,0.81,0.22,0.98,-3.97,-1.53,359,288,211,441,363,29
1415,0.51,0.83,0.23,-0.67,-1.1,-5.07,356,284,209,444,362,29
1416,0.52,0.83,0.23,1.95,-2.93,-0.18,356,280,206,441,366,29
1417,0.53,0.83,0.21,-0.67,-3.05,-1.65,355,283,206,437,364,29
1418,0.52,0.81,0.22,0.55,-2.75,-2.93,357,284,206,443,362,29
1419,0.53,0.83,0.23,1.77,-3.42,-2.87,358,279,211,442,363,29
1420,0.52,0.81,0.22,-0.31,-3.36,-0.92,353,282,209,444,365,29
1421,0.52,0.81,0.22,-0.67,-2.08,-1.4,357,284,205,444,364,29
1422,0.52,0.81,0.23,0.0,-2.69,-2.75,359,282,206,442,363,29
1423,0.52,0.82,0.22,0.24,-2.2,-3.48,359,283,207,436,361,29
1424,0.52,0.82,0.23,0.0,-3.97,-1.77,357,282,205,443,365,29
1425,0.52,0.82,0.24,-0.37,-1.53,-2.69,358,284,208,445,366,29
1426,0.53,0.81,0.24,-2.99,0.37,1.77,358,284,206,450,359,29
1427,0.54,0.77,0.26,-10.38,-9.46,2.38,357,284,207,446,366,29
1428,0.6,0.84,0.26,-8.97,0.0,-10.99,357,282,209,444,365,29
1429,0.5,0.83,0.26,7.63,1.53,-4.15,357,283,210,443,363,29
1430,0.5,0.82,0.27,-8.79,4.09,-9.46,350,280,207,436,363,29
1431,0.48,0.81,0.29,-1.04,-4.82,0.49,356,282,208,443,375,29
1432,0.5,0.81,0.28,0.06,-4.15,-0.98,358,282,209,445,363,29
1433,0.5,0.82,0.28,-0.31,-2.81,0.79,357,282,210,442,362,29
1434,0.5,0.82,0.29,-0.49,-3.54,-1.46,354,281,208,445,363,29
1435,0.51,0.79,0.28,-1.22,-4.33,-1.46,356,285,208,441,365,29
1436,0.51,0.81,0.29,0.85,-2.01,-2.62,356,285,209,441,361,29
1437,0.52,0.82,0.29,0.73,-1.65,-3.11,359,300,210,443,363,29
1438,0.51,0.82,0.28,0.92,-2.81,-3.11,356,285,204,442,362,29
1439,0.5,0.81,0.28,1.04,-2.93,-2.08,359,282,209,444,365,29
1440,0.51,0.82,0.28,0.79,-1.16,-1.65,357,284,211,440,364,29
1441,0.51,0.82,0.27,1.1,-3.72,-3.23,359,282,206,445,362,29
1442,0.5,0.82,0.28,-0.85,-2.32,-2.69,363,281,205,445,362,29
1443,0.51,0.81,0.28,-1.53,-3.17,-2.01,357,282,206,445,363,29
1444,0.5,0.81,0.28,-0.49,-3.48,-3.42,359,282,209,441,362,29
1445,0.52,0.81,0.27,1.89,-4.33,-2.2,357,278,206,443,363,29
1446,0.51,0.81,0.28,-0.12,-2.69,-3.48,358,278,210,442,363,29
1447,0.52,0.82,0.27,0.18,-3.23,-2.14,356,283,206,442,360,29
1448,0.52,0.82,0.27,0.98,-2.14,-3.42,359,284,221,439,364,29
1449,0.53,0.83,0.27,-0.12,-3.97,-2.93,359,286,208,445,365,29
1450,0.52,0.81,0.28,0.98,-2.69,-1.77,355,281,208,443,360,29
1451,0.52,0.82,0.27,0.43,-3.91,-1.4,348,284,206,437,360,29
1452,0.52,0.81,0.28,1.28,-4.15,-2.62,355,280,206,444,359,29
1453,0.52,0.81,0.26,-0.06,-3.17,-2.01,358,283,209,441,364,29
1454,0.53,0.81,0.26,0.12,-2.5,-3.05,359,282,205,442,359,29
1455,0.52,0.81,0.27,1.59,-1.22,-2.26,357,284,209,442,359,29
1456,0.52,0.82,0.27,0.24,-2.38,-3.11,357,282,209,446,364,29
1457,0.53,0.81,0.26,1.65,-1.53,-2.32,359,285,209,442,365,29
1458,0.52,0.81,0.27,0.85,-3.42,-2.69,358,282,206,447,364,29
1459,0.52,0.81,0.27,1.46,-4.46,-2.38,357,282,206,438,362,29
1460,0.52,0.81,0.26,0.43,-2.99,-1.83,360,282,206,446,362,29
1461,0.53,0.82,0.27,3.97,-1.77,0.31,370,283,209,441,362,29
1462,0.53,0.81,0.26,0.85,-4.09,-3.11,361,283,210,436,363,29
1463,0.53,0.82,0.26,0.43,-2.26,-1.34,358,281,210,442,364,29
1464,0.53,0.79,0.27,1.77,-1.04,-2.99,358,281,206,443,363,29
1465,0.53,0.8,0.28,-0.98,-3.3,-1.95,357,282,209,447,366,29
1466,0.53,0.8,0.28,1.34,-2.26,-1.77,352,282,207,447,362,29
1467,0.54,0.79,0.28,-1.77,-2.69,-3.36,355,282,206,446,359,29
1468,0.53,0.81,0.28,0.85,-3.17,-2.44,358,285,210,445,361,29
1469,0.53,0.8,0.28,0.49,-2.14,-2.81,357,280,210,440,359,29
1470,0.53,0.81,0.28,1.1,-2.38,-3.11,352,282,210,442,363,29
1471,0.51,0.81,0.27,-0.06,-3.3,-3.6,367,282,208,442,362,29
1472,0.52,0.81,0.27,-0.37,-2.2,-2.81,358,283,209,437,363,29
1473,0.51,0.81,0.29,0.18,-3.54,-2.32,357,282,210,442,363,29
1474,0.52,0.8,0.28,-0.18,-3.91,-3.3,360,285,209,441,370,29
1475,0.52,0.8,0.27,0.49,-2.32,-2.62,360,285,206,445,361,29
1476,0.52,0.81,0.28,-0.85,-4.03,-3.17,357,284,209,437,366,29
1477,0.53,0.81,0.27,0.98,-1.77,-2.87,357,281,206,440,365,29
1478,0.52,0.81,0.28,0.18,-3.36,-2.32,364,281,211,441,362,29
1479,0.52,0.8,0.27,-0.06,-2.26,-1.77,358,285,216,454,359,29
1480,0.52,0.8,0.28,0.43,-2.99,-2.32,357,284,208,438,364,29
1481,0.52,0.81,0.28,0.12,-3.36,-1.71,359,282,211,442,359,29
1482,0.52,0.81,0.27,0.24,-3.05,-2.14,360,283,208,446,363,29
1483,0.52,0.81,0.27,1.16,-2.75,-1.95,359,285,208,444,360,29
1484,0.53,0.82,0.27,1.04,-2.26,-1.89,357,282,207,442,364,29
1485,0.53,0.81,0.26,0.31,-2.81,-2.56,357,286,210,441,365,29
1486,0.52,0.8,0.26,0.79,-2.62,-2.08,357,283,208,439,364,29
1487,0.53,0.81,0.26,-0.18,-2.87,-2.99,360,286,207,446,364,29
1488,0.53,0.81,0.27,-0.31,-1.59,-2.87,357,284,209,439,365,29
1489,0.53,0.81,0.28,-0.37,-3.11,-2.93,360,282,206,442,362,29
1490,0.52,0.79,0.26,-0.18,-3.97,-1.83,360,285,207,445,359,29
1491,0.55,0.81,0.26,5.0,-7.51,0.12,360,285,208,445,362,29
1492,0.53,0.81,0.25,2.2,-4.64,-1.83,355,282,209,443,363,29
1493,0.55,0.82,0.24,2.56,-1.22,-3.36,359,282,208,442,365,29
1494,0.55,0.79,0.24,0.79,-3.05,-4.52,360,285,209,441,365,29
1495,0.53,0.82,0.25,1.04,-2.99,-2.62,361,285,206,446,363,29
1496,0.54,0.82,0.24,1.71,-2.2,-3.72,356,282,204,436,362,29
1497,0.52,0.82,0.26,-1.77,-1.65,-2.32,361,281,209,442,360,29
1498,0.54,0.82,0.25,-0.06,-2.56,-2.38,356,282,208,442,363,29
1499,0.53,0.81,0.25,0.24,-2.01,-1.89,397,283,203,442,362,29
1500,0.54,0.82,0.25,2.69,-1.46,-3.05,357,282,203,443,359,29
1501,0.52,0.82,0.26,0.24,-3.54,-2.81,360,281,208,442,363,29
1502,0.52,0.8,0.25,0.92,-1.04,-0.79,358,278,208,438,363,29
1503,0.52,0.8,0.25,-0.61,-3.54,-1.89,358,279,208,438,360,29
1504,0.54,0.79,0.27,0.79,-0.92,-2.5,358,283,209,445,364,29
1505,0.53,0.79,0.28,-0.49,-0.98,-4.76,360,285,208,441,362,29
1506,0.58,0.83,0.27,1.28,-3.17,-6.35,356,285,206,447,363,29
1507,0.56,0.83,0.27,1.4,-5.25,-5.37,358,283,206,441,366,29
1508,0.53,0.8,0.28,-0.92,-1.89,-0.49,359,283,207,443,364,29
1509,0.54,0.8,0.27,-0.12,-3.11,-1.77,356,280,207,446,364,29
1510,0.55,0.8,0.28,-0.18,-2.32,-3.66,358,284,210,441,363,29
1511,0.54,0.8,0.28,0.67,-2.5,-3.17,357,281,209,441,365,29
1512,0.55,0.8,0.27,0.92,-3.17,-3.3,361,283,208,443,365,29
1513,0.54,0.8,0.28,0.31,-3.11,-2.26,358,283,207,439,360,29
1514,0.54,0.8,0.28,0.0,-2.69,-2.38,360,285,205,443,361,29
1515,0.54,0.79,0.28,0.49,-2.26,-3.23,357,286,207,441,366,29
1516,0.5,0.8,0.28,0.0,-4.27,-4.58,360,283,206,447,357,29
1517,0.5,0.81,0.3,3.91,-2.87,-1.71,358,282,208,437,364,29
1518,0.52,0.8,0.27,0.55,-5.86,-1.53,359,282,209,445,365,29
1519,0.56,0.82,0.26,0.24,-4.09,-0.49,356,281,209,438,366,29
1520,0.57,0.82,0.25,0.92,-4.64,-2.38,359,283,207,445,367,29
1521,0.54,0.78,0.27,-0.67,-3.78,-4.88,361,281,208,444,363,29
1522,0.18,0.77,0.52,-29.11,-1.89,-23.38,409,399,257,446,359,29
1523,0.23,0.83,0.45,15.81,-1.16,-11.9,412,392,255,445,356,29
1524,0.19,0.86,0.54,25.57,16.11,17.58,412,394,258,443,358,29
1525,0.23,0.86,0.45,8.54,-6.71,-4.82,419,396,260,446,357,29
1526,0.28,0.87,0.52,-13.73,-5.92,3.48,439,397,259,447,362,29
1527,0.26,0.84,0.51,12.63,8.79,-8.24,413,395,259,448,363,29
1528,0.25,0.81,0.47,12.7,-8.73,5.31,415,398,258,449,360,29
1529,0.27,0.83,0.46,1.77,-10.38,6.41,416,400,256,456,360,29
1530,0.26,0.86,0.39,0.24,-15.2,0.24,417,399,259,453,363,29
1531,0.36,0.88,0.42,-10.01,-3.66,1.65,421,396,255,442,365,29
1532,0.39,0.79,0.4,38.15,-12.63,20.63,415,402,257,446,367,29
1533,0.26,0.85,0.49,-7.87,-0.98,-2.26,418,399,257,449,366,29
1534,0.3,0.85,0.42,5.13,-10.13,-0.49,419,405,259,455,365,29
1535,0.27,0.84,0.43,-3.36,-8.0,-2.32,415,401,260,449,365,29
1536,0.29,0.84,0.39,1.16,-5.49,-6.9,417,398,257,449,364,29
1537,0.3,0.87,0.4,-0.98,-0.98,-1.65,415,402,261,449,366,29
1538,0.32,0.88,0.38,0.85,-1.59,-1.71,416,401,257,443,366,29
1539,0.31,0.87,0.37,-0.24,-3.3,-0.61,418,402,258,451,365,29
1540,0.32,0.88,0.37,-1.04,-4.21,-4.88,417,403,259,455,367,29
1541,0.3,0.88,0.39,1.22,-1.83,-2.14,412,402,257,464,367,29
1542,0.3,0.87,0.38,4.27,-1.53,-1.95,416,402,257,449,364,29
1543,0.3,0.89,0.37,2.99,-1.46,-2.87,416,404,260,451,356,29
1544,0.29,0.88,0.36,2.32,3.66,-4.27,416,395,255,450,362,29
1545,0.3,0.88,0.35,3.23,-3.6,-2.26,417,396,256,443,360,29
1546,0.29,0.89,0.37,-7.87,0.18,-3.11,420,397,260,448,346,29
1547,0.3,0.86,0.43,11.72,-11.41,10.8,419,399,257,458,341,29
1548,0.34,0.85,0.4,4.33,-18.74,-8.42,427,416,272,461,317,29
1549,0.37,0.84,0.39,-0.73,-9.95,-14.71,428,406,262,454,320,29
1550,0.34,0.86,0.38,14.34,3.42,-2.08,414,395,267,444,320,29
1551,0.35,0.9,0.37,3.78,-1.77,5.74,413,391,265,436,316,29
1552,0.38,0.89,0.21,2.08,4.7,-12.82,422,375,252,458,383,29
1553,0.34,0.88,0.37,-9.95,-18.62,6.53,412,348,245,439,334,29
1554,0.29,0.82,0.39,9.89,-5.62,-4.94,427,352,253,450,330,29
1555,0.41,0.84,0.47,-34.42,-1.4,6.71,426,362,255,448,297,29
1556,0.4,0.77,0.51,4.46,-6.96,1.59,417,340,255,437,274,29
1557,0.45,0.81,0.33,-13.79,-22.4,-4.33,423,362,264,444,317,29
1558,0.39,0.88,0.33,14.1,-4.52,-8.12,416,365,261,443,323,29
1559,0.33,0.82,0.36,-10.31,16.24,-15.26,418,367,264,446,324,29
1560,0.29,0.9,0.39,4.52,-0.98,9.95,424,374,259,448,322,29
1561,0.36,0.9,0.38,5.62,-8.3,11.29,427,380,263,454,328,29
1562,0.36,0.84,0.37,-3.54,0.0,-3.72,425,385,267,457,329,29
1563,0.36,0.79,0.4,-1.28,-1.77,-7.32,425,384,262,456,331,29
1564,0.47,0.91,0.28,6.96,-7.93,6.47,420,383,266,459,332,29
1565,0.31,0.86,0.31,-3.6,-4.76,4.09,424,385,262,452,328,29
1566,0.41,0.85,0.38,-8.67,-4.58,-7.57,421,376,258,458,336,29
1567,0.32,0.88,0.41,-6.59,-7.02,-6.59,423,376,261,451,337,29
1568,0.37,0.81,0.37,-0.06,-8.18,-0.98,424,380,262,464,336,29
1569,0.35,0.87,0.38,5.07,-4.64,-3.11,421,378,262,454,345,29
1570,0.34,0.85,0.38,1.22,-0.73,-2.81,421,379,262,450,335,29
1571,0.34,0.85,0.39,-6.41,-5.0,-3.05,420,380,257,457,335,29
1572,0.36,0.86,0.41,-3.17,-11.23,-4.58,390,382,250,454,347,29
1573,0.36,0.87,0.38,-2.01,-6.71,-1.59,385,385,251,453,352,29
1574,0.4,0.86,0.34,3.36,-3.78,2.44,385,391,253,454,362,29
1575,0.37,0.8,0.37,-37.41,-23.38,-2.01,388,342,260,453,356,29
1576,0.35,0.82,0.44,23.01,-11.17,5.0,385,329,272,449,350,29
1577,0.36,0.89,0.32,9.64,22.22,-18.55,388,329,264,445,343,29
1578,0.49,0.9,0.27,7.63,-8.18,-1.89,383,338,261,452,344,29
1579,0.4,0.87,0.29,10.25,10.56,-15.75,383,339,265,452,348,29
1580,0.33,0.97,0.3,-39.98,0.18,-7.26,386,346,263,449,350,29
1581,0.27,0.8,0.42,-9.83,-12.88,3.42,384,344,263,449,353,29
1582,0.32,0.85,0.4,10.38,21.12,9.4,387,348,266,449,353,29
1583,0.3,0.74,0.5,4.88,-17.94,3.6,403,357,258,449,333,29
1584,0.33,0.81,0.52,-5.92,6.41,6.23,401,359,260,457,325,29
1585,0.36,0.73,0.5,-18.25,-8.67,-12.02,403,365,256,457,312,29
1586,0.35,0.81,0.56,7.45,-7.32,-7.69,398,367,254,439,312,29
1587,0.33,0.87,0.45,-14.28,-4.7,-7.57,404,369,255,437,320,29
1588,0.28,0.88,0.4,-20.32,-23.74,4.88,398,367,260,440,326,29
1589,0.36,0.76,0.44,-2.87,-9.16,-8.36,399,371,261,445,328,29
1590,0.32,0.84,0.51,9.58,3.6,-3.11,407,374,261,440,332,29
1591,0.34,0.82,0.47,1.59,-3.78,-4.21,404,369,261,444,331,29
1592,0.37,0.83,0.49,2.87,-5.31,1.77,411,382,260,451,336,29
1593,0.36,0.77,0.5,-10.8,-7.14,-2.87,421,387,261,455,337,29
1594,0.38,0.8,0.51,-1.65,-5.43,-2.01,426,392,261,457,339,29
1595,0.37,0.78,0.5,3.48,-3.36,-3.97,428,393,266,461,338,29
1596,0.38,0.77,0.45,12.88,0.55,-2.62,432,389,265,460,340,29
1597,0.37,0.88,0.46,-7.81,-7.08,-4.76,420,391,262,457,341,29
1598,0.39,0.84,0.41,3.85,-2.56,-1.65,414,389,266,454,338,29
1599,0.36,0.85,0.41,1.71,-1.83,-3.48,417,388,267,459,341,29
1600,0.38,0.87,0.41,-6.96,-5.98,-2.93,417,386,263,454,341,29
1601,0.4,0.92,0.33,16.05,3.23,-7.63,410,377,256,451,365,29
1602,0.34,0.87,0.36,3.23,1.4,-0.67,406,374,268,442,338,29
1603,0.31,0.89,0.4,-0.06,-5.13,-2.81,408,379,271,445,337,29
1604,0.32,0.88,0.38,4.15,-2.38,2.75,407,377,271,448,343,29
1605,0.34,0.87,0.37,-1.4,-3.91,-0.67,408,384,271,440,340,29
1606,0.36,0.87,0.37,-9.16,-5.49,-1.34,411,381,270,445,340,29
1607,0.44,0.75,0.48,-13.98,-23.44,30.82,422,386,271,454,346,29
1608,0.41,0.87,0.4,15.99,-6.35,-7.45,412,386,267,448,345,29
1609,0.36,0.89,0.41,6.23,-5.19,-4.94,416,387,272,455,347,29
1610,0.39,0.82,0.4,-6.96,-4.09,4.52,415,386,273,457,347,29
1611,0.33,0.88,0.38,6.29,1.83,2.56,414,385,269,454,348,29
1612,0.38,0.88,0.35,-2.44,-4.46,-3.48,417,385,271,458,349,29
1613,0.47,0.76,0.36,-4.27,-10.31,-7.75,416,384,267,457,349,29
1614,0.39,0.88,0.36,10.44,0.98,-3.85,415,385,267,458,350,29
1615,0.42,0.79,0.37,0.61,-8.91,-2.87,415,387,266,461,348,29
1616,0.4,0.85,0.36,0.85,0.31,-1.71,415,385,268,458,349,29
1617,0.39,0.87,0.35,-1.16,-5.19,-6.1,416,386,269,457,349,29
1618,0.37,0.87,0.38,3.3,-2.5,-4.21,420,388,268,458,351,29
1619,0.37,0.87,0.36,3.42,-2.93,-4.46,425,387,265,455,350,29
1620,0.33,0.85,0.4,-3.23,-2.26,-2.5,422,388,267,460,348,29
1621,0.35,0.85,0.39,1.16,-4.39,0.61,425,388,267,459,352,29
1622,0.4,0.83,0.4,-5.0,-2.75,-3.3,420,390,269,457,352,29
1623,0.39,0.84,0.4,-4.52,-5.19,-5.0,424,394,267,452,350,29
1624,0.38,0.82,0.43,-0.67,-7.45,3.48,421,396,267,453,348,29
1625,0.36,0.84,0.42,2.62,-5.31,-7.63,425,396,266,454,349,29
1626,0.37,0.82,0.43,2.75,-4.09,-2.75,427,398,264,459,350,29
1627,0.36,0.81,0.43,-3.17,-4.15,-2.5,428,401,265,460,354,29
1628,0.36,0.82,0.45,2.44,-1.22,-4.39,429,405,264,462,358,29
1629,0.4,0.83,0.41,7.69,-0.73,-1.77,424,403,261,458,353,29
1630,0.38,0.86,0.37,-2.99,-5.0,0.18,416,397,260,461,358,29
1631,0.42,0.79,0.41,2.08,-4.33,-1.95,422,400,263,458,357,29
1632,0.44,0.87,0.47,4.88,11.11,2.01,426,400,263,459,359,29
1633,0.32,0.83,0.44,13.92,-3.48,-7.32,425,401,260,458,357,29
1634,0.43,0.87,0.39,-7.08,-26.18,-9.16,428,400,261,462,356,29
1635,0.44,0.82,0.41,-8.24,-6.77,-2.5,421,403,264,458,358,29
1636,0.3,0.81,0.42,-9.58,-0.73,-6.16,422,399,262,461,356,29
1637,0.37,0.85,0.43,-2.44,-14.65,-7.75,421,402,276,462,357,29
1638,0.41,0.86,0.4,2.62,-0.73,-6.47,425,396,263,456,357,29
1639,0.36,0.83,0.43,-3.36,0.55,-2.08,423,400,263,458,354,29
1640,0.34,0.83,0.43,8.61,6.71,-1.89,420,401,264,457,354,29
1641,0.34,0.82,0.39,10.31,5.37,-3.05,421,403,260,457,354,29
1642,0.37,0.83,0.4,8.18,12.94,14.47,423,401,265,459,356,29
1643,0.38,0.88,0.42,8.67,-1.77,-0.55,420,402,259,459,355,29
1644,0.39,0.84,0.37,-3.72,-9.22,-2.26,419,405,263,452,353,29
1645,0.41,0.83,0.38,1.71,-3.54,-2.44,419,401,264,461,356,29
1646,0.36,0.81,0.37,-0.73,4.94,-4.27,419,404,264,458,359,29
1647,0.4,0.84,0.36,-0.85,-3.85,-3.6,417,401,263,458,355,29
1648,0.4,0.86,0.37,1.16,-2.01,-3.05,417,401,262,456,351,29
1649,0.41,0.86,0.35,-7.02,-12.51,-10.86,417,401,263,457,356,29
1650,0.38,0.89,0.34,-1.89,6.23,-10.31,420,396,261,458,352,29
1651,0.37,0.86,0.35,1.46,-5.25,-3.11,418,403,270,456,353,29
1652,0.32,0.86,0.38,0.37,-7.02,-5.37,417,397,264,457,350,29
1653,0.39,0.89,0.37,4.27,-7.45,-8.48,419,402,267,462,354,29
1654,0.3,0.85,0.34,5.37,-2.44,-7.26,419,398,264,457,355,29
1655,0.33,0.9,0.35,-0.24,-2.56,-1.22,416,398,260,454,357,29
1656,0.32,0.86,0.37,-2.38,-8.06,-3.17,417,400,265,457,354,29
1657,0.3,0.85,0.36,-3.17,-5.86,-5.92,427,401,265,454,350,29
1658,0.28,0.88,0.39,-3.05,-6.71,-10.74,416,397,263,455,355,29
1659,0.28,0.85,0.4,4.15,-6.96,0.31,418,398,260,456,354,29
1660,0.29,0.84,0.44,0.31,-3.42,-5.31,412,404,263,454,354,29
1661,0.29,0.85,0.42,-1.46,-1.16,-2.01,416,403,263,455,353,29
1662,0.28,0.86,0.43,-2.2,-4.46,-3.66,416,398,263,453,358,29
1663,0.3,0.84,0.43,-0.18,-1.59,-2.5,417,400,265,457,357,29
1664,0.27,0.88,0.44,0.67,-2.08,-2.14,446,397,261,454,357,29
1665,0.28,0.86,0.42,1.46,-3.48,-2.75,416,398,265,456,357,29
1666,0.26,0.88,0.43,-3.36,-2.44,-2.93,420,397,264,452,355,29
1667,0.26,0.88,0.42,2.69,-2.32,-3.54,415,397,263,451,354,29
1668,0.24,0.87,0.42,0.37,-1.77,-3.72,416,398,265,457,358,29
1669,0.27,0.88,0.39,12.82,0.12,-3.48,418,397,263,453,355,29
1670,0.26,0.91,0.34,6.71,0.85,-3.23,416,399,261,456,356,29
1671,0.26,0.9,0.35,-0.55,-2.14,-1.59,416,398,263,453,358,29
1672,0.23,0.9,0.35,1.59,-0.92,-0.92,414,398,264,454,353,29
1673,0.27,0.89,0.35,-1.1,-2.75,-1.65,417,397,265,453,358,29
1674,0.25,0.9,0.37,-3.23,-4.03,-3.05,417,397,266,453,357,29
1675,0.25,0.9,0.37,1.65,-2.87,-2.2,414,399,266,457,355,29
1676,0.24,0.89,0.37,1.65,-4.15,1.22,415,397,262,453,356,29
1677,0.25,0.87,0.36,2.08,-4.33,-2.69,418,399,265,457,358,29
1678,0.23,0.92,0.37,-0.12,-1.28,-1.95,416,399,266,450,355,29
1679,0.28,0.89,0.34,4.7,-4.76,-1.4,417,398,268,451,356,29
1680,0.24,0.92,0.35,1.77,-3.17,-5.31,415,407,263,459,354,29
1681,0.25,0.92,0.36,0.61,-1.46,-1.77,410,407,266,456,357,29
1682,0.24,0.86,0.32,-0.49,-8.67,0.0,415,400,267,454,353,29
1683,0.24,0.9,0.35,0.85,-3.48,-1.65,413,400,268,455,353,29
1684,0.25,0.87,0.33,1.53,0.43,2.2,418,399,265,458,355,29
1685,0.23,0.89,0.34,-3.85,1.53,2.01,414,402,264,457,356,29
1686,0.27,0.9,0.35,-0.31,-3.3,-0.18,417,397,266,454,356,29
1687,0.26,0.88,0.34,5.25,-4.21,-3.11,411,401,268,456,358,29
1688,0.28,0.91,0.32,-2.81,-1.89,-0.98,415,400,265,457,357,29
1689,0.26,0.9,0.34,1.16,-4.21,-3.23,417,399,265,455,366,29
1690,0.25,0.91,0.34,4.46,-1.83,-1.65,414,400,265,455,355,29
1691,0.25,0.88,0.35,1.46,-3.85,-2.75,415,399,267,459,357,29
1692,0.26,0.87,0.32,4.46,-0.61,-0.55,414,401,269,454,353,29
1693,0.26,0.9,0.33,-1.59,-4.82,-3.42,415,400,277,454,356,29
1694,0.27,0.91,0.34,-1.71,-3.54,-1.1,412,400,279,457,356,29
1695,0.26,0.88,0.33,-2.56,-2.56,-2.08,416,399,262,454,358,29
1696,0.26,0.91,0.32,-0.67,-3.42,-3.3,411,400,264,456,356,29
1697,0.27,0.91,0.34,-0.12,-2.69,-3.36,414,397,265,455,353,29
1698,0.24,0.91,0.34,0.92,-1.04,-3.11,409,399,268,451,356,29
1699,0.25,0.9,0.34,1.95,-2.56,-2.38,411,400,266,454,354,29
1700,0.26,0.92,0.32,3.54,-0.12,-2.08,412,400,266,452,356,29
1701,0.25,0.9,0.33,4.09,-2.14,-3.17,409,399,269,450,351,29
1702,0.28,0.91,0.32,0.37,-0.49,-0.98,411,402,266,454,356,29
1703,0.25,0.93,0.33,0.37,-4.64,-3.91,412,399,268,456,354,29
1704,0.25,0.92,0.33,-0.43,-1.95,-2.08,415,400,269,452,355,29
1705,0.25,0.92,0.32,2.93,-3.3,-2.01,415,400,270,459,357,29
1706,0.25,0.9,0.32,1.95,-2.5,-3.3,415,405,266,453,357,29
1707,0.24,0.91,0.32,0.49,-1.95,-4.03,414,399,268,450,358,29
1708,0.24,0.91,0.33,-0.49,-1.46,-3.72,416,399,275,453,354,29
1709,0.25,0.91,0.32,0.49,-2.38,-2.38,414,401,265,456,358,29
1710,0.25,0.91,0.33,-5.07,-3.42,-4.15,415,403,268,449,353,29
1711,0.26,0.91,0.32,0.55,-1.71,-3.11,413,401,269,454,356,29
1712,0.26,0.92,0.33,-1.16,-3.11,-3.05,412,401,269,454,355,29
1713,0.27,0.91,0.32,0.12,-3.6,-2.26,412,398,269,453,358,29
1714,0.27,0.9,0.31,-1.1,-1.28,-4.27,412,401,264,454,360,29
1715,0.27,0.9,0.32,0.24,-3.48,-1.04,413,399,265,455,355,29
1716,0.25,0.92,0.34,-0.37,-3.97,-2.93,414,403,265,453,353,29
1717,0.26,0.91,0.33,-0.06,-1.77,-3.6,413,402,270,454,358,29
1718,0.27,0.91,0.33,-4.88,-5.13,-3.54,410,400,267,453,356,29
1719,0.27,0.91,0.33,0.06,-3.42,-2.32,411,403,269,449,353,29
1720,0.25,0.9,0.34,-2.5,-2.08,-5.49,412,401,266,457,358,29
1721,0.26,0.9,0.32,1.22,-2.99,-2.75,411,400,268,448,356,29
1722,0.28,0.92,0.31,3.11,-1.22,-1.53,411,412,264,457,354,29
1723,0.25,0.94,0.31,-0.73,-3.11,-2.62,416,401,269,453,358,29
1724,0.29,0.92,0.31,-0.67,-6.77,-1.65,415,406,266,447,356,29
1725,0.26,0.9,0.33,-7.2,-1.77,1.22,414,401,271,448,360,29
1726,0.26,0.89,0.36,0.18,-1.71,-2.5,414,401,266,458,357,29
1727,0.28,0.9,0.36,-1.46,-4.27,-1.89,414,405,265,454,355,29
1728,0.29,0.87,0.38,-0.98,-3.17,-2.99,415,400,266,455,355,29
1729,0.26,0.9,0.37,-2.93,-2.99,-2.99,414,407,266,457,358,29
1730,0.28,0.88,0.41,-5.62,-4.39,-2.56,415,401,268,459,356,29
1731,0.3,0.88,0.38,0.37,-5.19,-3.3,419,401,268,459,356,29
1732,0.28,0.87,0.4,-3.42,-2.87,-8.54,416,401,266,463,357,29
1733,0.34,0.87,0.38,-2.14,-5.55,-2.32,415,404,263,461,356,29
1734,0.29,0.87,0.38,0.61,-1.1,-2.44,417,401,265,463,357,29
1735,0.3,0.87,0.38,0.61,-4.03,-2.01,418,400,266,460,364,29
1736,0.3,0.88,0.39,-0.49,-3.48,-1.34,417,405,265,475,358,29
1737,0.3,0.86,0.4,-0.73,-4.33,-3.11,415,403,263,461,356,29
1738,0.27,0.87,0.41,0.24,-1.34,-2.75,414,402,260,460,355,29
1739,0.29,0.87,0.4,-0.92,-2.81,-2.87,416,404,264,459,357,29
1740,0.28,0.87,0.38,3.54,-1.65,-2.38,414,397,265,461,358,29
1741,0.28,0.87,0.43,-0.43,-1.71,-3.05,410,400,263,462,358,29
1742,0.29,0.87,0.39,-1.77,-2.2,-2.38,415,401,260,461,358,29
1743,0.28,0.87,0.4,-1.53,-3.66,-2.38,420,401,264,458,353,29
1744,0.28,0.86,0.4,0.24,-2.75,-2.5,416,403,265,457,353,29
1745,0.29,0.88,0.39,1.16,-3.3,-2.62,413,400,260,459,357,29
1746,0.29,0.87,0.4,2.01,-1.77,-2.44,414,399,266,459,358,29
1747,0.29,0.87,0.4,0.67,-3.23,-2.56,413,400,258,456,354,29
1748,0.29,0.89,0.4,2.5,-4.76,-2.44,414,397,260,460,360,29
1749,0.28,0.88,0.39,-2.2,-1.65,-2.93,414,400,272,459,363,29
1750,0.28,0.87,0.37,6.59,-3.42,-3.11,412,403,261,458,360,29
1751,0.31,0.88,0.34,0.79,-3.78,-2.26,416,399,259,457,358,29
1752,0.24,0.92,0.46,-15.44,3.3,-4.39,414,401,262,456,357,29
1753,0.29,0.86,0.48,-2.87,-6.53,2.01,414,398,261,457,358,29
1754,0.26,0.83,0.5,-6.04,-4.94,7.51,413,402,261,456,358,29
1755,0.3,0.8,0.44,5.98,2.69,1.46,421,397,262,450,358,29
1756,0.32,0.83,0.52,-6.04,-5.43,0.67,413,399,260,451,358,29
1757,0.21,0.83,0.5,7.14,-5.37,-4.82,409,396,261,453,357,29
1758,0.35,0.88,0.47,3.78,-6.65,-2.44,414,397,260,458,357,29
1759,0.31,0.86,0.45,2.2,-6.23,-2.93,410,397,261,453,354,29
1760,0.36,0.83,0.44,-2.69,-1.95,2.08,414,401,262,453,356,29
1761,0.32,0.85,0.44,0.43,-3.66,-1.1,413,402,260,459,358,29
1762,0.34,0.84,0.44,-0.67,-6.9,-3.23,414,401,262,458,358,29
1763,0.33,0.83,0.43,7.02,-1.95,-2.69,416,399,265,459,357,29
1764,0.32,0.85,0.45,0.98,-3.91,-1.71,417,398,262,455,356,29
1765,0.32,0.82,0.44,3.05,-2.44,-2.08,419,398,259,454,359,29
1766,0.31,0.84,0.47,3.17,-0.92,-3.05,409,400,261,463,357,29
1767,0.32,0.84,0.46,-0.18,-1.4,-0.98,414,396,263,456,358,29
1768,0.32,0.83,0.46,2.01,1.59,-3.05,413,401,262,457,359,29
1769,0.27,0.84,0.47,-1.71,0.12,-0.79,421,401,261,460,358,29
1770,0.34,0.86,0.45,4.88,-7.51,-0.67,415,403,261,458,360,29
1771,0.29,0.84,0.45,-4.82,-3.36,-3.85,413,398,266,459,356,29
1772,0.31,0.84,0.47,3.72,-1.71,-1.89,413,396,257,455,359,29
1773,0.3,0.84,0.46,-0.31,-4.76,-4.15,411,401,264,455,357,29
1774,0.3,0.82,0.45,-2.93,-2.69,-1.16,413,398,259,459,356,29
1775,0.32,0.87,0.48,2.44,-3.78,-3.36,416,399,260,451,359,29
1776,0.3,0.87,0.49,2.81,1.65,-1.89,413,402,261,458,358,29
1777,0.32,0.83,0.44,-0.43,-2.81,-3.54,414,397,265,454,356,29
1778,0.33,0.79,0.52,-13.24,-7.39,-3.66,411,398,267,456,331,29
1779,0.34,0.81,0.49,10.44,-8.3,0.43,413,398,271,454,335,29
1780,0.35,0.82,0.48,2.56,-2.75,-2.93,412,402,271,454,338,29
1781,0.35,0.83,0.48,1.16,-3.11,-3.05,414,400,268,456,343,29
1782,0.34,0.81,0.46,4.09,-3.54,-2.62,414,399,265,456,339,29
1783,0.35,0.82,0.47,-0.18,-2.93,-2.87,412,400,267,455,345,29
1784,0.35,0.82,0.47,-0.37,-2.87,-2.56,413,401,272,449,345,29
1785,0.35,0.8,0.45,3.54,-3.72,-3.42,413,399,267,451,346,29
1786,0.35,0.84,0.45,-1.46,-4.15,-2.56,414,397,266,452,348,29
1787,0.34,0.79,0.45,-0.31,-2.56,-3.54,413,400,266,469,348,29
1788,0.31,0.76,0.48,-3.36,-3.17,-7.63,414,399,267,456,349,29
1789,0.31,0.79,0.46,-28.38,-5.74,-7.69,416,396,266,454,347,29
1790,0.31,0.87,0.54,-2.26,-13.85,14.47,414,400,269,455,349,29
1791,0.47,0.82,0.48,3.85,-4.27,-4.58,414,395,269,451,347,29
1792,0.45,0.74,0.43,2.99,-9.4,0.12,415,398,269,448,350,29
1793,0.45,0.81,0.44,11.66,1.77,1.71,409,401,268,454,349,29
1794,0.38,0.82,0.51,0.79,2.99,-4.09,413,397,269,455,348,29
1795,0.42,0.78,0.48,1.04,-1.53,-2.44,412,395,265,451,351,29
1796,0.44,0.79,0.48,3.66,-18.01,9.28,414,401,264,452,349,29
1797,0.45,0.78,0.45,-1.4,-4.52,-5.55,411,400,264,452,348,29
1798,0.42,0.79,0.48,1.59,-2.08,-4.21,412,395,267,455,350,29
1799,0.41,0.79,0.47,-0.85,-3.85,0.37,415,399,266,451,351,29
1800,0.46,0.79,0.44,-3.3,-6.59,-4.64,412,400,263,453,348,29
1801,0.42,0.79,0.45,2.2,-3.66,-2.38,413,402,264,450,350,29
1802,0.42,0.79,0.47,-0.18,-5.37,-3.05,414,399,261,454,347,29
1803,0.43,0.8,0.48,-0.37,-2.62,-1.53,414,399,263,445,353,29
1804,0.43,0.78,0.48,3.54,-4.03,-3.6,414,403,265,450,352,29
1805,0.42,0.75,0.46,-6.23,-0.31,-3.11,415,402,265,454,351,29
1806,0.44,0.8,0.48,-0.24,-5.74,-1.1,412,399,264,454,351,29
1807,0.42,0.79,0.48,-0.92,-2.75,-2.99,411,400,264,453,354,29
1808,0.43,0.78,0.47,1.1,-2.75,-3.91,411,402,261,452,352,29
1809,0.41,0.77,0.47,-0.49,-3.42,-3.05,413,400,261,447,353,29
1810,0.42,0.78,0.48,2.26,-2.81,-2.38,440,400,263,447,349,29
1811,0.43,0.79,0.47,-1.04,-3.78,-3.42,415,400,262,449,356,29
1812,0.42,0.79,0.46,1.95,-4.58,-2.44,414,398,263,450,356,29
1813,0.43,0.78,0.46,0.92,-5.98,-1.89,411,399,260,452,353,29
1814,0.41,0.78,0.48,-0.73,-1.83,-3.78,416,399,270,453,355,29
1815,0.4,0.77,0.47,0.55,-2.93,-2.75,413,399,266,452,355,29
1816,0.42,0.78,0.46,4.03,-2.87,-2.87,415,399,262,449,356,29
1817,0.4,0.76,0.48,-0.73,-4.09,-2.32,412,401,264,458,355,29
1818,0.4,0.79,0.47,1.28,-1.4,-2.56,411,401,267,457,354,29
1819,0.42,0.8,0.48,-0.85,-2.26,-3.23,415,400,266,456,347,29
1820,0.42,0.78,0.47,2.75,-1.46,-3.66,411,398,261,455,354,29
1821,0.43,0.78,0.47,0.61,-3.42,-2.26,414,399,262,458,354,29
1822,0.42,0.78,0.47,-1.65,-2.62,-3.48,414,398,264,452,356,29
1823,0.43,0.78,0.47,0.49,-3.54,-2.62,412,401,267,455,354,29
1824,0.42,0.79,0.48,-0.98,-1.71,-2.2,413,400,264,451,355,29
1825,0.43,0.79,0.48,-2.26,-2.93,-4.21,412,401,266,458,356,29
1826,0.42,0.78,0.47,-0.73,-2.44,-2.2,412,403,267,455,354,29
1827,0.42,0.77,0.48,-6.71,-3.17,-2.75,413,403,265,448,355,29
1828,0.43,0.79,0.47,0.37,-3.23,-2.99,411,403,264,457,355,29
1829,0.43,0.79,0.47,1.22,-2.87,-3.3,409,400,268,454,354,29
1830,0.4,0.78,0.49,-11.17,1.1,-13.73,412,404,267,455,356,29
1831,0.41,0.77,0.49,-1.46,-2.38,-1.59,415,405,264,456,355,29
1832,0.4,0.79,0.49,3.17,-2.81,-1.59,411,404,269,455,356,29
1833,0.42,0.79,0.49,-0.55,-3.48,-3.91,414,402,266,450,351,29
1834,0.42,0.78,0.48,0.55,-3.23,-2.44,409,402,264,454,352,29
1835,0.43,0.79,0.48,-1.4,-2.5,-2.26,414,404,267,455,355,29
1836,0.42,0.78,0.48,1.71,-3.05,-3.17,414,401,267,450,355,29
1837,0.43,0.79,0.48,5.25,-2.14,-1.4,413,401,266,454,354,29
1838,0.41,0.77,0.48,-0.73,-3.23,-1.77,413,400,265,454,354,29
1839,0.42,0.78,0.47,3.17,-1.83,-2.69,415,402,266,449,354,29
1840,0.42,0.78,0.47,4.21,-1.95,-1.34,410,397,265,450,353,29
1841,0.42,0.78,0.47,1.71,-3.05,-1.95,415,400,265,456,351,29
1842,0.42,0.78,0.48,-3.72,-2.87,-2.93,410,400,264,455,356,29
1843,0.41,0.77,0.48,0.18,-3.91,-2.62,403,404,265,456,355,29
1844,0.42,0.77,0.5,-5.62,-3.72,-2.26,408,405,264,456,358,29
1845,0.41,0.78,0.49,3.72,-3.11,-1.95,408,401,264,459,358,29
1846,0.41,0.78,0.48,1.28,-2.75,-3.54,408,402,264,458,358,29
1847,0.41,0.77,0.48,2.08,-1.22,-2.5,410,404,267,458,358,29
1848,0.4,0.77,0.47,1.53,-3.48,-2.32,406,402,263,450,356,29
1849,0.41,0.76,0.48,1.28,-2.44,-1.83,408,402,264,459,355,29
1850,0.4,0.78,0.48,7.57,-0.85,-2.38,407,401,266,453,358,29
1851,0.41,0.77,0.48,0.92,-2.81,-2.01,412,401,266,455,357,29
1852,0.41,0.78,0.48,2.81,-3.66,-2.08,408,401,265,457,359,29
1853,0.41,0.79,0.48,1.04,-2.99,-1.34,408,405,267,456,353,29
1854,0.4,0.77,0.48,1.4,-3.72,-1.22,409,401,267,455,359,29
1855,0.41,0.78,0.49,0.55,-2.44,-2.26,407,405,262,455,358,29
1856,0.42,0.77,0.49,5.31,-1.34,0.31,408,402,266,454,357,29
1857,0.43,0.78,0.49,-0.18,-5.19,-0.43,409,403,267,451,358,29
1858,0.44,0.77,0.49,-2.26,-3.85,-2.69,415,402,266,451,356,29
1859,0.44,0.77,0.5,-2.38,-2.75,-3.91,403,401,265,460,356,29
1860,0.43,0.77,0.5,1.83,-3.66,-2.99,409,405,264,452,359,29
1861,0.42,0.75,0.5,-0.49,-1.77,-3.3,409,399,265,452,358,29
1862,0.42,0.77,0.5,0.49,-2.26,-2.81,411,402,264,460,359,29
1863,0.41,0.76,0.5,1.46,-1.77,-2.44,410,399,268,455,355,29
1864,0.43,0.77,0.5,2.99,-2.75,-2.44,408,403,270,452,359,29
1865,0.42,0.77,0.5,2.14,-3.36,-3.17,410,402,268,454,362,29
1866,0.41,0.77,0.5,-0.55,-3.54,-2.08,410,404,266,449,359,29
1867,0.42,0.77,0.49,0.55,-2.87,-3.54,409,403,266,458,360,29
1868,0.42,0.78,0.48,1.77,-2.93,-2.2,406,402,265,455,360,29
1869,0.42,0.78,0.48,8.48,-2.38,-1.83,408,402,271,452,355,29
1870,0.42,0.79,0.47,5.68,-2.62,-3.78,427,401,260,446,358,29
1871,0.35,0.83,0.55,-27.34,3.3,2.14,403,399,265,450,360,29
1872,0.28,0.77,0.54,9.77,25.09,-18.74,404,402,265,453,353,29
1873,0.23,0.71,0.61,7.08,-2.26,6.65,404,401,267,452,353,29
1874,0.31,0.87,0.59,5.92,-7.32,-1.46,408,400,265,452,356,29
1875,0.3,0.74,0.55,-1.34,-7.45,-1.4,406,404,265,452,357,29
1876,0.33,0.78,0.57,11.29,-1.16,4.27,406,403,266,448,357,29
1877,0.28,0.78,0.58,2.2,-0.37,-2.99,401,399,266,450,355,29
1878,0.26,0.77,0.6,-2.26,-0.12,-1.71,409,399,264,455,357,29
1879,0.26,0.78,0.58,-5.43,-1.89,-4.46,408,399,267,453,358,29
1880,0.26,0.76,0.58,2.2,-3.36,-2.32,406,403,262,456,362,29
1881,0.26,0.77,0.59,1.1,-1.53,-2.87,407,397,265,449,361,29
1882,0.25,0.76,0.61,-4.94,-2.62,-2.93,409,400,267,454,361,29
1883,0.26,0.77,0.6,0.0,-4.09,-1.16,406,399,262,449,360,29
1884,0.27,0.77,0.59,-0.85,-2.56,-2.99,405,403,262,450,359,29
1885,0.26,0.77,0.6,0.18,-2.87,-2.93,409,399,266,452,361,29
1886,0.25,0.77,0.59,2.26,-3.42,-1.28,407,403,265,453,361,29
1887,0.25,0.77,0.59,-2.44,-2.75,-3.11,408,400,266,453,360,29
1888,0.26,0.76,0.61,-3.05,-3.42,-1.53,411,400,266,452,364,29
1889,0.27,0.77,0.6,1.1,-4.21,-2.14,409,404,265,453,357,29
1890,0.26,0.77,0.6,0.49,-2.87,-2.87,407,399,265,457,360,29
1891,0.25,0.77,0.59,2.99,-2.44,-2.69,405,402,268,451,360,29
1892,0.25,0.76,0.6,2.75,-4.21,-1.95,409,405,268,452,361,29
1893,0.26,0.78,0.6,2.62,-2.62,-2.44,410,403,267,451,357,29
1894,0.28,0.8,0.58,6.59,-3.48,-3.54,402,404,264,448,361,29
1895,0.25,0.79,0.57,-0.73,-2.81,-4.03,410,401,265,453,361,29
1896,0.26,0.81,0.57,0.49,-3.78,-3.85,408,402,265,448,359,29
1897,0.26,0.79,0.57,-1.1,-3.66,-3.11,408,403,266,453,361,29
1898,0.26,0.8,0.56,0.06,-2.38,-2.38,409,413,279,453,360,29
1899,0.27,0.79,0.56,-0.79,-3.6,-2.01,408,405,269,451,358,29
1900,0.26,0.8,0.56,0.55,-2.26,-2.5,411,401,267,451,358,29
1901,0.26,0.79,0.55,-0.24,-2.75,-2.08,409,415,267,452,362,29
1902,0.27,0.79,0.55,-2.26,-2.56,-2.01,405,402,268,456,362,29
1903,0.26,0.8,0.56,-0.92,-3.48,-2.01,408,403,266,451,359,29
1904,0.27,0.8,0.56,1.53,-4.58,-2.32,409,403,269,451,362,29
1905,0.25,0.82,0.56,0.73,-4.39,-2.5,408,403,266,452,358,29
1906,0.25,0.78,0.56,0.49,-3.3,-2.56,412,406,265,447,360,29
1907,0.27,0.77,0.55,-2.62,-7.08,2.56,408,415,267,454,362,29
1908,0.27,0.79,0.55,2.93,-4.64,0.06,408,403,267,452,358,29
1909,0.28,0.77,0.53,2.32,-3.17,-2.38,408,401,264,451,360,29
1910,0.26,0.8,0.55,1.59,-3.72,-2.69,407,402,264,454,360,29
1911,0.27,0.82,0.55,4.88,-2.38,-2.14,408,402,279,449,359,29
1912,0.26,0.79,0.54,1.95,-3.48,-3.78,406,404,265,447,361,29
1913,0.25,0.81,0.56,-0.85,-2.44,-3.11,408,399,264,447,361,29
1914,0.28,0.8,0.55,-1.1,-1.34,-2.44,408,401,265,454,361,29
1915,0.26,0.81,0.51,9.16,-4.7,-2.38,408,400,265,450,360,29
1916,0.25,0.81,0.54,-1.4,-2.62,-3.36,411,400,262,449,360,29
1917,0.27,0.81,0.52,-1.89,-2.38,-2.75,407,403,266,451,363,29
1918,0.26,0.8,0.55,-0.43,-3.42,-2.38,410,402,269,452,362,29
1919,0.25,0.79,0.55,1.95,-3.17,-1.46,406,401,266,458,361,29
1920,0.26,0.82,0.57,-1.89,-1.71,-2.87,408,402,267,451,362,29
1921,0.26,0.8,0.54,2.38,-3.54,-1.34,409,402,264,452,361,29
1922,0.26,0.79,0.57,-7.51,-2.32,-1.89,408,401,267,452,360,29
1923,0.27,0.8,0.57,-4.58,-2.75,-3.48,408,399,266,450,357,29
1924,0.28,0.82,0.57,3.23,-1.34,-2.75,408,402,264,457,360,29
1925,0.28,0.81,0.53,6.1,-3.17,-1.22,408,400,265,450,362,29
1926,0.27,0.78,0.54,0.12,-1.95,-2.2,411,406,266,452,363,29
1927,0.28,0.82,0.56,0.55,-2.26,-4.09,407,401,266,457,361,29
1928,0.27,0.8,0.54,1.77,-2.87,-2.5,408,402,264,451,361,29
1929,0.27,0.81,0.56,0.98,-2.87,-2.99,411,406,264,450,357,29
1930,0.26,0.76,0.55,2.08,-3.6,-1.4,409,406,267,449,360,29
1931,0.27,0.79,0.55,-0.98,-2.2,-2.38,408,402,266,454,360,29
1932,0.28,0.8,0.56,-0.43,-3.05,-2.69,410,403,268,452,363,29
1933,0.27,0.79,0.55,-0.06,-2.75,-2.01,404,402,266,453,364,29
1934,0.27,0.78,0.55,-2.99,-4.15,-2.81,410,402,263,453,360,29
1935,0.27,0.79,0.57,-0.55,-2.62,-2.14,414,402,266,466,361,29
1936,0.28,0.78,0.54,0.06,-3.78,-2.2,406,407,267,449,363,29
1937,0.28,0.8,0.56,0.18,-2.56,-2.62,417,400,266,448,362,29
1938,0.28,0.79,0.55,0.73,-3.36,-2.99,410,402,271,451,356,29
1939,0.28,0.79,0.56,0.43,-3.05,-1.83,412,404,267,453,361,29
1940,0.3,0.79,0.56,0.12,-3.6,-1.71,409,419,267,454,361,29
1941,0.3,0.78,0.55,2.14,-2.69,-2.62,450,405,268,457,359,29
1942,0.29,0.81,0.56,-5.13,-3.54,-1.71,409,402,264,457,362,29
1943,0.29,0.8,0.56,3.48,-3.3,-2.32,410,400,268,453,361,29
1944,0.29,0.79,0.54,2.26,-3.6,-2.32,409,405,267,454,361,29
1945,0.29,0.78,0.53,0.0,-2.75,-3.23,407,403,269,454,359,29
1946,0.29,0.8,0.55,2.5,-2.38,-2.93,409,405,269,457,362,29
1947,0.28,0.79,0.55,-2.2,-2.56,-2.99,412,402,266,448,358,29
1948,0.29,0.8,0.53,3.54,-2.44,-2.38,408,403,272,456,362,29
1949,0.28,0.79,0.56,0.85,-2.75,-2.93,412,405,268,456,361,29
1950,0.29,0.8,0.53,1.16,-3.72,-0.61,410,400,265,450,358,29
1951,0.31,0.78,0.55,2.2,-3.23,-2.69,416,403,267,450,360,29
1952,0.3,0.78,0.55,0.12,-2.62,-2.75,411,404,266,457,362,29
1953,0.3,0.8,0.55,0.92,-2.56,-2.5,411,402,267,454,360,29
1954,0.3,0.78,0.54,1.71,-3.23,-3.78,404,403,268,453,358,29
1955,0.29,0.79,0.55,0.67,-2.38,-2.26,413,399,267,453,363,29
1956,0.3,0.78,0.53,-1.04,-3.6,-2.81,409,402,267,453,362,29
1957,0.29,0.79,0.55,0.24,-2.99,-2.56,408,401,267,453,361,29
1958,0.31,0.81,0.55,1.46,-2.81,-1.95,413,403,269,454,362,29
1959,0.35,0.77,0.5,0.61,-4.7,-0.31,413,400,268,455,361,29
1960,0.37,0.8,0.51,1.28,-4.27,-1.53,408,400,266,454,364,29
1961,0.35,0.79,0.52,-0.55,-3.42,-2.08,414,402,267,453,357,29
1962,0.36,0.79,0.52,4.64,-3.6,-1.77,410,405,267,459,360,29
1963,0.35,0.75,0.52,0.24,-3.91,-2.2,414,403,267,454,360,29
1964,0.35,0.79,0.51,0.73,-2.87,-1.77,413,402,269,457,361,29
1965,0.36,0.78,0.53,-1.53,-2.99,-2.62,411,404,265,458,363,29
1966,0.36,0.78,0.52,-0.18,-2.38,-2.44,414,402,263,457,362,29
1967,0.34,0.78,0.52,1.89,-2.44,-2.75,414,403,268,457,363,29
1968,0.35,0.77,0.53,-0.31,-3.3,-2.44,410,402,268,451,361,29
1969,0.36,0.79,0.52,-0.24,-2.56,-2.99,418,402,266,455,358,29
1970,0.36,0.77,0.52,2.14,-1.89,-2.08,411,405,267,453,362,29
1971,0.35,0.78,0.54,-0.98,-3.3,-2.93,409,401,269,457,362,29
1972,0.36,0.78,0.54,0.85,-3.6,0.61,412,410,269,456,362,29
1973,0.44,0.77,0.51,8.24,2.26,-4.88,409,402,271,447,361,29
1974,0.41,0.58,0.45,-21.67,2.62,-12.51,411,406,267,457,362,29
1975,0.44,0.8,0.58,11.66,-2.69,6.16,407,403,267,454,360,29
1976,0.39,0.76,0.41,13.18,9.4,4.46,413,402,266,456,358,29
1977,0.4,0.74,0.5,6.47,-10.93,-2.93,410,403,268,455,360,29
1978,0.36,0.82,0.52,-2.5,-13.0,-2.81,416,401,269,455,363,29
1979,0.49,0.83,0.49,0.73,-7.81,-20.14,419,403,264,452,362,29
1980,0.37,0.82,0.42,4.88,-8.36,-8.24,413,405,269,457,361,29
1981,0.4,0.83,0.4,-1.65,-7.63,-10.74,416,405,266,451,363,29
1982,0.41,0.84,0.4,-1.4,2.93,10.19,435,399,269,450,361,29
1983,0.37,0.92,0.48,2.01,-21.24,-24.84,408,403,266,457,361,29
1984,0.41,0.81,0.4,-7.93,-6.16,-3.78,409,403,269,452,362,29
1985,0.4,0.8,0.42,-2.69,-5.74,0.0,413,403,267,455,359,29
1986,0.4,0.82,0.43,0.92,0.73,0.61,412,403,267,449,361,29
1987,0.41,0.83,0.42,-1.77,-1.89,-1.22,410,400,270,453,362,29
1988,0.42,0.81,0.42,-0.49,-3.3,-4.64,407,403,268,452,357,29
1989,0.38,0.81,0.44,-0.55,-0.55,-0.73,410,406,267,456,362,29
1990,0.41,0.81,0.44,-1.95,-5.74,-1.34,411,401,268,462,362,29
1991,0.39,0.83,0.46,-1.22,-2.44,-4.33,409,403,269,451,362,29
1992,0.41,0.8,0.44,1.71,-2.81,-2.69,410,407,269,449,362,29
1993,0.4,0.81,0.44,1.28,-1.89,-4.15,411,406,267,453,363,29
1994,0.37,0.79,0.42,0.24,-2.93,-0.92,412,404,267,452,358,29
1995,0.39,0.83,0.43,3.42,-2.93,-2.32,411,404,265,453,369,29
1996,0.39,0.82,0.42,0.18,-3.54,-2.2,410,404,269,453,362,29
1997,0.38,0.81,0.43,-0.92,-2.26,-2.93,411,409,265,459,363,29
1998,0.38,0.82,0.42,0.61,-2.99,-3.72,409,404,270,452,361,29
1999,0.39,0.83,0.42,0.31,-2.5,-2.75,413,401,265,448,358,29
2000,0.38,0.84,0.43,-0.67,-2.93,-3.85,412,400,267,456,368,29
2001,0.38,0.81,0.44,-1.95,-2.01,-3.42,410,405,267,453,363,29
2002,0.38,0.83,0.43,1.22,-2.2,-1.95,411,406,269,453,361,29
2003,0.38,0.82,0.42,2.2,-4.09,-2.14,413,405,267,448,362,29
2004,0.38,0.82,0.42,2.81,-4.09,-1.65,408,402,268,463,363,29
2005,0.38,0.83,0.42,-1.28,-2.62,-3.17,410,405,269,454,361,29
2006,0.39,0.83,0.41,4.21,-2.62,-2.08,412,403,268,453,359,29
2007,0.36,0.82,0.42,3.78,-2.5,-2.08,413,403,267,452,363,29
2008,0.37,0.83,0.41,0.98,-3.42,-2.5,408,402,267,456,360,29
2009,0.37,0.83,0.42,-1.53,-3.11,-2.32,413,404,267,455,362,29
2010,0.38,0.83,0.42,-0.43,-3.54,-0.98,413,403,264,452,362,29
2011,0.37,0.84,0.43,-0.61,-3.3,-3.11,411,403,273,452,361,29
2012,0.38,0.82,0.41,0.85,-3.97,-2.26,407,400,273,462,359,29
2013,0.38,0.83,0.42,5.43,-2.99,-2.38,411,398,267,451,360,29
2014,0.36,0.82,0.42,-6.41,-6.16,-0.12,408,406,270,457,361,29
2015,0.42,0.82,0.48,11.35,-7.93,-9.52,411,401,267,451,357,29
2016,0.34,0.84,0.46,1.28,-7.02,-4.76,410,398,267,454,357,29
2017,0.38,0.78,0.42,-4.03,-2.01,-0.85,409,397,266,451,360,29
2018,0.38,0.79,0.47,1.16,-0.73,-2.99,412,397,265,448,358,29
2019,0.37,0.81,0.49,9.7,-8.61,9.83,410,397,268,447,360,29
2020,0.42,0.79,0.43,3.11,-2.32,-2.2,408,396,267,450,359,29
2021,0.42,0.8,0.44,1.65,-3.36,-2.75,410,401,264,454,359,29
2022,0.41,0.79,0.44,-1.46,-2.01,-3.85,408,395,267,448,361,29
