,aX,aY,aZ,gX,gY,gZ,little,ring,middle,index,thumb,number
0,0.17,0.73,0.63,-3.23,-2.75,-1.53,219,296,428,449,313,21
1,0.17,0.76,0.64,1.04,-3.05,-2.75,220,298,425,454,312,21
2,0.18,0.76,0.64,0.31,-4.03,-1.83,221,298,421,454,316,21
3,0.16,0.75,0.65,-0.55,-0.55,-3.36,220,299,423,459,316,21
4,0.14,0.74,0.65,0.55,-1.34,-3.54,223,294,421,457,316,21
5,0.08,0.73,0.66,-8.61,6.71,-6.53,223,296,419,453,316,21
6,0.07,0.74,0.69,-0.92,-2.2,2.99,221,291,421,448,321,21
7,0.09,0.75,0.67,2.81,-5.68,-0.31,214,299,432,456,322,21
8,0.06,0.75,0.67,1.04,-0.12,-1.1,218,295,424,455,322,21
9,0.1,0.75,0.66,1.59,-4.52,-2.08,216,295,421,456,324,21
10,0.11,0.77,0.66,-0.43,-4.33,-1.28,220,298,420,451,322,21
11,0.13,0.74,0.64,0.79,-3.85,-4.39,222,297,419,449,324,21
12,0.08,0.74,0.66,2.38,-2.01,-1.22,219,295,420,456,324,21
13,0.14,0.78,0.65,4.88,-8.12,-3.78,219,301,418,454,327,21
14,0.11,0.76,0.63,1.83,-8.0,3.91,219,299,415,454,323,21
15,0.1,0.87,0.63,0.31,-5.8,12.88,223,314,416,455,327,21
16,0.08,0.75,0.56,-6.84,-13.73,10.13,222,300,415,455,328,21
17,0.25,0.65,0.62,-0.18,-5.74,-8.61,220,301,414,455,331,21
18,0.26,0.69,0.65,7.45,3.36,-18.92,220,300,418,457,329,21
19,0.3,0.86,0.69,7.63,13.73,-34.55,227,297,415,455,328,21
20,0.27,0.84,0.73,9.34,29.66,-42.18,226,303,416,452,328,21
21,0.27,0.79,0.63,-11.17,28.14,-36.07,222,299,414,460,329,21
22,0.22,0.83,0.69,-0.79,9.22,-28.63,225,302,417,457,329,21
23,0.2,0.67,0.61,1.4,12.7,-17.09,226,303,413,458,331,21
24,0.19,0.74,0.65,1.95,-19.59,12.39,224,302,413,458,329,21
25,0.24,0.8,0.64,1.22,3.11,-21.18,225,304,415,454,328,21
26,0.25,0.76,0.62,-2.81,-4.21,-8.24,227,299,410,461,329,21
27,0.25,0.75,0.63,3.36,-2.08,-1.77,222,303,414,460,329,21
28,0.21,0.74,0.63,-0.79,-3.42,1.22,224,303,415,456,330,21
29,0.21,0.74,0.63,1.34,-2.56,-3.72,229,299,411,461,330,21
30,0.2,0.75,0.64,0.43,-2.81,-0.79,224,299,412,454,330,21
31,0.14,0.75,0.64,-0.06,6.96,-6.77,222,299,412,456,332,21
32,0.22,0.86,0.72,-0.55,0.18,-13.49,227,300,410,456,331,21
33,0.13,0.81,0.65,-4.64,21.12,-34.06,225,300,409,453,332,21
34,-0.26,0.72,0.65,1.53,1.46,-3.91,227,300,411,456,333,21
35,-0.08,0.71,0.66,0.98,-16.78,29.17,226,299,412,458,333,21
36,-0.1,0.77,0.67,8.0,-14.4,5.31,229,302,410,461,334,21
37,0.08,0.74,0.67,-2.38,1.04,5.07,227,303,411,452,332,21
38,-0.05,0.72,0.69,2.56,-5.86,-0.06,228,300,407,457,334,21
39,0.06,0.75,0.68,-1.16,-7.93,5.31,227,303,405,457,332,21
40,0.1,0.77,0.69,2.44,0.06,-9.09,224,298,405,459,332,21
41,0.04,0.74,0.67,-1.28,-5.62,-0.73,229,295,407,455,333,21
42,0.07,0.75,0.67,0.24,-2.38,-2.32,227,303,407,460,333,21
43,0.04,0.73,0.67,0.31,-4.15,0.31,226,299,406,457,334,21
44,0.06,0.73,0.67,-0.18,-2.08,-4.33,228,306,406,458,334,21
45,0.03,0.76,0.68,0.24,-1.83,-3.97,228,300,408,454,333,21
46,0.01,0.75,0.68,-0.12,-3.78,-1.1,229,301,404,457,332,21
47,0.01,0.75,0.68,0.92,-0.49,-2.81,227,304,404,456,332,21
48,-0.0,0.75,0.68,1.22,-3.72,-3.17,226,300,404,456,332,21
49,0.03,0.69,0.67,2.32,-14.34,6.35,226,300,401,455,332,21
50,0.06,0.75,0.64,5.86,2.38,-5.0,230,302,407,460,336,21
51,0.06,0.82,0.69,-6.41,-9.95,4.94,229,302,403,460,335,21
52,0.24,0.62,0.62,5.37,-10.44,24.6,227,301,399,459,335,21
53,0.16,0.7,0.65,0.06,-13.12,0.18,225,302,402,457,335,21
54,0.23,0.73,0.63,-11.66,-9.22,18.37,229,305,401,460,333,21
55,0.18,0.7,0.67,4.33,-4.27,-28.02,230,302,400,460,334,21
56,0.21,0.75,0.64,1.4,2.26,-4.27,228,303,401,457,338,21
57,0.12,0.75,0.64,0.55,-0.12,-3.6,230,301,401,456,337,21
58,0.19,0.77,0.65,-0.06,1.4,-10.07,230,301,402,462,332,21
59,0.12,0.73,0.65,-6.96,-1.46,5.92,231,305,403,457,334,21
60,0.16,0.74,0.63,-1.04,-9.77,13.49,229,301,407,460,336,21
61,0.12,0.73,0.68,0.31,-5.86,-9.4,227,300,401,457,340,21
62,0.19,0.75,0.68,-0.55,0.37,-1.71,228,302,401,460,334,21
63,0.09,0.72,0.65,4.03,-3.17,-7.87,229,302,401,458,339,21
64,0.16,0.81,0.69,1.89,1.22,-8.18,230,302,404,457,336,21
65,0.12,0.67,0.65,4.76,6.59,-1.34,230,305,406,459,335,21
66,0.16,0.75,0.67,-11.96,0.85,13.06,226,302,403,457,333,21
67,0.07,0.69,0.69,0.61,-6.41,-1.65,231,305,401,459,333,21
68,0.15,0.72,0.71,2.01,-2.81,-8.3,230,301,414,458,334,21
69,0.15,0.69,0.67,3.85,-1.53,-4.88,230,302,401,465,338,21
70,0.12,0.76,0.7,3.05,-2.38,-3.3,230,305,399,457,336,21
71,0.1,0.74,0.69,1.04,-4.7,-0.61,232,303,401,452,336,21
72,0.04,0.73,0.68,-0.24,-4.7,3.36,233,308,401,456,332,21
73,0.15,0.72,0.67,0.24,-9.52,-1.59,228,306,401,461,334,21
74,0.07,0.78,0.68,2.38,-6.71,3.85,230,305,398,458,336,21
75,-0.16,0.95,0.94,30.46,22.89,-3.6,228,304,399,453,337,21
76,0.02,0.67,0.67,4.46,-1.46,-3.23,230,306,402,455,334,21
77,0.05,0.71,0.71,-0.18,-12.88,-7.08,231,307,403,462,335,21
78,-0.06,0.66,0.7,7.32,-11.29,-3.23,230,305,403,458,335,21
79,-0.04,0.87,0.78,6.96,-0.98,-0.67,231,305,403,457,331,21
80,0.07,1.1,0.93,27.53,8.97,-3.05,231,306,397,458,336,21
81,0.13,0.79,0.72,5.55,14.71,-13.24,230,304,400,459,335,21
82,0.1,0.74,0.68,1.83,-2.44,-5.74,233,307,401,454,336,21
83,0.14,0.74,0.68,2.26,0.31,-2.87,232,306,398,458,338,21
84,0.14,0.74,0.67,-1.95,-3.72,0.12,231,307,400,460,334,21
85,0.22,0.73,0.67,-0.98,0.18,-7.39,232,308,397,455,335,21
86,0.2,0.75,0.7,-2.2,2.08,-6.9,228,307,399,456,334,21
87,0.16,0.73,0.68,-0.31,-3.97,-0.18,238,309,401,454,339,21
88,0.23,0.73,0.67,0.24,-4.27,-8.3,232,309,400,458,338,21
89,0.21,0.7,0.67,4.09,-4.39,-2.2,234,309,398,462,337,21
90,0.23,0.73,0.65,0.43,-6.53,-0.37,230,308,400,460,333,21
91,0.23,0.74,0.69,1.04,-1.89,-4.82,233,309,400,461,338,21
92,0.24,0.72,0.66,1.46,-1.77,-5.37,232,305,395,463,338,21
93,0.21,0.71,0.67,1.4,-3.17,-1.46,231,306,400,464,336,21
94,0.22,0.72,0.66,0.12,-2.69,-2.08,230,324,397,458,337,21
95,0.21,0.74,0.67,-1.83,-3.05,-1.71,231,310,395,462,336,21
96,0.23,0.71,0.65,-4.03,-2.26,-3.36,232,304,400,461,336,21
97,0.21,0.66,0.65,2.14,-13.0,7.51,231,304,397,458,336,21
98,0.24,0.71,0.67,2.99,-1.77,-6.65,232,310,397,459,337,21
99,0.22,0.71,0.68,0.37,-5.74,4.21,232,306,396,458,337,21
100,0.31,0.72,0.66,-0.18,-4.88,-6.23,233,310,396,459,334,21
101,0.31,0.69,0.64,0.37,-1.89,-2.26,230,310,398,454,343,21
102,0.31,0.7,0.62,-7.63,35.58,-48.95,232,310,395,461,339,21
103,0.17,0.75,0.68,24.72,-85.51,102.11,251,304,395,459,338,21
104,0.23,0.73,0.68,2.08,-9.22,7.32,233,308,396,454,340,21
105,0.22,0.71,0.66,1.04,-6.65,0.92,232,308,397,456,339,21
106,0.24,0.71,0.66,-0.12,-3.17,-4.58,232,305,396,462,338,21
107,0.2,0.72,0.67,2.08,-0.49,-3.42,231,316,395,457,333,21
108,0.21,0.73,0.66,1.16,-6.59,-0.85,241,302,393,459,337,21
109,0.24,0.74,0.66,2.81,-4.03,-3.17,233,307,397,453,337,21
110,0.22,0.72,0.67,-0.12,-3.54,-2.5,231,308,398,455,338,21
111,0.24,0.71,0.64,1.46,-3.6,-2.99,233,307,398,464,337,21
112,0.23,0.75,0.65,1.71,-6.71,-1.59,233,307,395,457,338,21
113,0.24,0.71,0.63,-1.95,-4.52,-2.75,249,317,396,458,338,21
114,0.22,0.71,0.65,0.24,-1.53,-2.44,229,308,395,459,338,21
115,0.25,0.73,0.66,2.26,-2.44,-3.11,232,307,395,462,338,21
116,0.2,0.72,0.66,1.28,-3.97,-2.87,231,308,395,463,338,21
117,0.17,0.77,0.69,3.17,-5.07,3.36,234,309,401,459,335,21
118,0.18,0.74,0.67,-1.22,-6.23,-4.46,233,304,393,459,338,21
119,0.04,0.85,0.78,32.65,19.29,-28.5,231,305,395,454,338,21
120,0.08,0.74,0.71,-11.17,-33.08,10.62,234,304,397,453,337,21
121,0.11,0.71,0.73,8.06,-8.3,4.21,233,305,397,459,332,21
122,0.09,0.71,0.68,2.08,-1.28,-2.62,261,302,396,461,338,21
123,0.09,0.75,0.7,0.85,-4.03,-1.95,231,308,400,458,336,21
124,0.1,0.73,0.69,0.61,-13.18,12.39,232,307,402,457,338,21
125,0.16,0.72,0.68,1.22,-0.55,-3.48,235,306,395,454,338,21
126,0.16,0.7,0.68,0.43,-3.42,3.11,231,306,397,461,337,21
127,0.16,0.71,0.69,-1.34,-7.14,-0.55,234,306,390,458,336,21
128,0.1,0.66,0.67,4.33,1.53,-2.75,227,308,395,453,336,21
129,0.08,0.79,0.74,4.09,-1.77,-1.16,234,307,404,459,341,21
130,0.07,0.69,0.68,2.75,-5.8,-0.24,231,307,392,460,338,21
131,0.11,0.71,0.65,-2.62,-5.13,-1.04,233,308,392,462,334,21
132,0.06,0.78,0.7,0.37,-2.26,-5.74,234,305,397,455,343,21
133,0.08,0.7,0.64,5.98,-22.89,11.84,233,308,396,454,335,21
134,0.1,0.72,0.69,-1.46,-3.3,-3.36,231,308,396,462,337,21
135,0.15,0.79,0.69,3.3,-10.93,7.51,230,306,394,457,340,21
136,0.12,0.69,0.66,-3.6,-0.67,-4.82,232,306,397,460,334,21
137,0.03,0.78,0.72,6.1,-29.42,20.39,233,307,395,459,337,21
138,0.07,0.72,0.69,-0.55,-4.82,0.67,230,307,396,462,335,21
139,0.08,0.74,0.69,3.17,-1.89,-2.69,230,308,398,461,337,21
140,0.07,0.74,0.69,-1.46,-2.62,-2.87,232,309,396,459,339,21
141,0.09,0.72,0.69,-0.12,-5.13,-1.89,238,309,397,453,335,21
142,0.08,0.73,0.69,0.73,-2.87,-2.44,233,308,395,461,338,21
143,0.09,0.75,0.7,2.14,-1.83,-2.81,230,309,392,458,338,21
144,0.07,0.73,0.68,-0.06,-1.83,-2.2,232,304,392,454,337,21
145,0.08,0.74,0.69,0.0,-3.6,-2.44,229,308,398,460,335,21
146,0.08,0.73,0.69,1.95,-2.56,-1.04,228,309,395,458,339,21
147,0.09,0.74,0.69,-0.49,-3.36,-3.11,233,309,398,462,338,21
148,0.08,0.74,0.69,-0.55,-3.3,-1.65,230,310,401,458,337,21
149,0.09,0.74,0.69,0.06,-2.62,-3.11,233,305,397,458,340,21
150,0.08,0.73,0.69,1.04,-2.26,-3.05,233,308,394,453,337,21
151,0.08,0.75,0.69,1.04,-2.38,-3.05,230,307,396,455,337,21
152,0.07,0.73,0.68,1.95,-2.87,-2.81,248,308,395,458,339,21
153,0.08,0.74,0.68,-0.24,-3.91,-1.65,231,310,395,458,340,21
154,0.08,0.74,0.68,0.98,-2.69,-1.53,233,320,394,462,338,21
155,0.07,0.75,0.67,3.42,-2.69,-2.56,231,305,395,462,338,21
156,0.05,0.75,0.65,2.44,13.49,-23.56,231,302,395,462,336,21
157,0.05,0.77,0.66,0.12,-3.85,-2.32,228,302,393,452,335,21
158,0.04,0.76,0.65,-0.37,-2.99,-1.89,228,303,393,457,338,21
159,0.06,0.76,0.65,-0.24,-3.97,-1.77,230,304,400,462,336,21
160,0.06,0.76,0.65,0.79,-3.11,-0.61,230,302,394,458,338,21
161,0.06,0.76,0.66,-0.31,-4.76,-1.53,228,303,395,458,338,21
162,0.07,0.76,0.65,0.0,-3.48,-1.71,229,302,395,461,337,21
163,0.07,0.76,0.65,1.4,-3.36,-2.93,229,303,394,458,337,21
164,0.07,0.75,0.66,-0.18,-2.87,-2.99,220,299,396,459,337,21
165,0.07,0.75,0.65,0.43,-2.44,-1.95,231,303,393,457,340,21
166,0.07,0.76,0.66,0.49,-3.54,-2.38,253,303,396,458,334,21
167,0.07,0.77,0.66,0.73,-3.05,-2.14,231,302,392,458,337,21
168,0.07,0.74,0.64,0.55,-3.3,-1.89,230,303,393,461,337,21
169,0.07,0.77,0.65,-1.4,-3.48,-1.83,225,303,395,458,339,21
170,0.08,0.76,0.65,-0.06,-2.81,-2.26,231,304,393,465,340,21
171,0.08,0.77,0.66,0.79,-3.3,-3.23,232,301,392,471,340,21
172,0.07,0.76,0.66,0.49,-2.62,-2.5,229,303,397,458,339,21
173,0.08,0.77,0.66,-0.37,-1.95,-2.87,232,307,394,458,334,21
174,0.07,0.76,0.66,1.46,-2.44,-4.09,242,306,394,460,333,21
175,0.1,0.79,0.66,1.77,-3.54,-2.56,233,303,394,454,338,21
176,0.12,0.78,0.66,-2.81,-9.28,-0.12,231,304,395,458,339,21
177,0.11,0.71,0.62,7.51,2.01,-4.58,230,308,391,463,339,21
178,0.04,0.78,0.64,-0.49,-0.98,-4.88,230,309,392,453,339,21
179,0.19,0.8,0.61,-0.85,-5.19,-7.39,232,312,392,461,337,21
180,0.07,0.74,0.64,-1.28,0.24,-3.54,229,304,396,453,339,21
181,0.08,0.79,0.68,-0.55,-2.87,3.66,234,304,392,454,340,21
182,0.12,0.72,0.67,2.44,-0.06,-0.31,232,304,404,462,337,21
183,0.13,0.77,0.69,-1.1,-4.7,-5.43,231,301,389,461,339,21
184,0.03,0.78,0.64,-1.04,8.0,6.23,232,301,389,457,340,21
185,0.16,0.7,0.63,-5.07,-10.38,-3.05,232,307,392,462,338,21
186,0.18,0.73,0.68,-1.4,-4.58,0.61,233,304,391,464,337,21
187,0.16,0.73,0.66,-3.85,-3.05,-4.15,233,306,394,453,334,21
188,0.14,0.69,0.7,2.32,-0.24,-6.35,231,306,390,459,338,21
189,0.22,0.77,0.68,2.75,-6.04,3.3,233,306,390,455,340,21
190,0.18,0.75,0.69,-0.49,-2.26,6.29,261,305,392,460,338,21
191,0.24,0.72,0.61,-3.97,-0.12,-7.32,231,307,389,458,337,21
192,0.18,0.7,0.63,-1.46,-7.32,1.53,234,308,386,451,338,21
193,0.21,0.56,0.69,-11.6,-29.11,33.33,233,307,391,456,339,21
194,0.26,0.72,0.65,3.36,-5.68,3.42,228,304,390,456,338,21
195,0.33,0.8,0.68,-0.12,-2.08,-5.25,231,306,390,453,335,21
196,0.27,0.71,0.65,-1.22,-1.46,-6.04,233,306,390,455,339,21
197,0.24,0.69,0.62,-2.81,-3.66,-2.56,252,307,391,462,340,21
198,0.23,0.71,0.69,0.12,3.17,-1.83,232,303,391,457,340,21
199,0.14,0.78,0.65,-3.48,-3.54,0.37,233,308,390,457,340,21
200,0.25,0.79,0.62,17.4,-3.91,2.93,255,306,391,458,337,21
201,0.08,0.83,0.61,3.3,6.65,-22.09,231,309,388,460,340,21
202,0.09,0.78,0.59,-0.43,-3.17,-1.83,228,310,392,463,337,21
203,0.09,0.76,0.64,-2.62,2.01,-6.47,238,308,392,462,341,21
204,0.03,0.74,0.61,-12.02,-3.23,3.78,234,308,392,462,339,21
205,0.07,0.79,0.63,1.71,-2.01,0.06,232,306,393,458,337,21
206,0.02,0.78,0.65,0.43,-2.99,-2.01,231,308,394,459,340,21
207,0.04,0.78,0.64,-1.65,-4.03,-4.52,232,306,391,461,337,21
208,0.07,0.72,0.66,3.23,-9.77,4.21,231,306,393,463,337,21
209,0.01,0.71,0.61,0.18,2.32,-5.55,230,306,390,455,338,21
210,0.03,0.82,0.67,3.23,-8.61,0.73,234,308,391,461,337,21
211,0.04,0.77,0.64,-3.05,1.77,2.75,231,306,405,458,339,21
212,0.03,0.61,0.63,-9.03,-26.92,8.36,234,305,392,456,339,21
213,0.11,0.76,0.65,-5.74,3.05,-3.05,234,303,390,459,340,21
214,0.12,0.78,0.68,0.98,-10.31,12.57,235,303,392,462,337,21
215,0.14,0.75,0.67,-1.04,10.38,-12.15,235,308,391,458,342,21
216,0.15,0.75,0.66,3.6,-4.15,-10.01,235,306,387,459,339,21
217,0.19,0.75,0.65,-1.65,-0.06,-6.41,233,307,391,457,339,21
218,0.14,0.74,0.64,2.44,-6.84,3.97,235,312,390,463,336,21
219,0.19,0.75,0.66,0.06,-2.99,-2.32,233,306,390,458,347,21
220,0.16,0.74,0.64,0.98,-5.25,-2.56,235,306,390,462,343,21
221,0.14,0.71,0.64,-1.59,0.73,1.95,232,305,392,453,336,21
222,0.17,0.77,0.66,3.3,-3.42,-5.13,234,310,392,460,346,21
223,0.17,0.75,0.65,-0.24,-1.1,-4.09,232,308,391,458,340,21
224,0.18,0.76,0.65,0.67,-3.11,-2.01,233,304,386,458,342,21
225,0.17,0.77,0.65,2.14,-4.09,-0.18,232,307,403,462,339,21
226,0.19,0.74,0.64,0.24,-4.21,-1.53,230,308,390,460,339,21
227,0.17,0.75,0.65,0.43,-1.53,-1.89,230,307,401,462,338,21
228,0.15,0.76,0.68,3.54,-1.22,-4.7,235,305,389,459,339,21
229,0.17,0.75,0.65,0.31,-4.09,-7.08,233,307,392,462,337,21
230,0.18,0.74,0.65,0.92,-5.07,-2.14,233,306,389,455,339,21
231,0.17,0.75,0.65,-2.75,-3.78,-0.92,232,307,386,460,341,21
232,0.18,0.75,0.65,0.12,0.92,-2.32,233,305,390,456,340,21
233,0.17,0.76,0.66,1.59,-1.4,-5.31,231,306,391,458,339,21
234,0.16,0.75,0.66,-0.31,-3.23,-1.77,231,306,388,462,339,21
235,0.17,0.76,0.66,0.79,-2.62,-3.97,233,308,388,455,344,21
236,0.15,0.74,0.66,-1.1,-2.2,-3.17,232,308,390,460,338,21
237,0.16,0.74,0.66,1.34,-2.93,-1.95,234,309,390,455,342,21
238,0.16,0.76,0.65,2.32,-2.81,-2.32,233,308,390,455,338,21
239,0.16,0.75,0.65,0.18,-3.72,-3.78,233,306,388,459,339,21
240,0.14,0.77,0.65,-0.55,-5.62,2.26,231,307,387,466,340,21
241,0.17,0.76,0.65,1.34,-2.32,-4.03,234,311,388,459,339,21
242,0.18,0.75,0.65,0.37,-2.56,-4.27,234,310,390,454,340,21
243,0.16,0.77,0.65,-1.34,1.28,-4.39,235,308,387,462,342,21
244,0.15,0.75,0.66,0.98,-4.15,-2.87,235,306,389,455,337,21
245,0.16,0.75,0.65,0.85,-3.17,-3.6,234,306,389,459,337,21
246,0.15,0.72,0.65,1.16,-5.49,-3.91,231,306,386,459,338,21
247,0.14,0.74,0.65,-0.61,-2.5,-3.54,235,312,388,460,342,21
248,0.16,0.75,0.67,-2.56,-3.42,-4.33,234,305,389,458,338,21
249,0.13,0.74,0.66,-1.04,-0.06,-3.97,234,308,387,458,335,21
250,0.13,0.74,0.66,2.38,-3.6,-1.95,236,308,388,459,341,21
251,0.15,0.75,0.66,2.87,-3.36,-2.26,233,307,389,460,336,21
252,0.13,0.75,0.65,-0.24,-2.62,-2.26,232,306,390,458,341,21
253,0.13,0.74,0.65,-1.46,-4.64,1.59,233,307,390,459,339,21
254,0.15,0.72,0.67,-2.32,-2.38,-0.24,242,305,390,461,338,21
255,0.14,0.75,0.66,-0.49,-0.98,-3.6,232,306,383,462,339,21
256,0.14,0.75,0.67,0.73,-2.26,-1.22,233,310,387,458,341,21
257,0.14,0.75,0.66,0.85,-2.32,-3.42,235,309,386,459,341,21
258,0.12,0.75,0.67,-0.55,-2.75,-0.79,230,305,389,453,338,21
259,0.13,0.75,0.66,1.77,-3.17,-0.31,231,304,387,454,337,21
260,0.11,0.75,0.66,1.34,0.0,-6.41,233,302,390,457,339,21
261,0.12,0.75,0.65,-0.12,-3.17,-1.34,234,306,389,463,335,21
262,0.1,0.74,0.66,-0.79,-2.81,-2.2,230,308,388,461,339,21
263,0.13,0.75,0.66,0.55,-3.23,-0.85,231,307,387,456,339,21
264,0.14,0.74,0.65,1.95,-3.17,-3.17,234,310,389,460,342,21
265,0.13,0.74,0.66,0.55,-2.81,-3.85,232,307,388,459,341,21
266,0.13,0.75,0.66,1.1,-2.62,-3.3,234,309,388,458,342,21
267,0.12,0.75,0.66,-0.12,-4.64,-3.11,232,306,389,460,339,21
268,0.19,0.74,0.63,1.4,-3.3,0.67,233,309,382,459,339,21
269,0.21,0.74,0.64,-0.06,-2.38,-6.16,233,307,392,461,337,21
270,0.19,0.76,0.64,1.22,-5.19,-0.79,235,308,388,471,340,21
271,0.22,0.74,0.64,1.71,-3.78,-1.46,234,307,389,463,340,21
272,0.2,0.74,0.64,0.79,-3.3,-2.26,234,307,388,468,342,21
273,0.2,0.74,0.63,-2.62,2.44,-10.62,230,308,383,459,341,21
274,0.17,0.75,0.65,0.0,5.37,-12.51,231,305,388,459,340,21
275,0.14,0.74,0.65,-1.59,-1.1,-5.86,233,307,392,463,340,21
276,0.11,0.74,0.66,1.1,-3.11,-2.93,232,308,389,459,339,21
277,0.12,0.75,0.66,-0.73,-2.14,-1.28,230,308,385,463,338,21
278,0.11,0.72,0.66,-1.34,-6.77,2.44,232,309,387,464,342,21
279,0.13,0.76,0.66,1.28,-1.04,-4.46,232,322,388,463,341,21
280,0.11,0.77,0.65,-1.22,-2.5,-3.85,232,308,387,460,337,21
281,0.09,0.74,0.66,-1.4,-2.08,-2.69,234,309,388,457,341,21
282,0.08,0.75,0.66,0.12,-2.5,-3.66,237,316,389,455,339,21
283,0.1,0.75,0.65,0.85,-1.16,-2.01,232,307,388,461,340,21
284,0.11,0.75,0.68,1.71,4.94,-15.81,232,310,390,460,341,21
285,0.07,0.75,0.65,1.4,-1.83,-2.44,233,309,390,461,340,21
286,0.07,0.75,0.65,1.71,-2.32,-1.65,233,306,384,454,340,21
287,0.07,0.76,0.66,-0.18,-4.33,-2.5,235,312,385,459,340,21
288,0.09,0.75,0.66,0.67,-2.99,-2.62,234,315,388,463,339,21
289,0.07,0.74,0.65,2.08,-3.6,-2.14,232,308,388,459,338,21
290,0.1,0.76,0.65,0.85,-2.14,-1.53,234,308,387,464,337,21
291,0.1,0.76,0.66,0.85,-3.91,-2.99,232,307,388,459,339,21
292,0.08,0.76,0.65,1.1,-3.05,-1.34,231,306,387,460,340,21
293,0.09,0.77,0.65,1.28,-3.3,-1.83,235,308,388,457,339,21
294,0.1,0.75,0.66,0.67,-2.44,-2.99,234,312,393,456,340,21
295,0.1,0.78,0.66,1.59,-1.77,-3.05,231,306,388,455,338,21
296,0.1,0.77,0.65,1.1,-4.03,-2.08,232,304,389,461,342,21
297,0.08,0.75,0.65,-0.92,-2.56,-2.32,234,308,391,463,343,21
298,0.08,0.76,0.66,0.24,-2.62,-1.77,235,309,386,458,335,21
299,0.09,0.75,0.65,1.34,-3.97,-0.67,235,310,389,461,338,21
300,0.08,0.75,0.65,-0.61,-4.15,-3.85,234,310,387,455,341,21
301,0.09,0.76,0.67,0.67,-2.44,-2.38,235,309,396,461,341,21
302,0.06,0.84,0.7,5.13,-0.37,-1.28,233,309,388,456,337,21
303,0.07,0.83,0.68,-3.23,-6.84,0.85,231,307,389,469,342,21
304,0.12,0.77,0.66,-2.2,0.18,-3.97,232,308,389,463,339,21
305,0.09,0.76,0.65,1.04,-2.69,-2.01,233,316,391,463,338,21
306,0.08,0.75,0.65,0.12,-0.98,-4.94,233,309,387,455,339,21
307,0.08,0.75,0.63,-1.59,-0.61,-1.65,234,309,388,464,341,21
308,-0.02,0.93,0.77,0.12,-16.36,17.03,234,307,383,462,338,21
309,0.19,0.8,0.71,1.83,-11.17,-1.34,232,308,387,461,341,21
310,0.02,0.71,0.66,-6.77,4.64,-5.31,230,316,384,460,340,21
311,0.1,0.87,0.8,4.7,-18.13,-6.16,232,309,386,454,337,21
312,0.16,0.74,0.72,3.3,-11.66,20.02,235,303,388,459,341,21
313,0.06,0.9,0.82,18.31,-11.6,5.25,234,314,382,460,342,21
314,0.13,0.77,0.69,2.75,-3.72,6.23,233,315,386,460,339,21
315,0.1,0.76,0.71,-0.31,-1.95,-1.77,233,307,382,464,340,21
316,0.17,0.71,0.66,-0.12,-7.39,3.17,234,306,384,460,338,21
317,0.15,0.74,0.69,0.0,-0.98,-6.35,236,307,382,460,341,21
318,0.14,0.72,0.68,-1.65,-4.21,-1.46,232,304,383,458,340,21
319,0.26,0.53,0.38,-29.42,-14.47,-21.3,235,305,388,464,337,21
320,0.19,0.84,0.74,-4.94,35.58,-24.84,236,306,390,456,337,21
321,0.11,0.91,0.87,-0.85,9.09,-12.02,234,306,386,460,338,21
322,0.04,0.76,0.76,1.89,3.85,-20.81,234,308,387,456,340,21
323,0.05,0.69,0.7,5.62,-5.86,-8.91,233,309,384,458,338,21
324,0.02,0.76,0.77,-9.52,13.0,-17.03,235,310,387,460,338,21
325,-0.07,0.87,0.9,-12.21,7.87,-6.59,233,308,388,460,339,21
326,-0.04,0.63,0.79,8.3,-11.23,11.05,235,304,394,465,335,21
327,-0.03,0.65,0.72,-0.98,0.67,-9.22,236,308,389,461,341,21
328,-0.0,0.76,0.75,3.54,0.18,0.24,234,318,391,462,337,21
329,-0.0,0.73,0.67,-1.4,-2.26,-5.37,234,308,387,461,338,21
330,-0.0,0.74,0.7,-1.53,-1.46,-6.9,237,308,388,466,341,21
331,0.02,0.74,0.73,3.42,-4.88,-2.93,259,304,387,461,338,21
332,0.02,0.76,0.72,-2.75,3.78,-8.0,234,311,388,461,339,21
333,0.02,0.69,0.69,3.48,-8.0,3.91,238,308,390,463,337,21
334,0.03,0.67,0.68,1.95,-5.25,-0.98,233,304,385,463,338,21
335,-0.01,0.76,0.73,0.55,-0.06,-4.64,234,306,390,461,341,21
336,0.04,0.72,0.72,6.29,-4.76,-0.18,237,308,385,460,335,21
337,0.02,0.78,0.74,4.39,0.37,-5.31,231,307,388,459,340,21
338,-0.01,0.71,0.72,2.08,-5.62,-0.06,236,307,387,462,339,21
339,0.06,0.76,0.72,2.93,-0.37,-7.63,233,306,389,460,337,21
340,0.01,0.71,0.67,3.54,-4.94,-14.53,234,309,386,464,339,21
341,0.04,0.73,0.7,-0.73,-6.04,-4.33,235,309,386,460,341,21
342,-0.05,0.73,0.69,5.13,11.72,4.21,234,306,386,460,339,21
343,0.02,0.74,0.67,5.0,-12.33,-0.31,235,304,390,460,336,21
344,0.03,0.74,0.7,-2.93,-2.5,-2.08,233,304,386,464,339,21
345,0.01,0.75,0.7,-1.83,-4.15,0.73,234,307,387,465,339,21
346,0.05,0.74,0.7,1.16,-4.39,-2.56,232,307,387,461,340,21
347,0.03,0.72,0.7,0.0,-6.77,-3.36,233,306,388,466,343,21
348,0.07,0.71,0.69,1.65,-3.05,-3.91,233,303,385,461,341,21
349,0.09,0.77,0.7,2.32,-4.82,-1.59,236,312,386,462,339,21
350,-0.02,0.68,0.67,2.38,-16.05,0.85,234,308,389,466,339,21
351,0.12,0.71,0.59,4.58,-20.14,16.05,235,306,386,462,341,21
352,0.12,0.8,0.68,2.26,-1.77,-2.14,222,310,390,461,331,21
353,0.07,0.79,0.64,4.21,-4.21,1.59,231,301,388,462,334,21
354,0.13,0.8,0.64,-2.26,-0.06,-3.3,236,304,389,458,336,21
355,0.15,0.77,0.65,0.85,-3.3,-4.33,233,306,387,461,334,21
356,0.11,0.75,0.65,0.24,-0.55,-0.61,229,311,388,461,336,21
357,0.13,0.75,0.64,1.83,-2.2,-2.93,233,307,389,464,332,21
358,0.15,0.76,0.64,0.24,-3.48,-1.65,238,305,391,464,337,21
359,0.13,0.79,0.64,0.61,-3.36,-1.95,234,306,388,460,335,21
360,0.17,0.75,0.62,3.97,-5.31,-4.58,234,305,387,456,334,21
361,0.13,0.78,0.66,2.26,-1.53,-4.46,231,305,390,461,337,21
362,0.08,0.73,0.65,-0.79,-7.45,-0.18,233,305,390,465,332,21
363,0.12,0.76,0.65,3.36,-8.48,1.77,231,307,387,460,334,21
364,0.09,0.75,0.66,1.53,-2.44,-2.69,230,306,385,461,332,21
365,0.1,0.74,0.64,0.12,-1.4,-2.69,233,305,388,466,336,21
366,0.07,0.75,0.67,2.99,4.88,-6.16,232,305,387,471,338,21
367,0.04,0.76,0.64,4.15,-5.13,-1.83,233,306,391,455,335,21
368,0.09,0.78,0.65,1.4,-2.62,0.43,235,307,388,460,336,21
369,0.09,0.76,0.64,-0.85,-1.53,-7.51,233,308,388,460,337,21
370,0.1,0.77,0.64,-1.04,-2.69,-1.16,231,302,387,460,337,21
371,0.1,0.77,0.63,1.1,-3.36,-2.81,225,305,390,464,332,21
372,0.11,0.77,0.64,1.83,-2.01,-3.72,236,305,388,465,332,21
373,0.1,0.78,0.65,-0.79,-0.85,-3.54,233,307,388,464,336,21
374,0.09,0.76,0.64,0.24,-3.85,-1.89,233,305,386,465,336,21
375,0.1,0.77,0.64,1.16,-3.91,-1.1,231,306,390,461,337,21
376,0.11,0.79,0.63,1.59,-2.99,-1.65,232,305,387,461,336,21
377,0.09,0.78,0.65,2.38,-4.09,-1.89,234,303,387,464,336,21
378,0.1,0.77,0.64,-0.24,-2.2,-2.5,232,307,387,461,337,21
379,0.1,0.77,0.63,0.18,-4.15,-0.31,234,308,389,463,335,21
380,0.1,0.78,0.64,0.31,-3.17,-2.69,232,305,388,461,345,21
381,0.09,0.77,0.64,0.24,-2.81,-2.93,224,305,390,456,336,21
382,0.13,0.75,0.66,0.37,-1.53,-2.44,233,303,387,460,338,21
383,0.06,0.77,0.63,-1.4,-0.92,2.26,233,305,389,461,336,21
384,0.11,0.78,0.64,0.12,-3.6,-3.6,233,306,389,460,337,21
385,0.09,0.77,0.64,0.24,-3.23,-3.42,235,307,389,463,336,21
386,0.09,0.78,0.65,0.06,-3.05,-2.5,272,306,390,465,337,21
387,0.1,0.77,0.64,1.22,-2.75,-3.72,234,303,387,455,336,21
388,0.09,0.77,0.64,1.95,-3.11,-3.17,235,308,389,460,337,21
389,0.02,0.76,0.65,-10.93,9.95,-5.07,233,305,392,455,341,21
390,-0.01,0.8,0.64,-1.16,0.12,-8.79,231,307,394,460,326,21
391,0.06,0.78,0.63,0.37,-5.86,3.36,230,304,399,459,325,21
392,0.11,0.78,0.62,0.79,-7.2,0.98,231,306,396,456,327,21
393,0.12,0.79,0.62,0.67,-3.17,-2.69,231,308,400,460,327,21
394,0.1,0.78,0.61,0.37,-2.08,-2.99,232,306,401,463,328,21
395,0.11,0.78,0.61,6.53,-5.98,-6.84,231,308,392,458,333,21
396,0.1,0.78,0.61,-0.61,-2.26,-3.42,231,303,391,461,332,21
397,0.1,0.78,0.61,0.06,-3.66,-3.05,228,307,393,459,330,21
398,0.12,0.76,0.58,4.76,-1.46,-0.55,232,306,393,460,327,21
399,0.12,0.75,0.54,-2.14,3.11,-1.77,229,307,394,462,330,21
400,-0.03,0.79,0.64,4.39,-7.57,12.51,234,305,393,465,332,21
401,0.11,0.73,0.61,8.67,-23.62,19.53,248,306,392,461,332,21
402,0.01,0.82,0.65,-1.04,2.69,-11.6,233,306,392,456,334,21
403,-0.0,0.76,0.64,0.67,-2.75,-2.38,235,307,392,460,330,21
404,-0.06,0.8,0.65,1.53,-1.04,-12.82,233,306,394,463,331,21
405,-0.04,0.77,0.64,2.14,-6.77,0.73,235,305,389,459,332,21
406,-0.04,0.76,0.62,1.04,-5.86,-1.34,235,305,392,456,332,21
407,-0.07,0.78,0.64,4.52,-7.87,1.71,234,307,390,458,337,21
408,-0.02,0.81,0.63,3.23,-5.55,-4.52,234,305,393,460,335,21
409,0.0,0.8,0.62,-0.12,-0.61,-1.28,233,306,393,460,332,21
410,-0.01,0.79,0.62,0.61,-4.82,-2.44,231,306,394,463,336,21
411,-0.0,0.78,0.61,-0.37,-2.75,-3.72,250,305,389,456,336,21
412,-0.02,0.78,0.62,0.67,-2.87,-2.56,233,307,394,462,338,21
413,0.01,0.8,0.62,0.06,-2.5,-2.44,235,307,391,460,335,21
414,-0.0,0.8,0.62,-0.06,-1.77,-4.21,231,302,390,463,336,21
415,0.01,0.79,0.61,-0.06,0.61,-3.11,235,305,389,455,335,21
416,-0.01,0.8,0.63,4.39,-12.27,13.73,262,308,390,463,335,21
417,0.07,0.78,0.62,-0.37,-2.08,-3.97,233,306,392,458,336,21
418,0.08,0.81,0.63,-2.69,0.43,-8.91,237,308,390,462,336,21
419,0.03,0.78,0.65,-4.33,-4.82,3.48,238,306,391,460,336,21
420,0.05,0.77,0.63,-0.49,1.1,-6.16,233,309,387,455,335,21
421,0.04,0.77,0.63,0.12,7.14,-11.9,231,307,392,462,337,21
422,-0.02,0.77,0.65,0.55,-4.39,7.14,235,308,385,461,337,21
423,-0.01,0.78,0.65,-0.37,-5.0,2.2,234,307,388,456,338,21
424,0.06,0.79,0.65,1.34,-6.29,-1.46,235,306,391,462,337,21
425,0.01,0.79,0.63,3.05,-2.5,-5.68,232,311,388,461,338,21
426,0.09,0.78,0.65,0.18,-11.84,-2.56,236,309,390,459,338,21
427,0.06,0.78,0.64,2.01,-2.32,-1.16,236,308,390,458,338,21
428,0.08,0.78,0.63,1.4,-5.8,-2.2,237,307,389,465,334,21
429,0.05,0.76,0.62,-3.11,1.34,3.17,234,319,390,469,336,21
430,0.05,0.77,0.64,0.92,-3.48,-2.75,236,312,390,462,337,21
431,0.07,0.77,0.63,-0.43,-5.13,-0.49,243,313,391,465,338,21
432,0.08,0.77,0.65,3.3,-1.77,-4.7,235,309,392,459,337,21
433,0.03,0.77,0.62,-0.43,-2.56,-0.06,236,308,389,459,336,21
434,0.07,0.78,0.64,4.33,-5.86,-2.38,236,308,390,460,336,21
435,0.09,0.82,0.63,0.18,-4.09,1.65,239,309,393,464,337,21
436,0.09,0.77,0.62,-0.18,-1.1,-2.75,273,314,390,467,336,21
437,0.11,0.79,0.63,0.98,-9.52,3.48,239,308,390,461,338,21
438,0.1,0.77,0.6,1.71,-7.08,0.85,239,308,392,465,335,21
439,0.15,0.8,0.62,0.92,-4.82,0.92,238,303,392,464,337,21
440,0.14,0.8,0.61,-1.59,-2.08,-5.07,238,306,395,461,335,21
441,0.1,0.78,0.62,-4.94,6.53,-9.22,232,308,391,466,340,21
442,0.04,0.77,0.62,-0.73,-1.28,-7.45,238,307,392,461,337,21
443,0.07,0.81,0.66,2.01,-8.42,-2.75,239,306,386,462,337,21
444,0.07,0.78,0.63,1.22,-3.17,-2.38,238,309,388,456,336,21
445,0.07,0.79,0.63,0.92,-3.23,-1.89,238,309,390,465,339,21
446,0.08,0.77,0.62,-0.85,-3.72,-2.5,236,310,386,462,345,21
447,0.09,0.77,0.62,-0.85,-2.2,-4.39,237,306,391,464,337,21
448,0.06,0.77,0.63,0.31,-1.65,4.03,240,304,389,460,333,21
449,0.07,0.8,0.62,6.53,0.06,-10.74,237,309,389,461,337,21
450,0.06,0.77,0.57,0.0,-2.32,-2.08,239,311,390,466,338,21
451,0.09,0.79,0.61,1.34,-7.2,-1.1,238,308,389,465,340,21
452,0.03,0.8,0.62,-1.1,0.49,-3.91,236,307,388,465,338,21
453,0.05,0.78,0.61,-1.59,-3.48,-1.1,241,307,390,456,341,21
454,0.07,0.8,0.62,0.73,-1.53,-0.49,236,305,389,465,338,21
455,0.03,0.77,0.62,-1.16,-3.17,-3.48,237,307,384,466,342,21
456,0.06,0.79,0.62,-1.16,-4.09,-2.26,236,309,393,462,338,21
457,0.07,0.78,0.65,1.34,-6.04,-1.53,239,309,392,461,339,21
458,0.04,0.83,0.61,1.59,-10.19,7.39,237,308,390,461,337,21
459,0.08,0.73,0.58,-2.69,-2.2,-13.06,237,309,391,465,339,21
460,0.09,0.83,0.63,-0.79,-5.98,4.76,236,312,387,460,339,21
461,0.07,0.76,0.64,-1.89,1.46,-10.01,240,310,388,457,340,21
462,0.05,0.79,0.65,3.11,3.3,-12.39,237,309,387,458,338,21
463,0.08,0.79,0.68,-2.38,-4.09,1.71,237,321,391,457,339,21
464,0.12,0.74,0.69,-12.76,6.29,-0.55,237,308,390,465,339,21
465,0.12,0.81,0.64,-6.16,-6.16,-0.24,237,310,388,463,340,21
466,0.26,0.64,0.66,-15.81,-16.05,-2.87,237,309,390,457,339,21
467,0.07,0.67,0.75,3.91,4.7,6.59,237,312,385,461,338,21
468,0.12,0.64,0.71,4.46,-6.23,-5.74,240,311,391,465,340,21
469,0.1,0.68,0.68,6.35,-1.59,-2.56,240,310,395,462,340,21
470,0.14,0.73,0.76,0.79,-6.29,-8.42,240,310,387,464,341,21
471,0.12,0.72,0.72,2.81,-2.93,1.65,237,309,391,461,339,21
472,0.17,0.71,0.68,2.5,-11.35,0.73,242,305,388,461,337,21
473,0.14,0.66,0.7,0.92,-1.34,-11.11,239,309,390,463,337,21
474,0.09,0.75,0.71,2.08,-2.81,1.04,240,311,390,468,339,21
475,0.09,0.75,0.7,-0.79,-2.5,-6.35,241,311,388,466,341,21
476,0.1,0.74,0.7,1.53,-4.09,-1.71,234,308,392,462,335,21
477,0.12,0.72,0.69,0.18,-4.27,-1.95,238,311,387,461,337,21
478,0.12,0.74,0.7,1.04,2.26,-5.62,240,309,387,463,339,21
479,0.15,0.72,0.68,1.71,-13.49,-0.43,240,309,389,462,340,21
480,0.13,0.71,0.66,0.0,2.08,-3.66,238,311,391,457,341,21
481,0.12,0.7,0.67,0.06,-6.65,-0.55,239,310,389,466,338,21
482,0.14,0.73,0.68,1.22,-3.36,5.0,238,311,388,463,340,21
483,0.14,0.75,0.69,1.22,-3.42,-2.81,241,312,390,463,334,21
484,0.12,0.7,0.66,0.24,0.12,-1.89,247,312,386,462,338,21
485,0.13,0.81,0.7,2.44,0.73,-4.39,238,312,388,461,337,21
486,0.1,0.72,0.64,1.28,-3.3,-1.28,247,306,389,460,335,21
487,0.11,0.76,0.65,-0.79,-5.19,-5.74,241,309,391,464,338,21
488,0.11,0.77,0.67,-1.59,-3.6,-2.2,239,307,390,466,340,21
489,0.11,0.71,0.66,-0.43,-3.91,-4.21,239,309,388,460,339,21
490,0.19,0.75,0.68,4.21,0.06,-4.94,239,312,385,465,337,21
491,0.05,0.75,0.73,8.06,-5.43,-0.31,239,318,386,465,337,21
492,0.12,0.76,0.66,2.62,-0.06,0.61,240,313,402,464,335,21
493,0.03,0.73,0.66,-1.1,-3.85,1.53,242,313,389,462,342,21
494,0.13,0.75,0.67,0.61,-5.98,1.28,238,316,390,461,340,21
495,0.1,0.72,0.65,3.36,-0.79,-2.62,243,320,389,466,342,21
496,0.1,0.75,0.66,0.37,-3.3,-5.37,241,311,388,462,336,21
497,0.14,0.75,0.58,-0.55,-13.85,-1.77,237,312,387,462,342,21
498,0.09,0.73,0.64,-2.2,-12.39,-6.23,242,315,385,465,339,21
499,0.05,0.68,0.57,-19.1,-23.93,6.1,240,311,391,462,342,21
500,0.1,0.76,0.7,6.1,-2.75,-4.15,241,311,387,463,338,21
501,0.05,0.73,0.64,-12.57,7.26,-3.97,239,314,387,462,340,21
502,0.14,0.81,0.76,4.94,-7.39,-6.1,242,313,389,460,340,21
503,0.1,0.87,0.78,6.1,49.32,-54.63,244,311,389,464,342,21
504,0.15,0.78,0.72,2.62,-12.82,-18.01,243,309,384,466,336,21
505,0.1,0.8,0.65,0.24,-7.45,-4.33,242,310,387,463,340,21
506,0.32,0.87,0.38,5.62,0.55,-12.39,223,233,403,457,304,21
507,0.29,0.87,0.36,-2.14,-2.69,-1.89,228,235,403,458,307,21
508,0.32,0.86,0.37,-4.82,-6.04,-1.77,225,238,403,458,304,21
509,0.31,0.9,0.4,2.87,2.32,-3.23,226,234,407,455,311,21
510,0.29,0.87,0.37,-3.72,-6.1,-0.24,228,238,406,458,305,21
511,0.33,0.83,0.38,-3.23,-3.42,0.43,225,234,404,448,310,21
512,0.32,0.86,0.44,-1.46,0.92,-4.88,227,239,408,458,310,21
513,0.3,0.86,0.43,4.33,-2.38,-1.53,231,237,401,455,311,21
514,0.34,0.83,0.41,-2.26,-5.13,-1.95,232,235,403,450,310,21
515,0.32,0.86,0.43,2.08,-3.6,-2.01,227,237,403,453,316,21
516,0.31,0.85,0.43,-1.77,-2.62,-1.1,229,232,407,453,311,21
517,0.34,0.84,0.42,-2.38,-1.95,-3.17,231,236,407,458,312,21
518,0.32,0.82,0.46,-4.76,-2.38,-4.94,233,237,413,458,312,21
519,0.32,0.86,0.45,2.87,3.48,-5.86,230,237,405,458,321,21
520,0.34,0.83,0.42,-2.87,-11.17,-4.03,230,236,408,463,314,21
521,0.32,0.84,0.45,1.89,-6.84,-2.5,235,237,406,455,312,21
522,0.3,0.85,0.41,5.43,-2.56,-2.44,229,234,405,458,310,21
523,0.33,0.87,0.43,-1.22,-2.81,-2.08,234,243,401,458,313,21
524,0.33,0.85,0.42,-0.12,-1.77,-2.08,233,234,406,461,315,21
525,0.35,0.85,0.44,3.42,-4.7,-2.38,232,239,404,459,313,21
526,0.32,0.85,0.41,3.3,-0.73,-0.18,230,240,417,453,312,21
527,0.34,0.85,0.41,3.66,-0.67,1.16,236,239,405,462,312,21
528,0.32,0.85,0.43,0.49,-4.76,-6.29,230,241,403,462,310,21
529,0.32,0.9,0.4,7.69,3.17,-6.1,234,236,407,457,314,21
530,0.32,0.9,0.38,-1.22,-7.93,-6.29,227,243,405,458,308,21
531,0.31,0.89,0.39,-1.16,2.44,-0.73,238,238,406,459,314,21
532,0.3,0.87,0.4,-4.76,-2.5,0.79,234,240,405,456,313,21
533,0.3,0.86,0.42,-1.77,1.04,3.05,233,238,406,453,315,21
534,0.37,0.83,0.42,0.37,-7.63,-0.24,239,242,405,455,310,21
535,0.36,0.85,0.42,7.39,0.73,3.11,260,240,403,461,314,21
536,0.39,0.85,0.42,-1.53,-2.01,-4.46,236,238,406,463,317,21
537,0.38,0.82,0.42,2.32,-2.2,-2.14,239,238,405,461,313,21
538,0.38,0.81,0.44,-3.72,-6.71,-3.05,265,239,417,457,316,21
539,0.39,0.81,0.43,0.37,-0.73,-1.83,237,241,402,456,317,21
540,0.41,0.83,0.44,7.51,1.28,-1.34,243,240,399,460,312,21
541,0.39,0.81,0.42,6.41,-0.67,-6.04,239,243,403,458,315,21
542,0.41,0.82,0.42,2.81,-2.75,-1.95,242,243,399,452,320,21
543,0.4,0.83,0.42,-2.5,-6.35,-5.68,241,233,402,459,317,21
544,0.37,0.83,0.43,-1.04,-4.39,-4.21,242,242,402,465,316,21
545,0.39,0.83,0.43,0.06,-3.91,-5.19,243,244,403,456,320,21
546,0.39,0.83,0.42,2.93,-0.55,-2.5,243,239,401,456,317,21
547,0.36,0.83,0.43,1.59,-3.3,-1.53,243,247,401,457,314,21
548,0.39,0.82,0.41,-2.38,-5.8,-1.71,241,241,398,459,317,21
549,0.4,0.83,0.43,-0.79,-1.1,-2.32,249,253,403,460,319,21
550,0.4,0.82,0.42,3.48,-1.65,-6.16,246,239,400,457,319,21
551,0.4,0.83,0.38,11.96,-5.07,0.37,247,242,402,458,313,21
552,0.39,0.84,0.38,-0.12,-2.2,-2.44,258,238,404,462,318,21
553,0.4,0.84,0.39,5.49,-0.73,-1.65,247,242,403,453,321,21
554,0.41,0.83,0.4,2.5,-4.64,-0.92,247,237,400,462,322,21
555,0.4,0.83,0.39,0.67,-3.97,-1.77,239,246,401,460,317,21
556,0.39,0.85,0.39,-0.43,-2.14,-2.01,248,240,404,459,320,21
557,0.4,0.85,0.4,0.92,-0.49,-1.1,249,245,401,454,323,21
558,0.4,0.84,0.39,0.55,3.17,-1.95,249,241,398,461,320,21
559,0.4,0.84,0.38,-2.38,-3.48,-3.78,248,247,401,462,322,21
560,0.4,0.84,0.39,1.89,-3.3,-3.54,255,248,401,458,322,21
561,0.38,0.86,0.38,0.18,-3.66,-2.69,250,244,405,450,319,21
562,0.36,0.86,0.38,0.73,-3.72,-8.36,249,247,399,455,319,21
563,0.35,0.87,0.38,3.66,0.43,-1.4,253,244,405,454,319,21
564,0.36,0.86,0.38,3.05,2.69,-2.26,248,243,409,459,321,21
565,0.36,0.87,0.38,-1.34,-3.05,-3.48,251,245,404,455,323,21
566,0.37,0.85,0.38,-0.98,-6.29,-2.87,248,250,400,461,322,21
567,0.37,0.87,0.37,0.79,-2.93,-2.99,247,243,402,458,315,21
568,0.37,0.87,0.37,-3.66,-5.07,-4.09,245,247,404,456,321,21
569,0.36,0.85,0.38,-2.69,-6.41,-1.95,253,244,407,459,316,21
570,0.36,0.84,0.36,-2.56,-3.11,-3.42,247,248,403,461,320,21
571,0.37,0.85,0.38,-5.25,-4.27,-3.91,262,244,401,453,325,21
572,0.38,0.82,0.37,-9.16,-4.58,-4.46,251,247,405,455,323,21
573,0.38,0.85,0.39,-2.69,-9.58,1.4,253,252,407,453,318,21
574,0.39,0.83,0.37,-3.54,-9.03,-1.4,254,242,405,459,324,21
575,0.42,0.86,0.37,-3.6,-4.03,-4.76,255,246,401,462,323,21
576,0.39,0.86,0.37,3.3,-5.07,-6.47,250,242,404,455,322,21
577,0.45,0.83,0.34,2.01,-3.11,-3.48,249,247,403,454,319,21
578,0.41,0.84,0.34,-0.79,9.16,6.59,252,247,404,458,323,21
579,0.43,0.85,0.36,7.51,5.98,3.78,256,251,404,458,325,21
580,0.4,0.88,0.39,11.35,8.3,-1.34,254,252,401,457,319,21
581,0.45,0.84,0.34,5.25,-5.62,-1.71,252,259,403,459,320,21
582,0.35,0.86,0.35,-3.42,-8.48,-5.55,251,246,403,458,318,21
583,0.4,0.85,0.34,-1.34,-8.0,-2.81,251,249,403,455,332,21
584,0.42,0.86,0.36,-3.85,-11.78,-5.8,252,245,400,462,318,21
585,0.41,0.83,0.37,-1.46,-1.4,-3.6,253,247,403,453,321,21
586,0.37,0.85,0.35,5.55,1.16,-0.31,253,248,404,456,320,21
587,0.4,0.83,0.37,-0.61,-7.81,-3.91,253,249,407,459,320,21
588,0.39,0.85,0.36,-1.34,-6.59,-3.11,254,243,398,458,322,21
589,0.39,0.84,0.37,-2.69,-8.24,-2.26,258,244,402,458,322,21
590,0.4,0.84,0.35,0.85,0.85,-2.93,250,247,399,460,316,21
591,0.4,0.85,0.35,1.28,-1.53,-3.78,258,244,403,460,324,21
592,0.38,0.85,0.35,0.79,0.31,-1.95,256,256,405,457,324,21
593,0.37,0.86,0.35,-0.67,-3.85,-2.5,255,250,399,461,321,21
594,0.38,0.86,0.35,1.95,-1.16,-1.22,257,248,402,457,323,21
595,0.38,0.86,0.34,1.1,-0.67,-1.65,254,248,405,456,326,21
596,0.36,0.86,0.34,1.22,-4.27,-1.59,260,247,401,461,323,21
597,0.38,0.86,0.33,0.18,-6.04,-6.96,255,245,401,454,324,21
598,0.37,0.89,0.33,-1.89,-3.36,-2.56,257,251,398,458,325,21
599,0.35,0.88,0.35,1.28,-2.56,-2.14,255,252,408,460,323,21
600,0.34,0.88,0.34,3.11,-1.71,-1.46,256,248,401,456,325,21
601,0.38,0.86,0.33,1.53,-2.81,-1.28,256,241,402,462,326,21
602,0.37,0.87,0.34,-0.79,-3.66,-1.22,254,248,403,459,326,21
603,0.39,0.85,0.34,2.62,-2.14,-0.73,254,251,405,459,326,21
604,0.38,0.85,0.35,-2.08,-4.76,-1.89,253,249,403,457,321,21
605,0.39,0.85,0.36,2.99,-0.67,-1.34,257,251,402,458,317,21
606,0.4,0.86,0.34,1.65,0.18,-2.5,254,255,399,459,326,21
607,0.38,0.86,0.34,2.38,0.79,-1.89,258,248,404,459,321,21
608,0.37,0.86,0.33,2.56,-0.73,-2.38,257,251,402,452,324,21
609,0.38,0.86,0.33,3.42,-1.1,-3.42,257,249,404,463,322,21
610,0.37,0.88,0.32,1.1,-1.1,1.1,255,244,404,459,327,21
611,0.35,0.88,0.33,2.32,-1.59,-6.16,258,250,396,462,323,21
612,0.36,0.87,0.33,0.49,-4.76,0.06,253,249,397,457,321,21
613,0.37,0.85,0.3,0.73,-4.09,-1.59,254,243,402,452,326,21
614,0.4,0.84,0.29,-2.81,-10.93,-3.54,254,250,402,458,323,21
615,0.41,0.84,0.32,-1.65,-4.46,-2.2,255,249,404,458,324,21
616,0.39,0.84,0.35,-0.06,-2.87,-2.62,253,250,403,455,323,21
617,0.37,0.86,0.35,-3.17,-6.47,-2.38,255,252,400,454,329,21
618,0.4,0.85,0.35,0.55,-2.87,-1.34,253,253,402,463,322,21
619,0.38,0.86,0.39,-5.43,13.98,2.32,254,245,401,457,321,21
620,0.38,0.85,0.35,6.16,-0.31,-0.85,253,255,404,458,323,21
621,0.37,0.89,0.35,4.21,1.22,-1.53,257,252,405,455,319,21
622,0.33,0.8,0.32,-0.06,-6.35,-0.55,259,247,404,457,322,21
623,0.33,0.85,0.33,-7.69,0.67,-4.88,257,247,398,458,322,21
624,0.36,0.87,0.31,-0.18,-9.52,-7.87,260,249,403,458,324,21
625,0.34,0.86,0.34,-3.54,-10.19,-4.88,256,252,402,456,326,21
626,0.37,0.88,0.33,-2.93,0.98,-1.22,260,248,404,458,324,21
627,0.36,0.86,0.36,-0.12,-5.0,-2.62,257,250,400,457,324,21
628,0.36,0.85,0.35,-3.23,-2.5,-2.93,256,250,402,455,323,21
629,0.36,0.87,0.35,2.75,-3.66,-4.82,260,251,403,458,325,21
630,0.36,0.87,0.34,1.04,-2.38,-2.38,258,259,404,461,322,21
631,0.36,0.87,0.34,0.67,-0.98,-2.5,254,251,403,456,320,21
632,0.37,0.88,0.35,1.95,-0.98,-3.3,259,249,400,457,321,21
633,0.37,0.87,0.36,-0.18,-4.15,-2.01,256,249,406,454,322,21
634,0.36,0.85,0.35,-1.59,-2.87,-3.3,259,248,403,456,324,21
635,0.35,0.86,0.36,1.4,-3.91,0.06,247,247,401,460,329,21
636,0.37,0.84,0.33,-0.24,-0.73,-5.0,254,250,401,461,325,21
637,0.38,0.84,0.36,-0.85,-3.23,-3.17,265,252,403,460,325,21
638,0.36,0.88,0.38,1.83,-2.81,-3.17,254,252,397,455,323,21
639,0.36,0.91,0.36,2.08,5.13,-2.5,259,248,402,451,326,21
640,0.36,0.84,0.36,-5.74,-9.22,-6.53,257,254,401,454,324,21
641,0.34,0.85,0.35,2.2,-6.23,-0.98,256,253,402,459,321,21
642,0.37,0.86,0.36,2.32,-1.77,-1.59,259,251,403,455,325,21
643,0.36,0.89,0.38,5.13,1.65,-3.91,261,247,402,452,325,21
644,0.36,0.83,0.35,6.16,1.22,-1.1,260,245,399,458,327,21
645,0.37,0.85,0.34,-1.4,-9.28,-4.82,259,250,402,457,323,21
646,0.34,0.89,0.38,-0.85,-5.68,-0.67,261,250,401,456,324,21
647,0.36,0.87,0.35,0.92,0.55,4.09,261,251,403,458,325,21
648,0.37,0.86,0.35,-4.58,-2.69,-2.01,259,244,396,460,326,21
649,0.39,0.85,0.33,-5.37,-9.58,-1.95,259,247,413,461,323,21
650,0.37,0.85,0.36,-9.34,-5.43,-1.16,259,246,395,460,325,21
651,0.31,0.86,0.39,1.83,-3.42,-0.98,264,248,400,457,326,21
652,0.36,0.86,0.36,0.49,1.22,-3.36,262,251,399,458,328,21
653,0.36,0.86,0.36,-1.59,-4.7,-2.14,261,242,400,462,324,21
654,0.38,0.85,0.35,-1.65,-7.08,-2.81,258,250,399,456,326,21
655,0.38,0.86,0.34,0.18,-1.53,-1.04,262,250,400,454,324,21
656,0.38,0.85,0.35,-0.98,-3.54,-2.93,265,253,399,456,326,21
657,0.38,0.85,0.34,-1.22,-3.48,-2.62,265,257,400,456,324,21
658,0.39,0.84,0.34,0.85,-2.44,-3.42,259,251,398,454,326,21
659,0.37,0.86,0.33,4.21,1.34,-2.38,257,258,402,456,321,21
660,0.37,0.87,0.34,1.22,-0.49,-2.93,264,254,396,457,326,21
661,0.36,0.87,0.35,-1.04,-4.21,-2.5,260,252,397,455,325,21
662,0.37,0.87,0.34,1.34,-3.48,-3.36,294,252,397,452,322,21
663,0.37,0.87,0.34,-0.98,-4.33,-1.71,267,249,398,455,326,21
664,0.38,0.87,0.33,1.65,0.37,-1.77,263,249,403,456,327,21
665,0.37,0.88,0.35,0.31,-4.52,-2.26,263,251,400,456,321,21
666,0.38,0.86,0.32,-1.95,-2.75,-2.26,264,254,397,454,324,21
667,0.37,0.88,0.35,-0.67,-4.03,-5.07,263,251,402,454,322,21
668,0.37,0.87,0.33,3.11,-1.34,-1.16,266,250,395,451,326,21
669,0.36,0.86,0.33,-0.61,-4.09,-2.2,263,248,396,456,323,21
670,0.35,0.87,0.31,4.15,-2.69,-1.1,262,251,398,455,322,21
671,0.35,0.86,0.32,-0.85,-1.1,-1.16,264,243,395,455,325,21
672,0.37,0.87,0.34,0.31,-1.4,-2.87,263,254,399,457,321,21
673,0.38,0.87,0.34,1.04,-5.07,-2.75,264,251,401,454,326,21
674,0.37,0.88,0.35,4.09,-4.09,-3.48,262,249,397,454,327,21
675,0.36,0.88,0.35,2.44,-4.09,-3.42,263,254,400,461,325,21
676,0.38,0.87,0.35,1.59,-4.33,-2.56,266,252,394,456,320,21
677,0.33,0.87,0.33,2.38,-2.69,-2.81,263,252,398,463,328,21
678,0.35,0.88,0.33,3.48,-2.01,-1.95,255,251,397,457,327,21
679,0.35,0.87,0.32,0.92,-3.85,-2.26,264,247,397,461,324,21
680,0.37,0.88,0.34,-0.18,-1.71,-3.6,265,250,393,456,327,21
681,0.35,0.88,0.33,0.92,-4.7,-1.83,261,250,398,465,325,21
682,0.36,0.88,0.32,2.81,-2.38,-1.4,256,248,396,456,328,21
683,0.37,0.86,0.31,0.85,-6.23,-3.11,264,251,395,448,323,21
684,0.38,0.87,0.32,0.92,-3.11,-2.75,260,250,392,458,319,21
685,0.35,0.89,0.35,-1.46,-1.71,-2.32,263,261,396,458,328,21
686,0.36,0.89,0.36,-8.42,-2.69,-2.81,279,249,395,454,326,21
687,0.35,0.86,0.33,6.65,-2.5,-2.69,262,251,398,458,327,21
688,0.38,0.88,0.33,-4.64,-1.83,-1.95,269,246,402,461,322,21
689,0.36,0.91,0.38,-2.14,-5.98,-1.95,265,252,401,460,332,21
690,0.37,0.86,0.35,10.44,0.79,-0.31,260,249,399,460,324,21
691,0.39,0.87,0.35,7.75,0.61,-1.95,263,250,396,458,324,21
692,0.37,0.86,0.34,-4.27,-0.43,-0.18,260,248,393,461,327,21
693,0.31,0.88,0.36,1.22,-3.11,-3.11,266,253,396,458,327,21
694,0.37,0.91,0.36,0.92,4.76,-0.85,265,244,401,456,325,21
695,0.41,0.82,0.36,-5.8,-14.4,-1.04,264,254,398,458,326,21
696,0.4,0.84,0.35,3.6,-2.01,-6.29,264,252,397,460,325,21
697,0.41,0.85,0.35,4.82,-3.78,-2.93,265,269,398,452,328,21
698,0.36,0.85,0.33,2.81,-2.81,-2.26,263,256,399,458,327,21
699,0.39,0.86,0.33,1.04,-5.0,-4.27,263,257,395,457,325,21
700,0.41,0.87,0.33,-0.43,-2.5,-3.6,263,256,396,455,326,21
701,0.4,0.86,0.33,0.06,-0.43,-2.56,262,249,397,456,324,21
702,0.39,0.87,0.36,-0.43,-2.81,-2.38,263,256,395,459,327,21
703,0.38,0.87,0.36,1.28,-0.73,-2.81,262,254,391,457,326,21
704,0.38,0.86,0.37,-0.67,-1.83,-1.65,265,245,391,459,326,21
705,0.37,0.87,0.36,2.87,0.24,-2.01,264,242,389,452,326,21
706,0.38,0.86,0.36,0.06,-2.56,-2.69,264,247,409,457,327,21
707,0.36,0.86,0.37,-1.1,-1.83,-2.99,263,253,397,457,328,21
708,0.38,0.86,0.37,-0.31,-3.23,-2.99,264,252,398,457,329,21
709,0.38,0.85,0.37,-0.79,-1.77,-2.01,266,254,397,462,326,21
710,0.38,0.85,0.37,1.71,-2.32,-2.38,263,253,398,462,324,21
711,0.35,0.85,0.36,3.36,0.67,-2.56,261,251,389,458,323,21
712,0.39,0.88,0.37,2.69,-5.74,-2.99,265,254,386,462,324,21
713,0.39,0.85,0.36,5.31,-3.3,-3.42,265,252,394,452,326,21
714,0.36,0.87,0.36,0.18,-1.95,-1.4,263,254,390,458,327,21
715,0.4,0.88,0.38,-3.17,-1.28,2.01,266,250,393,460,321,21
716,0.4,0.85,0.36,3.54,-0.37,-2.56,265,254,395,459,326,21
717,0.38,0.85,0.36,6.23,1.71,-4.27,265,254,392,456,329,21
718,0.38,0.88,0.36,-6.59,-7.87,-2.44,265,250,393,461,327,21
719,0.4,0.84,0.38,9.16,-0.43,-6.29,261,252,392,458,325,21
720,0.4,0.87,0.37,5.31,1.53,-3.54,270,252,395,460,328,21
721,0.35,0.87,0.35,-0.06,-7.26,-1.16,264,253,398,458,321,21
722,0.39,0.86,0.33,2.01,-2.69,-0.24,265,245,394,453,319,21
723,0.39,0.86,0.33,0.0,-5.92,-1.53,266,251,392,458,326,21
724,0.42,0.86,0.33,-0.31,-2.75,-2.2,268,252,400,453,324,21
725,0.41,0.88,0.36,1.16,-0.92,-0.85,266,252,389,457,325,21
726,0.41,0.86,0.37,-3.05,-4.27,-2.26,270,250,392,460,329,21
727,0.44,0.77,0.34,1.53,-9.52,-8.42,267,252,409,461,327,21
728,0.46,0.85,0.35,-3.85,0.92,-6.59,264,255,393,450,321,21
729,0.45,0.84,0.37,2.87,-2.2,-2.87,262,253,391,457,327,21
730,0.45,0.83,0.35,6.23,-3.6,-5.74,266,253,387,456,327,21
731,0.43,0.82,0.33,-3.42,-5.31,-4.82,269,255,390,469,326,21
732,0.42,0.83,0.34,-2.32,-2.81,-2.5,268,252,393,458,322,21
733,0.43,0.83,0.35,-2.32,-5.0,-2.5,277,248,396,460,328,21
734,0.43,0.84,0.36,-1.59,-2.62,-2.56,269,253,395,462,322,21
735,0.43,0.84,0.35,0.85,-3.11,-2.99,265,264,388,472,327,21
736,0.43,0.83,0.35,-0.24,-3.85,-2.26,267,253,392,456,326,21
737,0.43,0.84,0.35,1.04,-2.2,-2.62,269,257,393,459,327,21
738,0.43,0.84,0.35,1.1,-2.5,-2.32,270,252,393,456,327,21
739,0.43,0.84,0.35,1.4,-2.01,-3.17,268,245,394,457,332,21
740,0.45,0.84,0.34,1.83,-4.64,-3.17,266,260,397,455,325,21
741,0.45,0.83,0.35,3.17,-3.3,-4.27,269,251,392,459,326,21
742,0.38,0.85,0.34,-0.61,-3.72,-4.15,267,258,392,462,330,21
743,0.43,0.84,0.33,1.22,-1.59,-2.75,264,254,391,460,328,21
744,0.42,0.87,0.35,-1.95,-6.9,-2.14,268,254,392,457,326,21
745,0.44,0.84,0.34,-5.0,-3.11,-2.75,265,253,390,460,322,21
746,0.42,0.82,0.36,-4.64,-5.49,-7.51,264,255,389,457,326,21
747,0.43,0.91,0.37,1.16,-0.85,-1.71,265,253,394,453,326,21
748,0.46,0.85,0.32,5.68,3.6,-1.1,267,252,393,461,328,21
749,0.42,0.81,0.34,-4.7,-5.43,-9.58,277,245,391,451,324,21
750,0.36,0.86,0.35,0.18,-4.39,-3.36,267,255,391,457,326,21
751,0.37,0.85,0.34,0.37,0.79,-3.17,268,252,391,454,329,21
752,0.37,0.87,0.34,-2.08,-1.71,-2.75,269,253,397,461,327,21
753,0.38,0.86,0.35,-1.4,-3.85,-1.83,267,253,389,462,325,21
754,0.41,0.85,0.35,-0.55,-5.19,-3.66,268,257,392,458,331,21
755,0.39,0.85,0.34,-2.2,-3.36,-3.54,272,256,393,456,325,21
756,0.4,0.84,0.37,-2.5,-4.27,-1.4,270,255,399,457,328,21
757,0.4,0.83,0.38,-2.75,-2.32,-2.14,267,250,394,458,326,21
758,0.39,0.82,0.36,-0.98,0.31,-3.11,271,255,390,458,331,21
759,0.43,0.89,0.41,14.47,-1.1,-1.4,263,256,393,461,322,21
760,0.4,0.86,0.39,3.97,-1.77,-0.67,267,256,390,454,322,21
761,0.39,0.84,0.38,1.83,-0.85,-2.81,263,255,397,456,328,21
762,0.37,0.85,0.37,2.44,-1.34,-1.46,268,257,394,460,328,21
763,0.37,0.86,0.36,0.79,-4.39,-5.62,270,253,396,452,330,21
764,0.36,0.87,0.35,0.12,-4.39,-5.92,270,254,401,458,326,21
765,0.36,0.85,0.37,-1.77,-8.12,-3.17,270,256,399,457,326,21
766,0.34,0.86,0.35,-1.53,-7.08,-3.42,276,254,405,456,326,21
767,0.35,0.87,0.37,1.59,-2.14,-0.85,271,256,399,468,328,21
768,0.36,0.86,0.38,-1.04,-1.46,-1.83,271,257,401,461,322,21
769,0.33,0.88,0.38,-0.55,-3.23,-0.18,277,256,401,460,327,21
770,0.3,0.85,0.37,-3.54,-1.95,-1.28,272,256,401,456,326,21
771,0.4,0.85,0.37,-4.09,-9.52,-0.49,268,253,399,463,325,21
772,0.44,0.82,0.39,-7.45,-10.86,-3.85,273,257,397,461,328,21
773,0.33,0.81,0.41,10.74,7.39,-8.12,268,254,402,462,323,21
774,0.43,0.88,0.36,7.45,1.77,-7.63,272,249,401,463,324,21
775,0.34,0.85,0.3,-7.08,18.07,-14.16,269,249,398,460,325,21
776,0.31,0.86,0.37,1.77,6.35,2.26,269,254,403,455,324,21
777,0.29,0.88,0.38,-3.11,6.1,-14.4,272,256,399,452,324,21
778,0.21,0.95,0.4,3.72,-12.08,5.07,271,246,403,456,323,21
779,0.21,0.92,0.39,12.76,-12.51,6.9,273,255,398,453,321,21
780,0.3,0.92,0.31,10.99,-11.9,0.67,269,251,402,452,318,21
781,0.28,0.9,0.22,-8.0,-11.66,-0.37,275,255,395,454,324,21
782,0.36,0.94,0.21,-1.65,-18.07,1.16,273,257,403,459,323,21
783,0.29,0.9,0.28,-4.27,-3.78,-0.24,273,255,400,458,324,21
784,0.32,0.9,0.31,-1.22,-15.93,0.18,271,254,400,451,327,21
785,0.38,0.9,0.26,-5.13,4.03,3.66,274,258,398,457,323,21
786,0.42,0.85,0.34,-2.32,-4.94,0.0,270,250,406,457,324,21
787,0.34,0.85,0.33,4.94,4.82,-4.03,277,245,399,457,325,21
788,0.38,0.85,0.33,-1.46,-6.16,-2.56,275,260,400,456,325,21
789,0.38,0.84,0.33,-3.78,-5.98,-4.27,275,251,401,458,325,21
790,0.38,0.84,0.33,-0.92,-2.32,-3.54,275,254,398,457,323,21
791,0.36,0.88,0.35,1.71,-2.32,-1.59,277,254,399,455,327,21
792,0.39,0.86,0.33,-0.43,-4.64,-3.05,278,254,395,460,326,21
793,0.36,0.88,0.34,0.0,-2.87,-3.3,275,259,401,455,323,21
794,0.38,0.87,0.33,-0.55,-1.95,-2.75,276,255,402,451,325,21
795,0.35,0.88,0.35,2.87,-1.53,-2.2,275,254,396,457,331,21
796,0.37,0.88,0.35,1.83,-1.71,-1.77,277,251,389,455,328,21
797,0.37,0.88,0.34,5.62,-2.99,-2.62,279,252,401,466,329,21
798,0.4,0.88,0.33,0.18,-4.64,-4.33,279,253,399,455,326,21
799,0.37,0.88,0.33,-1.65,-5.49,-3.48,278,253,400,458,327,21
800,0.38,0.86,0.33,-2.87,-5.07,-4.03,292,253,397,455,329,21
801,0.37,0.86,0.33,-0.49,3.17,0.61,280,248,398,460,325,21
802,0.38,0.85,0.33,1.28,0.85,-0.49,280,255,397,456,328,21
803,0.38,0.87,0.35,1.71,-1.22,-0.92,282,258,397,459,333,21
804,0.39,0.85,0.34,1.46,-3.17,-2.5,282,257,400,461,323,21
805,0.38,0.87,0.35,1.22,-1.89,-2.26,278,260,398,452,337,21
806,0.39,0.86,0.34,-0.24,-2.99,-1.89,278,254,391,457,325,21
807,0.39,0.87,0.35,-0.31,-0.43,-2.93,280,255,396,452,325,21
808,0.39,0.85,0.33,0.61,-0.85,-1.4,281,254,398,451,328,21
809,0.4,0.84,0.35,-1.16,-4.52,-1.71,280,253,398,459,323,21
810,0.41,0.83,0.34,0.12,-1.71,-1.34,284,255,392,456,322,21
811,0.39,0.86,0.36,0.0,-3.23,-3.85,285,255,397,456,329,21
812,0.37,0.84,0.37,-3.85,5.43,-14.65,283,264,395,454,327,21
813,0.33,0.87,0.38,-0.18,-2.32,-6.84,284,257,399,456,328,21
814,0.35,0.87,0.37,2.08,-5.37,-0.67,285,251,409,456,326,21
815,0.35,0.87,0.37,0.92,-2.44,-1.83,285,254,397,452,327,21
816,0.35,0.87,0.35,1.4,-1.89,-1.89,286,256,398,454,329,21
817,0.34,0.88,0.36,1.1,-0.79,-3.3,286,260,398,457,328,21
818,0.34,0.87,0.36,-0.79,-4.58,-2.69,285,252,396,455,327,21
819,0.34,0.88,0.36,1.59,-2.69,-1.65,285,255,398,453,323,21
820,0.34,0.88,0.35,0.55,-3.3,-2.14,286,255,397,456,328,21
821,0.34,0.88,0.35,0.61,-2.81,-2.69,287,259,401,450,327,21
822,0.35,0.87,0.35,0.12,-3.17,-3.23,282,258,395,456,326,21
823,0.35,0.87,0.34,-0.37,-3.17,-2.2,282,257,399,454,337,21
824,0.36,0.87,0.34,0.06,-3.6,-3.17,287,256,396,456,328,21
825,0.35,0.87,0.34,0.0,-3.17,-1.83,287,253,398,460,326,21
826,0.35,0.87,0.35,1.1,-2.2,-2.99,286,256,397,454,326,21
827,0.36,0.86,0.34,0.18,-1.53,-2.01,288,253,397,457,331,21
828,0.34,0.88,0.35,1.53,-2.44,-3.6,283,259,405,456,321,21
829,0.34,0.87,0.35,1.89,-2.2,-2.14,287,255,398,459,329,21
830,0.34,0.88,0.35,0.0,-4.15,-1.77,282,254,396,457,323,21
831,0.36,0.87,0.35,-0.37,-4.64,-2.01,285,254,396,461,327,21
832,0.36,0.87,0.34,2.38,-2.56,-2.08,286,258,396,455,327,21
833,0.36,0.88,0.35,-0.31,-2.32,-3.97,287,256,393,453,328,21
834,0.36,0.87,0.35,-2.08,-1.95,-2.75,287,256,393,461,324,21
835,0.36,0.86,0.35,1.04,-2.56,-2.44,284,260,397,454,327,21
836,0.35,0.87,0.35,-0.67,-0.73,-2.62,289,255,400,457,325,21
837,0.35,0.87,0.35,0.24,-2.87,-2.87,285,257,400,458,330,21
838,0.35,0.87,0.36,0.79,-2.08,-2.32,281,255,396,460,323,21
839,0.34,0.87,0.35,0.43,-3.91,-2.56,285,257,397,459,325,21
840,0.37,0.87,0.34,0.0,-3.23,-3.05,287,255,402,457,321,21
841,0.36,0.87,0.35,-0.37,-4.33,-1.95,286,259,402,457,327,21
842,0.35,0.88,0.36,0.18,-3.11,-2.5,288,257,396,454,332,21
843,0.31,0.87,0.38,-0.67,-4.09,-3.23,284,256,397,463,326,21
844,0.33,0.86,0.37,-1.89,-3.42,-2.69,288,258,396,454,327,21
845,0.36,0.87,0.37,1.59,-1.04,-3.11,290,257,393,457,324,21
846,0.32,0.88,0.38,-0.37,-2.75,-2.14,286,249,394,458,328,21
847,0.35,0.86,0.37,2.56,-3.72,-2.93,287,256,397,458,326,21
848,0.3,0.9,0.4,-2.81,-5.74,-2.01,284,256,398,457,328,21
849,0.36,0.87,0.38,-0.24,-2.38,-4.46,287,254,397,451,330,21
850,0.35,0.87,0.37,3.05,-1.53,-1.77,287,257,396,457,330,21
851,0.34,0.86,0.37,-1.16,-3.3,-2.87,289,256,400,454,327,21
852,0.34,0.87,0.38,3.72,-0.67,-3.11,293,258,396,456,328,21
853,0.32,0.87,0.39,2.01,0.67,-2.44,286,253,393,458,328,21
854,0.32,0.87,0.38,2.2,-3.17,-2.26,284,253,396,456,326,21
855,0.32,0.87,0.37,0.43,-4.03,-2.56,287,255,395,453,328,21
856,0.33,0.88,0.4,2.5,-3.11,-2.62,285,256,400,460,326,21
857,0.34,0.86,0.37,-0.92,-3.72,-3.97,282,258,400,452,327,21
858,0.32,0.88,0.37,1.22,-3.6,-4.82,288,255,398,454,327,21
859,0.32,0.89,0.37,2.38,-5.8,-3.17,283,255,399,462,322,21
860,0.32,0.88,0.34,0.92,-2.5,-2.87,289,258,399,462,325,21
861,0.31,0.89,0.34,2.08,-3.72,-2.08,288,257,394,456,324,21
862,0.32,0.89,0.35,0.61,-3.3,-2.75,286,255,400,456,327,21
863,0.32,0.89,0.34,0.85,-1.83,-2.93,291,258,397,458,321,21
864,0.33,0.9,0.35,1.04,-2.32,-1.34,287,260,394,461,325,21
865,0.3,0.9,0.33,3.11,-11.47,-2.38,289,259,393,452,327,21
866,0.38,0.87,0.28,-0.18,-7.87,-2.62,287,257,395,457,328,21
867,0.36,0.88,0.3,-0.67,-3.05,-3.36,287,259,397,458,329,21
868,0.34,0.9,0.31,-1.71,-2.38,-2.99,284,254,395,458,327,21
869,0.34,0.89,0.32,0.92,-0.98,-0.92,286,257,395,456,329,21
870,0.36,0.88,0.32,-1.71,-2.99,-2.69,288,251,397,454,327,21
871,0.36,0.86,0.33,-1.83,-2.56,-1.77,291,254,395,457,325,21
872,0.36,0.87,0.32,0.37,-2.26,-2.26,291,258,394,458,329,21
873,0.36,0.87,0.35,-3.11,-1.16,-3.72,289,256,392,455,327,21
874,0.33,0.88,0.33,3.3,-2.81,-1.65,292,256,399,457,329,21
875,0.35,0.88,0.34,-2.5,-1.59,-2.93,288,259,394,457,327,21
876,0.34,0.88,0.33,1.53,-1.46,-1.77,290,258,398,458,326,21
877,0.35,0.88,0.34,-0.06,-3.66,-2.62,289,259,395,458,329,21
878,0.36,0.88,0.33,-2.69,-3.05,-1.89,287,263,404,454,330,21
879,0.37,0.88,0.33,-1.71,-1.83,-3.72,290,273,394,461,330,21
880,0.36,0.86,0.32,-0.12,-2.87,-1.28,288,255,396,455,327,21
881,0.34,0.87,0.33,1.95,-3.05,-3.05,290,258,395,460,326,21
882,0.34,0.87,0.34,2.38,-2.26,-3.11,286,257,398,458,326,21
883,0.35,0.87,0.33,-0.24,-0.43,-2.62,288,256,393,460,327,21
884,0.35,0.88,0.34,0.61,-2.26,-3.72,285,275,399,458,329,21
885,0.35,0.88,0.34,-0.43,-3.6,-3.11,285,257,397,463,328,21
886,0.35,0.87,0.34,-0.92,-3.23,-2.99,292,258,398,458,326,21
887,0.35,0.87,0.33,3.17,-2.93,-1.95,322,261,397,453,327,21
888,0.34,0.87,0.33,0.12,-2.44,-2.2,286,257,400,458,327,21
889,0.34,0.89,0.34,-0.49,-3.05,-3.3,290,258,394,457,327,21
890,0.35,0.87,0.34,-2.75,-5.19,-3.23,290,257,400,455,324,21
891,0.34,0.87,0.33,2.08,-2.32,-2.14,291,259,397,453,324,21
892,0.36,0.87,0.33,1.53,-1.22,-2.01,291,256,398,456,327,21
893,0.35,0.87,0.32,1.77,-1.04,-1.83,289,256,398,463,330,21
894,0.35,0.88,0.33,1.04,-3.66,-1.77,285,261,399,453,328,21
895,0.34,0.88,0.33,-0.37,-3.42,-2.5,291,259,396,461,322,21
896,0.34,0.88,0.33,-1.28,-4.03,-2.87,291,259,395,457,328,21
897,0.35,0.87,0.33,0.0,-4.27,-3.05,292,259,397,458,325,21
898,0.35,0.87,0.32,0.12,-2.75,-2.87,288,261,391,458,324,21
899,0.35,0.88,0.34,-0.12,-1.71,-2.2,289,258,396,454,327,21
900,0.34,0.88,0.33,0.61,-4.27,-2.81,295,252,396,460,330,21
901,0.35,0.87,0.33,0.67,-2.56,-2.26,286,256,394,455,329,21
902,0.35,0.88,0.33,1.65,-1.71,-2.99,289,258,402,457,329,21
903,0.34,0.88,0.33,1.46,-2.75,-2.14,300,259,391,459,324,21
904,0.33,0.88,0.33,0.73,-2.38,-2.14,288,257,398,457,326,21
905,0.35,0.88,0.31,-0.79,-3.42,-2.5,325,261,396,458,328,21
906,0.35,0.87,0.32,1.59,-3.36,-2.26,291,259,391,458,323,21
907,0.35,0.89,0.32,-0.24,-2.75,-2.32,291,261,396,463,331,21
908,0.36,0.88,0.33,-0.18,-3.54,-2.87,286,255,395,461,327,21
909,0.35,0.87,0.32,-0.73,-3.17,-2.26,287,259,400,457,328,21
910,0.36,0.87,0.32,1.83,-2.75,-3.36,288,256,396,455,325,21
911,0.35,0.89,0.32,1.71,-1.95,-2.32,290,255,397,457,326,21
912,0.35,0.89,0.33,0.55,-2.14,-3.36,288,258,397,453,331,21
913,0.34,0.88,0.31,-0.24,-3.72,-2.5,282,259,399,460,323,21
914,0.33,0.88,0.32,-0.43,-4.64,-2.26,286,258,391,460,328,21
915,0.34,0.88,0.32,-1.53,-4.64,-2.32,289,261,395,458,326,21
916,0.34,0.88,0.32,0.0,-4.76,-2.26,288,258,395,458,329,21
917,0.35,0.88,0.32,-1.16,-3.42,-3.11,288,258,399,460,323,21
918,0.34,0.88,0.32,2.2,-3.11,-2.2,290,253,401,461,328,21
919,0.35,0.87,0.34,-0.73,-0.18,-1.4,290,255,396,458,327,21
920,0.34,0.88,0.33,0.79,-1.53,-2.5,297,259,398,457,327,21
921,0.35,0.87,0.32,2.38,-1.22,-1.95,290,259,400,457,326,21
922,0.34,0.89,0.32,1.22,-2.56,-2.69,287,258,395,455,326,21
923,0.33,0.88,0.32,-0.06,-5.19,-1.1,291,253,397,470,327,21
924,0.35,0.87,0.32,3.85,-0.55,-4.21,290,257,391,466,326,21
925,0.35,0.88,0.31,0.06,-2.2,-3.36,289,258,395,459,328,21
926,0.32,0.9,0.32,-5.25,-6.23,-2.69,290,256,397,457,332,21
927,0.32,0.88,0.33,1.71,-2.62,-3.17,289,257,396,452,325,21
928,0.35,0.87,0.32,-1.28,-5.92,-2.5,290,260,400,458,329,21
929,0.35,0.89,0.34,-0.49,-4.21,-2.81,292,258,400,461,323,21
930,0.35,0.87,0.33,1.95,-2.75,-2.38,290,257,395,457,328,21
931,0.34,0.87,0.34,-2.01,-3.42,-2.99,287,252,397,458,328,21
932,0.36,0.88,0.35,2.62,-1.83,-3.17,289,255,397,455,328,21
933,0.35,0.88,0.34,1.04,-1.83,-2.08,289,256,395,455,327,21
934,0.34,0.87,0.34,0.06,-3.72,-1.59,290,257,396,457,330,21
935,0.35,0.87,0.33,3.17,-2.44,-3.17,290,262,398,459,327,21
936,0.36,0.88,0.33,1.16,-2.44,-4.39,290,258,392,461,323,21
937,0.33,0.9,0.34,1.04,-1.71,-2.99,291,256,400,462,326,21
938,0.35,0.87,0.33,-1.46,-5.13,-3.6,290,253,399,456,328,21
939,0.35,0.88,0.33,2.75,-0.18,-1.34,290,261,398,459,324,21
940,0.35,0.87,0.34,2.2,-0.24,-4.58,284,259,396,453,326,21
941,0.34,0.88,0.35,0.73,-3.05,-2.08,290,257,398,457,325,21
942,0.35,0.85,0.29,1.83,-5.25,-2.01,288,257,396,456,327,21
943,0.38,0.87,0.33,-0.37,-0.92,-3.54,291,256,396,460,332,21
944,0.36,0.87,0.32,-1.16,-2.08,-1.4,286,270,395,460,325,21
945,0.33,0.88,0.35,0.43,0.06,0.18,287,255,394,455,330,21
946,0.31,0.9,0.32,5.0,3.97,-2.62,291,252,396,457,331,21
947,0.32,0.88,0.34,3.72,4.09,-3.23,290,253,397,457,327,21
948,0.36,0.84,0.34,-1.22,-1.77,-0.67,288,259,397,462,328,21
949,0.34,0.88,0.34,3.97,0.06,-2.38,291,260,394,458,328,21
950,0.34,0.88,0.33,0.73,-4.46,-2.62,288,257,397,458,338,21
951,0.32,0.87,0.33,4.33,-4.39,-1.89,290,258,396,459,325,21
952,0.33,0.9,0.34,-2.2,0.55,-2.81,291,259,395,463,327,21
953,0.34,0.88,0.34,5.68,-4.94,-4.39,288,259,399,456,327,21
954,0.32,0.89,0.34,3.11,-1.28,-2.99,288,254,395,459,324,21
955,0.32,0.89,0.33,-0.55,-3.3,-2.99,296,256,395,458,328,21
956,0.34,0.89,0.34,-2.14,-7.2,-4.27,286,254,395,456,330,21
957,0.33,0.89,0.34,3.05,0.12,-2.87,289,260,397,453,328,21
958,0.32,0.89,0.34,2.38,-4.33,-1.46,289,259,394,454,329,21
959,0.32,0.89,0.34,-0.85,-1.04,-3.23,288,258,395,459,327,21
960,0.33,0.89,0.33,-0.18,-3.11,-2.5,287,257,396,458,326,21
961,0.34,0.89,0.33,-0.37,-2.87,-2.01,288,259,395,456,331,21
962,0.34,0.88,0.32,4.7,0.67,-2.5,286,256,398,459,325,21
963,0.33,0.89,0.32,0.55,-2.69,-3.66,290,259,397,461,327,21
964,0.32,0.9,0.32,-0.61,-4.03,-1.46,289,259,395,460,331,21
965,0.33,0.89,0.32,1.71,-3.11,-2.56,288,255,396,454,328,21
966,0.33,0.89,0.32,-0.12,-4.03,-2.2,290,257,395,458,327,21
967,0.33,0.89,0.32,-0.06,-4.09,-2.44,289,258,401,457,326,21
968,0.33,0.9,0.33,-1.71,-3.91,-3.05,293,260,395,461,324,21
969,0.34,0.88,0.32,-1.04,-4.27,-3.42,288,260,396,457,326,21
970,0.31,0.87,0.31,0.73,-2.08,-1.46,285,259,396,462,324,21
971,0.33,0.89,0.32,-1.16,-2.87,-3.23,288,256,399,454,328,21
972,0.34,0.88,0.31,-0.43,-3.66,-3.72,289,257,397,461,326,21
973,0.32,0.89,0.31,2.87,-1.34,-2.69,288,262,396,461,325,21
974,0.33,0.9,0.32,0.18,-2.87,-2.99,289,260,394,460,327,21
975,0.32,0.89,0.32,0.12,-3.23,-2.93,297,261,396,462,325,21
976,0.32,0.89,0.32,-0.92,-1.4,-3.91,290,253,397,460,328,21
977,0.31,0.89,0.31,1.1,-2.62,-2.69,290,259,396,455,328,21
978,0.32,0.91,0.33,-0.18,-3.17,-2.62,289,253,396,459,327,21
979,0.33,0.92,0.34,1.89,-5.07,-1.53,291,257,395,461,328,21
980,0.34,0.86,0.29,1.16,-0.73,-4.03,289,261,396,458,330,21
981,0.31,0.86,0.31,-1.4,-8.3,-3.17,292,259,396,459,329,21
982,0.35,0.94,0.36,6.23,2.38,-4.82,289,260,396,458,329,21
983,0.29,0.86,0.35,2.81,-6.65,2.26,286,257,392,462,331,21
984,0.33,0.87,0.37,1.65,1.34,-0.24,286,255,396,457,323,21
985,0.3,0.87,0.36,-1.1,1.59,-0.43,288,263,398,460,324,21
986,0.33,0.85,0.38,2.5,-2.08,-2.62,293,258,396,459,326,21
987,0.31,0.87,0.38,-5.55,-4.88,-3.36,292,261,396,456,326,21
988,0.34,0.82,0.39,0.43,0.49,2.87,291,260,395,460,328,21
989,0.33,0.78,0.42,0.61,-12.76,1.22,290,258,394,460,328,21
990,0.32,0.84,0.41,3.97,-3.91,-2.32,292,259,394,457,327,21
991,0.32,0.87,0.4,8.85,0.61,-2.08,290,265,398,456,330,21
992,0.34,0.83,0.38,2.44,-4.64,3.54,294,260,399,459,328,21
993,0.35,0.88,0.33,-13.85,-12.45,-10.31,291,260,401,459,331,21
994,0.33,0.87,0.39,-3.66,-3.3,-5.37,292,259,398,463,330,21
995,0.32,0.88,0.39,1.22,-5.07,-6.65,291,260,394,461,326,21
996,0.33,0.87,0.38,2.14,-2.62,-4.88,293,262,399,463,327,21
997,0.28,0.87,0.36,3.23,2.62,-3.36,294,262,402,455,327,21
998,0.29,0.86,0.35,1.4,1.65,-5.8,287,258,396,458,326,21
999,0.26,0.89,0.4,-2.08,-4.88,-3.11,292,258,401,463,329,21
1000,0.28,0.92,0.41,0.37,-1.65,-4.64,288,262,405,455,329,21
1001,0.28,0.88,0.39,2.62,-1.83,-2.99,291,261,407,457,329,21
1002,0.29,0.87,0.38,-3.11,-5.19,-3.17,294,261,398,462,327,21
1003,0.29,0.9,0.37,-0.37,-2.75,-4.39,291,257,396,459,321,21
1004,0.31,0.9,0.36,4.76,-5.8,-3.11,294,260,398,459,327,21
1005,0.29,0.87,0.36,0.61,-2.38,-5.0,293,259,398,459,326,21
1006,0.23,0.98,0.41,2.69,-1.28,-1.22,290,257,395,461,330,21
1007,0.28,0.89,0.35,7.39,-3.42,-2.62,295,266,398,460,327,21
1008,0.35,0.86,0.33,0.73,-1.83,-5.31,292,258,397,461,331,21
1009,0.24,0.9,0.4,-1.34,5.0,-0.73,294,255,400,456,324,21
1010,0.29,0.86,0.38,-4.21,-10.07,-2.5,293,259,399,461,328,21
1011,0.32,0.84,0.38,-4.64,-10.99,-9.16,291,261,399,464,327,21
1012,0.29,0.86,0.42,-5.19,-3.23,-6.1,291,260,401,460,330,21
1013,0.35,0.93,0.08,1.4,-2.62,-2.44,198,253,415,453,334,21
1014,0.34,0.94,0.08,-4.33,-0.37,-3.66,204,259,415,451,337,21
1015,0.33,0.94,0.09,0.43,-5.62,-2.56,201,265,416,450,335,21
1016,0.36,0.94,0.1,-2.93,0.24,-0.18,198,255,415,449,335,21
1017,0.38,0.95,0.11,-2.56,-3.72,3.42,199,265,411,456,335,21
1018,0.41,0.97,0.13,-11.23,4.15,3.48,201,260,414,453,335,21
1019,0.52,0.86,0.18,-10.86,-14.1,2.5,200,259,414,445,339,21
1020,0.52,0.84,0.19,-7.81,-5.43,-1.77,207,264,413,450,335,21
1021,0.47,0.83,0.21,-4.33,-7.45,1.46,199,263,409,449,335,21
1022,0.5,0.86,0.2,5.37,-6.35,-5.37,202,264,415,443,335,21
1023,0.46,0.86,0.21,-1.22,-0.06,-1.83,204,280,417,452,337,21
1024,0.48,0.86,0.21,-4.15,0.24,-4.39,201,268,413,455,339,21
1025,0.46,0.86,0.25,-4.58,1.65,0.37,199,265,421,445,334,21
1026,0.51,0.83,0.25,0.73,-2.62,-3.11,195,265,410,443,332,21
1027,0.48,0.83,0.24,3.42,-3.6,-4.15,205,270,410,446,334,21
1028,0.5,0.86,0.23,2.2,-3.11,-3.78,200,263,418,446,334,21
1029,0.44,0.85,0.16,24.96,-8.85,-14.28,202,268,414,441,330,21
1030,0.44,0.88,0.08,0.43,-3.66,-2.87,202,265,415,450,333,21
1031,0.44,0.9,0.09,0.79,-3.97,-1.4,204,263,405,447,338,21
1032,0.47,0.9,0.11,-1.1,-0.67,0.67,199,267,416,446,332,21
1033,0.45,0.91,0.15,-1.53,0.12,5.19,203,268,416,445,333,21
1034,0.48,0.88,0.13,5.43,-2.38,1.4,206,266,412,449,336,21
1035,0.5,0.84,0.11,-7.26,-2.99,-1.28,203,266,408,444,334,21
1036,0.51,0.85,0.13,0.92,-1.46,-3.05,206,267,408,451,332,21
1037,0.52,0.84,0.13,-2.01,-4.76,-3.54,207,269,412,444,333,21
1038,0.5,0.86,0.12,-1.04,-1.04,-3.05,206,266,412,442,341,21
1039,0.5,0.85,0.13,2.81,-3.11,-4.58,205,270,411,439,337,21
1040,0.52,0.86,0.1,-2.99,-2.08,-1.83,207,270,413,447,337,21
1041,0.52,0.81,0.13,-4.33,-2.01,-2.14,207,273,406,448,337,21
1042,0.52,0.84,0.15,-7.2,-10.25,1.77,207,269,408,450,336,21
1043,0.5,0.82,0.17,-2.32,-0.31,-3.17,205,269,408,444,337,21
1044,0.54,0.84,0.17,-1.4,-5.8,-0.98,197,263,411,454,339,21
1045,0.55,0.83,0.17,0.55,-1.4,-1.83,202,269,409,443,338,21
1046,0.56,0.83,0.16,-1.22,-2.44,-2.93,205,273,411,458,342,21
1047,0.56,0.83,0.16,1.4,-4.39,-0.98,206,270,409,447,338,21
1048,0.55,0.82,0.17,-2.08,-4.15,-2.14,208,272,409,447,338,21
1049,0.55,0.81,0.16,0.12,-1.28,-4.33,209,267,417,448,339,21
1050,0.55,0.81,0.17,-0.12,-3.36,-1.83,208,271,407,446,339,21
1051,0.56,0.81,0.17,1.53,-2.26,-2.2,205,272,408,450,335,21
1052,0.54,0.83,0.18,0.37,-2.99,-2.5,203,269,411,443,340,21
1053,0.55,0.79,0.16,1.22,-4.33,-1.46,203,269,409,444,340,21
1054,0.55,0.81,0.16,0.73,-3.11,-2.56,207,272,410,450,335,21
1055,0.55,0.82,0.18,1.1,-3.6,-2.32,207,262,410,445,339,21
1056,0.55,0.81,0.17,1.46,-2.5,-2.2,208,272,411,452,341,21
1057,0.55,0.82,0.17,3.54,-5.07,-2.14,209,269,407,451,341,21
1058,0.5,0.83,0.19,4.76,1.89,-15.32,209,273,409,447,340,21
1059,0.48,0.92,0.13,5.74,-7.69,-8.24,204,272,407,446,335,21
1060,0.47,0.92,0.14,12.08,-12.51,-11.23,205,273,405,445,336,21
1061,0.41,0.84,0.17,1.46,0.06,-5.31,226,272,407,439,334,21
1062,0.44,0.87,0.19,-0.79,-3.17,-2.99,211,271,413,441,333,21
1063,0.45,0.88,0.18,0.37,-1.77,-2.75,190,273,411,449,332,21
1064,0.43,0.87,0.2,-0.92,-2.14,-2.01,214,270,411,441,337,21
1065,0.46,0.84,0.22,-2.62,-1.4,-1.59,206,282,409,449,336,21
1066,0.44,0.88,0.2,0.55,-2.69,-5.07,205,274,409,446,336,21
1067,0.46,0.89,0.21,0.73,-0.12,-2.87,208,270,408,446,334,21
1068,0.46,0.82,0.19,0.61,-2.32,2.56,209,280,415,446,332,21
1069,0.45,0.84,0.21,2.01,-6.16,-1.71,203,273,401,446,334,21
1070,0.44,0.88,0.22,-0.37,-1.71,-2.01,209,277,410,447,338,21
1071,0.46,0.85,0.22,0.37,0.12,0.73,206,273,406,441,338,21
1072,0.47,0.86,0.19,0.12,-4.82,-2.56,208,277,409,441,337,21
1073,0.46,0.86,0.21,0.37,-4.09,-2.62,206,272,407,451,337,21
1074,0.47,0.83,0.22,-4.15,0.18,1.04,207,278,408,448,337,21
1075,0.46,0.85,0.22,1.59,-0.55,-1.95,208,273,409,438,338,21
1076,0.47,0.85,0.22,-3.17,-0.31,-1.46,206,272,407,442,339,21
1077,0.48,0.84,0.19,0.49,-4.82,-2.26,209,275,410,445,338,21
1078,0.47,0.85,0.19,2.14,-3.17,-2.44,206,277,406,446,340,21
1079,0.46,0.86,0.2,0.24,-2.69,-3.54,211,275,413,444,339,21
1080,0.47,0.85,0.2,0.61,-3.97,-3.6,206,272,403,441,338,21
1081,0.48,0.87,0.2,0.85,-1.59,-3.48,206,273,409,449,336,21
1082,0.42,0.82,0.2,-2.87,1.4,-1.71,205,275,410,440,334,21
1083,0.45,0.84,0.21,-0.67,-5.55,-3.54,210,273,406,449,344,21
1084,0.47,0.88,0.22,3.05,-2.75,-3.11,208,278,407,445,335,21
1085,0.46,0.87,0.21,1.22,-1.46,-2.26,215,271,409,445,339,21
1086,0.45,0.86,0.21,0.0,0.43,-2.93,203,276,412,452,334,21
1087,0.47,0.85,0.2,-0.12,-2.38,-2.26,209,273,404,451,334,21
1088,0.5,0.86,0.19,1.53,-4.82,1.28,210,273,406,446,333,21
1089,0.48,0.86,0.21,0.73,-1.65,-0.92,202,273,405,446,342,21
1090,0.47,0.85,0.21,-1.04,-3.54,-2.08,207,275,406,449,332,21
1091,0.46,0.82,0.21,-6.9,-3.23,-4.76,211,277,408,451,339,21
1092,0.5,0.84,0.21,0.49,-5.98,0.37,211,271,410,450,338,21
1093,0.51,0.85,0.2,2.69,-5.68,1.77,210,277,407,447,338,21
1094,0.52,0.81,0.22,-0.98,-0.55,1.1,208,277,406,445,335,21
1095,0.56,0.82,0.2,-4.09,-1.53,-1.1,205,274,408,440,341,21
1096,0.55,0.82,0.2,1.04,-6.59,-1.53,206,270,408,450,336,21
1097,0.55,0.8,0.21,-0.55,-3.17,-0.55,206,274,408,446,339,21
1098,0.56,0.8,0.22,1.59,-0.92,-5.19,207,274,409,447,337,21
1099,0.55,0.81,0.2,2.38,-2.56,-1.95,209,277,408,449,337,21
1100,0.54,0.79,0.22,-2.56,0.0,-0.49,209,276,407,443,341,21
1101,0.56,0.81,0.24,-8.06,-1.53,-0.85,204,276,408,455,339,21
1102,0.44,0.71,0.4,-16.91,13.31,-20.39,209,272,406,446,341,21
1103,0.53,0.68,0.4,10.25,12.57,5.07,214,277,402,444,334,21
1104,0.47,0.83,0.44,-9.09,-10.93,4.39,209,275,405,440,337,21
1105,0.56,0.78,0.59,6.47,-27.28,1.16,209,279,400,445,337,21
1106,0.56,0.68,0.41,-5.43,24.11,-9.22,212,272,408,448,335,21
1107,0.59,0.7,0.59,-8.73,-4.7,-13.43,214,275,403,443,339,21
1108,0.5,0.75,0.61,-5.86,-23.01,-25.21,210,273,405,445,338,21
1109,0.33,0.79,0.5,22.83,-2.93,-3.48,213,273,405,445,338,21
1110,0.21,0.82,0.48,9.77,31.07,11.96,209,274,406,441,332,21
1111,0.33,0.74,0.54,-1.71,-0.06,7.93,205,273,403,448,336,21
1112,0.45,0.73,0.53,-5.25,-5.37,-1.46,208,276,404,449,334,21
1113,0.46,0.79,0.47,-2.93,-10.56,-6.1,212,279,405,444,338,21
1114,0.42,0.73,0.52,2.14,-5.49,-2.08,210,272,406,452,340,21
1115,0.39,0.68,0.47,5.37,-5.62,-0.12,205,274,407,451,336,21
1116,0.51,0.67,0.48,0.24,-8.48,-8.97,212,270,404,452,337,21
1117,0.47,0.77,0.49,6.47,-8.36,-2.44,213,275,399,450,338,21
1118,0.5,0.69,0.44,5.74,-0.55,-2.44,212,274,405,453,336,21
1119,0.47,0.73,0.47,-0.49,-3.17,-4.15,209,274,405,450,340,21
1120,0.49,0.72,0.48,5.25,-9.52,13.12,210,270,405,444,337,21
1121,0.54,0.69,0.47,-7.32,-0.73,-8.79,211,274,405,447,336,21
1122,0.57,0.69,0.47,2.62,-3.85,-2.14,213,274,402,450,336,21
1123,0.56,0.67,0.47,-2.75,0.85,-3.17,213,276,405,442,340,21
1124,0.58,0.72,0.47,-2.08,-0.85,-8.67,212,279,407,453,336,21
1125,0.52,0.68,0.49,4.82,-5.68,2.08,210,278,404,445,337,21
1126,0.57,0.79,0.53,-6.84,-4.27,-2.01,209,283,410,439,338,21
1127,0.53,0.69,0.5,0.0,-4.82,-3.48,212,283,407,437,335,21
1128,0.53,0.67,0.52,1.89,-6.41,-0.61,204,273,405,443,336,21
1129,0.55,0.71,0.49,7.2,-0.12,-6.23,214,276,405,445,336,21
1130,0.54,0.7,0.5,-2.62,-1.59,-4.7,212,278,406,441,335,21
1131,0.54,0.68,0.47,0.92,-4.21,-1.71,214,278,407,442,336,21
1132,0.56,0.69,0.48,0.31,-3.3,-2.26,209,274,405,443,337,21
1133,0.52,0.63,0.5,-0.79,-3.66,-1.65,216,278,409,438,336,21
1134,0.53,0.67,0.52,0.79,-5.07,0.43,212,276,407,437,337,21
1135,0.54,0.66,0.52,0.92,-2.75,-3.17,215,281,406,449,334,21
1136,0.5,0.65,0.53,-2.38,-2.87,-4.76,214,275,410,440,341,21
1137,0.54,0.66,0.52,0.24,-4.03,-1.83,207,277,405,441,338,21
1138,0.53,0.67,0.52,-0.24,-2.75,-3.54,236,276,402,440,338,21
1139,0.54,0.68,0.51,2.38,-2.75,-2.69,215,275,407,442,338,21
1140,0.52,0.69,0.52,0.85,-2.2,-5.62,213,269,402,445,340,21
1141,0.49,0.7,0.53,-1.83,2.08,-1.34,217,276,407,443,337,21
1142,0.53,0.69,0.49,-2.62,-3.6,-5.55,212,281,405,446,337,21
1143,0.54,0.73,0.49,10.99,-5.55,-0.49,211,279,407,437,332,21
1144,0.52,0.7,0.42,-9.64,4.64,8.0,212,278,407,435,338,21
1145,0.49,0.64,0.46,-7.57,-12.51,12.45,215,278,406,444,338,21
1146,0.62,0.69,0.45,-5.13,-6.65,0.24,221,281,405,443,338,21
1147,0.6,0.64,0.5,-13.18,-16.42,7.63,216,273,412,452,334,21
1148,0.55,0.61,0.49,-8.54,-3.78,6.71,209,274,405,436,334,21
1149,0.62,0.6,0.53,-10.13,-14.77,3.42,213,282,404,436,341,21
1150,0.62,0.67,0.55,0.73,10.93,-2.26,212,280,403,438,336,21
1151,0.57,0.57,0.5,-1.95,-21.48,5.37,213,279,404,437,338,21
1152,0.64,0.65,0.5,3.17,6.16,1.28,216,282,409,434,337,21
1153,0.62,0.62,0.55,-9.7,-20.87,15.44,215,282,402,440,337,21
1154,0.67,0.54,0.53,-4.27,-4.03,-4.7,207,280,404,441,337,21
1155,0.68,0.54,0.53,-7.39,-5.37,-2.56,215,281,413,438,339,21
1156,0.63,0.46,0.61,-17.64,13.12,-3.17,217,283,407,441,339,21
1157,0.68,0.46,0.61,7.26,-3.72,-6.35,217,279,409,438,340,21
1158,0.62,0.53,0.58,7.02,-0.92,-14.16,216,285,405,437,336,21
1159,0.64,0.54,0.56,-2.38,-9.4,-5.62,213,286,406,439,338,21
1160,0.65,0.57,0.51,2.14,-5.98,-13.61,216,284,404,435,340,21
1161,0.61,0.63,0.52,2.69,-8.0,-9.16,216,280,403,431,338,21
1162,0.58,0.67,0.5,2.5,8.85,-7.08,218,284,399,437,339,21
1163,0.57,0.68,0.5,6.96,-4.58,-5.0,219,285,399,430,343,21
1164,0.57,0.7,0.48,0.92,-1.34,-1.04,217,285,400,437,342,21
1165,0.54,0.68,0.48,-2.32,-4.88,-2.32,219,282,397,435,340,21
1166,0.54,0.7,0.46,-1.1,-4.15,-0.31,219,279,395,439,341,21
1167,0.58,0.7,0.46,-2.01,-5.74,-0.61,218,283,391,433,341,21
1168,0.58,0.66,0.48,-1.71,-2.01,-1.16,218,283,390,437,337,21
1169,0.58,0.69,0.5,-0.61,-1.04,-3.17,219,285,395,436,341,21
1170,0.59,0.68,0.49,0.79,-3.36,-2.32,219,284,393,428,343,21
1171,0.57,0.66,0.48,-0.67,-2.69,-5.0,218,283,391,427,341,21
1172,0.55,0.69,0.48,4.46,1.4,-7.39,214,283,394,432,341,21
1173,0.56,0.69,0.47,1.59,-1.46,-5.19,219,283,394,434,337,21
1174,0.53,0.7,0.48,2.08,-1.1,-3.78,218,279,392,434,342,21
1175,0.53,0.72,0.48,1.77,-3.05,-3.6,216,282,391,439,343,21
1176,0.52,0.74,0.48,0.18,-1.53,-4.64,217,285,392,436,340,21
1177,0.51,0.73,0.46,0.92,-2.2,-2.14,220,280,394,441,339,21
1178,0.5,0.73,0.47,-1.65,-2.99,-3.66,213,283,390,439,343,21
1179,0.52,0.72,0.46,-1.83,-4.64,-1.95,216,283,393,437,338,21
1180,0.5,0.71,0.46,-2.62,-1.95,0.85,219,280,394,438,339,21
1181,0.53,0.74,0.48,-6.77,-3.78,-3.42,220,278,388,432,337,21
1182,0.52,0.7,0.53,10.07,-5.31,-2.75,215,283,391,435,338,21
1183,0.49,0.7,0.52,-1.89,-4.76,-3.78,217,281,393,438,339,21
1184,0.49,0.71,0.52,-0.24,-2.56,-2.01,234,283,393,436,341,21
1185,0.5,0.71,0.53,-0.37,-3.54,-0.43,218,283,394,432,339,21
1186,0.49,0.7,0.52,-1.28,-1.77,-0.85,218,282,390,441,339,21
1187,0.51,0.71,0.52,1.53,-0.18,-1.1,218,284,391,444,337,21
1188,0.52,0.71,0.5,1.4,-5.62,1.4,217,282,393,437,343,21
1189,0.51,0.7,0.51,-0.12,-3.48,-2.26,218,282,394,446,341,21
1190,0.5,0.7,0.51,1.04,-0.61,-1.1,218,283,391,433,341,21
1191,0.52,0.7,0.52,-0.85,-1.53,-0.67,222,278,391,442,344,21
1192,0.52,0.69,0.52,0.18,-2.56,-3.17,223,286,394,452,342,21
1193,0.51,0.7,0.51,0.73,-2.75,-2.69,219,286,390,440,342,21
1194,0.52,0.69,0.51,0.67,-2.99,-3.23,220,282,394,432,344,21
1195,0.53,0.71,0.5,0.18,-4.46,-1.71,221,281,393,433,341,21
1196,0.51,0.71,0.5,-1.83,-4.52,-3.11,213,286,396,438,342,21
1197,0.5,0.69,0.5,0.06,-1.65,-1.1,216,283,393,433,346,21
1198,0.51,0.69,0.5,-1.71,-0.92,-1.59,221,286,392,441,342,21
1199,0.51,0.66,0.49,-4.39,-5.74,-0.18,223,289,391,435,343,21
1200,0.52,0.64,0.5,-5.43,-3.48,-2.5,216,286,390,435,343,21
1201,0.55,0.68,0.51,1.53,-2.08,-2.44,222,282,396,435,343,21
1202,0.57,0.66,0.53,5.43,-3.6,-1.65,220,288,397,432,344,21
1203,0.57,0.66,0.52,6.29,-2.26,0.37,220,280,395,438,346,21
1204,0.58,0.66,0.54,0.12,-4.33,-3.17,222,284,395,437,343,21
1205,0.58,0.64,0.52,3.85,-1.16,-0.85,220,285,390,433,344,21
1206,0.61,0.6,0.51,3.97,-1.1,-5.8,219,287,395,438,344,21
1207,0.54,0.64,0.52,4.7,-6.84,-2.81,223,285,395,436,347,21
1208,0.53,0.69,0.53,1.16,-2.87,-3.11,219,288,390,438,346,21
1209,0.59,0.72,0.51,2.32,-0.37,-10.8,221,287,391,441,343,21
1210,0.55,0.7,0.53,3.91,-10.01,1.65,219,287,390,440,344,21
1211,0.6,0.64,0.49,-5.19,-1.16,-5.98,225,286,391,439,345,21
1212,0.64,0.69,0.49,4.76,0.0,-2.14,216,284,402,438,341,21
1213,0.59,0.65,0.51,1.34,-7.02,-4.03,223,288,394,437,345,21
1214,0.57,0.65,0.5,3.42,-3.54,-0.43,235,284,394,440,342,21
1215,0.61,0.66,0.51,3.91,-5.13,-3.66,220,291,391,436,345,21
1216,0.57,0.65,0.5,-0.73,-2.5,-4.7,222,289,394,441,345,21
1217,0.61,0.63,0.48,-2.5,-2.99,-1.89,220,289,392,431,346,21
1218,0.61,0.64,0.48,1.71,-0.98,-4.94,221,284,391,431,343,21
1219,0.61,0.62,0.49,2.69,-1.1,-4.7,221,287,391,437,343,21
1220,0.56,0.64,0.49,1.89,-1.89,-7.87,217,284,396,436,344,21
1221,0.56,0.68,0.5,5.37,-1.28,-14.22,223,287,394,433,348,21
1222,0.48,0.73,0.5,-2.44,3.17,-16.78,221,288,390,440,344,21
1223,0.46,0.75,0.48,-4.82,-3.42,-10.99,223,287,390,436,344,21
1224,0.3,0.71,0.47,10.38,5.0,-22.16,222,287,390,434,346,21
1225,0.27,0.75,0.56,-11.66,-3.54,-13.85,220,288,391,439,348,21
1226,0.18,0.72,0.59,-21.79,-8.36,-4.09,219,282,393,438,345,21
1227,0.27,0.74,0.57,-7.45,-13.67,-4.94,214,282,394,430,336,21
1228,0.27,0.72,0.66,-4.7,-4.58,-0.43,224,282,395,433,342,21
1229,0.27,0.78,0.64,-3.91,7.57,-8.18,216,283,393,437,343,21
1230,0.25,0.75,0.64,5.19,-2.69,-1.22,223,281,393,438,343,21
1231,0.27,0.76,0.61,-1.04,-3.42,-2.01,221,277,393,436,343,21
1232,0.28,0.75,0.62,1.53,-2.93,0.0,210,277,391,436,341,21
1233,0.27,0.75,0.62,2.69,-4.09,0.37,216,284,394,433,346,21
1234,0.29,0.74,0.6,-1.83,-2.26,-5.0,221,283,393,440,347,21
1235,0.29,0.74,0.62,2.26,-3.6,3.54,220,282,392,443,346,21
1236,0.29,0.74,0.61,-0.79,-4.94,1.95,244,282,394,433,345,21
1237,0.32,0.74,0.61,1.22,-4.39,0.31,225,282,393,435,346,21
1238,0.31,0.73,0.61,1.1,-4.46,-2.01,224,284,394,437,344,21
1239,0.31,0.74,0.62,-1.28,-4.15,-4.09,221,283,392,434,347,21
1240,0.3,0.71,0.59,-5.86,-1.04,1.95,221,283,384,436,345,21
1241,0.26,0.68,0.65,-9.22,-0.92,0.31,225,282,395,431,342,21
1242,0.27,0.64,0.7,-8.3,-7.93,1.53,223,284,394,432,346,21
1243,0.28,0.64,0.72,5.07,10.01,7.32,223,285,396,431,345,21
1244,0.35,0.69,0.71,-1.28,-9.89,-2.14,223,288,394,440,347,21
1245,0.35,0.57,0.67,-23.56,-8.61,7.69,221,287,394,436,346,21
1246,0.36,0.58,0.78,4.52,-4.88,8.91,224,284,393,435,346,21
1247,0.39,0.67,0.76,9.16,-6.77,6.71,222,285,393,436,348,21
1248,0.46,0.53,0.77,-14.95,-24.41,2.75,222,287,394,436,349,21
1249,0.24,0.52,0.8,3.48,-15.01,10.93,221,277,398,437,347,21
1250,0.43,0.51,0.7,-17.4,-6.16,-14.28,223,284,398,426,347,21
1251,0.37,0.55,0.77,-14.1,-33.57,9.7,226,287,394,431,347,21
1252,0.51,0.54,0.78,-6.04,5.92,6.77,225,284,396,437,348,21
1253,0.54,0.45,0.78,2.08,-4.46,1.53,225,285,391,435,347,21
1254,0.55,0.44,0.74,-8.42,2.2,-15.01,224,286,391,432,348,21
1255,0.38,0.5,0.79,5.55,11.47,-30.27,221,277,394,428,344,21
1256,0.45,0.44,0.61,0.06,10.99,-3.36,225,282,398,431,346,21
1257,0.55,0.43,0.64,-5.8,-29.48,-4.15,223,285,396,426,343,21
1258,0.71,0.5,0.63,24.48,-16.6,6.96,219,283,409,428,347,21
1259,0.43,0.39,0.59,-9.52,-15.81,8.61,220,283,394,427,342,21
1260,0.56,0.41,0.68,-27.4,-9.58,14.34,228,284,397,431,350,21
1261,0.66,0.6,0.76,20.02,-2.93,2.44,224,285,395,426,342,21
1262,0.43,0.46,0.75,20.63,-32.53,10.74,224,281,396,431,346,21
1263,0.74,0.49,0.63,-30.27,-7.14,0.43,223,287,397,427,350,21
1264,0.68,0.48,0.66,21.18,25.15,-22.83,222,283,398,425,346,21
1265,0.59,0.42,0.63,-5.86,-8.3,-6.04,221,286,392,431,347,21
1266,0.6,0.45,0.69,1.46,-13.43,14.47,220,284,393,434,346,21
1267,0.58,0.34,0.58,-6.53,8.97,-1.1,222,287,394,431,341,21
1268,0.58,0.3,0.75,-3.23,-4.7,34.79,213,283,397,429,348,21
1269,0.63,0.2,0.67,14.34,-21.85,8.73,221,282,396,427,351,21
1270,0.73,0.11,0.65,0.55,-13.79,-10.68,213,282,394,426,349,21
1271,0.48,0.2,0.75,6.9,22.71,-39.86,219,282,398,432,349,21
1272,0.49,0.43,0.75,-8.36,-14.16,-35.03,220,281,398,434,349,21
1273,0.4,0.44,0.69,2.62,-3.05,-7.63,215,279,397,428,345,21
1274,0.23,0.62,0.55,70.25,28.63,9.58,215,277,403,437,345,21
1275,0.31,0.63,0.39,39.0,14.83,13.06,214,279,405,442,346,21
1276,0.42,0.81,0.41,29.36,10.68,13.67,218,281,402,448,343,21
1277,0.44,0.71,0.39,2.44,2.01,2.75,217,279,405,451,342,21
1278,0.38,0.73,0.34,6.84,-5.86,-4.27,215,281,402,452,345,21
1279,0.35,0.8,0.34,-7.39,-24.17,-2.38,216,283,406,453,345,21
1280,0.26,0.87,0.37,-15.08,-10.93,-17.46,214,285,408,447,342,21
1281,0.34,0.94,0.37,-4.21,-12.15,-1.59,220,277,408,456,347,21
1282,0.32,0.8,0.36,-0.49,1.28,13.31,218,287,405,443,344,21
1283,0.48,0.7,0.33,-6.04,-1.34,-0.12,223,278,404,450,348,21
1284,0.42,0.84,0.41,-9.58,-5.19,-4.03,217,285,409,447,342,21
1285,0.36,0.88,0.5,-11.9,-4.94,-21.67,205,281,405,446,344,21
1286,0.38,0.78,0.46,-15.2,-15.2,-9.09,215,281,407,451,336,21
1287,0.33,0.83,0.5,4.21,3.66,-7.08,219,282,408,462,347,21
1288,0.29,0.79,0.47,6.29,1.28,-5.62,222,282,400,444,347,21
1289,0.34,0.83,0.44,-0.73,-5.19,-0.98,215,282,407,451,338,21
1290,0.29,0.82,0.49,-3.42,-8.54,0.24,216,283,407,447,339,21
1291,0.33,0.82,0.49,-5.74,-8.54,-0.67,219,281,405,449,345,21
1292,0.36,0.82,0.49,0.43,-5.31,2.32,218,288,409,440,344,21
1293,0.32,0.73,0.5,-3.11,-9.34,3.72,218,280,402,444,340,21
1294,0.38,0.73,0.51,-17.33,-1.04,-15.08,216,283,408,441,344,21
1295,0.38,0.72,0.54,-12.21,-13.85,-5.98,216,282,407,438,340,21
1296,0.39,0.7,0.55,2.01,-1.34,-0.49,221,285,409,445,344,21
1297,0.39,0.7,0.56,-0.18,-3.6,-5.07,219,284,408,443,339,21
1298,0.36,0.75,0.58,-0.06,-4.03,-8.54,217,282,404,436,339,21
1299,0.33,0.74,0.6,4.33,1.46,-5.37,216,283,409,442,344,21
1300,0.28,0.82,0.58,12.15,8.0,-10.38,222,278,403,437,351,21
1301,0.27,0.79,0.54,2.38,2.69,1.71,218,280,402,442,348,21
1302,0.25,0.8,0.55,2.38,2.5,0.31,224,280,407,442,352,21
1303,0.26,0.78,0.58,0.31,0.85,9.34,214,281,408,445,346,21
1304,0.28,0.73,0.58,-6.96,-1.34,12.94,217,282,404,436,344,21
1305,0.32,0.79,0.57,-4.52,0.18,-1.28,219,281,406,440,346,21
1306,0.37,0.76,0.57,1.28,-14.71,-1.59,219,281,406,440,343,21
1307,0.36,0.76,0.57,-3.17,1.16,-0.67,221,281,408,448,349,21
1308,0.33,0.75,0.6,5.31,-6.84,-3.05,222,279,404,438,348,21
1309,0.33,0.74,0.58,-3.17,-3.72,-1.22,221,284,407,442,347,21
1310,0.33,0.76,0.62,-0.37,-3.85,-0.06,221,300,408,432,350,21
1311,0.36,0.69,0.62,-0.06,-10.8,1.1,217,281,409,442,354,21
1312,0.39,0.7,0.58,-0.37,-2.14,-5.55,218,284,408,446,346,21
1313,0.47,0.74,0.61,2.75,-3.78,-5.13,219,288,406,437,349,21
1314,0.42,0.72,0.58,-5.19,-5.07,-4.21,219,281,404,441,350,21
1315,0.39,0.69,0.61,-3.36,-5.43,5.43,204,285,408,442,345,21
1316,0.39,0.67,0.59,4.46,-0.06,-3.85,216,283,404,441,346,21
1317,0.32,0.66,0.59,-3.36,7.75,-5.37,223,286,404,441,355,21
1318,0.39,0.73,0.66,0.73,-0.92,-5.0,221,280,402,434,350,21
1319,0.33,0.67,0.64,3.3,-4.82,-2.5,219,277,403,438,347,21
1320,0.34,0.67,0.61,14.59,-10.93,-6.1,222,267,404,441,349,21
1321,0.34,0.75,0.5,14.95,-3.48,-7.08,216,272,411,445,353,21
1322,0.36,0.93,0.36,33.81,2.26,-25.02,225,282,412,445,352,21
1323,0.12,0.93,0.19,11.11,0.85,-18.98,213,274,411,449,350,21
1324,0.16,1.0,0.14,8.54,-6.35,-4.64,214,278,410,458,349,21
1325,0.1,0.97,0.18,-15.87,0.06,0.37,216,280,404,452,347,21
1326,0.09,0.95,0.16,-1.77,-1.1,-0.24,224,274,408,454,353,21
1327,0.09,0.96,0.19,5.8,-3.3,-3.85,216,273,406,453,351,21
1328,0.12,0.95,0.17,-3.48,-12.08,2.56,216,276,410,456,349,21
1329,0.09,0.79,0.22,-54.99,-4.03,30.52,214,278,408,440,346,21
1330,0.19,0.69,0.61,-72.27,21.67,-16.05,217,277,405,444,342,21
1331,0.3,0.58,0.74,-11.11,15.08,-19.41,215,281,403,427,340,21
1332,0.27,0.68,0.7,22.77,-8.97,8.67,216,280,401,436,340,21
1333,0.29,0.72,0.7,-5.07,-9.16,7.2,215,280,403,443,339,21
1334,0.25,0.67,0.71,-8.48,-8.85,-0.92,218,281,403,438,341,21
1335,0.27,0.65,0.72,-3.48,-4.03,-6.29,218,281,404,435,340,21
1336,0.27,0.68,0.72,1.53,-4.64,-2.14,217,281,404,435,344,21
1337,0.28,0.67,0.72,-0.43,-3.97,-3.17,228,280,404,435,338,21
1338,0.25,0.66,0.74,-0.61,-0.18,-3.97,219,292,405,437,342,21
1339,0.25,0.67,0.73,2.56,0.85,-5.55,216,286,401,433,338,21
1340,0.27,0.65,0.7,4.46,-0.49,-1.83,220,284,402,439,344,21
1341,0.26,0.67,0.72,-2.5,-6.16,-4.03,220,282,404,436,344,21
1342,0.29,0.65,0.7,-4.46,-2.87,-4.58,220,279,403,438,343,21
1343,0.28,0.67,0.71,-0.18,-3.17,-3.11,219,293,402,429,339,21
1344,0.28,0.67,0.71,-0.55,-3.36,-2.87,221,279,404,435,341,21
1345,0.26,0.66,0.71,0.43,-2.14,-2.2,221,278,401,433,341,21
1346,0.27,0.71,0.72,-2.62,-3.11,-2.32,219,283,395,432,340,21
1347,0.32,0.67,0.71,-2.62,-3.97,2.87,218,276,401,438,340,21
1348,0.32,0.67,0.73,1.59,-3.11,-4.88,216,282,400,433,344,21
1349,0.31,0.64,0.72,-0.37,-5.13,-0.79,215,275,400,428,348,21
1350,0.34,0.62,0.7,-1.34,-2.93,-0.06,219,280,400,434,343,21
1351,0.31,0.59,0.71,-2.38,-3.78,1.83,220,282,415,435,339,21
1352,0.33,0.6,0.71,-0.06,-7.26,2.5,219,277,399,437,344,21
1353,0.36,0.61,0.72,-1.1,-3.36,-4.03,220,279,402,433,345,21
1354,0.36,0.62,0.72,1.4,-3.3,-2.26,222,279,397,434,342,21
1355,0.36,0.61,0.72,0.43,-3.23,-3.42,221,277,399,431,343,21
1356,0.36,0.61,0.73,0.67,-2.56,-2.93,208,281,391,423,342,21
1357,0.38,0.6,0.73,-0.31,1.46,-4.09,224,280,396,425,342,21
1358,0.34,0.58,0.71,-4.46,-0.73,-0.55,219,278,388,431,343,21
1359,0.39,0.58,0.76,1.22,-6.96,-4.27,225,279,392,429,341,21
1360,0.44,0.65,0.76,0.24,-10.38,4.58,216,282,392,425,343,21
1361,0.43,0.49,0.7,-0.12,-3.85,8.73,221,277,392,429,343,21
1362,0.52,0.43,0.73,-7.32,-8.0,6.35,223,279,399,430,343,21
1363,0.47,0.49,0.76,4.76,-2.56,14.53,217,281,394,424,344,21
1364,0.52,0.39,0.75,-0.12,-11.47,0.43,222,271,391,424,345,21
1365,0.49,0.44,0.77,-3.48,-3.36,-5.07,231,272,391,422,343,21
1366,0.5,0.44,0.75,-3.36,-0.18,-8.54,221,281,397,430,346,21
1367,0.53,0.45,0.75,5.92,-2.44,-9.4,223,282,392,420,341,21
1368,0.42,0.46,0.74,-3.72,-11.41,-2.5,220,279,394,428,347,21
1369,0.46,0.43,0.72,-1.59,-5.31,4.64,223,282,392,429,341,21
1370,0.5,0.5,0.72,-1.65,1.28,7.93,214,282,392,420,343,21
1371,0.52,0.45,0.75,-4.46,-4.27,-3.54,223,281,392,429,346,21
1372,0.51,0.43,0.73,0.61,-6.1,0.43,220,281,397,426,342,21
1373,0.52,0.43,0.74,0.73,-4.88,-4.15,223,279,396,425,342,21
1374,0.53,0.44,0.74,-2.38,-2.5,-2.99,231,284,395,425,344,21
1375,0.52,0.44,0.75,-0.55,-1.89,-3.05,224,280,395,428,345,21
1376,0.52,0.44,0.75,0.79,-1.16,-3.78,221,279,397,431,340,21
1377,0.51,0.46,0.73,11.9,4.39,-5.13,218,284,395,428,345,21
1378,0.44,0.59,0.73,13.85,15.01,-9.58,221,283,398,431,345,21
1379,0.45,0.59,0.65,4.58,-9.7,8.85,222,281,395,437,346,21
1380,0.5,0.58,0.63,-1.16,-12.27,8.85,223,280,394,429,347,21
1381,0.48,0.6,0.66,-2.32,-7.93,-4.39,220,283,389,431,342,21
1382,0.5,0.57,0.67,0.79,-2.2,0.85,221,282,393,434,350,21
1383,0.49,0.56,0.67,0.12,-4.03,-2.44,224,284,391,433,345,21
1384,0.51,0.56,0.67,-0.18,-2.81,-3.36,223,294,389,433,349,21
1385,0.5,0.57,0.68,0.31,-2.01,-2.93,222,283,388,430,347,21
1386,0.5,0.54,0.68,-0.37,-2.56,-2.38,218,286,391,427,349,21
1387,0.51,0.56,0.67,0.79,-2.69,-1.28,230,286,389,431,349,21
1388,0.51,0.56,0.68,1.59,-1.28,-1.22,226,284,391,421,348,21
1389,0.49,0.56,0.69,2.14,-4.03,-2.62,223,284,390,429,348,21
1390,0.45,0.56,0.7,-3.23,0.18,-4.46,225,278,388,438,347,21
1391,0.47,0.55,0.7,-0.18,-2.01,-3.97,225,281,389,433,347,21
1392,0.48,0.55,0.7,-0.06,-3.05,-2.62,222,283,389,429,347,21
1393,0.48,0.55,0.7,0.0,-4.7,-1.89,224,282,392,431,344,21
1394,0.5,0.55,0.7,-0.98,-1.46,-1.04,223,282,385,433,343,21
1395,0.51,0.54,0.7,0.06,-1.4,-3.6,233,283,392,430,350,21
1396,0.47,0.55,0.7,4.58,-1.95,-3.36,234,279,388,428,348,21
1397,0.48,0.56,0.7,1.4,-4.52,-3.54,217,280,391,429,344,21
1398,0.49,0.56,0.7,0.92,-5.43,-1.77,222,284,391,427,346,21
1399,0.49,0.55,0.7,0.55,-4.09,-1.83,225,278,391,430,347,21
1400,0.49,0.56,0.7,-0.49,-3.3,-3.23,223,279,389,427,348,21
1401,0.5,0.54,0.7,0.06,-1.34,-2.44,221,283,388,426,348,21
1402,0.49,0.52,0.7,0.55,-2.81,-2.38,224,281,392,421,344,21
1403,0.5,0.52,0.69,0.06,-5.43,-1.83,223,283,388,428,348,21
1404,0.5,0.53,0.69,0.61,-3.3,-2.99,223,281,386,435,347,21
1405,0.42,0.59,0.71,15.08,18.98,-8.48,223,281,390,428,346,21
1406,0.35,0.61,0.72,4.64,-4.76,1.83,222,282,392,426,350,21
1407,0.39,0.64,0.64,2.2,-1.89,-2.62,216,285,389,435,347,21
1408,0.4,0.66,0.66,-2.56,-5.31,-0.98,223,279,385,434,347,21
1409,0.4,0.66,0.66,-0.18,-4.09,-2.38,224,283,391,433,350,21
1410,0.4,0.65,0.67,-0.67,-4.76,-0.55,223,284,394,441,347,21
1411,0.43,0.64,0.65,-0.06,-2.44,-1.53,222,281,389,432,347,21
1412,0.45,0.64,0.65,0.43,-3.23,-3.78,223,285,393,435,345,21
1413,0.45,0.64,0.65,-0.31,-3.85,-2.08,225,279,393,438,350,21
1414,0.45,0.64,0.65,-0.31,-2.99,-2.32,222,280,394,439,344,21
1415,0.46,0.63,0.65,-0.49,-2.75,-2.5,221,279,390,435,347,21
1416,0.45,0.63,0.65,0.24,-2.99,-3.54,219,285,394,430,339,21
1417,0.45,0.63,0.66,0.18,-2.69,-4.03,223,279,393,432,345,21
1418,0.46,0.64,0.67,-0.49,-3.23,-1.95,223,280,389,432,347,21
1419,0.45,0.62,0.66,1.65,-1.28,-3.85,227,286,391,431,346,21
1420,0.45,0.62,0.67,0.79,-3.78,-1.53,222,279,392,433,347,21
1421,0.46,0.61,0.65,0.49,-3.66,-2.44,224,282,393,435,347,21
1422,0.47,0.62,0.67,-4.33,-4.76,-0.92,219,293,385,432,342,21
1423,0.46,0.6,0.66,0.73,-4.15,-2.93,226,284,391,430,346,21
1424,0.45,0.62,0.68,1.16,-3.05,-2.38,226,272,393,432,348,21
1425,0.45,0.61,0.67,-0.98,-3.36,-2.14,220,279,396,435,347,21
1426,0.44,0.61,0.67,0.18,-2.26,-1.95,225,283,391,435,345,21
1427,0.44,0.61,0.68,-0.49,-3.66,-2.93,222,282,392,432,348,21
1428,0.45,0.61,0.68,-1.34,-4.21,-3.11,221,279,390,434,349,21
1429,0.45,0.61,0.67,-1.71,1.46,-4.7,223,277,396,435,343,21
1430,0.45,0.61,0.67,-1.71,-4.09,-2.69,223,283,392,430,340,21
1431,0.46,0.6,0.67,1.28,-3.6,-2.08,228,282,393,435,351,21
1432,0.45,0.6,0.68,0.43,-1.53,-2.01,224,283,392,434,348,21
1433,0.45,0.6,0.68,-3.91,-3.48,-3.42,224,278,396,431,344,21
1434,0.46,0.57,0.66,-2.69,-5.8,-4.52,223,283,392,431,346,21
1435,0.46,0.59,0.68,-0.18,-3.54,-0.73,226,284,392,443,350,21
1436,0.46,0.57,0.67,-0.55,-3.97,-1.95,225,283,393,433,352,21
1437,0.49,0.58,0.67,0.85,-3.97,-3.05,226,282,390,436,342,21
1438,0.5,0.59,0.68,0.73,-3.05,-1.89,225,283,392,433,348,21
1439,0.49,0.57,0.67,0.61,-3.36,-2.08,227,282,393,437,348,21
1440,0.48,0.58,0.68,-2.2,-4.82,-2.01,225,281,398,432,348,21
1441,0.47,0.58,0.66,0.0,-0.98,-4.27,222,281,393,428,348,21
1442,0.49,0.57,0.67,0.67,-2.69,-1.34,225,282,397,426,351,21
1443,0.49,0.56,0.68,-1.71,-2.81,-2.08,224,282,388,428,349,21
1444,0.46,0.53,0.69,-4.03,-0.98,-5.62,229,283,396,431,352,21
1445,0.49,0.57,0.7,3.05,-2.56,-3.3,225,280,391,433,350,21
1446,0.48,0.55,0.7,1.53,-2.38,-1.16,228,292,394,428,348,21
1447,0.48,0.56,0.69,1.4,-2.38,-3.36,226,283,390,426,352,21
1448,0.48,0.56,0.7,-0.67,-5.8,-1.16,225,284,394,433,351,21
1449,0.5,0.56,0.69,-0.79,-6.16,-2.5,229,287,397,434,348,21
1450,0.5,0.56,0.69,0.49,-3.54,-2.69,226,281,392,434,346,21
1451,0.49,0.56,0.68,2.5,-2.93,-2.26,220,281,394,430,348,21
1452,0.49,0.56,0.69,-2.38,-1.77,-0.92,229,282,391,436,358,21
1453,0.49,0.56,0.67,2.69,-4.09,-1.28,224,282,387,433,349,21
1454,0.49,0.55,0.68,-1.1,-3.72,-1.77,226,286,392,437,348,21
1455,0.51,0.55,0.68,0.12,-3.91,-2.56,229,277,395,429,348,21
1456,0.53,0.54,0.67,-0.06,-3.36,-3.72,224,287,387,420,350,21
1457,0.52,0.54,0.67,1.71,-3.85,-2.99,225,284,390,435,349,21
1458,0.51,0.55,0.68,-2.87,-2.32,-7.2,225,294,392,431,347,21
1459,0.52,0.57,0.66,-6.47,-1.4,-7.14,223,285,394,432,348,21
1460,0.52,0.54,0.69,-3.54,-1.34,-5.55,224,282,393,431,349,21
1461,0.51,0.55,0.68,0.85,-3.23,-2.62,224,283,393,428,347,21
1462,0.51,0.56,0.7,1.28,-3.23,-2.26,223,282,394,430,347,21
1463,0.49,0.54,0.7,-0.12,-1.34,-3.78,227,286,395,430,349,21
1464,0.51,0.53,0.69,-0.67,-2.87,-2.01,221,282,388,430,350,21
1465,0.51,0.54,0.67,2.62,-3.78,-3.36,227,283,393,434,351,21
1466,0.52,0.55,0.68,1.22,-2.14,-1.34,227,284,390,429,351,21
1467,0.5,0.54,0.67,-0.61,-3.78,-6.1,223,284,390,435,351,21
1468,0.54,0.54,0.68,-6.16,-7.14,-6.65,221,281,391,434,345,21
1469,0.53,0.58,0.65,8.42,1.83,-17.64,222,284,392,433,349,21
1470,0.43,0.59,0.69,2.75,-3.78,3.05,217,282,390,439,349,21
1471,0.41,0.6,0.68,6.35,9.52,-8.54,226,280,393,431,349,21
1472,0.49,0.6,0.7,0.55,-2.93,-1.22,222,280,399,436,347,21
1473,0.34,0.58,0.7,-0.79,-1.95,-0.37,222,282,397,440,352,21
1474,0.37,0.59,0.74,-2.69,-3.66,-0.98,226,278,415,438,350,21
1475,0.38,0.59,0.74,-3.66,-3.91,-1.22,222,285,402,442,348,21
1476,0.37,0.55,0.74,-6.84,1.4,1.1,228,284,396,445,350,21
1477,0.37,0.53,0.73,-0.06,-7.81,-8.06,223,281,402,449,352,21
1478,0.39,0.53,0.74,-2.38,3.85,-5.55,227,282,399,440,344,21
1479,0.38,0.5,0.76,2.75,-5.62,1.04,224,287,395,441,350,21
1480,0.38,0.5,0.76,-6.04,-1.83,-2.44,223,280,394,433,350,21
1481,0.4,0.51,0.76,0.12,-4.03,-1.04,217,282,395,438,349,21
1482,0.31,0.58,0.77,-3.11,-5.55,-6.04,220,281,394,436,348,21
1483,0.35,0.52,0.77,1.28,-1.04,-0.24,223,288,390,435,347,21
1484,0.38,0.52,0.78,-2.14,-5.31,-1.53,224,280,395,439,352,21
1485,0.4,0.53,0.78,-1.71,-3.72,-4.52,225,281,390,438,349,21
1486,0.39,0.52,0.78,-2.56,-1.1,-0.55,220,285,394,443,350,21
1487,0.4,0.51,0.77,-0.79,-4.64,-3.48,227,274,393,442,348,21
1488,0.42,0.53,0.78,4.46,-3.3,-1.46,227,279,396,439,349,21
1489,0.4,0.52,0.79,-1.95,-5.0,-2.38,227,281,390,433,351,21
1490,0.42,0.49,0.79,-1.16,-2.38,-3.54,228,277,389,438,354,21
1491,0.43,0.5,0.8,1.65,-7.08,0.49,220,287,390,441,353,21
1492,0.41,0.49,0.8,7.14,1.4,2.5,223,281,392,441,352,21
1493,0.42,0.47,0.79,-0.43,-2.44,-0.67,225,283,395,438,353,21
1494,0.45,0.48,0.77,3.91,-1.71,-5.62,222,284,398,440,354,21
1495,0.43,0.51,0.77,3.11,-4.88,-3.11,225,279,395,441,349,21
1496,0.43,0.51,0.76,-1.83,-2.38,-2.26,225,286,397,442,352,21
1497,0.44,0.5,0.77,-0.37,-3.11,-1.89,225,280,394,438,351,21
1498,0.41,0.5,0.78,0.49,-2.5,-1.89,223,284,396,440,353,21
1499,0.42,0.49,0.77,-1.89,-3.54,-4.03,220,283,396,439,353,21
1500,0.44,0.5,0.78,1.77,-3.72,-2.99,225,281,400,438,354,21
1501,0.44,0.48,0.76,1.53,-0.43,-5.92,223,281,397,433,351,21
1502,0.44,0.49,0.79,1.1,0.0,-7.63,227,285,397,436,352,21
1503,0.45,0.48,0.77,1.83,-5.13,-1.83,225,290,394,438,353,21
1504,0.42,0.49,0.79,-0.31,-2.08,-3.48,225,285,394,436,348,21
1505,0.43,0.48,0.78,-2.01,-2.32,-3.23,223,282,396,437,353,21
1506,0.44,0.49,0.78,-2.26,-1.34,-4.94,223,283,392,439,352,21
1507,0.44,0.5,0.79,4.7,-0.85,-2.2,226,284,393,438,353,21
1508,0.41,0.47,0.79,0.79,-4.27,-2.75,227,283,392,435,353,21
1509,0.43,0.47,0.74,-0.73,-0.98,-1.83,230,280,398,431,348,21
1510,0.4,0.49,0.81,7.75,-2.14,-0.12,226,286,390,432,351,21
1511,0.4,0.5,0.78,-2.08,-0.12,-0.67,224,281,391,430,355,21
1512,0.35,0.54,0.83,-12.02,11.78,-3.11,223,291,390,431,352,21
1513,0.39,0.45,0.8,-4.09,-5.74,-3.23,227,283,373,434,353,21
1514,0.37,0.48,0.84,-0.31,-5.43,0.0,218,283,380,433,352,21
1515,0.36,0.46,0.79,1.22,-2.93,-0.55,223,279,376,433,352,21
1516,0.39,0.5,0.82,0.06,-4.52,-3.11,221,282,377,435,354,21
1517,0.42,0.49,0.79,2.14,-3.97,0.18,221,283,376,438,353,21
1518,0.43,0.48,0.8,2.44,-0.85,-3.48,222,283,380,436,351,21
1519,0.39,0.48,0.81,0.06,-1.22,-4.15,226,283,371,429,350,21
1520,0.41,0.47,0.81,0.85,-2.87,-2.93,223,290,377,438,352,21
1521,0.4,0.48,0.82,-3.23,-5.31,-0.79,232,283,378,430,354,21
1522,0.42,0.46,0.82,-3.3,-5.07,-2.2,222,280,379,435,353,21
1523,0.45,0.42,0.82,-3.3,-9.95,0.24,226,285,378,437,355,21
1524,0.49,0.39,0.8,1.83,-6.59,-1.04,227,281,391,438,353,21
1525,0.5,0.35,0.77,-1.83,-11.9,-4.21,225,284,374,436,353,21
1526,0.53,0.39,0.78,-1.89,-8.36,-5.98,226,281,378,435,351,21
1527,0.52,0.32,0.77,2.93,-10.19,-6.59,226,289,380,433,350,21
1528,0.28,0.88,0.37,-10.99,-27.95,-15.93,274,355,432,462,361,21
1529,0.0,0.9,0.48,15.63,8.54,13.18,265,355,433,457,354,21
1530,0.17,0.93,0.38,0.12,-7.02,-0.24,266,355,434,458,357,21
1531,0.17,0.89,0.39,2.08,-4.21,-1.53,268,355,436,457,358,21
1532,0.17,0.9,0.4,4.33,-0.31,-2.14,268,355,439,457,358,21
1533,0.17,0.92,0.39,-0.31,-2.08,-4.46,271,355,433,453,359,21
1534,0.17,0.9,0.4,-0.85,-3.85,-2.2,270,356,433,460,357,21
1535,0.15,0.9,0.4,4.03,-11.29,0.12,269,354,431,462,360,21
1536,0.16,0.85,0.42,0.37,-0.06,2.62,270,358,433,459,363,21
1537,0.15,0.89,0.38,0.18,2.56,-6.59,272,358,436,458,360,21
1538,0.12,0.89,0.43,-4.03,-3.66,-2.62,272,360,436,463,362,21
1539,0.12,0.93,0.43,1.22,-5.0,-1.46,276,359,438,462,363,21
1540,0.15,0.89,0.4,3.97,-5.0,-1.16,273,363,435,454,362,21
1541,0.13,0.9,0.41,0.49,-2.2,-3.91,277,360,439,462,363,21
1542,0.12,0.89,0.43,-9.4,-0.61,-6.35,272,360,434,459,364,21
1543,0.11,0.89,0.44,-6.65,-2.32,-5.74,276,375,434,460,364,21
1544,0.13,0.91,0.42,-2.38,-0.92,-4.82,277,360,438,459,364,21
1545,0.16,0.91,0.41,1.65,-0.92,-7.32,276,360,436,460,362,21
1546,0.13,0.89,0.41,1.59,-3.3,-6.29,302,360,435,457,364,21
1547,0.12,0.9,0.41,2.32,-2.81,-1.46,270,364,438,456,361,21
1548,0.14,0.89,0.43,2.2,-2.56,-1.77,275,359,437,457,365,21
1549,0.12,0.89,0.43,3.66,-2.75,-1.04,276,359,435,463,366,21
1550,0.13,0.89,0.42,0.12,-2.26,-4.39,275,363,438,460,364,21
1551,0.12,0.89,0.43,3.05,-3.3,-1.89,276,359,436,460,365,21
1552,0.12,0.91,0.42,3.42,-1.83,-2.87,276,363,436,459,366,21
1553,0.13,0.89,0.41,2.14,-3.3,-2.08,278,362,435,458,366,21
1554,0.14,0.91,0.41,1.4,-2.2,-1.95,277,360,435,463,368,21
1555,0.13,0.91,0.41,-2.32,-1.89,-3.54,276,362,435,463,366,21
1556,0.11,0.89,0.42,1.53,-3.17,-3.36,277,358,450,460,367,21
1557,0.12,0.89,0.42,-1.4,-3.05,-1.04,277,363,435,460,364,21
1558,0.12,0.9,0.44,1.16,-1.77,-1.59,280,364,438,454,364,21
1559,0.11,0.91,0.42,2.26,0.31,-7.87,282,362,435,462,365,21
1560,0.14,0.92,0.41,7.14,-5.13,0.0,280,362,437,458,368,21
1561,0.11,0.89,0.41,-0.37,-1.77,-6.59,278,360,432,460,368,21
1562,0.11,0.91,0.41,-6.53,-3.6,-2.5,301,359,438,458,367,21
1563,0.12,0.91,0.4,7.2,-3.97,-0.49,277,359,436,458,362,21
1564,0.09,0.9,0.4,3.91,-1.95,-2.32,273,358,437,457,355,21
1565,0.11,0.9,0.41,-1.04,-3.66,-2.08,270,357,435,458,357,21
1566,0.11,0.9,0.44,-2.14,-2.14,-3.85,265,356,436,452,352,21
1567,0.11,0.89,0.42,4.94,-2.44,-3.23,269,358,447,447,354,21
1568,0.11,0.89,0.44,0.31,-2.44,-2.2,269,356,433,455,359,21
1569,0.11,0.89,0.43,0.24,-5.49,0.06,269,358,438,451,357,21
1570,0.12,0.92,0.42,2.62,-3.66,0.73,273,359,438,454,357,21
1571,0.13,0.91,0.43,1.4,-3.23,-0.61,273,358,436,455,360,21
1572,0.17,0.87,0.43,-1.59,0.18,2.2,272,361,437,454,360,21
1573,0.18,0.86,0.43,2.5,-2.75,-1.71,271,362,435,457,359,21
1574,0.21,0.9,0.49,-7.57,1.16,0.18,267,351,435,458,341,21
1575,0.16,0.82,0.5,4.03,-2.93,4.33,260,325,432,452,323,21
1576,0.23,0.88,0.49,-17.27,-4.46,-10.25,265,350,433,450,339,21
1577,0.17,0.89,0.44,-3.11,-9.16,-12.08,264,354,436,450,350,21
1578,-0.01,0.84,0.47,-3.17,5.8,-14.53,266,354,435,451,349,21
1579,0.09,0.9,0.46,-1.53,-8.91,0.85,266,353,433,454,350,21
1580,0.07,0.82,0.51,-2.44,-6.65,-1.65,266,355,434,455,350,21
1581,0.07,0.88,0.51,3.66,3.23,-1.34,270,352,436,453,349,21
1582,0.03,0.85,0.5,-5.37,0.43,-5.31,274,353,435,458,352,21
1583,0.28,0.95,0.36,23.32,-20.87,18.13,274,356,437,456,357,21
1584,0.11,0.85,0.36,12.51,-7.51,9.16,269,348,436,461,353,21
1585,0.07,0.93,0.35,44.8,16.42,6.16,280,350,436,465,358,21
1586,0.15,0.95,0.31,-9.4,-0.37,1.1,282,353,437,465,360,21
1587,0.13,0.97,0.35,9.46,-3.05,0.61,278,350,436,464,363,21
1588,0.12,0.89,0.35,0.61,-4.09,-1.53,278,351,438,464,363,21
1589,0.15,0.94,0.37,-3.85,-6.65,-0.06,284,351,439,458,364,21
1590,0.1,0.96,0.4,-2.69,-2.14,-5.55,280,353,437,463,363,21
1591,0.19,0.91,0.36,3.36,-8.48,-1.71,279,354,439,465,364,21
1592,0.11,0.89,0.43,5.8,-1.28,-0.85,281,354,438,474,361,21
1593,0.16,0.79,0.36,-0.37,-1.89,4.46,278,353,438,465,364,21
1594,0.2,0.95,0.41,-4.88,2.32,-0.18,280,352,436,461,362,21
1595,0.13,0.86,0.43,11.05,-2.08,1.53,278,357,437,452,363,21
1596,0.1,0.86,0.36,-14.04,-1.1,10.25,274,355,436,458,364,21
1597,0.23,0.82,0.5,8.06,-2.93,4.33,280,356,436,454,364,21
1598,0.1,0.91,0.44,-8.73,8.91,7.26,282,358,442,460,364,21
1599,0.18,0.85,0.46,1.34,-7.39,4.03,280,358,435,458,365,21
1600,0.18,0.88,0.51,-2.14,-0.61,1.53,276,355,435,462,363,21
1601,0.14,0.91,0.43,3.36,-1.34,-7.08,280,360,434,458,363,21
1602,0.18,0.86,0.42,-3.72,-6.35,-0.06,281,358,433,459,360,21
1603,0.21,0.88,0.45,6.84,-3.36,-5.98,281,356,432,458,364,21
1604,0.17,0.86,0.42,-10.13,-11.05,2.01,282,358,433,463,363,21
1605,0.22,0.89,0.53,-7.26,-1.1,0.18,279,359,432,463,363,21
1606,0.14,0.85,0.49,14.83,2.44,-0.37,279,357,435,461,362,21
1607,0.15,0.84,0.43,-8.85,-2.99,3.3,280,360,433,460,364,21
1608,0.16,0.87,0.46,-6.35,-8.73,-4.64,281,358,434,462,368,21
1609,0.21,0.87,0.47,-0.55,-5.8,-0.67,282,358,435,460,366,21
1610,0.21,0.86,0.46,8.36,-3.48,-2.69,278,360,436,457,363,21
1611,0.2,0.89,0.43,6.1,-5.37,-9.09,280,358,432,459,362,21
1612,0.17,0.85,0.42,1.59,0.0,-9.16,277,355,435,461,360,21
1613,0.25,0.88,0.41,1.22,-9.7,-9.03,279,357,436,465,363,21
1614,0.22,0.93,0.44,-6.53,-5.74,-4.52,274,358,441,460,364,21
1615,0.21,0.85,0.46,-8.18,-3.97,-5.37,279,359,435,462,363,21
1616,0.19,0.82,0.47,2.62,-3.36,0.31,280,362,437,465,362,21
1617,0.23,0.86,0.43,-16.17,-22.28,34.48,281,360,434,461,365,21
1618,0.22,0.81,0.45,5.07,-2.75,-7.51,281,361,432,461,361,21
1619,0.2,0.88,0.43,5.8,-5.74,-2.2,280,356,436,458,364,21
1620,0.24,0.86,0.45,1.65,-8.3,-8.3,278,355,438,464,362,21
1621,0.18,0.87,0.46,3.72,-0.55,-2.62,278,352,437,469,361,21
1622,0.2,0.86,0.44,-4.52,-2.99,-1.1,283,354,435,469,361,21
1623,0.18,0.87,0.46,2.01,-2.2,-2.44,283,357,434,466,360,21
1624,0.17,0.9,0.48,-3.54,0.18,-3.85,279,356,437,469,363,21
1625,0.17,0.89,0.46,7.39,-5.92,6.9,281,360,434,466,362,21
1626,0.21,0.87,0.46,0.55,0.85,4.7,282,359,434,470,365,21
1627,0.21,0.88,0.43,5.37,-2.99,-6.04,281,360,437,470,362,21
1628,0.2,0.9,0.45,2.14,-1.89,-2.87,284,360,436,469,363,21
1629,0.2,0.88,0.44,0.98,-4.27,-2.81,284,358,432,460,363,21
1630,0.18,0.88,0.44,1.46,-2.62,-5.19,284,361,441,476,365,21
1631,0.18,0.87,0.46,-1.77,-2.56,-2.56,283,362,434,463,362,21
1632,0.17,0.87,0.44,4.27,-1.65,-3.17,283,360,436,467,364,21
1633,0.19,0.9,0.44,4.21,-0.92,-2.69,283,359,438,467,361,21
1634,0.19,0.87,0.44,-2.87,-2.32,-4.39,281,360,434,464,366,21
1635,0.17,0.88,0.43,1.71,-3.3,-1.28,283,360,434,460,366,21
1636,0.19,0.88,0.44,-1.46,-3.11,-1.16,284,359,434,465,364,21
1637,0.18,0.88,0.42,2.87,-3.72,-1.59,286,361,435,461,366,21
1638,0.19,0.88,0.43,0.61,-3.42,-2.62,286,364,434,462,362,21
1639,0.17,0.89,0.44,-3.91,-0.98,-4.7,280,361,434,467,365,21
1640,0.2,0.88,0.42,1.04,-2.87,-3.23,284,362,436,463,362,21
1641,0.18,0.89,0.4,6.77,3.91,-7.14,288,366,434,465,362,21
1642,0.12,0.88,0.41,-2.01,-4.09,-5.19,285,365,433,464,360,21
1643,0.15,0.9,0.4,0.06,-3.72,-2.62,287,373,422,464,365,21
1644,0.12,0.9,0.41,0.61,-1.65,-5.0,286,376,417,464,362,21
1645,0.13,0.9,0.41,0.79,-2.99,-2.81,288,382,408,469,362,21
1646,0.13,0.91,0.41,0.55,-3.72,-2.99,287,388,407,467,367,21
1647,0.12,0.91,0.4,1.89,-2.93,-2.32,290,389,405,459,366,21
1648,0.11,0.91,0.41,1.77,-1.4,-2.5,289,392,406,465,366,21
1649,0.12,0.9,0.41,-0.12,-1.46,-3.36,288,388,402,466,365,21
1650,0.11,0.9,0.4,-0.06,-3.3,-2.2,288,391,405,463,366,21
1651,0.14,0.89,0.4,-7.81,-1.53,-3.36,288,391,425,461,366,21
1652,0.1,0.89,0.45,-0.73,-2.26,-1.77,293,394,425,465,366,21
1653,0.11,0.86,0.43,4.39,-5.49,1.46,289,392,425,462,363,21
1654,0.24,0.92,0.31,21.18,-4.46,11.41,304,390,425,462,364,21
1655,0.08,0.87,0.51,-6.53,16.3,-23.38,287,391,423,461,360,21
1656,0.09,0.96,0.47,20.69,-43.4,40.65,289,387,427,461,362,21
1657,0.13,0.83,0.41,-1.59,5.25,-15.81,288,387,429,461,358,21
1658,0.19,0.89,0.38,1.22,-1.77,-1.53,288,388,427,460,359,21
1659,0.15,0.93,0.43,-3.97,1.89,-5.25,290,389,426,460,364,21
1660,0.16,0.9,0.4,-0.12,-3.78,-1.4,290,387,428,462,361,21
1661,0.15,0.89,0.4,1.53,-2.08,-3.23,287,386,434,462,363,21
1662,0.13,0.89,0.4,-1.89,-3.6,-4.64,288,386,425,465,362,21
1663,0.14,0.91,0.38,2.38,-2.26,-3.05,289,385,426,461,362,21
1664,0.15,0.93,0.39,0.55,-2.93,-2.99,286,390,424,456,366,21
1665,0.12,0.91,0.4,0.0,-1.59,-3.17,286,389,428,457,361,21
1666,0.12,0.91,0.39,0.73,-3.36,-1.46,290,389,430,458,362,21
1667,0.12,0.93,0.39,-0.61,-3.05,-3.54,289,384,424,461,363,21
1668,0.14,0.89,0.38,2.75,-4.52,-1.46,292,386,429,461,364,21
1669,0.11,0.93,0.41,-3.23,2.87,-5.86,291,387,428,458,362,21
1670,0.1,0.9,0.44,10.62,-3.66,-8.24,289,384,427,466,363,21
1671,0.13,0.91,0.37,-5.0,-0.43,-5.31,290,385,427,458,365,21
1672,0.08,0.88,0.43,-3.91,-0.98,-7.26,296,385,428,464,365,21
1673,0.11,0.89,0.42,2.26,-5.37,-1.89,288,384,427,462,364,21
1674,0.09,0.9,0.43,4.88,-4.88,-3.91,290,384,423,463,363,21
1675,0.07,0.9,0.41,2.01,-3.36,-1.34,289,388,427,464,364,21
1676,0.07,0.9,0.41,-1.77,-1.1,-3.97,288,384,427,462,365,21
1677,0.08,0.9,0.42,1.46,-4.15,-2.26,292,386,427,462,366,21
1678,0.07,0.9,0.42,2.62,-1.22,-3.72,292,382,428,462,366,21
1679,0.06,0.89,0.41,-2.75,-1.95,-4.09,290,387,429,462,365,21
1680,0.07,0.9,0.42,3.54,-2.93,-1.89,291,385,427,463,364,21
1681,0.06,0.89,0.41,0.06,-3.66,-4.03,290,385,436,462,365,21
1682,0.06,0.92,0.41,-5.0,-5.43,-1.65,291,386,429,460,363,21
1683,0.05,0.91,0.41,1.53,-1.28,-2.62,289,386,425,463,365,21
1684,0.06,0.92,0.41,1.1,-3.36,-3.54,291,388,431,468,363,21
1685,0.06,0.91,0.42,-0.49,-2.26,-3.17,290,384,428,464,364,21
1686,0.05,0.92,0.41,2.01,-3.78,-1.04,291,387,429,463,367,21
1687,0.06,0.91,0.41,3.17,-1.83,-2.99,292,386,428,466,365,21
1688,0.04,0.89,0.4,-1.71,-3.91,-1.71,294,388,427,462,365,21
1689,0.06,0.92,0.41,-0.98,-3.48,-2.08,290,384,426,461,371,21
1690,0.06,0.94,0.42,-0.61,-3.78,-3.17,293,390,426,461,366,21
1691,0.06,0.89,0.42,-0.85,-3.23,-2.56,291,388,427,458,364,21
1692,0.04,0.92,0.42,-1.1,-1.1,-3.6,292,386,425,465,365,21
1693,0.07,0.9,0.42,5.43,-4.52,-1.53,294,383,427,466,365,21
1694,0.05,0.9,0.44,-10.99,-6.59,-5.0,292,389,427,461,367,21
1695,0.06,0.91,0.42,2.26,-3.66,-1.53,291,386,431,457,366,21
1696,0.06,0.89,0.44,-2.62,-1.65,-4.09,293,386,429,463,369,21
1697,0.06,0.89,0.43,-2.87,-5.8,-1.16,293,385,426,467,367,21
1698,0.07,0.94,0.44,-2.32,-5.31,-2.26,291,388,426,466,365,21
1699,0.06,0.9,0.43,-3.66,-3.48,-3.23,308,387,428,464,366,21
1700,0.06,0.9,0.44,-1.65,-3.17,-2.32,294,388,427,461,365,21
1701,0.09,0.87,0.47,-0.73,-4.15,-0.43,294,387,423,464,368,21
1702,0.1,0.88,0.46,2.93,-4.03,-1.59,294,391,427,460,362,21
1703,0.09,0.87,0.47,-1.4,-3.23,-2.5,304,389,428,460,365,21
1704,0.11,0.88,0.47,2.01,-2.5,-2.62,293,385,429,464,366,21
1705,0.08,0.88,0.47,-2.32,-4.58,-1.34,292,387,427,456,367,21
1706,0.11,0.86,0.45,6.59,-2.87,-1.1,294,388,431,461,368,21
1707,0.1,0.88,0.46,1.4,-2.93,-2.26,292,387,429,463,368,21
1708,0.1,0.88,0.47,-2.62,-2.81,-2.81,291,390,429,461,366,21
1709,0.11,0.89,0.46,-4.39,-2.87,-3.11,293,387,434,461,366,21
1710,0.13,0.85,0.45,-0.55,-4.39,-0.37,290,390,428,457,366,21
1711,0.12,0.89,0.45,2.26,-4.09,-2.93,294,386,433,462,365,21
1712,0.1,0.87,0.47,-0.73,1.71,-4.64,292,386,425,460,367,21
1713,0.12,0.88,0.44,5.13,-4.39,-1.46,289,386,427,460,368,21
1714,0.12,0.89,0.44,6.47,-4.46,0.12,294,388,429,459,369,21
1715,0.12,0.89,0.44,4.46,-3.54,-1.71,292,388,437,457,366,21
1716,0.1,0.9,0.45,-3.66,-3.54,-4.82,290,388,427,461,366,21
1717,0.12,0.9,0.44,0.55,-2.93,-2.69,292,384,426,463,366,21
1718,0.09,0.89,0.43,-5.07,-2.26,-3.6,287,377,431,470,361,21
1719,0.09,0.89,0.42,2.62,-4.09,0.67,285,378,429,458,358,21
1720,0.09,0.88,0.44,-0.92,-2.81,-0.92,286,381,426,461,362,21
1721,0.1,0.88,0.44,3.36,-1.77,-3.11,287,383,428,463,361,21
1722,0.11,0.88,0.44,5.31,-2.01,-1.89,290,382,428,460,360,21
1723,0.1,0.91,0.45,-0.43,-2.56,-3.11,289,383,428,460,361,21
1724,0.12,0.9,0.44,5.19,-3.66,-1.53,292,384,428,463,362,21
1725,0.12,0.89,0.45,4.82,-2.62,-2.69,290,383,428,453,363,21
1726,0.08,0.94,0.48,-3.66,-2.32,-2.2,289,383,433,458,362,21
1727,0.2,0.89,0.47,-3.91,-9.7,7.02,286,382,431,458,362,21
1728,0.1,0.94,0.49,13.61,-10.13,8.42,286,384,428,458,361,21
1729,0.17,0.85,0.42,-9.4,-13.06,0.79,290,384,430,463,362,21
1730,0.18,0.83,0.49,-0.18,-8.91,-2.44,286,382,429,460,361,21
1731,0.17,0.86,0.48,-5.68,-2.08,-4.03,290,385,427,457,372,21
1732,0.2,0.89,0.49,0.98,2.62,-4.94,291,390,429,461,362,21
1733,0.19,0.85,0.51,1.95,-4.09,3.66,291,388,424,461,364,21
1734,0.19,0.85,0.51,-2.14,-7.69,-4.03,289,389,426,461,363,21
1735,0.23,0.84,0.47,2.75,-2.26,-4.15,291,388,426,460,364,21
1736,0.21,0.85,0.48,-0.24,-4.46,-2.44,288,392,426,459,364,21
1737,0.24,0.86,0.48,-1.22,-6.04,-5.43,291,395,425,457,367,21
1738,0.21,0.82,0.5,-7.87,-2.75,-2.14,292,395,428,467,366,21
1739,0.21,0.83,0.49,2.14,-0.49,-0.06,288,397,429,458,365,21
1740,0.24,0.87,0.49,0.92,-3.85,-5.37,289,395,426,458,365,21
1741,0.21,0.85,0.49,0.67,-0.43,1.4,290,396,426,457,367,21
1742,0.24,0.85,0.48,3.11,-4.58,2.01,289,396,427,461,363,21
1743,0.25,0.87,0.47,5.49,-0.43,-2.62,288,402,427,457,366,21
1744,0.26,0.84,0.46,5.86,-3.48,-1.83,290,396,423,458,368,21
1745,0.27,0.86,0.46,-4.03,0.24,-7.81,290,395,422,458,368,21
1746,0.26,0.86,0.47,1.4,-4.94,-1.16,288,399,425,451,366,21
1747,0.26,0.85,0.46,1.04,-4.46,-3.11,288,397,427,458,366,21
1748,0.25,0.86,0.44,3.91,-4.03,-2.75,289,386,423,456,368,21
1749,0.23,0.86,0.45,2.62,-3.97,-0.49,290,388,426,459,366,21
1750,0.23,0.86,0.47,-1.28,-2.99,-2.26,291,393,426,458,366,21
1751,0.28,0.83,0.46,4.21,-5.68,-0.37,286,389,426,454,369,21
1752,0.2,0.9,0.42,-11.6,2.99,-6.71,289,384,425,451,360,21
1753,0.09,0.95,0.47,7.51,12.94,-24.96,285,386,428,457,360,21
1754,0.19,0.87,0.46,-16.17,-9.89,-21.36,287,384,421,453,363,21
1755,0.1,0.93,0.53,12.57,-0.55,-2.08,289,387,425,451,363,21
1756,0.15,0.86,0.47,0.12,-4.64,0.37,290,391,425,451,361,21
1757,0.12,0.85,0.49,4.46,-1.53,-0.43,290,385,426,464,362,21
1758,0.1,0.86,0.51,-3.3,-2.01,-3.11,290,383,428,456,363,21
1759,0.1,0.87,0.51,1.95,-1.28,-0.37,288,388,426,455,366,21
1760,0.13,0.81,0.5,-4.88,-2.75,-4.09,288,389,427,457,367,21
1761,0.13,0.85,0.52,1.34,-3.66,-3.23,317,389,429,456,362,21
1762,0.11,0.85,0.53,1.46,-3.42,-2.32,291,388,428,462,364,21
1763,0.13,0.84,0.52,-0.12,-5.25,-0.61,289,395,426,458,363,21
1764,0.13,0.85,0.53,0.24,-3.48,-4.39,292,387,427,458,368,21
1765,0.01,0.73,0.51,5.0,14.22,9.52,287,386,426,459,366,21
1766,0.13,0.82,0.56,0.98,3.6,0.85,291,388,425,455,366,21
1767,0.05,0.91,0.48,-6.9,31.37,9.58,289,385,427,460,363,21
1768,0.11,0.79,0.63,-0.79,-6.1,-2.26,287,391,429,459,363,21
1769,0.08,0.83,0.54,-0.06,-8.79,0.43,289,388,427,462,366,21
1770,0.07,0.82,0.59,3.97,-3.97,-4.64,287,392,422,459,366,21
1771,0.11,0.84,0.57,0.31,-2.08,-1.16,290,393,428,460,367,21
1772,0.11,0.82,0.54,-3.97,-4.39,-0.24,287,393,424,462,368,21
1773,0.11,0.81,0.58,-1.22,-5.31,-2.2,287,398,426,454,367,21
1774,0.1,0.81,0.57,2.08,-2.08,-1.04,287,396,427,458,366,21
1775,0.13,0.83,0.56,-0.24,-2.32,-2.56,289,396,429,457,364,21
1776,0.12,0.8,0.56,0.06,-3.11,-3.78,291,398,427,463,370,21
1777,0.11,0.83,0.57,1.71,-3.36,-1.77,289,400,428,455,372,21
1778,0.1,0.83,0.57,-3.48,-0.37,-2.5,287,398,426,460,371,21
1779,0.1,0.82,0.57,1.77,-1.28,-2.38,318,396,424,459,373,21
1780,0.11,0.82,0.56,-0.18,-3.42,-3.11,292,401,428,460,371,21
1781,0.1,0.86,0.57,-1.16,-3.85,-5.25,288,400,428,460,373,21
1782,0.09,0.83,0.55,0.85,-0.92,-2.99,291,406,424,463,373,21
1783,0.09,0.83,0.55,-0.92,-3.17,-3.78,290,403,426,463,372,21
1784,0.09,0.82,0.55,2.01,-2.26,-0.79,292,403,426,459,375,21
1785,0.1,0.83,0.54,0.31,-3.6,-3.17,291,404,427,463,375,21
1786,0.12,0.84,0.54,4.52,-4.76,-2.26,293,402,429,459,376,21
1787,0.11,0.85,0.55,1.16,-3.97,-3.11,292,411,426,459,378,21
1788,0.09,0.83,0.54,-3.85,-4.27,-2.08,290,403,425,463,375,21
1789,0.09,0.83,0.55,4.03,-4.09,-10.01,287,384,429,458,365,21
1790,0.09,0.84,0.51,2.2,-3.54,-1.53,286,381,427,454,363,21
1791,0.1,0.84,0.53,-6.53,-2.93,-1.77,287,390,430,462,365,21
1792,0.11,0.85,0.54,-0.24,-2.44,-1.46,288,386,426,459,368,21
1793,0.08,0.82,0.53,4.7,-3.85,-1.83,290,388,429,458,370,21
1794,0.15,0.9,0.61,2.75,-10.44,-7.26,289,391,424,454,368,21
1795,0.1,0.83,0.51,3.91,9.89,-8.0,289,389,427,454,363,21
1796,0.12,0.8,0.48,2.62,3.54,5.37,290,388,424,453,365,21
1797,0.17,0.79,0.55,2.14,0.24,-6.04,291,389,423,455,369,21
1798,0.12,0.88,0.48,6.1,4.33,-9.46,291,390,422,456,370,21
1799,0.13,0.81,0.5,-0.55,-21.97,-2.44,291,394,425,456,370,21
1800,0.13,0.78,0.56,-2.32,-8.85,5.13,293,394,424,457,371,21
1801,0.18,0.77,0.57,2.62,-1.16,-5.92,290,392,422,459,374,21
1802,0.14,0.85,0.57,-2.38,2.01,0.12,291,393,425,458,370,21
1803,0.15,0.79,0.6,-5.68,-5.92,-5.07,291,396,422,463,376,21
1804,0.14,0.81,0.6,-6.96,2.69,-8.42,292,398,429,455,373,21
1805,0.12,0.76,0.56,5.92,-1.46,-10.31,291,397,422,455,373,21
1806,0.03,0.93,0.57,9.34,-8.48,-10.07,289,397,425,457,372,21
1807,0.12,0.82,0.54,2.26,-7.93,10.01,289,400,425,463,373,21
1808,0.12,0.83,0.55,-1.16,-5.13,-1.34,305,396,428,460,373,21
1809,0.14,0.8,0.52,3.11,-3.97,-0.79,291,398,429,461,372,21
1810,0.17,0.8,0.55,0.31,-4.64,-10.56,293,398,427,464,372,21
1811,0.17,0.86,0.56,2.99,2.99,-4.33,294,400,425,459,372,21
1812,0.13,0.81,0.53,1.04,-3.3,-1.28,293,399,424,458,371,21
1813,0.12,0.81,0.57,-1.83,-1.16,-4.15,293,400,425,458,375,21
1814,0.14,0.81,0.58,-0.31,-8.42,-4.27,291,400,425,459,375,21
1815,0.15,0.8,0.59,9.77,-0.67,-4.7,292,401,426,461,371,21
1816,0.11,0.69,0.52,-7.08,-10.5,-10.62,291,401,424,452,370,21
1817,0.09,0.82,0.54,13.49,-6.29,3.36,292,404,421,455,374,21
1818,0.08,0.82,0.59,1.28,2.87,-4.15,295,400,425,457,374,21
1819,0.12,0.82,0.55,7.75,-4.21,-12.82,293,394,424,464,368,21
1820,0.07,0.81,0.55,1.53,-1.53,8.91,291,396,424,460,367,21
1821,0.13,0.86,0.51,-2.38,-12.39,1.4,294,392,425,476,369,21
1822,0.09,0.84,0.53,3.42,-2.32,-5.19,294,395,426,456,368,21
1823,0.02,0.84,0.53,5.07,-0.98,-3.78,295,393,421,460,369,21
1824,0.05,0.93,0.64,1.04,-14.53,6.59,291,394,427,458,366,21
1825,0.26,0.75,0.37,-14.95,-58.59,30.4,292,393,427,458,366,21
1826,0.08,0.74,0.45,2.5,2.75,0.61,299,389,426,459,368,21
1827,0.09,0.92,0.54,-9.28,-17.88,0.37,294,392,427,460,371,21
1828,0.05,0.88,0.57,6.16,2.56,-1.83,292,390,428,461,369,21
1829,0.04,0.85,0.56,-3.85,-3.11,-7.63,292,394,430,468,369,21
1830,0.07,0.84,0.54,3.17,-3.91,-6.1,293,393,428,459,369,21
1831,0.04,0.86,0.55,0.06,-4.03,-4.09,296,389,427,462,369,21
1832,0.06,0.84,0.52,3.3,-3.6,-4.03,294,393,427,460,368,21
1833,0.02,0.84,0.56,5.49,-4.52,1.95,293,389,428,458,368,21
1834,0.0,0.84,0.55,-2.69,-9.28,5.43,290,383,428,464,363,21
1835,-0.03,0.74,0.47,14.53,13.85,-8.18,273,376,426,447,357,21
1836,0.17,0.82,0.52,5.43,-12.08,-8.61,278,377,427,452,358,21
1837,0.1,0.86,0.53,0.0,5.0,-8.24,280,377,430,450,359,21
1838,-0.27,0.89,0.57,-60.85,45.41,9.83,271,381,427,454,361,21
1839,0.02,0.68,0.66,0.92,-5.74,32.84,284,381,430,459,359,21
1840,-0.14,0.64,1.02,-18.25,-37.6,24.72,286,386,428,466,361,21
1841,0.16,0.45,0.77,-42.97,-3.66,-47.12,288,388,429,459,357,21
1842,0.17,0.37,0.9,-23.01,-54.26,-30.64,287,383,427,452,360,21
1843,0.02,0.38,0.84,-29.54,11.17,8.97,287,390,426,442,356,21
1844,0.16,0.42,0.95,10.62,-0.06,7.08,289,393,426,448,359,21
1845,0.12,0.47,0.92,0.98,1.22,4.21,290,395,430,450,363,21
1846,0.1,0.46,0.9,3.54,-7.14,-2.81,292,388,426,451,361,21
1847,-0.02,0.53,0.83,19.47,23.01,-31.56,291,394,427,460,363,21
1848,0.07,0.51,0.86,-2.2,3.6,-4.33,289,390,432,452,364,21
1849,0.09,0.52,0.87,1.53,-4.94,1.34,292,388,423,452,362,21
1850,0.11,0.55,0.87,2.14,-4.76,-3.36,287,392,430,451,362,21
1851,0.1,0.54,0.86,-1.28,-3.6,-3.05,291,394,429,458,362,21
1852,0.1,0.52,0.86,5.62,-1.71,-2.08,294,394,435,453,363,21
1853,0.1,0.54,0.85,0.12,-2.99,-1.04,290,395,425,450,363,21
1854,0.1,0.55,0.85,0.98,-5.25,-0.06,285,391,431,444,360,21
1855,0.12,0.56,0.86,4.76,-3.54,-0.85,291,387,425,445,362,21
1856,0.08,0.54,0.89,1.28,2.38,-13.85,289,391,424,445,362,21
1857,0.38,0.67,0.78,-17.82,29.54,-38.39,273,375,427,453,369,21
1858,0.22,0.69,0.52,60.3,8.85,-9.46,259,351,429,452,350,21
1859,-0.03,0.73,0.76,-16.36,7.08,-17.52,264,355,426,450,349,21
1860,0.08,0.69,0.71,-7.69,-10.13,-4.64,263,357,424,446,354,21
1861,0.08,0.71,0.72,-0.18,-10.68,5.0,267,358,426,454,353,21
1862,0.03,0.73,0.69,17.7,-1.4,5.86,298,360,431,452,354,21
1863,0.03,0.77,0.68,8.36,-1.46,6.96,270,363,432,456,361,21
1864,0.08,0.8,0.61,-0.61,-2.56,2.56,266,358,427,451,360,21
1865,0.08,0.84,0.6,10.38,-2.26,-5.31,269,357,430,458,361,21
1866,0.1,0.76,0.6,12.15,-3.54,-4.88,268,360,429,459,364,21
1867,0.11,0.81,0.62,0.92,0.79,-5.25,270,360,437,462,361,21
1868,0.04,0.74,0.65,8.42,-0.92,6.71,266,365,428,460,364,21
1869,0.09,0.76,0.64,-2.62,-5.74,8.3,281,361,429,462,365,21
1870,0.07,0.84,0.64,17.21,-1.46,13.06,268,360,431,456,364,21
1871,0.11,0.76,0.66,14.65,-3.85,-5.86,270,363,430,464,368,21
1872,0.16,0.79,0.65,-0.98,-6.29,-1.77,268,364,430,467,370,21
1873,0.19,0.8,0.61,-9.34,-4.58,-7.93,273,369,430,460,369,21
1874,0.16,0.81,0.61,-5.43,-0.43,-2.5,273,362,432,463,367,21
1875,0.14,0.79,0.59,23.5,2.5,-1.59,273,366,430,465,365,21
1876,0.15,0.77,0.61,-2.38,-1.59,0.43,277,368,433,461,366,21
1877,0.15,0.78,0.62,-1.53,-3.17,-4.64,277,364,431,462,370,21
1878,0.15,0.78,0.6,-0.12,-4.15,-2.75,277,362,431,462,370,21
1879,0.15,0.79,0.61,-0.18,-7.57,-4.46,276,363,430,464,369,21
1880,0.19,0.78,0.61,-1.71,-11.72,-8.54,276,369,431,463,370,21
1881,0.17,0.81,0.59,-10.56,-11.17,-9.28,279,370,428,457,367,21
1882,0.15,0.8,0.6,-2.01,-2.5,-5.19,285,369,431,466,371,21
1883,0.12,0.78,0.59,2.99,-0.73,-2.01,276,368,429,464,370,21
1884,0.14,0.78,0.62,-6.84,-1.16,-6.29,277,366,430,459,372,21
1885,0.11,0.78,0.62,-1.34,-2.93,-1.89,275,374,432,461,369,21
1886,0.11,0.79,0.62,5.8,-4.27,-3.6,275,367,430,461,372,21
1887,0.13,0.77,0.61,3.48,-0.55,-3.11,279,371,430,462,372,21
1888,0.12,0.79,0.63,0.06,-3.11,-3.23,279,368,431,462,376,21
1889,0.12,0.77,0.62,-1.53,-3.17,-4.15,282,371,427,463,370,21
1890,0.11,0.77,0.63,0.98,-1.53,-1.65,276,368,435,468,371,21
1891,0.12,0.79,0.63,-6.65,-3.91,-3.91,280,368,430,467,373,21
1892,0.12,0.77,0.63,-8.97,-2.32,-4.27,280,366,430,461,370,21
1893,0.07,0.83,0.59,-3.42,-2.38,-4.94,277,370,428,463,371,21
1894,0.11,0.8,0.59,-0.24,-2.81,-2.93,278,384,430,464,368,21
1895,0.12,0.81,0.58,-4.7,-3.72,-2.08,275,370,433,461,372,21
1896,0.11,0.82,0.59,0.55,-5.37,-0.73,280,373,429,461,371,21
1897,0.12,0.81,0.59,-1.89,-1.71,-3.05,279,374,428,457,371,21
1898,0.1,0.81,0.62,-2.81,-2.99,-3.17,281,373,429,461,371,21
1899,0.12,0.8,0.6,-3.11,-4.27,-2.62,279,371,429,462,369,21
1900,0.11,0.79,0.61,0.92,-3.36,-2.08,281,379,430,461,373,21
1901,0.1,0.8,0.62,-9.09,-3.05,-3.6,281,375,428,461,372,21
1902,0.12,0.79,0.61,-0.06,-3.3,-2.5,282,376,431,465,369,21
1903,0.09,0.8,0.62,-3.48,0.0,-2.93,284,393,431,460,368,21
1904,0.1,0.79,0.62,-2.56,-2.08,-2.44,283,385,430,463,373,21
1905,0.11,0.78,0.63,-1.83,-2.32,-2.38,286,385,433,461,373,21
1906,0.14,0.79,0.59,1.59,-2.5,-2.81,285,389,431,465,371,21
1907,0.13,0.8,0.58,-4.21,-4.39,-3.11,284,391,427,459,372,21
1908,0.11,0.79,0.63,-9.7,0.43,-7.39,283,384,431,462,370,21
1909,0.11,0.77,0.6,1.53,-3.23,-0.85,284,386,431,462,374,21
1910,0.11,0.78,0.64,-4.33,-1.71,-3.36,282,388,429,457,372,21
1911,0.08,0.76,0.62,1.04,-2.5,-3.05,284,384,432,465,373,21
1912,0.12,0.78,0.62,7.51,-2.5,0.06,282,387,432,461,372,21
1913,0.12,0.78,0.61,1.46,-4.03,-2.01,284,386,426,464,371,21
1914,0.13,0.8,0.61,7.2,-1.16,-2.01,284,397,430,463,369,21
1915,0.09,0.86,0.66,0.67,0.43,-2.5,286,389,430,460,372,21
1916,0.1,0.76,0.66,10.5,-1.59,-3.42,287,395,427,460,373,21
1917,0.07,0.79,0.63,2.26,0.61,-0.31,291,405,431,461,372,21
1918,0.12,0.76,0.64,-2.38,-5.8,-3.66,312,405,429,459,369,21
1919,0.13,0.77,0.64,-3.91,-2.87,-1.77,288,407,432,464,375,21
1920,0.11,0.75,0.64,2.26,-1.46,-0.61,289,407,427,454,372,21
1921,0.11,0.75,0.64,2.69,-1.28,-3.36,289,403,430,461,374,21
1922,0.14,0.78,0.63,7.63,-4.58,-2.32,287,404,430,459,375,21
1923,0.14,0.78,0.62,-7.14,-6.35,9.58,287,405,431,459,376,21
1924,0.14,0.72,0.58,-13.73,-3.72,0.37,287,405,427,459,374,21
1925,0.13,0.72,0.63,11.05,9.46,3.85,286,401,430,462,370,21
1926,0.17,0.76,0.61,4.33,-9.83,-5.25,287,404,431,460,371,21
1927,0.18,0.81,0.59,-4.39,-3.6,-6.59,287,405,429,459,373,21
1928,0.11,0.76,0.63,-10.74,-2.38,-6.1,290,397,428,459,371,21
1929,0.13,0.78,0.61,6.65,-1.46,-2.26,288,398,429,470,365,21
1930,0.13,0.78,0.59,1.46,-3.85,-1.65,283,398,432,459,368,21
1931,0.09,0.81,0.56,12.7,0.31,-9.52,278,375,429,460,371,21
1932,0.13,0.82,0.58,-6.29,-3.48,-2.93,277,377,429,452,367,21
1933,0.1,0.8,0.57,2.38,-0.98,-5.25,276,376,427,455,370,21
1934,0.09,0.78,0.61,-3.91,-4.03,-6.41,278,378,429,459,369,21
1935,0.1,0.79,0.61,-1.65,-0.98,-2.87,277,377,430,463,371,21
1936,0.09,0.78,0.64,-5.98,-2.81,-3.23,281,378,429,458,367,21
1937,0.09,0.79,0.6,7.26,-3.72,0.98,277,376,431,461,370,21
1938,0.11,0.81,0.6,5.98,0.12,-2.08,282,376,429,461,374,21
1939,0.14,0.75,0.59,0.18,-5.37,-0.24,280,375,431,458,370,21
1940,0.07,0.78,0.55,-8.67,-5.13,1.89,270,376,431,461,375,21
1941,0.04,0.86,0.59,4.76,-1.4,-23.44,280,378,430,466,375,21
1942,0.05,0.82,0.66,-6.9,-2.75,6.59,279,375,429,458,369,21
1943,0.08,0.82,0.62,-0.61,-3.91,-7.81,282,385,431,463,372,21
1944,0.13,0.82,0.59,-0.37,-7.81,-0.12,283,376,430,462,372,21
1945,0.11,0.83,0.61,3.54,-5.68,-5.98,292,381,431,460,372,21
1946,0.12,0.8,0.59,1.89,-5.13,-3.05,279,379,429,461,370,21
1947,0.14,0.79,0.56,4.09,-3.6,-3.3,280,378,430,461,372,21
1948,0.13,0.82,0.58,1.1,-5.13,-1.65,282,384,430,461,370,21
1949,0.13,0.84,0.58,-4.64,-4.15,-2.87,284,380,432,458,374,21
1950,0.14,0.81,0.56,2.81,-4.88,-3.17,280,382,433,461,371,21
1951,0.14,0.81,0.56,0.18,-4.64,-3.05,283,382,431,457,373,21
1952,0.14,0.81,0.55,2.69,-4.94,-3.91,280,381,430,462,371,21
1953,0.14,0.83,0.57,-1.1,-4.27,-3.05,281,380,430,456,372,21
1954,0.08,0.79,0.56,-0.92,-2.44,-2.56,282,379,432,462,373,21
1955,0.12,0.83,0.56,6.77,-3.05,-1.71,281,378,432,462,376,21
1956,0.13,0.83,0.58,-2.44,-2.87,-2.62,284,381,433,466,372,21
1957,0.12,0.83,0.57,3.11,-0.73,-4.27,284,381,431,465,374,21
1958,0.13,0.84,0.57,-1.16,-3.3,-1.83,283,380,434,463,371,21
1959,0.13,0.82,0.58,-0.92,-3.66,-2.69,280,381,431,462,372,21
1960,0.13,0.82,0.58,1.04,-3.17,-2.81,279,385,427,458,372,21
1961,0.14,0.84,0.58,0.24,-2.32,-3.3,280,385,432,465,372,21
1962,0.12,0.81,0.55,9.03,-0.18,-2.81,286,383,431,456,367,21
1963,0.11,0.84,0.51,-36.13,52.0,19.1,271,376,429,457,362,21
1964,0.15,0.72,0.58,-16.78,-16.36,-4.64,274,384,433,458,364,21
1965,0.06,0.76,0.67,-13.24,0.31,0.92,276,372,428,461,368,21
1966,0.1,0.74,0.68,-2.93,-6.29,0.49,279,379,434,460,369,21
1967,0.08,0.73,0.67,-1.1,-2.99,-2.87,277,384,430,463,369,21
1968,0.09,0.75,0.69,1.28,-0.92,-6.04,280,385,430,462,365,21
1969,0.07,0.74,0.66,0.67,-2.2,-3.42,282,376,433,458,369,21
1970,0.07,0.74,0.67,-1.95,-3.78,-1.22,283,384,438,459,367,21
1971,0.09,0.76,0.65,2.01,-4.09,-1.59,283,382,432,456,365,21
1972,0.09,0.76,0.66,-1.77,-6.23,-2.81,282,386,430,460,369,21
1973,0.09,0.76,0.65,2.01,-5.31,-1.4,287,379,431,459,366,21
1974,0.13,0.8,0.61,4.82,-8.3,3.05,277,385,430,463,368,21
1975,0.12,0.77,0.63,0.06,-5.25,-0.73,281,386,431,454,371,21
1976,0.14,0.75,0.62,2.01,-6.65,-1.22,282,387,427,459,375,21
1977,0.18,0.76,0.64,6.71,-6.23,-9.52,277,397,431,455,360,21
1978,0.05,0.69,0.58,13.18,-13.61,15.38,278,385,427,454,362,21
1979,0.14,0.68,0.54,-5.98,-12.94,1.22,279,386,431,457,365,21
1980,0.04,0.79,0.61,0.98,9.4,0.37,281,387,432,460,366,21
1981,0.14,0.8,0.6,0.18,-4.52,-4.94,282,382,430,460,365,21
1982,0.11,0.81,0.6,1.71,-2.75,1.59,278,383,434,457,366,21
1983,0.12,0.81,0.61,-2.38,-3.11,-1.28,277,385,429,456,369,21
1984,0.09,0.77,0.59,1.1,-3.23,-5.49,278,385,429,455,367,21
1985,0.11,0.8,0.6,1.71,-1.28,-3.36,278,392,430,459,368,21
1986,0.09,0.81,0.61,-0.06,-2.56,-4.52,280,377,427,459,365,21
1987,0.1,0.8,0.57,7.45,-1.77,0.12,278,385,430,458,368,21
1988,0.14,0.83,0.56,2.87,-6.53,0.12,278,381,430,458,367,21
1989,0.12,0.8,0.57,-2.38,-0.85,-4.09,275,384,428,461,363,21
1990,0.11,0.8,0.55,-3.54,-4.27,-1.28,276,382,429,456,366,21
1991,0.11,0.8,0.56,-17.4,-2.5,-6.23,269,386,428,454,364,21
1992,0.13,0.8,0.57,-1.16,-3.23,-1.53,268,382,430,455,368,21
1993,0.1,0.84,0.54,1.77,-3.91,-5.49,274,379,433,456,369,21
1994,0.11,0.83,0.55,-1.77,-4.76,-1.16,277,384,430,458,370,21
1995,0.1,0.81,0.55,1.59,-3.91,-1.04,275,383,431,451,370,21
1996,0.11,0.81,0.56,-3.3,-3.85,-0.79,275,386,429,458,368,21
1997,0.12,0.83,0.56,0.61,-2.93,-1.59,275,383,429,453,369,21
1998,0.14,0.82,0.54,4.46,-6.1,-1.59,273,388,427,454,371,21
1999,0.11,0.83,0.55,2.08,-3.6,-1.34,278,382,427,451,371,21
2000,0.12,0.84,0.56,1.04,-1.77,-2.87,279,385,428,458,370,21
2001,0.1,0.84,0.54,5.86,-4.39,-4.82,276,384,430,456,372,21
2002,0.11,0.84,0.56,-1.22,-1.4,-0.55,278,382,427,454,371,21
2003,0.11,0.84,0.57,6.71,-3.54,-1.28,279,380,429,459,371,21
2004,0.11,0.81,0.58,2.44,-3.48,-4.21,275,380,423,450,367,21
2005,0.12,0.81,0.58,2.26,-2.93,-0.98,280,382,426,451,367,21
2006,0.1,0.82,0.59,-0.98,-3.42,-3.48,280,381,429,461,368,21
2007,0.11,0.78,0.57,1.28,-4.46,-1.59,279,382,427,458,370,21
2008,0.09,0.81,0.58,-5.86,-4.09,-1.53,280,381,428,461,372,21
2009,0.07,0.8,0.56,-2.32,-2.14,-1.22,281,384,430,462,370,21
2010,0.12,0.81,0.59,-5.31,-2.93,-3.72,280,380,428,458,372,21
2011,0.08,0.81,0.56,1.83,-5.0,-1.4,281,388,431,454,370,21
2012,0.08,0.81,0.58,-1.28,-2.62,-1.71,282,385,429,457,369,21
2013,0.08,0.8,0.57,-5.25,-2.56,-6.35,280,383,428,459,369,21
2014,0.09,0.81,0.59,2.69,-3.97,-0.79,279,377,429,460,375,21
2015,0.08,0.79,0.58,-2.14,-3.23,-2.56,280,386,430,459,374,21
2016,0.1,0.82,0.59,-1.59,-4.58,-3.91,282,380,430,461,372,21
2017,0.07,0.81,0.58,-2.08,-3.3,-1.4,281,381,432,458,374,21
2018,0.08,0.81,0.58,1.16,-2.5,-2.87,281,380,429,463,374,21
2019,0.07,0.82,0.58,-0.18,-3.72,-2.99,282,381,432,459,374,21
2020,0.06,0.81,0.57,1.77,-3.3,-2.01,273,381,431,457,370,21
2021,0.07,0.82,0.58,0.55,-2.44,-3.05,284,389,427,464,371,21
2022,0.09,0.82,0.56,1.46,-5.07,-1.77,285,389,430,465,373,21
2023,0.07,0.81,0.56,0.55,-1.65,-3.11,287,384,429,462,375,21
