,aX,aY,aZ,gX,gY,gZ,little,ring,middle,index,thumb,number
0,0.94,-0.3,0.19,-0.31,-2.62,-1.83,220,258,186,461,315,22
1,0.93,-0.29,0.2,0.79,-2.93,-2.38,218,258,184,459,320,22
2,0.93,-0.31,0.19,0.31,-2.93,-3.23,223,256,188,457,321,22
3,0.93,-0.31,0.19,1.46,-1.53,-1.77,219,257,187,459,320,22
4,0.94,-0.31,0.18,-0.85,-3.66,-2.32,223,258,186,452,322,22
5,0.94,-0.3,0.19,-0.37,-2.69,-4.09,224,255,188,456,319,22
6,0.95,-0.29,0.21,0.98,-4.03,-0.85,224,253,186,456,323,22
7,0.94,-0.32,0.18,-2.14,-1.65,-4.27,224,254,187,452,318,22
8,0.93,-0.32,0.18,-0.49,-4.33,-2.14,222,269,185,458,325,22
9,0.96,-0.31,0.17,-1.04,-2.5,-3.78,221,256,187,461,323,22
10,0.95,-0.33,0.17,-1.28,-3.72,-3.48,221,258,188,458,323,22
11,0.94,-0.32,0.17,-0.37,-3.17,-1.34,217,258,193,461,325,22
12,0.94,-0.32,0.16,-1.04,-7.63,-0.92,225,257,187,459,323,22
13,0.93,-0.28,0.21,-0.24,-1.65,-2.81,224,255,201,462,325,22
14,0.94,-0.32,0.15,3.97,-3.78,-2.81,225,260,191,457,326,22
15,0.95,-0.34,0.13,-2.99,-2.81,-1.53,220,258,192,457,325,22
16,0.94,-0.35,0.13,0.31,-2.75,-4.7,225,260,190,461,325,22
17,0.95,-0.31,0.15,0.43,-3.42,-3.48,225,258,189,458,327,22
18,0.94,-0.32,0.16,-1.1,-1.28,-2.81,224,263,192,457,326,22
19,0.95,-0.32,0.15,-0.43,-3.17,-3.05,223,260,189,459,326,22
20,0.94,-0.31,0.16,1.53,-2.5,-2.44,224,259,191,460,327,22
21,0.94,-0.33,0.15,0.43,-3.23,-2.81,223,261,192,461,327,22
22,0.95,-0.33,0.14,-1.59,-2.69,-4.09,221,258,194,457,322,22
23,0.92,-0.34,0.15,-1.22,-3.3,-1.59,225,258,195,457,324,22
24,0.95,-0.32,0.15,3.23,-3.23,-2.5,225,261,192,462,325,22
25,0.92,-0.33,0.16,-0.31,-2.69,-1.1,222,261,199,457,325,22
26,0.93,-0.33,0.14,-2.14,-2.75,-3.23,220,265,195,453,323,22
27,0.94,-0.33,0.16,0.85,-2.81,-2.38,217,258,196,465,324,22
28,0.93,-0.32,0.17,5.25,-1.53,-3.23,223,257,195,456,318,22
29,0.93,-0.33,0.17,0.79,-2.62,-2.32,223,260,189,456,315,22
30,0.94,-0.32,0.17,0.49,-3.78,-2.32,224,258,192,459,317,22
31,0.93,-0.3,0.2,0.55,-2.32,-0.55,222,257,192,460,330,22
32,0.95,-0.31,0.19,2.01,-3.17,-2.38,222,259,195,456,323,22
33,0.93,-0.32,0.17,-0.49,-2.44,-2.62,220,261,191,459,322,22
34,0.94,-0.32,0.16,0.31,-2.69,-3.05,224,260,193,459,322,22
35,0.94,-0.33,0.17,0.49,-2.87,-2.38,223,260,197,454,321,22
36,0.94,-0.34,0.15,-0.37,-4.27,-2.08,223,257,192,459,321,22
37,0.94,-0.32,0.18,0.24,-1.1,-3.6,221,260,195,459,321,22
38,0.94,-0.32,0.17,-0.43,-2.44,-3.17,224,257,201,459,317,22
39,0.93,-0.31,0.19,-2.2,-4.52,-1.65,227,259,197,461,322,22
40,0.94,-0.33,0.16,-0.18,-3.72,-1.4,222,258,195,464,322,22
41,0.96,-0.34,0.13,4.09,-2.01,-5.68,222,257,197,458,323,22
42,0.93,-0.33,0.17,0.37,-6.1,5.25,225,258,203,459,324,22
43,0.94,-0.3,0.17,-1.16,-3.05,-2.69,232,260,196,459,323,22
44,0.89,-0.34,0.2,-0.85,-4.39,2.62,223,265,196,463,323,22
45,0.93,-0.32,0.17,-5.86,0.85,-5.49,224,262,196,461,325,22
46,0.93,-0.32,0.16,0.43,-4.09,-3.6,223,258,199,460,321,22
47,0.92,-0.34,0.16,1.71,-2.93,-2.75,223,259,197,462,321,22
48,0.94,-0.35,0.13,-2.5,-5.0,-0.24,221,259,199,464,323,22
49,0.93,-0.34,0.15,-3.6,-3.42,-1.59,217,260,195,463,323,22
50,0.93,-0.34,0.15,1.65,-3.85,-2.14,215,260,196,462,323,22
51,0.93,-0.33,0.16,0.92,-3.6,-1.53,210,260,198,464,324,22
52,0.92,-0.36,0.14,2.01,-3.97,-0.98,215,262,195,463,324,22
53,0.94,-0.34,0.14,0.61,-2.5,-3.54,214,256,196,463,322,22
54,0.94,-0.34,0.15,-1.4,-1.28,-3.72,216,263,197,458,324,22
55,0.98,-0.31,0.14,4.88,-6.53,2.93,217,261,195,464,332,22
56,0.92,-0.35,0.12,-5.49,0.98,-4.27,214,259,195,465,324,22
57,0.93,-0.34,0.14,-2.62,-3.42,-2.99,213,261,198,462,324,22
58,0.94,-0.34,0.13,-1.4,-3.36,-2.56,216,260,200,467,333,22
59,0.93,-0.34,0.13,0.67,-3.11,-3.23,219,260,209,463,325,22
60,0.94,-0.34,0.14,0.49,-3.17,-2.87,216,262,199,463,322,22
61,0.94,-0.34,0.13,1.53,-2.87,-2.69,216,260,200,462,325,22
62,0.93,-0.34,0.13,-0.18,-3.78,-1.77,219,264,200,467,326,22
63,0.93,-0.32,0.14,-1.16,-1.46,-3.36,216,260,195,465,323,22
64,0.93,-0.33,0.13,-0.49,-2.93,-2.44,216,261,200,464,325,22
65,0.94,-0.34,0.12,-0.24,-2.69,-2.75,218,263,201,467,326,22
66,0.94,-0.34,0.12,0.0,-2.69,-2.5,220,262,197,466,324,22
67,0.94,-0.34,0.12,0.06,-2.93,-3.11,215,265,199,465,321,22
68,0.93,-0.34,0.12,-1.1,-3.23,-1.83,219,266,197,463,323,22
69,0.94,-0.36,0.09,-1.04,-6.16,-2.26,217,263,201,476,323,22
70,0.95,-0.33,0.11,0.24,-0.73,-3.11,217,261,196,463,325,22
71,0.93,-0.31,0.12,-0.31,-3.17,-1.71,217,260,198,463,329,22
72,0.94,-0.34,0.12,0.79,-3.72,-1.4,217,261,198,466,321,22
73,0.95,-0.32,0.13,-0.12,-2.75,-1.77,211,261,194,469,326,22
74,0.94,-0.33,0.13,-0.92,-2.99,-2.32,219,261,201,460,324,22
75,0.95,-0.33,0.11,-0.55,-3.17,-2.87,220,262,199,468,327,22
76,0.94,-0.33,0.11,-0.06,-2.93,-1.95,218,263,199,466,322,22
77,0.94,-0.34,0.12,-0.43,-3.17,-2.08,219,265,199,459,327,22
78,0.94,-0.34,0.11,1.59,-3.11,-2.26,217,260,201,464,320,22
79,0.94,-0.33,0.12,0.37,-2.81,-3.66,218,263,204,466,325,22
80,0.95,-0.34,0.11,1.04,-2.5,-2.69,219,261,198,459,323,22
81,0.94,-0.34,0.11,-1.16,-2.93,-3.05,212,265,201,465,324,22
82,0.94,-0.33,0.11,-0.18,-2.38,-2.56,219,262,199,468,325,22
83,0.94,-0.34,0.12,1.04,-3.05,-2.69,220,269,200,465,322,22
84,0.95,-0.33,0.12,-0.85,-2.69,-3.6,218,261,202,464,323,22
85,0.94,-0.34,0.11,0.98,-2.14,-3.78,215,264,203,464,333,22
86,0.95,-0.34,0.11,-0.85,-2.62,-2.69,218,262,201,465,326,22
87,0.94,-0.34,0.1,-0.61,-4.21,-1.83,215,263,200,459,325,22
88,0.94,-0.35,0.09,0.06,-2.01,-3.11,217,264,202,464,321,22
89,0.94,-0.34,0.1,-0.55,-2.93,-2.87,218,265,200,465,321,22
90,0.94,-0.34,0.1,0.0,-2.99,-2.32,221,258,198,465,326,22
91,0.94,-0.34,0.1,0.12,-2.81,-2.75,217,261,215,465,327,22
92,0.94,-0.34,0.1,-0.18,-2.32,-2.56,220,261,202,465,326,22
93,0.95,-0.34,0.1,1.71,-2.93,-2.75,221,265,203,464,324,22
94,0.94,-0.33,0.1,0.49,-2.81,-3.05,216,262,202,466,325,22
95,0.96,-0.33,0.08,-4.58,-3.72,-2.38,220,262,206,460,324,22
96,0.93,-0.38,0.05,0.79,-3.72,-0.98,219,262,202,467,314,22
97,0.95,-0.33,0.11,3.23,-0.85,-6.1,218,263,203,463,325,22
98,0.92,-0.34,0.11,1.59,-2.93,-3.78,219,266,201,467,322,22
99,0.94,-0.33,0.1,-1.22,-1.95,-4.15,216,265,199,466,328,22
100,0.95,-0.32,0.11,-0.43,-2.62,-2.81,220,260,204,465,326,22
101,0.94,-0.33,0.1,-0.55,-2.56,-3.3,218,265,201,466,323,22
102,0.94,-0.33,0.11,1.16,-2.87,-3.23,218,264,199,469,326,22
103,0.95,-0.32,0.11,0.73,-2.14,-3.72,219,264,200,465,314,22
104,0.95,-0.32,0.11,1.22,-2.99,-2.87,220,263,201,464,326,22
105,0.94,-0.31,0.12,1.22,-2.14,-2.5,221,263,201,466,328,22
106,0.95,-0.31,0.13,2.08,-1.95,-5.55,220,263,200,467,326,22
107,0.95,-0.3,0.13,1.22,-3.91,-1.16,224,264,203,465,326,22
108,0.95,-0.31,0.13,1.04,-2.75,0.06,221,265,204,461,327,22
109,0.91,-0.34,0.12,-7.39,-2.75,2.26,218,263,202,461,325,22
110,0.92,-0.33,0.12,1.89,0.79,-6.53,220,266,199,466,327,22
111,0.95,-0.32,0.11,1.59,-1.1,-3.11,222,262,211,465,331,22
112,0.93,-0.32,0.12,0.18,-0.06,-5.62,221,265,202,464,322,22
113,0.94,-0.3,0.14,0.24,-3.72,-5.98,219,265,202,461,324,22
114,0.94,-0.3,0.12,0.61,-3.11,-3.17,220,265,201,465,330,22
115,0.96,-0.31,0.12,-0.24,-2.99,-2.56,218,264,202,465,324,22
116,0.93,-0.32,0.12,0.73,-1.77,-5.86,219,265,200,466,328,22
117,0.94,-0.3,0.13,0.12,-4.76,-1.71,222,265,202,465,324,22
118,0.95,-0.29,0.14,-1.89,-5.37,-1.34,219,261,214,463,329,22
119,0.96,-0.29,0.12,0.85,-5.07,-3.05,218,262,202,467,327,22
120,0.94,-0.32,0.1,-1.77,-5.86,0.06,220,266,208,464,328,22
121,0.93,-0.34,0.08,-0.31,-3.48,-0.79,226,262,202,465,326,22
122,0.93,-0.34,0.1,-0.67,-1.71,-3.23,221,265,202,476,323,22
123,0.94,-0.3,0.14,-6.59,-3.11,-4.52,221,263,200,467,327,22
124,0.94,-0.35,0.07,7.02,-8.85,2.01,218,263,200,465,328,22
125,0.95,-0.36,0.06,-0.92,-3.66,-2.93,222,264,205,467,328,22
126,0.94,-0.34,0.1,2.01,-1.71,-1.46,220,264,200,461,326,22
127,0.94,-0.33,0.12,1.89,0.92,-6.35,220,260,203,460,329,22
128,0.94,-0.33,0.13,-0.31,-1.04,0.79,220,259,201,469,325,22
129,0.91,-0.33,0.14,4.88,-8.85,-0.61,222,267,205,465,327,22
130,0.93,-0.33,0.15,-3.91,-0.18,-0.24,220,266,204,464,330,22
131,0.97,-0.33,0.12,3.48,-1.46,-5.62,222,264,204,465,325,22
132,0.92,-0.34,0.13,-1.28,-2.75,-4.09,222,262,204,468,328,22
133,0.94,-0.32,0.15,0.31,-4.09,-1.34,222,271,202,464,330,22
134,0.94,-0.32,0.14,0.12,-2.01,-3.85,219,263,202,465,328,22
135,0.95,-0.32,0.14,-0.37,-3.36,-2.32,221,265,204,465,330,22
136,0.93,-0.33,0.14,-2.2,-2.99,-1.77,220,264,202,466,330,22
137,0.94,-0.35,0.11,2.32,-4.64,-2.26,221,264,204,468,325,22
138,0.94,-0.36,0.09,-1.77,-2.93,-5.31,217,265,202,467,326,22
139,0.94,-0.34,0.12,-1.65,-2.87,-2.2,220,265,203,467,331,22
140,0.94,-0.34,0.11,0.43,-3.3,-2.32,222,264,205,465,328,22
141,0.93,-0.35,0.11,-0.24,-2.38,-3.3,220,268,198,469,330,22
142,0.93,-0.34,0.12,-0.55,-2.32,-2.2,220,262,201,466,328,22
143,0.94,-0.34,0.11,-0.24,-2.87,-2.81,223,266,201,468,329,22
144,0.93,-0.34,0.11,0.37,-3.6,-2.14,221,262,200,468,330,22
145,0.94,-0.35,0.11,-0.31,-2.75,-2.56,220,262,202,465,329,22
146,0.94,-0.34,0.11,-0.12,-2.93,-1.95,218,264,205,468,329,22
147,0.94,-0.34,0.12,1.4,-2.5,-3.54,220,263,206,468,329,22
148,0.94,-0.34,0.11,0.24,-2.69,-3.36,218,262,202,466,329,22
149,0.94,-0.34,0.11,0.67,-2.75,-2.81,220,267,201,464,330,22
150,0.93,-0.33,0.12,1.46,-2.93,-3.17,223,266,205,467,330,22
151,0.94,-0.33,0.12,-0.24,-2.62,-3.54,221,266,205,465,318,22
152,0.94,-0.34,0.12,0.85,-3.36,-1.89,220,266,202,463,330,22
153,0.94,-0.34,0.11,0.0,-2.81,-2.75,219,266,202,466,332,22
154,0.94,-0.34,0.11,-0.31,-2.69,-3.11,218,263,204,468,330,22
155,0.94,-0.34,0.11,-0.49,-2.93,-2.5,220,264,203,469,323,22
156,0.95,-0.34,0.11,0.79,-3.6,-2.2,222,274,203,466,332,22
157,0.94,-0.34,0.11,-0.06,-2.44,-2.93,220,262,206,466,331,22
158,0.93,-0.34,0.11,-0.06,-2.62,-3.11,223,266,210,461,331,22
159,0.93,-0.34,0.11,0.24,-2.75,-2.38,220,266,205,464,330,22
160,0.94,-0.34,0.11,0.06,-2.2,-3.3,223,265,209,464,332,22
161,0.94,-0.34,0.11,0.85,-2.75,-3.05,220,267,217,460,330,22
162,0.95,-0.35,0.11,0.79,-2.62,-2.75,220,272,206,459,331,22
163,0.93,-0.35,0.11,2.26,-4.27,-1.34,222,264,206,464,331,22
164,0.95,-0.34,0.1,0.55,-4.46,-4.46,218,264,201,468,328,22
165,0.94,-0.34,0.1,0.79,-3.54,-2.62,223,265,202,470,336,22
166,0.94,-0.34,0.1,1.04,-5.68,-3.66,221,266,202,465,332,22
167,0.92,-0.35,0.09,-4.39,-4.03,-2.5,220,264,203,461,327,22
168,0.94,-0.32,0.11,-0.49,-3.05,-2.69,225,264,201,466,332,22
169,0.94,-0.34,0.1,-1.16,-3.3,-1.89,223,266,204,463,329,22
170,0.93,-0.33,0.09,-0.49,-2.01,-2.99,223,264,200,465,328,22
171,0.94,-0.35,0.09,1.59,-2.93,-3.17,223,266,205,468,333,22
172,0.94,-0.34,0.1,0.79,-2.44,-2.62,221,264,206,466,328,22
173,0.94,-0.34,0.1,1.04,-2.08,-3.36,214,264,206,467,332,22
174,0.94,-0.34,0.1,0.18,-2.81,-2.69,222,263,203,465,333,22
175,0.94,-0.34,0.1,1.1,-3.3,-2.81,260,264,220,459,331,22
176,0.94,-0.34,0.1,2.26,-2.99,-2.08,228,263,206,463,331,22
177,0.94,-0.33,0.1,0.92,-3.05,-3.23,220,267,204,460,328,22
178,0.94,-0.34,0.1,1.34,-3.23,-1.83,222,264,209,464,331,22
179,0.95,-0.34,0.1,0.73,-3.72,-1.53,224,267,206,469,332,22
180,0.94,-0.33,0.1,0.31,-2.87,-2.44,218,264,204,468,330,22
181,0.94,-0.34,0.1,-0.73,-3.05,-1.95,222,265,204,467,332,22
182,0.93,-0.34,0.1,-0.67,-3.66,-0.98,222,264,206,466,332,22
183,0.94,-0.34,0.1,-1.22,-3.11,-1.89,223,261,204,460,331,22
184,0.94,-0.35,0.09,-1.34,-3.11,-2.2,222,263,212,466,330,22
185,0.93,-0.35,0.08,-0.24,-2.99,-2.26,224,262,205,469,328,22
186,0.92,-0.36,0.08,1.34,-3.17,-1.89,236,266,204,459,331,22
187,0.94,-0.36,0.08,0.61,-3.66,-1.71,220,267,208,465,327,22
188,0.94,-0.36,0.08,0.61,-3.66,-3.42,222,276,205,469,327,22
189,0.93,-0.35,0.09,1.46,-3.6,-2.62,219,263,204,469,331,22
190,0.93,-0.34,0.1,2.08,-3.78,-1.89,221,266,205,465,332,22
191,0.94,-0.34,0.09,0.92,-1.95,-4.15,222,264,208,461,329,22
192,0.93,-0.35,0.1,-0.06,-3.54,-1.83,212,267,206,469,331,22
193,0.94,-0.35,0.09,-1.28,-3.3,-2.5,220,265,207,469,333,22
194,0.93,-0.35,0.09,-0.12,-2.99,-1.89,218,265,203,461,331,22
195,0.94,-0.35,0.09,-0.18,-2.5,-2.62,220,266,204,465,333,22
196,0.94,-0.35,0.09,0.24,-3.3,-1.83,222,265,200,465,330,22
197,0.93,-0.36,0.07,0.61,-3.17,-2.14,221,267,203,464,333,22
198,0.93,-0.35,0.08,1.59,-2.5,-3.48,224,264,207,459,334,22
199,0.94,-0.35,0.09,0.85,-2.5,-3.11,221,281,207,465,331,22
200,0.94,-0.35,0.09,0.85,-2.62,-2.87,223,269,205,463,333,22
201,0.94,-0.35,0.09,1.1,-2.38,-3.05,220,262,205,461,332,22
202,0.94,-0.34,0.1,0.98,-2.75,-2.44,222,264,206,468,330,22
203,0.93,-0.34,0.1,1.83,-3.23,-2.56,221,264,202,466,329,22
204,0.95,-0.34,0.09,3.54,-2.14,-4.33,230,265,208,461,330,22
205,0.91,-0.35,0.1,2.26,-1.77,-6.47,223,268,208,464,329,22
206,0.94,-0.29,0.13,3.05,-4.03,-3.97,221,262,206,464,333,22
207,0.94,-0.32,0.13,1.95,-3.23,-1.71,218,267,209,464,332,22
208,0.96,-0.32,0.12,-2.99,-3.6,-3.05,221,266,208,464,331,22
209,0.93,-0.34,0.11,3.3,-2.69,-3.91,221,265,212,470,332,22
210,0.93,-0.33,0.11,-2.69,-3.3,-2.32,221,264,204,465,334,22
211,0.94,-0.32,0.11,3.17,-1.04,-2.81,220,265,209,464,333,22
212,0.96,-0.3,0.09,-1.34,-1.95,-3.85,220,263,208,460,330,22
213,0.94,-0.35,0.08,1.71,-2.75,-3.36,220,267,208,467,331,22
214,0.94,-0.33,0.1,-0.67,-2.32,-2.01,221,262,208,464,332,22
215,0.94,-0.33,0.11,-0.73,-3.66,-2.01,221,262,205,467,328,22
216,0.95,-0.33,0.1,0.55,-2.5,-2.99,223,266,208,464,332,22
217,0.94,-0.33,0.11,0.73,-3.3,-1.77,221,264,206,468,332,22
218,0.95,-0.33,0.09,-0.37,-2.87,-3.23,222,262,206,466,330,22
219,0.95,-0.32,0.11,-1.71,-3.48,-1.46,224,267,205,465,337,22
220,0.93,-0.33,0.11,-0.24,-2.56,-4.52,221,267,207,465,331,22
221,0.95,-0.32,0.12,-2.32,-2.87,-1.16,223,266,209,464,331,22
222,0.93,-0.34,0.11,-0.31,-3.23,-3.91,221,264,205,469,334,22
223,0.95,-0.32,0.11,0.18,-2.38,-1.77,216,266,209,469,328,22
224,0.93,-0.33,0.12,1.4,-2.5,-2.38,224,264,206,465,331,22
225,0.95,-0.32,0.11,1.95,-1.95,-3.23,223,265,206,469,331,22
226,0.93,-0.34,0.1,2.01,-1.71,-4.33,221,264,208,466,331,22
227,0.94,-0.32,0.12,2.01,-3.3,-1.95,225,266,208,461,329,22
228,0.93,-0.33,0.12,-0.85,-2.5,-1.71,220,267,206,465,333,22
229,0.95,-0.32,0.1,0.0,-2.87,-3.54,235,263,206,466,334,22
230,0.94,-0.32,0.12,-0.55,-2.32,-2.01,221,263,206,463,331,22
231,0.94,-0.33,0.12,2.5,-3.72,-0.12,222,266,210,476,328,22
232,0.95,-0.34,0.11,-1.1,-1.65,-3.54,222,265,208,465,330,22
233,0.94,-0.32,0.12,1.46,-3.3,-2.08,220,266,204,466,331,22
234,0.94,-0.33,0.12,2.08,-3.42,-1.59,220,267,208,467,329,22
235,0.94,-0.33,0.11,0.06,-4.94,-2.93,225,268,210,468,333,22
236,0.93,-0.31,0.14,0.55,-3.11,-1.16,228,268,209,463,331,22
237,0.94,-0.34,0.12,0.92,-2.69,-3.91,227,267,206,478,335,22
238,0.94,-0.32,0.13,-1.28,-1.83,-1.46,221,265,206,469,331,22
239,0.95,-0.33,0.11,1.59,-2.62,-4.52,221,265,205,466,329,22
240,0.94,-0.32,0.14,-0.12,-3.85,1.34,224,267,206,465,330,22
241,0.95,-0.33,0.12,1.46,-2.62,-3.48,224,264,204,465,330,22
242,0.95,-0.32,0.13,0.85,-2.56,-3.17,223,275,208,465,332,22
243,0.94,-0.33,0.13,1.04,-3.3,-3.66,219,267,212,466,332,22
244,0.93,-0.32,0.14,-0.85,-2.87,-1.89,221,267,207,468,333,22
245,0.93,-0.32,0.14,1.16,-2.56,-2.81,220,267,208,460,331,22
246,0.95,-0.32,0.13,2.2,-3.42,-1.65,223,265,207,460,330,22
247,0.94,-0.32,0.13,2.01,-2.56,-3.05,222,268,209,472,328,22
248,0.93,-0.31,0.14,0.43,-1.59,-5.07,221,266,206,463,330,22
249,0.96,-0.3,0.14,7.2,-0.92,-5.31,220,274,209,464,332,22
250,1.0,-0.4,-0.03,-32.23,-42.24,13.73,223,266,210,468,331,22
251,0.96,-0.38,-0.04,6.29,12.08,-9.34,221,252,208,464,331,22
252,1.0,-0.37,0.03,-5.55,46.26,-27.04,220,266,208,467,342,22
253,1.14,-0.23,0.11,-4.03,-9.46,-4.88,239,265,208,468,334,22
254,0.96,-0.24,0.24,10.56,2.93,-9.09,222,268,210,464,329,22
255,0.94,-0.19,0.27,6.04,2.01,-6.84,234,262,207,464,334,22
256,0.94,-0.25,0.24,1.34,-7.87,1.22,228,268,207,465,332,22
257,0.99,-0.21,0.26,3.42,1.65,-7.08,222,265,207,470,331,22
258,0.95,-0.23,0.25,-5.07,-4.46,0.06,223,261,208,460,329,22
259,0.95,-0.24,0.25,3.6,-2.75,-5.98,222,266,208,465,327,22
260,0.97,-0.24,0.2,1.83,-0.73,-7.63,221,270,207,468,330,22
261,0.98,-0.23,0.21,1.22,-7.39,-1.28,221,266,211,465,330,22
262,0.96,-0.23,0.2,-0.49,-3.48,-3.3,222,265,210,459,327,22
263,0.96,-0.22,0.21,-2.87,-2.69,-4.27,223,267,208,469,330,22
264,0.94,-0.23,0.22,-0.12,-3.97,-1.28,221,267,208,465,332,22
265,0.95,-0.23,0.21,0.37,-2.75,-3.05,221,266,207,465,327,22
266,0.96,-0.23,0.21,-0.37,-4.76,-1.34,225,268,210,466,330,22
267,0.9,-0.23,0.24,-0.06,-4.33,-1.34,222,267,207,465,331,22
268,0.97,-0.24,0.19,-0.37,-4.15,-0.31,223,266,207,465,323,22
269,0.95,-0.24,0.2,0.24,-0.61,-3.91,224,270,211,466,331,22
270,0.96,-0.25,0.2,-0.24,-1.89,-3.11,222,267,209,464,331,22
271,0.94,-0.24,0.21,-0.18,-2.81,-2.56,221,266,208,466,332,22
272,0.99,-0.23,0.19,-0.49,-5.8,-5.43,224,264,207,462,330,22
273,0.96,-0.24,0.21,1.34,-3.11,-2.08,223,271,210,469,333,22
274,0.92,-0.23,0.21,1.46,-4.39,-2.81,221,265,209,466,331,22
275,0.95,-0.24,0.2,0.79,-3.11,-2.01,222,265,208,463,329,22
276,1.0,-0.24,0.18,-1.04,5.43,-0.31,223,267,207,465,326,22
277,0.97,-0.24,0.22,4.27,-3.91,-2.2,223,266,213,467,331,22
278,0.95,-0.25,0.22,0.61,-3.05,-2.99,224,265,213,466,329,22
279,0.95,-0.25,0.22,0.18,-3.66,-3.42,224,266,204,465,333,22
280,0.95,-0.24,0.22,0.49,-3.23,-2.69,224,266,211,460,330,22
281,0.96,-0.25,0.22,-0.43,-2.56,-3.05,220,270,210,465,331,22
282,0.94,-0.25,0.22,0.92,-2.75,-2.99,222,269,208,472,338,22
283,0.95,-0.25,0.22,0.55,-2.69,-2.81,222,264,209,466,334,22
284,0.95,-0.25,0.22,0.06,-2.99,-2.93,219,266,210,466,333,22
285,0.96,-0.25,0.22,0.85,-2.69,-3.11,221,268,207,470,332,22
286,0.96,-0.24,0.22,0.98,-3.17,-2.08,223,268,210,466,328,22
287,0.95,-0.24,0.22,0.24,-2.69,-3.05,251,263,206,462,330,22
288,0.96,-0.24,0.22,1.04,-3.23,-2.5,222,268,209,470,331,22
289,0.95,-0.24,0.22,1.16,-3.6,-0.73,220,266,211,461,333,22
290,0.95,-0.24,0.22,0.61,-4.52,-1.04,223,266,204,464,332,22
291,0.95,-0.25,0.21,0.98,-3.66,-1.83,224,267,208,467,330,22
292,0.97,-0.25,0.2,0.43,-6.47,-2.99,222,264,211,464,332,22
293,0.95,-0.24,0.21,1.1,-2.93,-1.53,221,268,209,463,332,22
294,0.95,-0.25,0.2,0.98,-3.3,-2.75,222,266,212,465,331,22
295,0.95,-0.25,0.2,1.28,-2.75,-3.23,224,265,206,464,332,22
296,0.94,-0.24,0.2,0.98,-3.3,-2.69,223,266,214,465,329,22
297,0.92,-0.22,0.22,3.42,-6.96,1.59,222,265,207,469,332,22
298,0.95,-0.25,0.2,0.06,-1.95,-4.27,221,270,210,465,331,22
299,0.95,-0.25,0.19,1.16,-3.42,-1.46,232,268,211,463,329,22
300,0.95,-0.25,0.19,-0.43,-3.23,-1.95,221,267,209,465,327,22
301,0.92,-0.26,0.21,0.43,-5.0,-1.1,222,264,208,468,332,22
302,0.95,-0.25,0.19,0.67,-2.56,-2.87,219,265,208,465,331,22
303,0.96,-0.25,0.19,0.18,-2.62,-2.93,224,266,211,464,323,22
304,0.95,-0.25,0.19,-0.43,-3.11,-2.75,221,267,206,464,334,22
305,0.95,-0.25,0.18,-0.92,-3.54,-1.59,219,268,209,468,339,22
306,0.97,-0.25,0.18,0.43,-2.87,-2.26,222,270,210,463,330,22
307,0.97,-0.25,0.19,-0.12,-3.3,-2.93,221,268,208,467,332,22
308,0.95,-0.25,0.19,1.71,-3.17,-1.65,221,265,208,462,334,22
309,0.95,-0.25,0.19,-0.43,-3.17,-2.32,221,270,209,465,333,22
310,0.96,-0.25,0.19,0.61,-2.75,-3.05,224,264,211,465,331,22
311,0.96,-0.25,0.19,-0.12,-2.38,-4.03,222,265,211,462,328,22
312,0.96,-0.25,0.18,1.46,-3.05,-2.14,222,267,209,466,328,22
313,0.96,-0.25,0.18,1.28,-2.87,-2.81,251,268,213,465,332,22
314,0.95,-0.24,0.19,0.31,-2.75,-2.62,224,265,207,465,333,22
315,0.96,-0.26,0.18,-0.18,-2.44,-2.81,224,267,208,469,333,22
316,0.95,-0.25,0.19,-0.55,-2.99,-1.89,222,265,207,468,332,22
317,0.95,-0.25,0.19,0.37,-3.17,-2.44,221,266,209,469,332,22
318,0.96,-0.25,0.19,0.55,-2.81,-2.69,223,267,209,469,332,22
319,0.95,-0.25,0.19,-0.37,-2.62,-2.87,222,265,209,467,332,22
320,0.95,-0.25,0.18,-0.06,-2.93,-2.62,224,265,211,464,331,22
321,0.96,-0.25,0.18,1.53,-2.81,-2.44,223,270,213,466,337,22
322,0.95,-0.25,0.19,1.71,-2.93,-2.38,225,268,206,468,333,22
323,0.96,-0.24,0.19,0.67,-4.82,-3.91,225,269,211,467,331,22
324,0.96,-0.24,0.19,0.43,-2.75,-2.62,216,266,209,460,331,22
325,0.96,-0.25,0.19,-0.73,-2.93,-1.83,222,266,206,468,331,22
326,0.96,-0.23,0.2,-0.06,-3.3,-1.77,224,268,207,469,332,22
327,0.97,-0.25,0.18,-1.46,-3.6,-2.38,223,265,209,469,334,22
328,0.95,-0.25,0.19,1.04,-2.81,-2.81,222,269,207,465,339,22
329,0.95,-0.25,0.18,2.56,-3.54,-1.65,222,264,211,462,332,22
330,0.96,-0.25,0.18,0.24,-2.62,-3.36,224,266,212,465,327,22
331,0.95,-0.25,0.19,1.16,-2.93,-2.62,224,267,209,465,330,22
332,0.97,-0.24,0.19,0.0,-2.44,-3.17,223,266,207,469,331,22
333,0.95,-0.24,0.2,0.85,-3.05,-2.75,221,265,211,468,334,22
334,0.96,-0.24,0.19,1.46,-3.6,-2.99,223,268,211,465,334,22
335,0.96,-0.24,0.19,2.08,-3.3,-1.95,223,268,210,469,332,22
336,0.95,-0.25,0.18,-1.04,-3.6,-2.26,224,269,212,464,329,22
337,0.96,-0.25,0.18,-1.22,-3.3,-2.08,217,272,206,468,333,22
338,0.96,-0.25,0.19,-0.49,-2.5,-2.56,222,268,212,460,332,22
339,0.96,-0.26,0.17,0.12,-2.32,-3.17,222,267,212,466,330,22
340,0.96,-0.25,0.19,-0.31,-3.3,-2.56,222,267,209,465,331,22
341,0.96,-0.25,0.18,0.92,-3.23,-2.38,222,266,208,465,332,22
342,0.95,-0.25,0.18,-0.37,-3.36,-2.99,224,268,210,465,335,22
343,0.95,-0.25,0.18,0.67,-3.54,-2.69,225,281,208,465,332,22
344,0.95,-0.25,0.18,1.77,-2.75,-2.69,224,266,210,460,334,22
345,0.95,-0.25,0.19,2.01,-2.5,-2.69,225,268,209,465,335,22
346,0.96,-0.23,0.19,1.4,-2.81,-2.99,225,266,207,466,334,22
347,0.96,-0.24,0.19,0.92,-2.75,-2.87,219,269,211,463,332,22
348,0.96,-0.23,0.2,1.53,-2.75,-3.48,223,263,207,460,330,22
349,0.96,-0.22,0.2,1.65,-2.56,-2.38,224,269,208,459,331,22
350,0.96,-0.23,0.19,-0.43,-2.99,-2.38,224,266,209,467,329,22
351,0.96,-0.23,0.19,0.85,-2.99,-2.62,224,267,209,466,331,22
352,0.96,-0.22,0.2,-0.43,-3.54,-0.98,225,269,211,465,328,22
353,0.95,-0.24,0.19,0.55,-3.54,-1.1,223,266,210,465,334,22
354,0.95,-0.24,0.18,-0.49,-2.81,-2.62,223,268,209,466,333,22
355,0.96,-0.24,0.19,2.01,-2.81,-2.44,222,264,207,462,331,22
356,0.96,-0.24,0.18,1.59,-2.93,-2.87,223,266,211,465,335,22
357,0.96,-0.24,0.19,2.56,-2.56,-3.36,221,266,208,467,329,22
358,0.96,-0.22,0.2,2.2,-3.11,-1.77,223,269,211,462,332,22
359,0.97,-0.23,0.18,0.85,-4.64,-1.95,222,266,216,469,334,22
360,0.96,-0.22,0.2,-1.71,-2.56,-2.2,222,268,210,465,330,22
361,0.95,-0.24,0.19,1.22,-3.17,-2.2,225,268,212,470,333,22
362,0.96,-0.25,0.17,0.0,-3.48,-1.16,226,266,212,466,331,22
363,0.96,-0.25,0.18,-0.06,-3.11,-3.11,222,267,211,464,331,22
364,0.96,-0.24,0.19,-1.1,-3.42,-2.26,222,265,209,468,332,22
365,0.96,-0.24,0.19,1.16,-3.17,-1.83,221,269,211,466,334,22
366,0.96,-0.24,0.19,1.65,-3.05,-2.87,220,266,210,460,333,22
367,0.96,-0.24,0.19,0.61,-3.11,-2.75,224,266,210,464,329,22
368,0.95,-0.24,0.19,1.34,-2.87,-2.62,223,268,212,460,330,22
369,0.96,-0.23,0.19,-0.37,-2.75,-2.81,223,267,210,460,333,22
370,0.96,-0.23,0.19,-1.1,-3.17,-2.2,222,269,208,466,332,22
371,0.96,-0.24,0.19,0.12,-2.93,-2.5,222,264,208,465,333,22
372,0.97,-0.24,0.19,0.79,-2.87,-2.99,222,266,210,465,334,22
373,0.95,-0.25,0.18,-2.08,-4.94,-0.24,224,265,210,469,331,22
374,0.98,-0.23,0.17,5.25,-4.15,-1.95,218,265,223,460,330,22
375,0.96,-0.26,0.17,1.95,-2.2,0.55,225,267,210,462,330,22
376,0.96,-0.26,0.17,3.05,-4.39,-1.46,231,265,216,469,332,22
377,0.94,-0.25,0.19,1.53,-6.1,-0.06,220,266,208,469,333,22
378,0.95,-0.24,0.19,-3.42,-2.69,-2.75,221,263,212,465,333,22
379,0.97,-0.22,0.2,-2.75,-1.34,-1.83,221,266,210,468,333,22
380,0.95,-0.29,0.15,-2.44,-1.65,-3.54,225,267,211,465,334,22
381,0.95,-0.28,0.17,-0.79,-3.11,-2.5,222,269,212,465,330,22
382,0.95,-0.27,0.17,-1.34,-2.5,-3.3,217,268,208,466,328,22
383,0.95,-0.28,0.18,1.28,-3.05,-2.44,224,266,208,465,332,22
384,0.94,-0.27,0.18,-0.61,-3.91,-1.34,224,266,224,466,334,22
385,0.95,-0.28,0.17,-0.43,-3.3,-2.01,221,267,210,462,334,22
386,0.96,-0.28,0.17,1.83,-3.3,-2.2,252,269,212,467,329,22
387,0.95,-0.28,0.17,-1.16,-2.87,-3.23,222,266,210,464,332,22
388,0.95,-0.27,0.17,0.85,-3.54,-1.77,223,267,210,469,331,22
389,0.95,-0.27,0.17,1.16,-2.99,-3.17,221,265,222,465,333,22
390,0.93,-0.26,0.19,-1.28,-1.22,-5.37,224,265,208,474,332,22
391,0.98,-0.29,0.15,-4.88,3.72,-5.86,222,267,211,470,333,22
392,0.91,-0.31,0.1,3.72,0.43,-3.23,240,267,210,460,328,22
393,0.94,-0.31,0.1,0.18,-2.08,-4.03,220,269,211,470,335,22
394,0.96,-0.32,0.09,5.19,-3.23,-2.62,224,267,210,468,332,22
395,0.9,-0.34,0.11,4.39,-2.08,1.1,218,269,211,464,334,22
396,0.93,-0.31,0.12,-3.23,-1.89,-1.95,223,264,213,466,334,22
397,0.94,-0.32,0.1,-1.1,-2.87,-2.26,221,257,211,468,332,22
398,0.96,-0.29,0.12,-0.31,-2.87,-2.62,223,269,210,466,334,22
399,0.95,-0.3,0.11,0.79,-2.81,-3.05,225,269,210,460,330,22
400,0.94,-0.3,0.11,-1.1,-0.79,-5.49,234,266,210,470,333,22
401,0.95,-0.32,0.1,1.1,-3.48,-2.14,219,268,211,470,331,22
402,0.94,-0.32,0.1,0.92,-3.36,-3.11,223,266,214,466,332,22
403,0.93,-0.33,0.09,-1.4,-4.27,-2.75,223,269,212,467,332,22
404,0.93,-0.32,0.11,4.03,-3.6,-2.08,223,267,212,468,334,22
405,0.92,-0.32,0.15,3.48,-9.28,1.46,225,266,214,470,332,22
406,0.94,-0.31,0.13,4.58,-3.6,-1.4,225,264,209,460,334,22
407,0.92,-0.31,0.14,-0.73,-3.48,1.4,223,264,208,467,331,22
408,0.98,-0.34,0.08,-1.1,-0.85,-3.72,223,265,207,470,333,22
409,0.94,-0.31,0.14,13.43,-0.98,-5.31,222,266,212,470,331,22
410,0.95,-0.25,0.18,-1.77,-0.98,-7.51,220,270,211,472,332,22
411,0.96,-0.28,0.14,-1.46,-4.09,-1.65,220,266,209,466,334,22
412,0.98,-0.28,0.12,0.61,-2.2,-1.83,222,269,211,460,334,22
413,0.96,-0.27,0.15,-1.4,-1.4,-2.99,223,269,210,461,326,22
414,0.96,-0.29,0.14,-1.65,-2.81,-4.94,220,267,212,468,334,22
415,0.96,-0.29,0.13,-1.53,-2.75,-1.77,219,265,210,466,332,22
416,0.96,-0.3,0.13,-0.92,-2.38,-4.09,225,267,212,470,332,22
417,0.95,-0.29,0.14,0.37,-2.32,-2.38,223,267,209,470,329,22
418,0.95,-0.31,0.11,0.92,-1.89,-2.08,225,267,210,470,330,22
419,0.95,-0.29,0.14,2.08,-1.89,-3.78,223,268,213,466,334,22
420,0.95,-0.27,0.17,0.12,-2.62,-2.2,223,267,214,468,333,22
421,0.96,-0.29,0.14,1.95,-1.71,-0.92,222,270,211,461,332,22
422,0.91,-0.21,0.26,-6.16,1.59,-8.18,230,269,211,470,331,22
423,0.95,-0.33,0.08,2.62,-2.44,-3.36,225,269,213,464,330,22
424,0.95,-0.31,0.11,-1.22,-2.93,-2.56,222,269,211,466,329,22
425,0.95,-0.28,0.14,3.85,-1.77,-3.42,232,270,211,466,332,22
426,0.96,-0.29,0.14,1.95,-2.87,-2.5,220,267,209,460,335,22
427,0.96,-0.3,0.12,1.95,-2.44,-3.42,232,269,210,470,332,22
428,0.95,-0.28,0.14,-0.98,-2.81,-2.44,225,269,214,469,332,22
429,0.95,-0.29,0.14,0.85,-2.87,-2.99,222,269,208,466,332,22
430,0.96,-0.29,0.14,0.49,-3.05,-2.38,222,266,211,466,332,22
431,0.96,-0.28,0.14,0.06,-2.56,-2.75,225,266,217,470,335,22
432,0.95,-0.28,0.14,1.59,-3.23,-2.81,222,266,213,462,332,22
433,0.95,-0.28,0.14,0.24,-3.3,-2.14,224,267,211,465,333,22
434,0.94,-0.29,0.15,-0.79,-3.6,-1.89,222,269,209,468,332,22
435,0.95,-0.29,0.15,0.12,-3.54,-1.34,226,273,211,468,331,22
436,0.95,-0.29,0.14,-0.49,-2.93,-2.01,225,270,210,466,334,22
437,0.95,-0.3,0.14,1.53,-3.05,-2.2,225,267,212,467,334,22
438,0.95,-0.3,0.14,-0.43,-4.09,0.85,224,269,211,471,335,22
439,0.95,-0.3,0.13,2.56,-2.5,-4.09,225,269,214,464,331,22
440,0.94,-0.3,0.13,1.83,-3.6,-2.08,219,268,214,468,331,22
441,0.95,-0.3,0.13,-1.59,-3.17,-2.99,219,271,213,461,332,22
442,0.95,-0.3,0.14,0.37,-3.17,-3.23,222,265,211,466,332,22
443,0.95,-0.3,0.14,0.37,-2.99,-2.69,223,267,211,471,327,22
444,0.94,-0.3,0.14,0.24,-3.36,-2.01,222,270,212,467,327,22
445,0.95,-0.3,0.14,1.04,-2.99,-2.38,224,267,213,466,333,22
446,0.95,-0.3,0.14,0.0,-2.99,-2.44,223,267,212,464,330,22
447,0.94,-0.3,0.14,-0.98,-2.69,-3.36,226,267,211,466,335,22
448,0.95,-0.29,0.14,0.85,-3.17,-2.5,226,268,215,470,332,22
449,0.95,-0.3,0.14,0.24,-2.62,-2.81,224,272,212,466,333,22
450,0.95,-0.3,0.14,-0.12,-2.44,-2.99,223,268,211,466,328,22
451,0.95,-0.29,0.14,-0.49,-2.56,-3.17,224,267,211,461,328,22
452,0.95,-0.3,0.13,0.92,-2.99,-2.5,222,266,214,480,334,22
453,0.95,-0.3,0.14,-0.79,-2.81,-2.93,222,268,211,467,332,22
454,0.95,-0.29,0.15,0.85,-2.56,-2.75,226,267,213,467,333,22
455,0.95,-0.3,0.14,-0.49,-3.91,-1.71,225,268,211,469,330,22
456,0.95,-0.3,0.14,1.59,-3.05,-2.38,225,269,209,470,332,22
457,0.95,-0.3,0.14,1.46,-2.62,-3.42,224,265,209,466,332,22
458,0.95,-0.29,0.14,0.43,-3.17,-2.87,224,267,214,470,327,22
459,0.95,-0.3,0.14,-1.04,-2.62,-2.81,220,270,214,466,331,22
460,0.93,-0.29,0.14,1.77,-5.86,-4.09,223,267,211,467,333,22
461,0.96,-0.28,0.14,0.92,-2.81,-3.11,220,268,211,471,332,22
462,0.96,-0.29,0.13,2.93,-1.59,-3.6,225,267,213,471,334,22
463,0.93,-0.34,0.11,-2.14,-2.44,-4.58,223,271,213,465,329,22
464,0.97,-0.28,0.13,-4.82,-2.87,1.71,219,268,212,478,332,22
465,0.94,-0.32,0.12,2.01,-2.32,-4.46,225,270,212,470,332,22
466,0.94,-0.33,0.11,1.04,-2.62,-2.75,223,265,213,470,332,22
467,0.93,-0.33,0.11,1.22,-2.56,-3.11,223,266,219,466,331,22
468,0.95,-0.32,0.11,1.28,-3.91,-1.77,223,266,209,468,333,22
469,0.94,-0.32,0.11,-0.12,-2.81,-3.48,220,271,215,476,333,22
470,0.95,-0.33,0.1,0.0,-2.99,-2.38,228,267,211,466,332,22
471,0.94,-0.33,0.1,-1.71,-3.05,-2.93,222,277,212,470,333,22
472,0.94,-0.31,0.12,1.16,0.18,-7.75,220,268,210,465,331,22
473,0.95,-0.32,0.11,2.01,-3.6,-1.4,223,269,213,467,331,22
474,0.94,-0.29,0.13,-3.05,4.09,-9.22,222,268,209,468,332,22
475,0.96,-0.28,0.13,1.53,-0.67,-2.26,223,270,214,470,333,22
476,0.96,-0.3,0.13,-0.24,-3.36,-0.31,225,269,210,466,332,22
477,0.96,-0.29,0.15,0.79,-3.36,-1.4,225,267,210,466,331,22
478,0.94,-0.31,0.14,-0.43,-3.54,-3.05,223,265,212,465,328,22
479,0.95,-0.31,0.14,0.49,-2.81,-2.75,225,268,214,467,332,22
480,0.95,-0.31,0.14,0.12,-2.2,-3.91,226,273,209,471,334,22
481,0.95,-0.3,0.15,0.49,-2.5,-3.48,226,265,211,471,331,22
482,0.94,-0.3,0.15,-0.43,-3.05,-2.56,225,270,214,470,332,22
483,0.95,-0.3,0.15,0.67,-3.3,-2.01,223,270,213,462,332,22
484,0.95,-0.29,0.15,-0.12,-3.05,-2.08,225,268,212,467,335,22
485,0.95,-0.31,0.14,-0.43,-3.23,-2.81,225,268,211,468,338,22
486,0.96,-0.3,0.13,0.98,-2.87,-2.81,222,270,211,467,332,22
487,0.95,-0.3,0.15,0.18,-3.11,-3.3,224,270,211,462,335,22
488,0.93,-0.3,0.15,0.61,-3.11,-2.08,226,270,214,465,332,22
489,0.94,-0.3,0.15,0.73,-3.11,-2.14,220,267,214,477,332,22
490,0.95,-0.3,0.14,0.43,-3.11,-3.05,224,268,214,471,331,22
491,0.95,-0.3,0.14,-0.18,-3.05,-2.26,218,268,211,468,333,22
492,0.95,-0.3,0.14,0.12,-2.62,-3.17,221,269,212,483,334,22
493,0.95,-0.29,0.15,1.22,-2.81,-3.42,222,270,213,462,331,22
494,0.95,-0.29,0.16,2.32,-3.23,-2.69,223,267,213,463,331,22
495,0.95,-0.28,0.15,0.79,-2.5,-2.38,224,271,214,467,333,22
496,0.95,-0.28,0.16,-2.75,-2.87,-2.93,223,278,214,465,332,22
497,0.95,-0.28,0.16,-0.37,-4.09,-1.59,222,268,212,464,334,22
498,0.94,-0.3,0.15,-0.49,-3.72,-1.59,219,268,214,462,333,22
499,0.95,-0.28,0.16,0.06,-3.05,-1.77,223,281,210,467,332,22
500,0.95,-0.29,0.16,0.24,-3.48,-2.2,218,270,211,469,332,22
501,0.95,-0.28,0.16,-0.24,-3.54,-2.08,224,271,212,468,335,22
502,0.89,-0.4,0.23,0.67,-2.26,-1.77,213,238,180,452,323,22
503,0.89,-0.4,0.24,-2.2,-2.01,-4.09,215,237,181,450,324,22
504,0.86,-0.41,0.22,9.22,-13.12,-2.08,218,238,187,447,322,22
505,0.89,-0.39,0.23,-1.46,-3.17,0.12,217,238,185,453,318,22
506,0.9,-0.4,0.22,1.28,-4.88,-4.27,220,238,186,452,317,22
507,0.88,-0.42,0.21,-4.58,-1.22,-0.06,242,239,187,453,321,22
508,0.89,-0.41,0.23,-5.49,-3.48,2.26,216,240,184,456,323,22
509,0.89,-0.44,0.21,1.83,-1.77,-2.99,218,236,187,455,323,22
510,0.89,-0.43,0.21,1.53,-4.03,-0.85,219,238,185,448,321,22
511,0.86,-0.43,0.22,0.12,-2.26,-1.65,210,237,181,453,321,22
512,0.84,-0.42,0.26,1.77,-4.94,1.77,219,237,180,452,319,22
513,0.9,-0.4,0.25,4.46,0.37,-7.63,217,237,185,449,322,22
514,0.89,-0.41,0.26,4.64,0.92,-1.46,218,241,188,453,321,22
515,0.87,-0.4,0.27,1.4,-4.09,-1.46,218,240,190,455,321,22
516,0.88,-0.4,0.27,2.99,-3.36,-1.04,222,238,186,455,323,22
517,0.88,-0.39,0.28,2.14,-2.56,-3.66,222,233,185,451,321,22
518,0.88,-0.39,0.28,2.01,-2.62,-3.66,220,232,189,448,318,22
519,0.88,-0.38,0.29,0.0,-1.83,-2.26,246,244,174,457,324,22
520,0.89,-0.39,0.29,-0.06,-3.17,-2.69,220,240,193,456,325,22
521,0.88,-0.39,0.29,0.12,-2.32,-1.89,221,233,187,454,320,22
522,0.88,-0.4,0.29,1.89,-0.55,-1.34,220,230,179,453,320,22
523,0.87,-0.41,0.29,2.69,-2.14,-1.1,215,240,189,449,320,22
524,0.85,-0.44,0.29,1.46,-3.85,-0.67,226,241,182,448,316,22
525,0.86,-0.42,0.3,1.77,-4.76,3.6,220,239,193,452,325,22
526,0.86,-0.44,0.27,-0.49,-3.05,-2.01,223,231,179,451,324,22
527,0.85,-0.43,0.29,0.79,-3.54,-1.59,226,240,188,453,325,22
528,0.86,-0.43,0.29,2.2,-3.36,-4.21,219,229,189,453,325,22
529,0.86,-0.43,0.29,-2.2,-0.24,-4.7,221,233,183,454,324,22
530,0.88,-0.41,0.29,1.89,-0.92,-3.78,220,240,189,453,326,22
531,0.88,-0.4,0.29,1.71,-3.05,-2.56,228,243,187,453,325,22
532,0.87,-0.4,0.29,0.37,-3.72,-2.81,222,237,181,454,322,22
533,0.87,-0.4,0.3,0.85,-3.6,-2.14,222,244,186,453,326,22
534,0.88,-0.4,0.3,0.37,-3.36,-2.14,222,238,191,450,324,22
535,0.87,-0.4,0.3,0.12,-3.42,-2.32,224,232,196,448,324,22
536,0.88,-0.4,0.3,1.28,-3.85,-1.95,223,233,187,452,325,22
537,0.87,-0.4,0.3,0.12,-3.72,-2.81,217,242,187,445,319,22
538,0.88,-0.39,0.3,1.46,-2.99,-3.05,219,243,197,451,321,22
539,0.88,-0.39,0.3,1.4,-3.3,-1.46,222,240,191,453,326,22
540,0.87,-0.4,0.29,0.79,-3.36,-0.67,224,240,190,450,324,22
541,0.89,-0.4,0.29,-1.4,-4.21,-2.14,224,242,195,450,327,22
542,0.9,-0.37,0.31,-3.36,-4.39,1.16,223,236,191,453,324,22
543,0.87,-0.42,0.31,-2.75,2.62,3.97,221,237,188,465,326,22
544,0.85,-0.44,0.32,3.23,-6.35,-2.75,222,241,179,458,319,22
545,0.86,-0.47,0.3,1.71,-7.14,4.88,224,239,180,453,327,22
546,0.81,-0.46,0.3,2.26,-2.75,-6.1,224,240,192,454,321,22
547,0.86,-0.39,0.35,6.59,-1.95,-2.08,223,240,191,455,322,22
548,0.86,-0.41,0.31,0.79,-4.64,-2.5,221,241,190,448,323,22
549,0.86,-0.4,0.31,-1.1,-3.48,-5.13,225,241,194,455,326,22
550,0.87,-0.39,0.32,-0.31,-2.01,0.18,225,239,182,456,328,22
551,0.88,-0.38,0.31,-3.11,-4.64,-0.61,225,233,188,456,319,22
552,0.88,-0.34,0.31,5.31,-7.26,0.85,225,240,192,454,324,22
553,0.87,-0.4,0.33,-1.4,0.12,-3.36,225,236,195,452,325,22
554,0.87,-0.4,0.32,1.71,0.12,-5.8,221,240,187,455,318,22
555,0.89,-0.39,0.3,-0.61,-3.23,-3.6,220,240,187,455,322,22
556,0.89,-0.39,0.29,1.46,-4.39,-2.81,225,232,191,454,325,22
557,0.86,-0.38,0.31,-0.98,-4.15,-1.4,220,241,193,452,324,22
558,0.86,-0.39,0.29,1.22,-4.27,-4.15,229,235,196,453,325,22
559,0.87,-0.43,0.23,0.79,-4.46,3.05,226,233,198,455,325,22
560,0.86,-0.4,0.29,4.52,-2.69,-1.95,220,238,196,454,325,22
561,0.87,-0.41,0.29,0.67,-3.36,-1.71,228,239,205,453,327,22
562,0.87,-0.4,0.31,1.59,-3.05,-2.38,224,242,189,457,325,22
563,0.87,-0.4,0.3,-3.3,-2.32,-2.2,225,241,180,451,325,22
564,0.87,-0.39,0.3,-1.22,-3.3,-2.93,227,238,196,452,328,22
565,0.88,-0.4,0.3,0.85,-2.2,-3.97,226,238,192,456,327,22
566,0.88,-0.39,0.3,2.5,-3.66,-3.3,226,242,180,450,324,22
567,0.88,-0.39,0.3,0.61,-2.26,-2.38,223,237,193,454,321,22
568,0.87,-0.39,0.31,1.59,-3.23,-2.2,226,241,191,453,326,22
569,0.88,-0.39,0.3,0.55,-2.2,-2.14,227,236,195,455,321,22
570,0.89,-0.38,0.31,0.61,-3.48,-2.69,226,232,191,456,325,22
571,0.88,-0.38,0.3,1.16,-4.46,-3.05,224,240,195,458,320,22
572,0.88,-0.38,0.3,0.73,-3.05,-2.99,221,241,199,453,329,22
573,0.88,-0.37,0.3,-0.37,-3.91,-1.1,222,242,194,456,328,22
574,0.88,-0.39,0.29,-0.85,-2.99,-3.05,223,244,196,457,324,22
575,0.88,-0.39,0.3,1.77,-3.17,-2.01,228,243,193,454,325,22
576,0.88,-0.38,0.3,0.18,-2.75,-2.62,220,239,194,453,329,22
577,0.88,-0.39,0.31,0.18,-3.3,-2.01,223,238,188,452,327,22
578,0.89,-0.39,0.3,1.04,-3.42,-2.26,226,238,195,456,322,22
579,0.87,-0.39,0.3,-6.71,-1.59,-0.98,228,240,196,451,327,22
580,0.87,-0.4,0.3,-3.6,-3.05,-0.55,243,239,193,451,328,22
581,0.87,-0.4,0.29,-0.98,-2.99,-1.89,226,241,192,453,326,22
582,0.87,-0.4,0.3,1.16,-3.66,-1.77,223,239,196,458,329,22
583,0.88,-0.4,0.3,0.73,-3.17,-1.83,221,244,188,447,330,22
584,0.87,-0.4,0.3,-0.31,-2.38,-3.11,226,235,192,444,331,22
585,0.88,-0.4,0.3,0.55,-3.48,-2.44,227,243,195,453,329,22
586,0.86,-0.38,0.32,2.01,-4.52,-4.52,231,242,198,450,326,22
587,0.89,-0.39,0.3,3.42,-4.03,-4.03,226,244,194,454,326,22
588,0.89,-0.38,0.29,2.56,-4.39,-3.23,220,237,196,452,327,22
589,0.84,-0.41,0.3,1.71,0.12,-3.78,230,237,184,451,328,22
590,0.9,-0.4,0.25,0.06,-9.46,-1.1,221,239,191,456,326,22
591,0.92,-0.35,0.25,-2.26,-0.37,-6.1,220,230,189,454,323,22
592,0.92,-0.27,0.3,-4.82,-9.03,5.74,226,246,183,455,325,22
593,0.89,-0.33,0.28,9.58,-4.58,-6.23,228,241,197,453,328,22
594,0.92,-0.29,0.28,-0.92,-1.46,-3.66,227,239,195,457,327,22
595,0.92,-0.29,0.27,-0.49,-0.55,-3.6,246,240,193,457,325,22
596,0.93,-0.31,0.25,1.71,-1.89,-4.52,220,238,195,458,325,22
597,0.93,-0.3,0.26,2.08,-4.27,-1.77,224,241,195,460,327,22
598,0.91,-0.32,0.25,1.4,-2.56,-5.19,228,236,194,448,326,22
599,0.94,-0.32,0.25,1.04,14.89,-1.34,224,236,199,454,327,22
600,0.92,-0.3,0.26,-1.04,-3.05,-4.76,226,237,190,455,327,22
601,0.91,-0.3,0.26,0.12,-2.87,-4.21,225,242,200,451,325,22
602,0.92,-0.29,0.26,1.34,-2.69,-4.58,225,232,198,454,328,22
603,0.93,-0.29,0.26,1.34,-2.93,-2.26,225,241,185,456,322,22
604,0.93,-0.29,0.28,-0.12,2.81,0.67,225,239,200,454,325,22
605,0.92,-0.32,0.29,-2.75,-1.89,-5.68,225,244,186,456,323,22
606,0.93,-0.28,0.31,0.67,0.67,-4.46,226,239,201,454,327,22
607,0.92,-0.29,0.28,-0.06,-3.66,-1.83,230,241,194,450,325,22
608,0.92,-0.29,0.28,1.59,-2.75,-2.26,226,245,195,455,323,22
609,0.92,-0.29,0.28,1.46,-3.42,-2.99,226,242,192,457,327,22
610,0.92,-0.28,0.28,0.31,-3.54,-3.23,220,241,192,453,322,22
611,0.92,-0.29,0.28,0.92,-2.14,-2.62,227,236,196,468,323,22
612,0.93,-0.29,0.28,0.31,-2.08,-2.5,227,238,190,450,324,22
613,0.93,-0.28,0.28,-0.31,-2.38,-2.26,224,246,201,448,326,22
614,0.93,-0.27,0.29,-0.73,-2.32,-3.97,228,240,194,450,328,22
615,0.92,-0.27,0.28,0.31,-3.78,-1.71,228,243,191,462,327,22
616,0.92,-0.27,0.28,1.1,-3.05,-2.69,227,242,189,450,326,22
617,0.92,-0.28,0.28,0.43,-2.99,-2.38,229,233,201,458,327,22
618,0.92,-0.28,0.29,0.0,-4.03,-1.71,229,240,197,458,329,22
619,0.92,-0.28,0.28,-1.34,-3.17,-2.2,230,238,194,460,329,22
620,0.93,-0.27,0.28,0.18,-4.88,-3.72,228,241,198,458,330,22
621,0.93,-0.27,0.28,0.24,-3.72,-2.81,224,236,198,454,325,22
622,0.93,-0.28,0.28,1.4,-2.32,-2.5,226,241,193,451,322,22
623,0.92,-0.28,0.29,0.0,-2.69,-3.05,229,241,192,457,323,22
624,0.93,-0.28,0.28,0.79,-3.3,-2.62,229,241,199,456,328,22
625,0.93,-0.27,0.28,-15.26,-1.77,-2.56,227,240,196,455,322,22
626,0.92,-0.29,0.29,-6.35,-3.36,0.49,237,240,194,454,327,22
627,0.94,-0.31,0.25,-18.49,-7.2,-5.13,258,241,194,460,326,22
628,0.86,-0.32,0.27,5.07,0.31,-0.85,231,244,196,444,328,22
629,0.95,-0.28,0.27,9.03,-1.4,-1.04,230,244,192,450,329,22
630,0.93,-0.27,0.25,4.15,-4.15,-6.59,228,245,196,457,330,22
631,0.89,-0.26,0.28,-3.78,0.31,4.52,230,237,196,443,328,22
632,0.93,-0.28,0.29,8.06,-3.6,-0.24,227,232,194,457,328,22
633,0.9,-0.29,0.3,1.4,-1.16,-2.26,227,238,190,459,326,22
634,0.9,-0.3,0.3,0.61,-2.26,2.08,225,242,195,452,326,22
635,0.91,-0.32,0.3,-2.32,-3.91,-0.37,224,245,197,454,330,22
636,0.92,-0.35,0.27,0.85,-7.63,2.62,230,246,195,454,327,22
637,0.9,-0.38,0.25,1.83,-4.58,1.65,230,241,199,456,319,22
638,0.88,-0.39,0.26,0.67,-2.01,-3.23,253,234,197,452,323,22
639,0.9,-0.37,0.27,1.46,-2.99,-3.6,239,244,211,454,326,22
640,0.9,-0.36,0.27,2.32,-2.26,-3.66,228,242,196,452,329,22
641,0.9,-0.35,0.27,0.18,-3.54,-2.62,231,245,185,456,326,22
642,0.9,-0.36,0.27,0.73,-4.33,-1.95,232,241,198,453,326,22
643,0.9,-0.35,0.27,0.98,-2.2,-3.42,229,240,199,458,322,22
644,0.9,-0.35,0.27,0.43,-2.26,-3.36,228,240,196,454,325,22
645,0.89,-0.35,0.27,0.0,-3.05,-2.69,233,241,190,466,328,22
646,0.91,-0.35,0.27,0.49,-3.3,-1.65,229,239,200,457,326,22
647,0.9,-0.35,0.27,0.61,-1.34,-3.48,229,246,198,456,323,22
648,0.9,-0.35,0.27,-0.06,-2.14,-3.85,223,245,198,458,329,22
649,0.91,-0.35,0.27,0.49,-1.71,-3.36,229,241,197,450,327,22
650,0.9,-0.35,0.28,1.04,-3.17,-1.28,231,239,197,454,325,22
651,0.9,-0.35,0.27,0.18,-3.78,-3.85,232,243,200,451,325,22
652,0.9,-0.34,0.28,0.49,-2.69,-2.75,232,238,197,456,328,22
653,0.91,-0.34,0.27,0.92,-2.93,-3.42,227,241,197,460,326,22
654,0.91,-0.35,0.27,0.67,-2.32,-2.75,228,233,197,456,326,22
655,0.9,-0.35,0.27,0.37,-2.99,-1.83,223,234,197,455,331,22
656,0.91,-0.34,0.28,0.55,-2.93,-3.6,229,237,197,459,328,22
657,0.91,-0.35,0.27,0.98,-2.93,-2.62,232,241,193,451,326,22
658,0.91,-0.35,0.27,0.67,-2.69,-2.2,246,243,193,460,321,22
659,0.9,-0.35,0.27,0.55,-3.11,-2.81,227,239,196,458,331,22
660,0.91,-0.34,0.27,0.31,-3.97,-1.1,231,243,199,457,324,22
661,0.91,-0.35,0.27,-0.79,-2.14,-2.93,230,241,203,449,326,22
662,0.9,-0.34,0.27,0.37,-2.81,-2.62,231,240,202,454,326,22
663,0.91,-0.34,0.28,-0.12,-3.48,-2.26,226,233,201,454,326,22
664,0.91,-0.34,0.27,0.55,-3.17,-2.62,228,246,203,459,323,22
665,0.91,-0.33,0.27,1.59,-3.36,-2.08,232,240,196,453,327,22
666,0.9,-0.34,0.27,0.98,-2.69,-3.85,230,238,199,454,322,22
667,0.91,-0.33,0.27,2.01,-3.6,-3.48,224,242,197,458,330,22
668,0.91,-0.32,0.27,0.55,-3.72,-2.44,227,238,190,455,327,22
669,0.91,-0.32,0.27,0.24,-2.5,-2.32,232,233,201,456,327,22
670,0.91,-0.33,0.27,0.24,-3.23,-2.56,229,239,197,455,321,22
671,0.91,-0.32,0.28,0.67,-2.93,-2.87,229,245,198,452,327,22
672,0.92,-0.32,0.27,0.85,-2.26,-2.69,231,246,202,456,325,22
673,0.91,-0.31,0.28,0.31,-4.76,-3.42,231,235,200,457,324,22
674,0.92,-0.34,0.26,-6.16,-3.48,1.53,231,241,199,454,331,22
675,0.87,-0.37,0.25,-8.79,3.05,-2.69,230,240,196,464,325,22
676,0.91,-0.38,0.23,-3.36,-0.55,-5.8,232,241,200,458,326,22
677,0.89,-0.37,0.25,0.0,-1.4,-3.05,232,237,202,456,328,22
678,0.91,-0.36,0.26,0.92,-3.05,-3.3,233,243,199,458,327,22
679,0.91,-0.35,0.25,0.61,-3.23,-3.48,228,240,202,455,326,22
680,0.91,-0.36,0.25,0.24,-2.81,-3.97,230,240,198,454,329,22
681,0.91,-0.35,0.24,-0.37,-2.32,-3.78,230,239,198,451,331,22
682,0.91,-0.35,0.25,-0.06,-1.28,-2.75,234,241,203,461,324,22
683,0.91,-0.35,0.25,0.98,-2.87,-2.93,229,239,203,456,326,22
684,0.91,-0.35,0.24,1.46,-3.48,-2.62,230,239,203,454,328,22
685,0.91,-0.35,0.25,-0.43,-2.69,-3.48,229,242,195,460,330,22
686,0.92,-0.35,0.25,0.98,-2.75,-2.56,232,242,193,452,328,22
687,0.9,-0.35,0.25,0.31,-3.85,-2.62,229,240,197,457,327,22
688,0.91,-0.34,0.25,1.65,-4.15,-2.5,231,241,198,454,332,22
689,0.91,-0.34,0.25,-15.63,-3.97,-2.2,230,242,196,453,327,22
690,0.91,-0.33,0.25,1.22,-2.62,-2.81,232,238,198,455,328,22
691,0.91,-0.34,0.25,-0.55,-1.28,-4.76,231,241,198,449,330,22
692,0.91,-0.34,0.25,2.69,-2.69,-2.2,233,241,199,455,328,22
693,0.92,-0.34,0.25,1.04,-2.93,-2.2,232,246,198,458,329,22
694,0.91,-0.34,0.25,1.16,-4.09,-2.26,232,240,199,458,323,22
695,0.92,-0.34,0.24,-0.12,-3.23,-2.75,228,236,190,456,329,22
696,0.92,-0.33,0.25,0.43,-2.87,-1.89,231,242,199,454,326,22
697,0.97,-0.31,0.26,-9.34,0.0,0.61,221,240,200,457,329,22
698,0.9,-0.5,0.24,-6.96,-8.61,-4.76,215,231,198,459,316,22
699,0.79,-0.37,0.17,4.39,-2.75,33.87,222,236,207,452,317,22
700,0.89,-0.36,0.31,10.8,-8.36,-11.84,222,233,190,449,320,22
701,0.9,-0.37,0.27,-2.14,0.31,1.16,222,236,193,457,318,22
702,0.9,-0.36,0.3,4.33,-1.53,-6.35,226,238,202,456,325,22
703,0.88,-0.37,0.3,4.52,-4.21,-2.5,226,237,199,458,325,22
704,0.89,-0.35,0.32,2.01,-2.5,-2.56,221,233,198,455,328,22
705,0.89,-0.36,0.32,1.77,-2.87,-2.32,226,232,197,458,322,22
706,0.88,-0.36,0.32,0.24,-3.48,-2.14,225,236,198,460,317,22
707,0.89,-0.35,0.33,0.31,-3.78,-1.83,219,243,202,454,324,22
708,0.89,-0.35,0.33,0.43,-2.2,-2.14,227,238,203,455,324,22
709,0.88,-0.35,0.34,0.67,-3.23,-2.62,225,240,198,456,319,22
710,0.89,-0.35,0.33,0.55,-3.48,-2.38,224,233,199,453,325,22
711,0.88,-0.36,0.32,-0.67,-3.42,-2.44,224,240,198,457,323,22
712,0.88,-0.36,0.32,0.79,-2.62,-3.23,224,241,196,461,324,22
713,0.88,-0.36,0.33,1.83,-2.99,-2.2,226,240,188,456,322,22
714,0.88,-0.35,0.34,1.28,-2.14,-2.81,225,234,196,461,325,22
715,0.89,-0.36,0.33,1.95,-3.23,-2.5,223,241,204,451,323,22
716,0.88,-0.36,0.33,0.18,-3.72,-3.6,230,232,198,456,324,22
717,0.88,-0.36,0.33,0.49,-3.36,-2.14,220,238,196,458,324,22
718,0.88,-0.35,0.34,0.85,-3.78,-2.81,224,239,198,461,322,22
719,0.89,-0.35,0.33,0.0,-2.62,-2.38,215,239,200,464,324,22
720,0.89,-0.34,0.34,0.98,-3.66,-2.08,223,239,201,456,320,22
721,0.88,-0.34,0.34,0.43,-3.05,-2.62,229,240,197,457,322,22
722,0.88,-0.35,0.34,1.83,-3.6,-1.95,226,240,201,463,324,22
723,0.88,-0.34,0.35,1.71,-3.23,-3.54,225,239,202,453,323,22
724,0.89,-0.33,0.34,0.06,-3.05,-2.69,225,234,196,454,321,22
725,0.89,-0.34,0.34,1.22,-2.01,-2.81,221,240,203,459,323,22
726,0.89,-0.34,0.34,1.22,-2.81,-3.54,226,239,194,451,326,22
727,0.88,-0.33,0.34,0.55,-3.54,-2.99,227,237,196,455,326,22
728,0.88,-0.34,0.34,0.49,-3.23,-2.14,227,237,199,460,324,22
729,0.89,-0.34,0.34,0.37,-2.44,-3.11,225,240,191,469,325,22
730,0.91,-0.33,0.33,2.56,-2.99,-1.77,227,235,202,456,326,22
731,0.88,-0.35,0.35,0.43,-0.98,-3.6,226,242,205,457,325,22
732,0.91,-0.36,0.33,1.4,-2.81,-3.6,228,238,202,455,327,22
733,0.89,-0.35,0.32,1.83,-3.85,-4.76,226,241,203,456,323,22
734,0.9,-0.34,0.33,0.24,-3.66,-3.05,228,231,200,458,323,22
735,0.87,-0.33,0.34,2.32,-7.14,0.79,222,236,201,456,323,22
736,0.91,-0.33,0.29,0.67,-0.24,-6.29,229,239,207,458,323,22
737,0.9,-0.34,0.3,-1.4,-0.43,-5.13,217,240,196,457,323,22
738,0.88,-0.35,0.31,-0.31,-2.99,-1.71,223,238,197,459,325,22
739,0.89,-0.34,0.32,0.31,-3.11,-3.11,228,239,200,452,323,22
740,0.87,-0.33,0.32,-1.77,-0.43,-7.87,223,236,201,461,317,22
741,0.89,-0.32,0.32,-2.32,-2.01,-4.15,229,240,198,460,322,22
742,0.89,-0.33,0.32,1.4,-2.01,-1.71,227,244,197,460,326,22
743,0.89,-0.34,0.31,1.95,-2.62,-1.95,226,240,197,452,325,22
744,0.88,-0.35,0.31,-1.04,-2.99,-4.15,222,242,190,457,326,22
745,0.89,-0.33,0.31,1.65,-2.2,-3.78,264,239,202,458,324,22
746,0.92,-0.32,0.3,-0.92,-2.26,-5.13,225,234,198,457,325,22
747,0.91,-0.31,0.32,2.56,-2.62,-2.5,225,241,197,455,328,22
748,0.91,-0.31,0.32,2.26,-2.93,-2.44,224,241,202,457,324,22
749,0.9,-0.31,0.32,-0.79,-2.01,-2.56,226,238,201,461,325,22
750,0.9,-0.31,0.33,0.79,-2.62,-2.38,230,238,199,459,325,22
751,0.96,-0.26,0.3,4.88,-3.17,0.55,220,237,208,459,325,22
752,0.9,-0.29,0.32,-0.61,1.1,-1.83,244,241,201,459,326,22
753,0.89,-0.31,0.32,0.55,0.37,-3.11,228,241,199,455,329,22
754,0.88,-0.33,0.32,2.75,-6.16,1.89,229,240,197,460,325,22
755,0.88,-0.33,0.33,0.18,-4.09,-1.53,224,239,193,458,327,22
756,0.89,-0.33,0.32,0.85,-3.23,-2.01,229,239,197,457,324,22
757,0.9,-0.32,0.33,2.38,-2.56,-1.95,227,236,201,457,326,22
758,0.9,-0.31,0.33,1.04,-2.5,-2.2,227,239,197,455,326,22
759,0.9,-0.31,0.33,1.53,-3.23,-2.44,222,242,199,458,324,22
760,0.89,-0.31,0.34,1.59,-2.75,-2.44,230,239,202,457,325,22
761,0.9,-0.31,0.33,0.31,-2.56,-4.33,228,236,204,456,326,22
762,0.88,-0.3,0.35,0.85,-4.03,-1.1,228,240,199,461,324,22
763,0.92,-0.32,0.32,-0.67,-1.28,-2.44,226,237,203,452,320,22
764,0.91,-0.32,0.31,0.31,-4.7,-0.85,227,239,201,459,324,22
765,0.88,-0.32,0.34,-0.67,1.59,-4.82,226,240,205,459,326,22
766,0.91,-0.33,0.35,0.0,0.18,-4.46,231,242,195,453,325,22
767,0.9,-0.3,0.36,3.78,-3.6,-5.55,225,242,201,461,321,22
768,0.88,-0.31,0.36,1.4,-3.23,-2.14,227,241,196,460,326,22
769,0.89,-0.31,0.35,0.31,-2.38,-3.42,233,242,198,459,325,22
770,0.89,-0.3,0.35,0.24,-2.26,-3.42,223,239,196,455,327,22
771,0.9,-0.3,0.36,1.28,-2.5,-2.44,229,237,200,458,323,22
772,0.89,-0.31,0.34,-1.16,-2.01,-3.05,227,240,198,459,326,22
773,0.9,-0.31,0.35,1.53,-3.05,-2.44,229,241,202,457,327,22
774,0.9,-0.3,0.35,0.79,-3.72,-2.56,226,243,200,456,326,22
775,0.9,-0.3,0.35,1.46,-3.3,-2.81,228,242,199,456,325,22
776,0.9,-0.29,0.35,2.14,-4.03,-4.46,230,241,191,458,324,22
777,0.9,-0.3,0.35,-1.28,-4.82,-2.99,224,240,201,459,321,22
778,0.89,-0.3,0.34,0.12,-2.56,-2.99,226,242,200,458,324,22
779,0.9,-0.29,0.34,-0.06,-2.5,-3.17,228,241,199,458,324,22
780,0.9,-0.28,0.35,1.89,-3.42,-3.23,239,238,204,457,328,22
781,0.9,-0.29,0.34,0.55,-3.85,-2.93,227,237,197,452,327,22
782,0.9,-0.28,0.34,0.06,-2.32,-2.26,228,245,202,455,326,22
783,0.91,-0.29,0.34,1.77,-2.26,-2.56,228,242,202,453,325,22
784,0.9,-0.29,0.35,2.14,-3.3,-1.1,231,245,201,455,328,22
785,0.9,-0.27,0.35,2.38,-2.87,-2.26,228,235,200,456,326,22
786,0.9,-0.28,0.34,1.22,-3.66,-2.93,229,235,202,461,328,22
787,0.9,-0.28,0.35,-0.67,-2.62,-3.42,228,247,200,456,327,22
788,0.9,-0.28,0.35,0.0,-2.38,-1.34,228,244,203,456,326,22
789,0.9,-0.28,0.35,-0.12,-2.81,-3.11,228,240,196,456,327,22
790,0.91,-0.28,0.35,0.85,-2.62,-2.81,217,242,199,455,327,22
791,0.9,-0.28,0.36,-0.73,-0.37,-1.46,231,240,198,457,320,22
792,0.87,-0.31,0.36,-2.5,-1.4,-2.01,230,242,202,458,329,22
793,0.89,-0.31,0.37,-1.34,-2.69,-2.69,228,241,203,471,327,22
794,0.87,-0.33,0.36,-4.58,-1.46,-2.14,267,241,198,455,326,22
795,0.88,-0.33,0.37,-1.53,-1.22,-0.24,229,243,199,471,325,22
796,0.84,-0.38,0.37,-2.32,-1.16,0.55,231,239,204,459,325,22
797,0.91,-0.34,0.37,1.28,-2.81,-1.95,229,241,204,448,329,22
798,0.86,-0.36,0.39,-2.69,-2.69,-2.26,230,240,201,455,331,22
799,0.86,-0.36,0.38,1.4,-2.93,-3.48,231,242,203,453,322,22
800,0.85,-0.36,0.38,0.67,-3.23,-1.77,229,242,205,456,328,22
801,0.86,-0.37,0.37,0.12,-4.7,-5.0,230,241,202,453,328,22
802,0.87,-0.35,0.36,1.59,-2.38,-3.36,227,254,200,455,330,22
803,0.85,-0.36,0.36,1.59,-4.52,-2.14,228,249,200,454,324,22
804,0.86,-0.35,0.36,2.01,-3.42,-1.59,229,239,199,455,329,22
805,0.87,-0.34,0.37,0.43,-3.17,-2.62,228,236,200,454,330,22
806,0.87,-0.35,0.37,0.85,-2.99,-2.26,234,236,201,455,325,22
807,0.88,-0.34,0.36,1.77,-3.6,-2.2,231,240,202,457,324,22
808,0.87,-0.35,0.37,0.92,-2.75,-3.23,225,241,198,457,323,22
809,0.86,-0.34,0.37,-0.49,-2.75,-2.75,233,237,197,455,329,22
810,0.87,-0.34,0.37,1.04,-2.69,-1.95,227,243,199,457,325,22
811,0.89,-0.35,0.36,1.34,-2.2,-2.56,227,238,202,458,326,22
812,0.86,-0.34,0.37,0.61,-2.87,-2.32,227,244,202,457,328,22
813,0.87,-0.35,0.36,0.92,-2.69,-2.5,230,243,206,453,324,22
814,0.87,-0.35,0.37,0.06,-2.5,-1.65,229,244,204,462,332,22
815,0.87,-0.35,0.37,0.79,-3.17,-1.77,228,238,199,455,326,22
816,0.86,-0.35,0.37,0.79,-2.93,-2.32,232,237,200,450,328,22
817,0.87,-0.35,0.37,0.43,-2.99,-2.69,226,239,204,458,327,22
818,0.87,-0.34,0.37,0.79,-3.11,-2.44,239,238,196,455,324,22
819,0.87,-0.35,0.37,0.49,-2.81,-3.48,228,243,200,455,329,22
820,0.87,-0.34,0.37,1.77,-3.23,-2.38,229,242,203,457,327,22
821,0.87,-0.34,0.37,0.61,-3.54,-2.81,228,242,203,457,326,22
822,0.88,-0.34,0.37,0.79,-2.75,-3.48,221,241,200,457,326,22
823,0.88,-0.33,0.37,0.06,-2.5,-3.3,260,241,200,459,326,22
824,0.88,-0.34,0.37,-0.67,-2.62,-2.81,230,240,194,461,325,22
825,0.89,-0.34,0.37,-0.61,-2.75,-2.99,231,242,205,459,328,22
826,0.87,-0.33,0.38,-0.24,-3.42,-1.89,229,243,206,458,326,22
827,0.88,-0.33,0.37,1.34,-2.5,-1.59,240,244,204,460,331,22
828,0.87,-0.33,0.38,-0.98,-2.38,-2.56,229,249,206,457,325,22
829,0.88,-0.34,0.38,0.37,-2.99,-1.34,228,242,203,455,327,22
830,0.87,-0.34,0.38,0.37,-3.72,-2.01,232,240,218,452,324,22
831,0.88,-0.33,0.38,0.37,-2.38,-2.99,236,242,201,452,328,22
832,0.87,-0.34,0.38,0.24,-3.6,-3.3,228,243,200,458,328,22
833,0.86,-0.34,0.39,-0.06,-2.62,-1.95,229,243,203,456,327,22
834,0.87,-0.34,0.38,0.92,-3.66,-2.32,229,242,204,461,328,22
835,0.87,-0.34,0.38,0.98,-3.05,-2.99,231,243,198,458,330,22
836,0.87,-0.32,0.39,-0.98,-1.34,-1.59,229,244,195,457,325,22
837,0.87,-0.34,0.38,2.81,-4.39,-3.48,230,245,203,458,328,22
838,0.87,-0.34,0.38,1.34,-3.91,-2.32,231,244,196,462,326,22
839,0.86,-0.34,0.39,0.85,-3.42,-3.11,227,237,202,456,327,22
840,0.87,-0.34,0.38,0.79,-3.42,-2.32,232,241,200,456,327,22
841,0.87,-0.33,0.4,0.37,-2.93,-2.69,225,242,201,461,327,22
842,0.88,-0.34,0.39,0.37,-3.17,-2.75,227,244,207,458,328,22
843,0.86,-0.34,0.39,0.24,-2.56,-3.05,230,245,202,460,330,22
844,0.86,-0.35,0.39,-0.43,-2.38,-2.69,256,244,202,456,325,22
845,0.86,-0.34,0.39,1.89,-3.23,-1.77,225,241,196,453,329,22
846,0.87,-0.34,0.39,1.34,-3.05,-1.46,233,243,196,464,331,22
847,0.86,-0.33,0.39,1.89,-3.6,-2.44,225,241,205,457,333,22
848,0.87,-0.33,0.39,1.71,-2.87,-2.5,229,247,208,455,329,22
849,0.87,-0.33,0.39,-1.1,-2.87,-3.48,238,243,195,454,325,22
850,0.87,-0.33,0.39,0.98,-3.91,-2.87,229,245,213,459,329,22
851,0.87,-0.33,0.39,0.49,-4.21,-2.69,227,250,201,460,330,22
852,0.88,-0.32,0.39,0.85,-3.3,-2.81,239,239,201,460,330,22
853,0.88,-0.33,0.38,-0.43,-3.78,-2.87,229,242,200,462,326,22
854,0.87,-0.33,0.38,0.61,-3.05,-3.23,230,243,192,461,329,22
855,0.87,-0.32,0.37,0.73,-2.2,-2.5,228,242,204,458,326,22
856,0.87,-0.32,0.38,1.28,-2.56,-2.81,228,247,202,458,334,22
857,0.88,-0.33,0.38,0.43,-2.81,-2.99,230,237,206,457,328,22
858,0.88,-0.32,0.38,0.79,-2.69,-2.81,228,240,209,457,324,22
859,0.87,-0.32,0.38,-0.49,-3.54,-3.05,229,243,202,470,327,22
860,0.88,-0.32,0.38,1.16,-2.62,-2.56,234,240,201,460,331,22
861,0.87,-0.32,0.39,1.04,-3.17,-2.75,230,242,201,453,332,22
862,0.88,-0.33,0.37,0.55,-2.81,-2.38,232,248,202,461,329,22
863,0.87,-0.32,0.39,0.43,-3.23,-1.95,238,241,204,460,332,22
864,0.88,-0.32,0.37,1.34,-3.36,-3.36,226,242,197,460,330,22
865,0.91,-0.31,0.38,-1.34,-2.01,-2.14,230,241,202,458,325,22
866,0.86,-0.32,0.4,2.62,-2.99,-2.26,229,243,204,459,329,22
867,0.87,-0.32,0.38,2.44,-3.05,-2.5,232,240,198,457,329,22
868,0.88,-0.32,0.38,-0.18,-2.56,-3.36,223,245,203,456,329,22
869,0.87,-0.32,0.39,0.0,-3.6,-1.65,232,245,206,458,330,22
870,0.88,-0.33,0.38,0.37,-3.05,-2.2,230,242,201,457,329,22
871,0.87,-0.32,0.38,1.04,-3.48,-3.17,232,241,196,457,332,22
872,0.87,-0.33,0.38,-0.18,-2.75,-2.87,227,238,195,462,325,22
873,0.87,-0.32,0.39,0.18,-2.75,-2.69,229,247,202,453,328,22
874,0.87,-0.32,0.38,0.24,-2.69,-1.59,229,244,204,462,330,22
875,0.87,-0.34,0.38,0.24,-2.93,-3.54,232,243,201,461,330,22
876,0.87,-0.32,0.39,1.34,-2.69,-2.62,235,235,204,459,328,22
877,0.87,-0.33,0.38,-0.06,-2.99,-2.99,231,242,205,457,329,22
878,0.88,-0.32,0.38,1.71,-3.48,-2.5,230,239,200,459,328,22
879,0.88,-0.32,0.39,-1.1,-2.75,-1.95,230,243,201,455,326,22
880,0.82,-0.38,0.37,-3.3,-1.16,0.49,230,241,202,460,331,22
881,0.87,-0.35,0.38,0.85,-5.19,-1.46,226,236,203,460,331,22
882,0.9,-0.37,0.35,7.57,-9.89,-1.89,226,241,207,460,328,22
883,0.86,-0.35,0.39,-1.16,2.69,2.26,231,243,201,458,330,22
884,0.84,-0.41,0.41,2.38,-2.08,3.23,231,246,202,457,334,22
885,0.82,-0.39,0.43,0.06,-3.54,4.27,232,239,207,456,332,22
886,0.82,-0.4,0.43,1.53,-4.64,-2.01,232,241,207,460,331,22
887,0.83,-0.4,0.41,-0.67,-3.66,-3.78,229,236,203,451,329,22
888,0.8,-0.38,0.44,3.05,-3.97,-1.1,234,240,202,459,325,22
889,0.81,-0.41,0.42,2.75,-3.3,-1.65,230,244,192,456,330,22
890,0.81,-0.39,0.44,1.95,-1.95,-1.83,227,244,201,461,333,22
891,0.81,-0.41,0.46,2.2,-2.32,-0.98,229,242,200,457,333,22
892,0.81,-0.39,0.46,1.83,-3.72,-0.85,229,240,206,462,334,22
893,0.79,-0.4,0.45,-2.08,-5.55,-0.61,230,244,208,457,329,22
894,0.8,-0.43,0.45,2.26,-2.99,4.03,227,243,202,459,327,22
895,0.77,-0.45,0.47,4.82,-0.98,0.18,239,243,201,458,331,22
896,0.85,-0.37,0.48,0.98,0.24,-17.27,232,243,208,459,329,22
897,0.81,-0.4,0.48,-13.73,-3.05,-1.1,232,246,205,457,333,22
898,0.84,-0.39,0.45,5.8,0.73,-5.25,233,239,206,458,329,22
899,0.81,-0.39,0.46,3.6,-4.58,-5.92,232,243,202,461,328,22
900,0.85,-0.36,0.46,1.71,-3.6,-7.81,231,242,198,453,331,22
901,0.81,-0.37,0.46,0.24,-3.85,-2.56,232,242,204,462,330,22
902,0.81,-0.37,0.47,0.0,-2.44,-3.91,232,246,206,461,333,22
903,0.83,-0.35,0.47,2.87,-3.91,-2.99,229,246,202,457,331,22
904,0.84,-0.35,0.47,0.06,-2.56,-3.48,230,246,201,451,332,22
905,0.83,-0.36,0.46,2.08,-2.81,-0.61,232,241,204,461,331,22
906,0.83,-0.37,0.45,0.12,-4.15,0.55,236,241,200,452,329,22
907,0.86,-0.36,0.45,3.48,-2.08,-8.42,232,244,204,457,330,22
908,0.82,-0.41,0.43,-5.8,-5.68,-3.54,230,245,210,455,333,22
909,0.81,-0.38,0.45,4.39,-1.65,-5.31,226,241,200,457,332,22
910,0.82,-0.39,0.45,-0.12,-3.66,0.31,235,244,206,458,329,22
911,0.83,-0.36,0.47,2.26,-3.6,-4.09,231,241,206,457,327,22
912,0.82,-0.36,0.47,-1.34,-3.3,-2.56,232,246,194,456,328,22
913,0.84,-0.35,0.46,3.36,-4.39,-0.79,232,246,207,459,323,22
914,0.83,-0.33,0.47,0.24,-3.36,-1.04,223,243,204,456,330,22
915,0.84,-0.33,0.46,0.67,-2.93,-3.97,229,239,209,457,329,22
916,0.83,-0.33,0.46,1.65,-3.11,-2.69,233,244,204,456,331,22
917,0.83,-0.35,0.46,0.24,-3.23,-2.38,231,240,209,455,326,22
918,0.82,-0.35,0.46,0.37,-3.05,-0.92,233,243,206,459,333,22
919,0.81,-0.36,0.46,-1.95,-1.95,-1.53,233,238,202,457,334,22
920,0.83,-0.36,0.46,-1.83,-1.65,-2.62,233,243,201,453,330,22
921,0.83,-0.37,0.46,0.79,-2.75,-1.89,227,244,207,449,333,22
922,0.82,-0.36,0.47,1.1,-1.83,-2.87,237,239,207,455,328,22
923,0.81,-0.38,0.46,1.53,-3.42,-2.5,231,241,194,454,329,22
924,0.81,-0.37,0.46,-0.98,-4.09,-2.75,230,245,203,457,332,22
925,0.82,-0.37,0.46,1.34,-3.48,-2.87,233,245,201,454,331,22
926,0.81,-0.36,0.46,0.12,-2.5,-2.99,233,243,195,457,330,22
927,0.82,-0.37,0.46,0.0,-3.36,-1.95,231,240,203,450,332,22
928,0.81,-0.37,0.46,-0.18,-2.5,-2.87,229,246,201,460,333,22
929,0.82,-0.37,0.46,-15.08,-2.69,-2.93,232,246,217,458,329,22
930,0.82,-0.36,0.47,0.98,-3.05,-2.38,232,243,205,457,334,22
931,0.82,-0.36,0.46,0.61,-3.36,-2.69,230,245,207,453,330,22
932,0.82,-0.37,0.46,0.98,-5.0,-2.01,231,245,206,454,331,22
933,0.81,-0.36,0.46,0.55,-2.32,-3.05,234,244,198,455,332,22
934,0.82,-0.37,0.46,0.0,-2.99,-2.01,231,242,204,454,330,22
935,0.83,-0.37,0.45,0.18,-3.66,-2.2,231,242,204,450,331,22
936,0.82,-0.36,0.46,2.38,-2.75,-1.89,231,243,207,454,335,22
937,0.82,-0.36,0.46,2.01,-2.62,-3.97,235,238,210,458,332,22
938,0.82,-0.36,0.46,0.92,-3.54,-2.56,230,245,204,455,330,22
939,0.83,-0.36,0.46,-0.12,-2.38,-4.09,231,241,205,454,331,22
940,0.83,-0.36,0.46,2.69,-3.66,-2.32,240,243,204,455,331,22
941,0.83,-0.35,0.46,0.55,-3.23,-3.3,234,241,203,464,333,22
942,0.82,-0.36,0.46,0.31,-3.17,-2.44,251,241,206,455,332,22
943,0.82,-0.36,0.46,0.73,-3.05,-2.26,230,244,205,456,330,22
944,0.82,-0.36,0.46,0.73,-3.05,-2.81,233,242,207,455,331,22
945,0.82,-0.35,0.46,0.55,-2.44,-3.11,232,242,207,457,326,22
946,0.82,-0.34,0.46,2.2,-2.5,-2.56,262,243,203,453,331,22
947,0.82,-0.36,0.46,0.18,-2.87,-2.56,231,242,204,470,333,22
948,0.83,-0.35,0.46,-0.31,-2.75,-3.66,233,246,206,457,328,22
949,0.82,-0.34,0.47,1.22,-2.69,-2.81,234,244,202,456,342,22
950,0.83,-0.35,0.46,-0.55,-2.93,-2.93,233,245,201,459,334,22
951,0.83,-0.34,0.46,1.59,-3.05,-2.26,233,243,209,460,321,22
952,0.83,-0.35,0.46,-0.18,-2.32,-3.42,239,240,204,457,332,22
953,0.83,-0.35,0.46,0.24,-2.44,-3.05,239,245,203,465,332,22
954,0.83,-0.34,0.47,0.37,-2.93,-1.71,234,245,209,459,331,22
955,0.83,-0.34,0.47,0.61,-3.05,-2.75,233,242,206,459,335,22
956,0.83,-0.35,0.47,0.18,-2.62,-3.66,233,241,207,459,332,22
957,0.83,-0.34,0.47,-1.34,-2.5,-2.87,229,242,201,456,330,22
958,0.83,-0.34,0.46,-5.43,-1.77,-3.42,236,240,204,462,333,22
959,0.84,-0.36,0.45,1.71,-2.26,-2.87,230,241,200,458,330,22
960,0.81,-0.38,0.45,0.92,-2.26,-2.32,233,243,201,456,334,22
961,0.84,-0.36,0.45,1.1,-3.91,-3.05,235,243,202,454,333,22
962,0.84,-0.35,0.46,2.5,-3.97,-2.87,234,244,203,452,331,22
963,0.84,-0.34,0.47,2.75,-2.62,-0.79,235,243,203,461,333,22
964,0.83,-0.36,0.45,2.44,-2.14,-2.01,233,236,203,453,332,22
965,0.85,-0.33,0.46,1.53,-2.08,-4.21,232,242,203,456,331,22
966,0.81,-0.35,0.46,1.83,-3.91,-2.08,231,247,203,458,330,22
967,0.83,-0.35,0.46,0.06,-2.44,-3.54,231,250,204,459,334,22
968,0.84,-0.35,0.45,0.61,-2.81,-3.72,234,239,203,455,334,22
969,0.82,-0.34,0.46,-0.06,-2.81,-1.04,233,240,206,453,329,22
970,0.83,-0.34,0.45,2.38,-4.09,-2.75,230,239,203,455,331,22
971,0.84,-0.35,0.45,-0.43,-3.23,-3.3,232,242,209,454,332,22
972,0.84,-0.33,0.46,0.0,-2.81,-3.3,230,242,196,456,338,22
973,0.83,-0.33,0.46,0.0,-2.01,-1.77,235,241,205,459,335,22
974,0.85,-0.34,0.46,0.79,-2.5,-2.26,234,244,205,451,332,22
975,0.84,-0.32,0.46,1.28,-3.42,-1.53,232,243,203,461,331,22
976,0.84,-0.34,0.47,2.26,-2.81,-4.39,234,244,202,458,335,22
977,0.84,-0.34,0.46,-0.49,-4.7,0.06,230,242,206,458,331,22
978,0.83,-0.33,0.46,-1.89,-3.85,-0.67,231,247,203,460,332,22
979,0.84,-0.34,0.45,-3.48,-1.83,-6.35,236,242,205,457,329,22
980,0.85,-0.32,0.46,3.54,-1.28,-4.52,233,243,209,456,330,22
981,0.83,-0.31,0.47,1.59,-1.89,-2.81,229,243,206,458,332,22
982,0.84,-0.34,0.46,-1.89,-3.72,-2.14,233,240,208,457,332,22
983,0.84,-0.33,0.45,-1.34,-3.11,-3.91,231,242,203,457,328,22
984,0.82,-0.31,0.48,-0.12,-1.34,-5.74,232,245,201,452,331,22
985,0.84,-0.33,0.47,-1.1,-0.61,-3.66,241,241,206,450,332,22
986,0.86,-0.34,0.45,-0.31,-3.66,-5.8,228,241,207,456,333,22
987,0.81,-0.3,0.48,5.92,-4.46,-1.28,236,243,205,457,330,22
988,0.85,-0.33,0.45,3.72,-2.14,0.37,238,244,205,456,329,22
989,0.84,-0.35,0.44,-2.62,-2.56,-6.23,236,242,204,454,334,22
990,0.81,-0.33,0.47,1.34,-3.36,-1.22,234,240,203,457,336,22
991,0.85,-0.35,0.44,-2.44,-1.46,-1.1,231,241,206,456,334,22
992,0.85,-0.33,0.46,-0.43,-2.87,-3.11,235,246,204,458,328,22
993,0.83,-0.33,0.46,2.81,-3.36,-1.83,235,242,207,456,331,22
994,0.85,-0.36,0.42,1.34,-4.7,0.18,236,243,202,456,331,22
995,0.84,-0.38,0.41,-5.37,0.61,-7.93,234,246,203,456,332,22
996,0.87,-0.32,0.42,-1.28,-13.18,3.05,228,246,200,454,332,22
997,0.87,-0.3,0.44,0.18,-1.71,8.48,231,244,206,457,332,22
998,0.87,-0.36,0.43,-2.75,4.82,-21.79,236,245,208,456,334,22
999,0.83,-0.33,0.47,7.08,-11.54,-0.24,233,244,205,457,335,22
1000,0.85,-0.3,0.45,-10.62,1.53,-0.85,235,240,204,454,329,22
1001,0.86,-0.32,0.44,1.83,0.06,-15.87,236,245,207,458,329,22
1002,0.86,-0.23,0.47,-0.12,-5.07,3.85,233,241,206,458,331,22
1003,0.82,-0.31,0.43,-1.89,0.79,4.39,235,243,203,460,330,22
1004,0.83,-0.25,0.42,-3.05,-0.92,-11.72,235,246,203,467,330,22
1005,0.85,-0.3,0.44,-25.76,-0.79,5.25,233,241,206,454,329,22
1006,0.84,-0.34,0.43,3.48,-2.99,-4.39,235,243,207,452,337,22
1007,0.86,-0.31,0.43,3.3,-3.72,0.92,233,245,206,457,330,22
1008,0.83,-0.32,0.44,0.92,-2.99,-3.3,235,246,203,451,323,22
1009,0.84,-0.33,0.43,3.23,-4.33,-4.09,234,252,205,457,330,22
1010,0.83,-0.31,0.44,2.87,-4.33,-2.08,235,245,202,455,331,22
1011,0.86,-0.32,0.42,-1.4,-2.08,-3.97,233,242,200,457,329,22
1012,0.85,-0.31,0.44,-0.12,-3.36,-1.4,230,242,213,456,332,22
1013,0.86,-0.32,0.43,2.5,-3.85,-2.93,235,244,204,451,334,22
1014,0.86,-0.3,0.43,3.11,-3.48,-3.42,235,242,204,453,333,22
1015,0.86,-0.3,0.44,0.67,-2.32,-2.99,233,243,208,458,331,22
1016,0.85,-0.3,0.43,1.4,-3.48,-2.75,233,243,209,460,330,22
1017,0.86,-0.31,0.43,1.83,-3.3,-2.2,236,245,204,454,332,22
1018,0.85,-0.31,0.43,0.37,-2.69,-2.08,231,244,202,460,328,22
1019,0.86,-0.3,0.43,-0.67,-2.44,-3.05,233,239,208,455,327,22
1020,0.86,-0.31,0.43,-1.46,-3.54,-1.53,230,244,204,461,334,22
1021,0.88,-0.29,0.43,0.18,-3.54,-3.85,233,240,200,455,332,22
1022,0.86,-0.29,0.44,1.1,-2.44,-1.46,232,244,207,460,332,22
1023,0.86,-0.3,0.43,0.55,-1.22,-1.4,235,246,205,460,328,22
1024,0.85,-0.3,0.44,0.73,-3.91,-2.32,237,247,206,455,335,22
1025,0.86,-0.29,0.43,0.06,-3.91,-3.23,230,243,202,456,333,22
1026,0.85,-0.29,0.44,0.85,-2.08,-3.66,233,245,206,458,332,22
1027,0.91,-0.25,-0.16,3.97,5.92,-8.06,222,279,173,437,340,22
1028,0.92,-0.34,-0.09,12.45,-8.0,-4.88,226,282,178,433,345,22
1029,0.97,-0.34,-0.12,-13.49,-2.93,-6.9,226,281,169,432,334,22
1030,0.95,-0.32,-0.09,-1.89,-3.85,-2.38,226,283,180,440,335,22
1031,0.96,-0.32,-0.11,-3.97,-3.23,1.28,232,282,176,435,337,22
1032,0.96,-0.31,-0.08,-3.66,1.28,-3.54,230,280,178,431,337,22
1033,0.94,-0.32,-0.07,-5.55,1.65,4.82,231,275,179,439,333,22
1034,0.95,-0.34,-0.05,-2.81,2.32,-0.37,230,281,181,442,336,22
1035,0.93,-0.33,0.02,-3.05,-3.23,-0.67,230,282,183,441,333,22
1036,0.95,-0.32,-0.01,-2.01,-4.27,-7.39,229,282,182,446,338,22
1037,1.0,-0.3,-0.02,-4.94,-5.86,-5.25,236,282,180,439,340,22
1038,0.98,-0.26,-0.06,-0.73,-4.76,-4.7,233,276,183,446,341,22
1039,0.95,-0.27,-0.0,-2.32,-1.1,-2.81,229,291,175,447,340,22
1040,0.97,-0.25,-0.02,1.77,-4.58,-3.85,229,279,188,452,338,22
1041,0.97,-0.26,-0.02,0.55,-2.32,-2.99,228,284,183,451,342,22
1042,0.97,-0.25,-0.01,-0.55,-4.03,-1.28,226,282,184,445,338,22
1043,0.97,-0.25,-0.03,1.4,-2.56,-3.66,231,284,182,449,339,22
1044,0.97,-0.25,-0.02,-2.2,-5.68,-4.15,230,285,186,444,339,22
1045,0.98,-0.24,-0.05,-1.16,-5.25,-3.11,231,282,175,450,342,22
1046,0.98,-0.23,-0.05,0.85,-3.72,-2.01,228,282,183,451,344,22
1047,0.98,-0.24,-0.07,-0.79,-2.75,-0.92,227,281,188,450,341,22
1048,0.96,-0.24,-0.07,6.16,-9.46,-12.08,229,283,187,450,339,22
1049,0.99,-0.22,-0.1,-6.84,-3.48,1.22,228,283,183,458,336,22
1050,0.98,-0.22,-0.08,2.26,-6.23,-2.87,229,283,183,449,340,22
1051,0.96,-0.25,-0.08,-0.73,-3.17,-1.59,229,283,185,455,341,22
1052,0.95,-0.26,-0.09,-2.56,-2.93,-1.34,230,278,190,446,345,22
1053,0.93,-0.26,-0.07,-1.16,-0.31,0.06,228,286,185,453,344,22
1054,0.95,-0.27,-0.09,-0.06,-1.28,-2.14,230,282,186,457,343,22
1055,0.94,-0.28,-0.1,-0.61,-4.03,-2.99,230,283,187,451,349,22
1056,0.96,-0.26,-0.11,-0.12,-2.08,-2.2,229,284,188,457,346,22
1057,0.96,-0.27,-0.12,-0.12,-1.46,-1.89,229,278,186,452,345,22
1058,1.0,-0.25,-0.15,4.64,-2.81,-5.55,226,282,185,450,347,22
1059,0.98,-0.24,-0.12,0.55,-4.21,-3.36,233,284,192,451,341,22
1060,0.97,-0.26,-0.12,0.31,-4.39,-3.23,229,281,193,450,346,22
1061,0.96,-0.26,-0.13,-0.06,-2.62,-3.6,228,284,191,446,347,22
1062,0.96,-0.26,-0.12,0.49,-4.39,-2.26,225,283,193,454,346,22
1063,0.96,-0.25,-0.12,0.55,-2.26,-2.81,230,282,190,451,347,22
1064,0.95,-0.26,-0.12,0.43,-2.75,-4.64,233,284,188,453,345,22
1065,0.94,-0.27,-0.11,0.43,-3.54,-2.26,233,277,197,448,349,22
1066,0.96,-0.26,-0.12,0.06,-4.46,-1.83,231,290,190,447,341,22
1067,0.96,-0.27,-0.1,-0.98,-1.65,1.34,224,282,192,449,344,22
1068,0.96,-0.28,-0.11,0.18,-1.77,-1.77,232,285,193,452,343,22
1069,0.95,-0.3,-0.1,-0.67,-1.89,-0.31,229,285,192,453,345,22
1070,0.94,-0.31,-0.09,-0.67,-2.26,-0.37,228,286,188,448,346,22
1071,0.95,-0.31,-0.09,2.2,-3.6,-3.36,232,284,186,449,343,22
1072,0.95,-0.31,-0.08,0.67,-3.17,-2.44,233,287,189,453,346,22
1073,0.94,-0.32,-0.08,-1.22,-2.38,-1.95,228,283,188,455,338,22
1074,0.95,-0.32,-0.09,-0.49,-2.99,-2.87,225,285,190,453,347,22
1075,0.94,-0.31,-0.09,1.04,-1.22,-1.53,235,283,189,447,342,22
1076,0.95,-0.3,-0.08,0.98,-3.66,-3.66,230,284,189,451,348,22
1077,0.94,-0.3,-0.08,1.34,-2.38,-2.44,244,281,187,453,349,22
1078,0.96,-0.3,-0.11,0.67,-4.88,-5.98,231,288,183,454,349,22
1079,0.94,-0.31,-0.08,-0.24,-2.75,-2.32,231,286,185,451,338,22
1080,0.95,-0.31,-0.1,-1.46,-4.39,-4.82,233,284,190,453,346,22
1081,0.96,-0.29,-0.11,-0.55,-2.93,-2.99,226,281,192,454,345,22
1082,0.94,-0.31,-0.1,1.71,-3.36,-2.32,232,281,195,454,342,22
1083,0.96,-0.29,-0.12,1.28,-4.58,-5.55,232,283,188,451,346,22
1084,0.95,-0.29,-0.1,0.43,-4.58,-3.85,231,291,191,446,345,22
1085,0.96,-0.29,-0.12,1.28,-3.3,-1.46,231,288,197,450,349,22
1086,0.95,-0.3,-0.08,0.67,-1.77,-2.44,232,286,198,449,344,22
1087,0.94,-0.3,-0.11,-0.79,-2.2,-2.01,232,284,190,448,347,22
1088,0.96,-0.3,-0.1,1.65,-3.48,-2.75,228,282,194,454,344,22
1089,0.93,-0.31,-0.09,-0.06,-3.17,-2.62,231,280,199,449,345,22
1090,0.94,-0.32,-0.1,-0.49,-1.53,-1.53,228,286,194,449,346,22
1091,0.95,-0.31,-0.11,-0.06,-3.42,-3.48,236,285,195,453,348,22
1092,0.96,-0.29,-0.09,-0.18,-2.81,-2.62,229,288,195,452,345,22
1093,0.97,-0.29,-0.09,0.85,-3.6,-2.93,231,286,196,453,349,22
1094,0.96,-0.29,-0.1,0.12,-3.42,-0.73,232,285,196,446,345,22
1095,0.94,-0.32,-0.08,0.55,-3.23,-2.2,232,289,184,453,346,22
1096,0.93,-0.33,-0.1,-2.32,-2.5,-2.38,229,287,193,452,343,22
1097,0.95,-0.31,-0.08,-0.37,-3.23,-3.11,233,286,196,455,350,22
1098,0.95,-0.31,-0.09,0.92,-2.99,-3.05,227,283,196,456,346,22
1099,0.93,-0.32,-0.08,-0.43,-3.36,-0.73,233,287,195,453,344,22
1100,0.93,-0.32,-0.08,0.98,-3.17,-2.62,232,284,191,451,345,22
1101,0.96,-0.3,-0.08,0.61,-3.78,-2.69,229,285,195,452,346,22
1102,0.94,-0.31,-0.08,3.97,-3.54,-2.87,229,287,195,455,347,22
1103,0.95,-0.31,-0.08,1.34,-3.23,-3.6,230,285,191,456,346,22
1104,0.94,-0.33,-0.08,0.49,-3.23,-2.62,229,276,197,450,345,22
1105,0.94,-0.32,-0.08,-0.06,-2.38,-2.38,230,278,198,449,348,22
1106,0.94,-0.32,-0.06,0.06,-1.46,-0.79,228,284,193,456,345,22
1107,0.95,-0.31,-0.08,0.06,-2.81,-2.14,228,286,186,452,349,22
1108,0.96,-0.31,-0.07,0.06,-2.14,-1.89,228,287,193,454,358,22
1109,0.95,-0.32,-0.08,0.85,-3.05,-2.26,230,285,192,452,346,22
1110,0.94,-0.31,-0.07,0.85,-3.66,-2.26,233,284,193,454,347,22
1111,0.94,-0.31,-0.07,1.22,-3.23,-2.2,231,282,197,453,345,22
1112,0.95,-0.31,-0.09,-0.73,-2.99,-2.87,228,283,199,456,347,22
1113,0.94,-0.32,-0.08,-0.12,-2.5,-2.93,228,286,194,457,348,22
1114,0.94,-0.32,-0.07,1.22,-2.62,-2.62,230,288,195,451,346,22
1115,0.95,-0.31,-0.08,0.31,-3.11,-2.26,227,285,199,457,347,22
1116,0.95,-0.31,-0.08,0.55,-2.75,-2.14,231,285,200,453,346,22
1117,0.96,-0.31,-0.09,0.24,-3.17,-2.32,230,286,196,452,348,22
1118,0.95,-0.32,-0.08,-0.92,-2.32,-2.32,231,283,199,456,346,22
1119,0.95,-0.32,-0.07,0.43,-2.5,-2.32,222,283,200,453,345,22
1120,0.95,-0.32,-0.08,0.24,-2.93,-2.56,232,283,204,455,348,22
1121,0.94,-0.32,-0.08,0.18,-3.48,-2.32,232,283,201,456,345,22
1122,0.93,-0.32,-0.07,0.49,-4.15,-4.58,231,283,196,454,346,22
1123,0.97,-0.3,-0.08,1.71,-2.99,-3.11,228,283,196,455,347,22
1124,0.94,-0.32,-0.08,0.79,-2.44,-1.4,231,282,196,451,344,22
1125,0.95,-0.31,-0.08,0.43,-3.91,-2.08,235,284,199,452,347,22
1126,0.97,-0.3,-0.06,1.65,-3.66,-4.03,225,284,186,451,351,22
1127,0.95,-0.3,-0.08,0.24,-3.54,-2.2,229,284,196,453,347,22
1128,0.95,-0.33,-0.08,0.0,-2.99,-2.93,226,286,198,454,346,22
1129,0.94,-0.32,-0.07,-0.43,-2.44,-2.5,232,289,198,457,346,22
1130,0.95,-0.31,-0.07,0.79,-2.08,-1.1,229,285,196,454,348,22
1131,0.96,-0.31,-0.09,0.79,-3.23,-2.44,232,282,201,455,359,22
1132,0.95,-0.31,-0.08,-0.31,-3.72,-2.32,229,284,202,453,345,22
1133,0.95,-0.3,-0.07,1.16,-5.19,-6.41,230,284,204,456,343,22
1134,0.95,-0.31,-0.1,0.12,-1.46,-2.5,226,283,196,462,346,22
1135,0.94,-0.31,-0.09,-0.43,-2.69,-2.87,234,301,195,454,348,22
1136,0.95,-0.31,-0.07,0.55,-2.32,-3.36,232,288,198,455,345,22
1137,0.96,-0.3,-0.07,0.31,-2.44,-2.08,232,289,187,454,348,22
1138,0.96,-0.3,-0.08,1.95,-3.85,-2.75,231,291,196,458,348,22
1139,0.93,-0.32,-0.06,2.14,-6.9,-2.99,236,285,197,452,350,22
1140,0.92,-0.34,-0.08,-0.18,-2.81,-2.75,229,279,199,456,349,22
1141,0.95,-0.32,-0.08,-0.55,-1.46,-3.23,231,285,196,462,343,22
1142,0.94,-0.33,-0.08,0.55,-2.44,-1.46,226,279,195,460,348,22
1143,0.93,-0.33,-0.08,-0.06,-3.42,-1.53,232,287,201,453,347,22
1144,0.92,-0.35,-0.11,-1.4,-2.32,-0.43,234,281,194,455,347,22
1145,0.95,-0.32,-0.08,1.34,-3.78,-4.39,233,293,199,459,350,22
1146,0.94,-0.32,-0.1,-0.31,-2.08,-2.44,232,283,203,457,344,22
1147,0.94,-0.33,-0.09,-1.28,-2.87,-2.44,231,283,201,451,348,22
1148,0.91,-0.35,-0.08,-2.08,-4.33,-3.6,232,283,193,457,349,22
1149,0.94,-0.33,-0.08,1.04,-4.33,-3.17,230,287,198,455,348,22
1150,0.95,-0.32,-0.08,1.65,-2.69,-2.99,232,283,198,460,343,22
1151,0.95,-0.32,-0.09,-0.12,-4.27,-1.1,233,285,200,456,349,22
1152,0.95,-0.34,-0.11,2.99,-6.84,-0.98,228,290,197,456,345,22
1153,0.92,-0.35,-0.1,-0.73,-2.75,-2.44,231,285,205,452,346,22
1154,0.93,-0.33,-0.07,-1.71,0.73,-2.14,230,286,203,455,350,22
1155,0.94,-0.32,-0.07,1.34,-3.6,-3.23,233,286,201,456,353,22
1156,0.94,-0.33,-0.07,1.83,-3.91,-1.89,232,288,189,455,349,22
1157,0.94,-0.35,-0.09,-2.5,-3.36,-1.65,233,289,202,452,347,22
1158,0.94,-0.34,-0.07,-1.53,-3.11,-2.99,233,285,198,455,347,22
1159,0.93,-0.34,-0.07,-0.61,-3.17,-2.56,233,281,192,457,349,22
1160,0.94,-0.34,-0.07,-0.79,-3.66,-2.75,232,282,202,456,347,22
1161,0.95,-0.33,-0.06,0.49,-1.53,-1.71,231,287,192,466,348,22
1162,0.94,-0.34,-0.07,1.95,-1.65,-2.62,233,286,200,458,349,22
1163,0.94,-0.34,-0.06,0.73,-3.17,-3.17,234,283,200,461,346,22
1164,0.95,-0.34,-0.07,2.14,-2.62,-2.75,234,289,205,458,347,22
1165,0.93,-0.35,-0.06,-0.43,-2.5,-2.08,233,283,202,459,347,22
1166,0.93,-0.36,-0.06,0.49,-1.71,-1.1,232,285,200,458,345,22
1167,0.95,-0.34,-0.07,-0.18,-4.09,-1.77,228,287,200,456,349,22
1168,0.94,-0.35,-0.08,1.34,-0.98,-1.46,231,287,201,456,349,22
1169,0.93,-0.34,-0.05,2.08,-2.56,-3.48,232,284,201,457,349,22
1170,0.95,-0.36,-0.08,1.04,-0.31,-1.59,233,283,199,464,345,22
1171,0.93,-0.36,-0.06,0.37,-1.59,-2.38,231,286,204,456,349,22
1172,0.95,-0.33,-0.07,-1.28,-3.36,-3.91,233,284,202,456,351,22
1173,0.94,-0.35,-0.07,0.73,-2.14,-2.01,233,288,202,454,349,22
1174,0.96,-0.33,-0.07,1.04,-1.71,-1.46,232,287,201,461,346,22
1175,0.93,-0.36,-0.07,-1.89,-3.66,-4.09,243,284,205,461,344,22
1176,0.91,-0.39,-0.09,1.1,-6.04,-5.13,231,281,203,453,348,22
1177,0.95,-0.36,-0.08,2.08,-4.7,-2.93,233,287,203,456,348,22
1178,0.93,-0.37,-0.07,5.07,-9.77,-5.37,231,289,200,451,351,22
1179,0.95,-0.33,-0.08,-0.06,-6.77,-7.93,234,284,204,457,349,22
1180,0.97,-0.32,-0.14,0.85,-3.11,-2.5,230,288,204,456,350,22
1181,0.94,-0.34,-0.08,1.22,-2.32,-1.1,233,287,201,456,349,22
1182,0.95,-0.34,-0.09,5.98,-8.54,1.04,229,287,206,457,343,22
1183,0.91,-0.38,-0.05,-1.1,-4.52,-2.32,234,285,198,458,349,22
1184,0.91,-0.38,-0.06,0.67,-1.95,-1.89,237,287,205,459,345,22
1185,0.93,-0.38,-0.07,1.22,-3.11,-2.26,244,284,197,469,353,22
1186,0.93,-0.37,-0.08,0.49,-2.87,-1.71,231,285,201,456,347,22
1187,0.91,-0.39,-0.06,-0.61,-2.01,-0.06,229,288,203,460,348,22
1188,0.93,-0.38,-0.08,0.67,-3.78,-2.99,234,285,203,461,355,22
1189,0.9,-0.39,-0.07,0.18,-1.95,-1.28,233,288,203,456,352,22
1190,0.92,-0.38,-0.07,0.18,-3.85,-3.48,234,288,205,461,349,22
1191,0.92,-0.37,-0.06,-0.85,-4.09,-2.99,233,286,201,459,358,22
1192,0.92,-0.37,-0.08,0.0,-3.54,-3.11,234,286,204,455,358,22
1193,0.92,-0.38,-0.1,-0.31,-2.75,-3.36,233,283,202,457,349,22
1194,0.94,-0.36,-0.1,0.67,-3.85,-3.17,231,287,203,459,349,22
1195,0.93,-0.35,-0.09,1.4,-4.76,-3.42,234,286,203,457,352,22
1196,0.93,-0.37,-0.1,0.49,-3.42,-3.66,231,285,215,462,351,22
1197,0.94,-0.35,-0.1,1.77,-3.17,-2.01,230,286,202,457,348,22
1198,0.92,-0.36,-0.08,0.12,-1.65,-0.79,235,289,205,456,347,22
1199,0.92,-0.36,-0.09,-0.12,-2.32,-2.69,230,283,201,461,349,22
1200,0.89,-0.39,-0.08,0.92,-1.65,-0.18,229,285,205,453,348,22
1201,0.94,-0.34,-0.1,6.04,-2.32,-2.81,228,284,206,458,350,22
1202,0.96,-0.33,-0.11,0.37,-0.67,-1.71,234,287,201,456,349,22
1203,0.94,-0.36,-0.1,1.22,-1.46,-1.22,230,286,205,452,348,22
1204,0.93,-0.4,-0.12,5.55,-9.46,-2.93,231,290,204,452,346,22
1205,0.95,-0.34,-0.12,1.83,-3.85,-4.58,233,295,204,461,347,22
1206,0.94,-0.36,-0.1,1.1,-3.05,-3.23,233,288,204,459,349,22
1207,0.96,-0.34,-0.15,2.01,-4.94,-5.0,229,289,206,448,349,22
1208,0.95,-0.34,-0.12,-0.12,-2.01,-2.2,233,290,205,461,351,22
1209,0.92,-0.35,-0.1,0.0,-3.3,-3.17,232,286,203,459,352,22
1210,0.92,-0.37,-0.11,0.55,-0.98,-1.34,230,290,202,451,346,22
1211,0.96,-0.33,-0.1,4.33,0.79,-3.42,231,286,205,460,350,22
1212,0.93,-0.36,-0.07,0.55,-1.95,-2.32,257,289,205,451,341,22
1213,0.94,-0.36,-0.07,2.87,-1.83,0.24,231,286,205,452,346,22
1214,0.93,-0.37,-0.05,0.92,-3.91,-2.69,232,289,202,453,349,22
1215,0.94,-0.36,-0.06,-0.12,-2.81,-2.2,233,286,200,453,350,22
1216,0.93,-0.38,-0.06,-0.61,-2.32,-1.28,234,288,209,457,347,22
1217,0.93,-0.37,-0.05,0.67,-2.81,-2.56,233,285,213,456,347,22
1218,0.92,-0.38,-0.04,0.85,-2.69,-1.22,235,288,203,459,349,22
1219,0.92,-0.39,-0.05,0.61,-3.23,-1.77,234,288,200,458,349,22
1220,0.92,-0.38,-0.05,-1.1,-2.56,-2.75,231,289,203,458,348,22
1221,0.94,-0.37,-0.05,-0.43,-3.11,-2.14,231,288,203,460,351,22
1222,0.93,-0.38,-0.05,-0.49,-3.23,-2.56,228,287,206,457,350,22
1223,0.93,-0.39,-0.05,0.73,-2.93,-2.26,233,288,203,456,347,22
1224,0.93,-0.38,-0.04,0.61,-1.95,-2.14,234,289,208,453,346,22
1225,0.93,-0.38,-0.05,0.85,-2.69,-2.99,231,294,201,461,349,22
1226,0.93,-0.38,-0.05,0.06,-2.44,-2.2,231,290,202,460,353,22
1227,0.91,-0.39,-0.05,-0.55,-2.69,-2.32,233,292,204,457,350,22
1228,0.93,-0.38,-0.05,0.37,-3.85,-2.81,232,303,212,462,350,22
1229,0.93,-0.37,-0.06,-1.04,0.06,-0.85,230,290,202,454,347,22
1230,0.93,-0.37,-0.05,0.43,-3.05,-2.87,236,292,202,455,351,22
1231,0.93,-0.38,-0.04,1.16,-3.17,-2.32,232,291,205,454,349,22
1232,0.92,-0.38,-0.05,0.85,-2.38,-1.34,237,287,195,456,351,22
1233,0.94,-0.38,-0.06,0.55,-3.72,-2.99,232,280,202,453,352,22
1234,0.92,-0.39,-0.06,-0.43,-3.78,-2.93,227,292,204,456,348,22
1235,0.92,-0.38,-0.05,-0.55,-2.5,-2.62,229,287,213,460,348,22
1236,0.93,-0.38,-0.05,0.49,-3.23,-2.93,232,287,205,458,351,22
1237,0.91,-0.37,-0.04,-0.24,-2.5,-1.83,233,285,203,460,350,22
1238,0.92,-0.38,-0.04,0.92,-1.83,-2.56,232,291,204,453,349,22
1239,0.93,-0.38,-0.06,0.24,-2.69,-1.83,235,288,207,457,352,22
1240,0.93,-0.37,-0.05,0.67,-2.99,-2.2,232,293,207,456,351,22
1241,0.91,-0.38,-0.05,0.49,-3.17,-1.71,245,290,210,455,351,22
1242,0.93,-0.39,-0.05,-0.06,-2.93,-1.34,229,289,208,455,349,22
1243,0.93,-0.38,-0.05,0.49,-2.44,-2.75,232,288,205,459,348,22
1244,0.91,-0.38,-0.05,-0.18,-2.38,-2.44,235,290,205,456,349,22
1245,0.92,-0.38,-0.05,0.49,-2.75,-2.2,235,287,218,472,354,22
1246,0.93,-0.37,-0.05,0.55,-2.93,-2.69,235,290,206,458,344,22
1247,0.92,-0.38,-0.05,0.98,-3.3,-2.62,231,289,202,456,342,22
1248,0.92,-0.38,-0.06,1.1,-3.17,-2.62,231,288,199,454,351,22
1249,0.94,-0.37,-0.06,-0.98,-2.62,-2.08,235,289,204,456,351,22
1250,0.92,-0.37,-0.05,1.59,-2.93,-2.87,234,293,206,456,347,22
1251,0.93,-0.38,-0.06,0.06,-2.99,-2.75,233,293,203,460,352,22
1252,0.92,-0.38,-0.05,-0.31,-2.56,-2.26,233,289,201,453,353,22
1253,0.94,-0.36,-0.05,0.0,-3.23,-2.81,235,286,205,454,349,22
1254,0.91,-0.39,-0.05,0.37,-2.62,-2.87,229,290,206,459,348,22
1255,0.94,-0.37,-0.05,-0.43,-3.11,-2.32,237,290,208,452,346,22
1256,0.91,-0.38,-0.05,0.43,-2.93,-1.46,232,287,209,457,349,22
1257,0.92,-0.38,-0.05,0.43,-3.05,-2.2,230,291,205,461,353,22
1258,0.93,-0.38,-0.05,0.49,-2.32,-2.56,233,290,208,458,348,22
1259,0.93,-0.38,-0.06,0.18,-2.69,-3.6,229,283,206,457,347,22
1260,0.92,-0.38,-0.05,0.31,-2.32,-2.08,233,285,203,456,349,22
1261,0.94,-0.37,-0.05,0.31,-2.87,-2.26,233,287,206,458,350,22
1262,0.92,-0.38,-0.05,1.1,-3.05,-2.5,230,289,206,460,351,22
1263,0.93,-0.38,-0.06,0.55,-3.36,-2.56,235,283,206,456,348,22
1264,0.94,-0.37,-0.06,0.49,-2.2,-1.83,234,286,203,472,350,22
1265,0.92,-0.38,-0.04,-0.12,-2.14,-2.38,232,289,205,450,349,22
1266,0.91,-0.39,-0.05,-0.18,-2.56,-2.69,232,290,209,456,349,22
1267,0.92,-0.39,-0.05,-0.06,-3.91,-2.44,234,292,206,453,350,22
1268,0.94,-0.37,-0.06,0.12,-3.3,-2.01,231,291,202,456,349,22
1269,0.92,-0.39,-0.05,0.24,-2.38,-2.32,232,292,208,452,347,22
1270,0.93,-0.38,-0.06,0.12,-2.38,-1.95,236,288,208,452,352,22
1271,0.92,-0.38,-0.05,-4.58,-1.53,-0.31,228,284,201,460,351,22
1272,0.93,-0.37,-0.06,-1.46,-6.16,-4.27,234,288,208,451,351,22
1273,0.91,-0.39,-0.06,0.06,-1.1,-0.92,232,285,204,459,354,22
1274,0.92,-0.38,-0.06,-1.65,-2.38,-0.67,235,285,206,462,351,22
1275,0.92,-0.38,-0.07,1.04,-2.32,-2.69,233,286,205,459,350,22
1276,0.92,-0.4,-0.07,-0.43,-2.56,-2.5,229,288,208,452,348,22
1277,0.93,-0.37,-0.07,0.73,-2.81,-1.89,234,290,208,452,346,22
1278,0.92,-0.39,-0.07,-0.18,-2.56,-2.99,235,290,206,458,351,22
1279,0.92,-0.38,-0.07,1.89,-2.99,-2.14,230,287,208,450,346,22
1280,0.91,-0.39,-0.07,0.12,-3.48,-1.95,234,291,206,458,342,22
1281,0.91,-0.39,-0.07,0.79,-2.08,-2.5,227,287,219,455,350,22
1282,0.92,-0.38,-0.08,-0.37,-2.38,-1.77,230,290,209,458,349,22
1283,0.92,-0.39,-0.09,-0.06,-2.69,-2.81,229,285,208,460,346,22
1284,0.92,-0.39,-0.08,-0.06,-2.93,-3.3,232,288,209,456,352,22
1285,0.9,-0.39,-0.05,1.59,-3.91,-2.81,232,287,208,457,345,22
1286,0.92,-0.39,-0.08,-1.1,-3.3,-1.53,231,283,207,460,348,22
1287,0.94,-0.38,-0.1,0.06,-4.15,-3.6,233,289,205,454,348,22
1288,0.92,-0.39,-0.08,-0.79,-3.05,-3.05,232,295,208,451,351,22
1289,0.91,-0.39,-0.06,1.77,-4.15,-4.27,238,287,209,460,351,22
1290,0.91,-0.39,-0.07,0.98,-2.26,-2.26,231,290,204,451,347,22
1291,0.92,-0.39,-0.09,0.06,-3.05,-3.11,244,288,208,458,349,22
1292,0.92,-0.39,-0.08,0.67,-8.54,-5.55,227,290,205,456,352,22
1293,0.98,-0.34,-0.12,-0.43,-0.43,-2.5,229,291,207,453,350,22
1294,0.91,-0.38,-0.08,2.81,-3.6,-3.78,230,289,211,451,346,22
1295,0.93,-0.37,-0.08,1.77,-4.58,-3.23,230,290,208,461,347,22
1296,0.93,-0.37,-0.08,0.43,-2.38,-1.53,231,292,207,461,349,22
1297,0.92,-0.38,-0.08,1.16,-2.62,-2.38,232,289,208,455,351,22
1298,0.93,-0.38,-0.08,0.37,-1.95,-2.81,257,291,212,457,347,22
1299,0.93,-0.37,-0.07,1.04,-2.69,-2.75,236,290,218,461,352,22
1300,0.94,-0.37,-0.08,0.37,-3.54,-3.78,261,291,206,461,347,22
1301,0.91,-0.39,-0.07,0.79,-1.89,-2.32,230,290,206,458,351,22
1302,0.92,-0.38,-0.08,1.04,-3.36,-3.54,232,284,208,451,351,22
1303,0.92,-0.38,-0.09,0.55,-2.87,-2.75,233,290,206,454,350,22
1304,0.92,-0.37,-0.1,-1.95,-4.76,-2.87,231,289,217,462,349,22
1305,0.93,-0.38,-0.07,1.71,-4.15,-3.48,231,288,206,459,350,22
1306,0.94,-0.37,-0.09,0.31,-2.62,-2.5,232,288,198,456,347,22
1307,0.93,-0.38,-0.08,1.1,-2.99,-3.36,237,282,208,458,356,22
1308,0.91,-0.39,-0.09,0.55,-3.17,-2.99,230,288,210,453,349,22
1309,0.94,-0.37,-0.08,-0.31,-2.26,-2.2,245,292,209,450,347,22
1310,0.96,-0.35,-0.1,0.06,-2.5,-4.09,232,290,208,459,348,22
1311,0.92,-0.36,-0.08,-0.85,-3.97,-5.55,230,286,206,456,352,22
1312,0.95,-0.34,-0.1,3.48,-4.82,-1.04,231,286,207,460,348,22
1313,0.94,-0.35,-0.09,2.2,-4.27,-4.09,232,288,207,452,348,22
1314,0.95,-0.35,-0.11,0.98,-4.09,-3.17,231,286,210,457,349,22
1315,0.94,-0.35,-0.08,1.28,-1.28,-0.24,232,289,205,461,352,22
1316,0.95,-0.34,-0.09,1.83,-4.7,-4.39,232,290,206,449,349,22
1317,0.95,-0.35,-0.11,-1.34,-2.75,-5.25,227,289,209,457,352,22
1318,0.96,-0.34,-0.12,1.89,-2.62,-2.32,233,289,206,455,350,22
1319,0.91,-0.37,-0.07,-1.22,-4.21,-2.2,231,287,207,458,350,22
1320,0.91,-0.36,-0.05,-0.55,-3.05,-1.77,231,303,209,460,350,22
1321,0.91,-0.36,-0.09,2.26,-3.6,-0.92,237,289,209,456,349,22
1322,0.95,-0.35,-0.07,0.06,-1.65,-0.67,236,289,211,456,348,22
1323,0.94,-0.35,-0.1,-0.61,-5.62,-6.84,231,290,210,455,348,22
1324,0.94,-0.35,-0.09,1.46,-3.36,-4.33,231,292,211,459,351,22
1325,0.97,-0.36,-0.12,-2.75,-6.84,-6.1,230,288,207,458,348,22
1326,0.99,-0.32,-0.16,1.53,-3.17,-3.85,230,287,210,459,349,22
1327,0.94,-0.34,-0.12,-1.71,-3.05,-3.23,233,290,210,452,345,22
1328,0.95,-0.33,-0.13,0.55,-2.32,-3.72,229,287,204,456,345,22
1329,0.96,-0.34,-0.13,2.62,0.31,-3.23,233,283,211,453,349,22
1330,0.93,-0.35,-0.11,1.1,-4.09,-4.7,230,289,208,460,343,22
1331,0.94,-0.34,-0.12,-0.37,-3.36,-2.14,232,288,211,454,345,22
1332,0.94,-0.34,-0.12,0.49,-2.56,-1.83,235,289,216,458,347,22
1333,0.93,-0.34,-0.11,0.79,-3.11,-2.62,230,284,208,459,345,22
1334,0.93,-0.34,-0.11,0.24,-3.11,-2.5,238,289,211,462,344,22
1335,0.94,-0.34,-0.1,0.06,-2.56,-2.08,231,289,210,453,345,22
1336,0.94,-0.34,-0.11,2.26,-2.99,-4.09,231,291,210,455,347,22
1337,0.94,-0.34,-0.13,0.24,-2.75,-1.65,232,287,203,456,346,22
1338,0.94,-0.34,-0.12,0.18,-5.13,-3.6,234,290,212,455,349,22
1339,0.93,-0.34,-0.12,0.55,-2.75,-2.01,233,288,221,459,349,22
1340,0.93,-0.33,-0.12,-0.43,-3.91,-3.72,231,289,215,458,345,22
1341,0.94,-0.32,-0.12,1.46,-3.23,-3.23,241,287,213,451,349,22
1342,0.95,-0.33,-0.12,1.46,-2.87,-2.87,231,294,213,458,343,22
1343,0.93,-0.33,-0.12,-0.98,-3.11,-2.14,241,289,206,457,349,22
1344,0.93,-0.33,-0.12,0.37,-2.44,-4.33,235,286,209,457,348,22
1345,0.94,-0.33,-0.12,0.43,-2.62,-2.2,230,285,206,473,344,22
1346,0.94,-0.33,-0.11,0.43,-1.59,-1.04,233,288,204,455,349,22
1347,0.94,-0.34,-0.12,5.8,-1.34,6.29,235,288,211,456,341,22
1348,0.91,-0.4,-0.09,0.85,-2.93,-0.12,232,291,214,455,342,22
1349,0.87,-0.44,-0.06,6.77,3.42,2.62,231,291,210,458,345,22
1350,0.92,-0.4,-0.07,-0.85,-3.72,-4.09,236,291,210,460,344,22
1351,0.92,-0.39,-0.07,-0.18,-4.09,-2.99,231,289,213,452,345,22
1352,0.92,-0.4,-0.07,0.73,-2.56,-3.91,238,288,209,453,345,22
1353,0.92,-0.4,-0.08,0.31,-3.17,-3.42,232,285,211,458,347,22
1354,0.92,-0.39,-0.07,-1.28,-3.23,-1.4,223,289,200,460,341,22
1355,0.9,-0.41,-0.07,-1.04,-2.38,-2.69,236,290,212,459,345,22
1356,0.9,-0.4,-0.06,1.28,-2.44,-2.62,235,289,210,456,346,22
1357,0.91,-0.4,-0.07,-0.12,-2.87,-2.56,231,291,207,457,347,22
1358,0.91,-0.39,-0.07,1.1,-2.26,-2.14,230,293,215,461,345,22
1359,0.92,-0.39,-0.07,-0.06,-3.97,-4.58,233,292,212,463,346,22
1360,0.92,-0.38,-0.08,-0.79,-4.15,-3.48,234,292,214,452,347,22
1361,0.93,-0.38,-0.08,-0.43,-4.15,-2.93,232,291,206,454,346,22
1362,0.94,-0.37,-0.08,0.73,-4.09,-2.69,234,288,207,461,347,22
1363,0.93,-0.37,-0.08,0.92,-2.87,-3.05,228,293,204,457,346,22
1364,0.92,-0.38,-0.08,-0.79,-6.1,-5.0,235,288,216,452,349,22
1365,0.93,-0.37,-0.08,0.55,-3.36,-2.56,233,293,203,460,343,22
1366,0.91,-0.38,-0.09,0.24,-3.48,-2.32,228,289,207,454,346,22
1367,0.92,-0.37,-0.09,0.49,-2.93,-2.81,235,288,212,459,346,22
1368,0.94,-0.36,-0.08,1.4,-1.71,-2.38,233,290,208,460,344,22
1369,0.93,-0.37,-0.09,1.4,-2.93,-2.75,233,292,197,455,342,22
1370,0.94,-0.36,-0.09,-0.12,-3.11,-1.83,232,294,210,452,346,22
1371,0.92,-0.37,-0.09,0.31,-2.5,-2.56,232,289,205,462,346,22
1372,0.94,-0.37,-0.09,-0.06,-2.81,-2.87,233,291,213,456,346,22
1373,0.93,-0.37,-0.08,-0.06,-3.3,-2.2,236,290,212,462,347,22
1374,0.92,-0.38,-0.09,0.67,-3.11,-1.65,232,299,212,455,347,22
1375,0.93,-0.36,-0.07,0.18,-2.38,-2.56,234,292,202,460,344,22
1376,0.93,-0.35,-0.08,0.98,-2.2,-1.71,233,291,212,457,345,22
1377,0.94,-0.36,-0.08,2.08,-3.54,-3.91,232,290,213,459,346,22
1378,0.93,-0.37,-0.1,0.61,-2.99,-2.5,230,286,211,458,347,22
1379,0.92,-0.37,-0.09,-0.49,-2.93,-2.32,234,293,208,453,348,22
1380,0.93,-0.37,-0.08,0.92,-2.69,-3.36,234,289,208,457,347,22
1381,0.93,-0.37,-0.09,0.24,-2.01,-2.2,234,289,211,457,347,22
1382,0.93,-0.37,-0.09,0.61,-3.05,-2.38,233,289,201,457,346,22
1383,0.93,-0.37,-0.09,0.55,-3.17,-2.69,230,295,211,458,347,22
1384,0.93,-0.36,-0.09,1.59,-3.36,-2.69,234,291,209,454,346,22
1385,0.94,-0.37,-0.1,0.67,-2.26,-2.38,235,288,204,455,343,22
1386,0.91,-0.37,-0.09,-0.43,-2.56,-2.14,235,293,210,462,345,22
1387,0.92,-0.37,-0.08,0.12,-2.75,-1.77,234,290,208,457,348,22
1388,0.95,-0.35,-0.09,-1.83,0.73,-3.54,232,292,212,457,346,22
1389,0.93,-0.36,-0.09,0.73,-2.2,-2.5,232,290,221,452,346,22
1390,0.93,-0.37,-0.09,0.0,-2.44,-2.5,237,293,215,455,343,22
1391,0.93,-0.36,-0.09,0.37,-3.05,-2.87,238,291,208,451,344,22
1392,0.92,-0.37,-0.08,0.98,-2.75,-2.44,236,292,212,457,347,22
1393,0.93,-0.37,-0.08,-0.73,-2.56,-1.95,234,286,209,461,346,22
1394,0.92,-0.36,-0.08,0.24,-2.87,-2.5,222,292,215,462,345,22
1395,0.93,-0.37,-0.09,0.18,-2.99,-2.81,235,291,226,454,351,22
1396,0.93,-0.36,-0.09,0.92,-2.87,-2.01,237,291,210,461,346,22
1397,0.93,-0.36,-0.09,-0.31,-2.75,-2.5,230,290,215,464,349,22
1398,0.93,-0.37,-0.1,0.98,-3.05,-3.11,232,295,214,462,347,22
1399,0.93,-0.36,-0.09,0.92,-3.17,-2.69,230,290,208,459,350,22
1400,0.91,-0.37,-0.08,-0.67,-1.71,-0.67,232,289,215,458,347,22
1401,0.95,-0.33,-0.09,1.53,-2.14,-3.72,233,286,209,455,346,22
1402,0.95,-0.36,-0.1,0.55,-2.69,-4.33,234,287,210,461,350,22
1403,0.94,-0.36,-0.09,1.46,-3.78,-3.66,233,289,210,471,343,22
1404,0.94,-0.37,-0.08,0.67,-1.95,-1.53,237,291,212,457,347,22
1405,0.92,-0.37,-0.08,-0.37,-3.05,-2.87,234,286,213,456,344,22
1406,0.93,-0.36,-0.08,0.31,-2.69,-1.89,236,291,215,461,345,22
1407,0.91,-0.36,-0.07,-1.22,-2.81,-0.85,256,289,215,457,348,22
1408,0.92,-0.36,-0.06,0.92,-2.01,-1.77,236,293,209,461,348,22
1409,0.92,-0.36,-0.06,-1.53,-1.22,-0.73,231,291,216,457,342,22
1410,0.91,-0.37,-0.05,0.73,-2.62,-1.65,232,292,213,453,344,22
1411,0.93,-0.37,-0.08,1.28,-1.71,-1.83,234,287,213,465,350,22
1412,0.93,-0.37,-0.08,0.49,-3.05,-2.99,238,291,211,454,344,22
1413,0.92,-0.36,-0.08,0.0,-2.87,-2.87,235,297,207,454,348,22
1414,0.92,-0.37,-0.07,0.18,-2.93,-2.87,230,287,206,463,351,22
1415,0.94,-0.35,-0.08,0.98,-2.87,-2.81,234,287,212,454,347,22
1416,0.93,-0.36,-0.07,0.61,-2.5,-2.08,233,287,208,462,350,22
1417,0.92,-0.37,-0.08,0.12,-2.32,-1.83,233,289,207,458,347,22
1418,0.93,-0.36,-0.07,1.1,-2.69,-2.56,232,291,214,457,348,22
1419,0.94,-0.36,-0.08,0.92,-3.11,-2.32,231,284,212,456,343,22
1420,0.93,-0.37,-0.08,-0.06,-3.11,-2.32,234,292,213,458,345,22
1421,0.92,-0.37,-0.08,0.0,-2.62,-2.56,232,288,218,457,352,22
1422,0.93,-0.36,-0.07,-0.61,-3.23,-2.32,236,285,211,459,350,22
1423,0.92,-0.37,-0.07,0.55,-2.08,-1.65,233,289,214,463,349,22
1424,0.93,-0.37,-0.07,1.1,-2.75,-2.44,231,290,203,459,340,22
1425,0.93,-0.37,-0.08,-0.67,-1.46,-2.32,233,286,211,453,344,22
1426,0.92,-0.38,-0.06,1.59,-4.03,-3.66,228,286,210,459,347,22
1427,0.89,-0.4,-0.02,4.15,-3.72,3.91,232,287,214,461,350,22
1428,0.88,-0.42,-0.05,1.34,-4.58,-2.87,228,289,209,459,347,22
1429,0.99,-0.36,-0.16,-5.31,-9.03,-9.28,236,291,211,455,345,22
1430,0.94,-0.34,-0.03,-1.53,0.61,-2.62,236,283,216,454,350,22
1431,0.95,-0.37,-0.09,-9.64,-3.6,9.77,232,286,216,457,345,22
1432,0.93,-0.4,-0.08,-3.36,-1.1,-3.91,234,287,212,459,350,22
1433,0.95,-0.4,-0.12,-5.8,-4.21,-10.62,232,290,207,460,349,22
1434,0.98,-0.32,-0.11,7.08,-9.95,-6.71,233,289,212,462,345,22
1435,0.85,-0.42,-0.05,2.38,3.36,3.23,234,286,207,459,346,22
1436,0.9,-0.41,-0.07,-3.3,-0.12,-1.95,231,285,203,460,351,22
1437,0.91,-0.41,-0.11,0.98,1.34,-3.42,231,291,218,460,348,22
1438,0.94,-0.39,-0.09,-0.43,-8.79,0.06,232,287,214,458,348,22
1439,0.89,-0.41,-0.05,-0.55,-0.55,-1.22,234,281,209,462,348,22
1440,0.92,-0.39,-0.09,-7.75,-2.62,-4.88,233,288,206,458,347,22
1441,0.94,-0.37,-0.1,1.59,-4.64,-4.52,229,287,214,458,349,22
1442,0.91,-0.39,-0.09,1.46,-0.37,2.01,236,287,211,455,349,22
1443,0.9,-0.41,-0.06,1.71,-2.44,-2.5,231,292,203,457,342,22
1444,0.93,-0.37,-0.06,3.72,-2.5,-3.11,231,289,210,459,349,22
1445,0.92,-0.38,-0.07,2.69,-3.78,-3.23,234,288,215,458,350,22
1446,0.93,-0.39,-0.09,0.06,-3.97,-3.54,237,285,213,458,347,22
1447,0.93,-0.38,-0.06,-0.43,-3.11,-3.05,227,287,215,464,344,22
1448,0.93,-0.38,-0.07,1.53,-2.01,-2.69,235,297,211,459,346,22
1449,0.92,-0.39,-0.07,-0.79,-2.38,-2.56,232,292,211,463,346,22
1450,0.93,-0.38,-0.07,0.18,-3.54,-2.99,230,289,215,463,346,22
1451,0.92,-0.39,-0.07,1.77,-2.62,-2.32,232,290,212,463,352,22
1452,0.92,-0.4,-0.07,-0.79,-2.56,-1.89,235,285,216,456,347,22
1453,0.92,-0.4,-0.07,0.61,-2.99,-2.69,233,289,209,456,356,22
1454,0.93,-0.38,-0.06,0.73,-3.05,-3.05,232,289,215,461,348,22
1455,0.91,-0.4,-0.05,-0.67,-1.89,-0.98,236,288,208,454,347,22
1456,0.93,-0.38,-0.06,0.85,-3.42,-2.32,236,288,201,463,350,22
1457,0.92,-0.39,-0.06,0.18,-3.66,-2.26,233,296,211,459,350,22
1458,0.92,-0.39,-0.05,2.08,-2.93,-1.89,233,290,214,457,351,22
1459,0.94,-0.38,-0.09,1.77,-3.48,-6.35,235,291,204,457,352,22
1460,0.92,-0.39,-0.07,2.44,-2.81,-2.69,231,291,210,465,347,22
1461,0.93,-0.39,-0.06,2.01,-5.0,-5.37,234,290,208,462,348,22
1462,0.94,-0.38,-0.06,-0.43,-2.69,-2.2,230,289,210,471,350,22
1463,0.9,-0.4,-0.05,-0.73,-2.99,-1.71,229,289,215,466,349,22
1464,0.92,-0.39,-0.06,0.0,-3.23,-2.93,235,288,209,458,349,22
1465,0.91,-0.4,-0.05,-0.73,-2.44,-1.95,235,291,211,463,346,22
1466,0.91,-0.4,-0.05,-0.06,-3.72,-4.7,237,288,217,461,349,22
1467,0.93,-0.39,-0.08,0.85,-3.23,-1.34,237,300,212,461,347,22
1468,0.93,-0.37,-0.02,-2.99,-1.28,-0.85,227,286,211,457,343,22
1469,0.96,-0.34,-0.06,-1.04,-5.98,-9.03,237,285,210,458,346,22
1470,0.96,-0.32,-0.11,5.92,-11.47,-3.78,232,286,210,462,349,22
1471,0.94,-0.33,-0.06,3.54,-1.1,0.0,237,290,211,456,347,22
1472,0.93,-0.36,-0.06,1.65,-0.06,0.12,235,285,210,459,351,22
1473,0.94,-0.38,-0.06,-0.79,-1.83,-2.14,234,287,210,460,349,22
1474,0.92,-0.38,-0.06,0.98,-2.93,-2.87,230,282,217,464,349,22
1475,0.93,-0.37,-0.06,-0.49,-2.87,-2.32,235,290,209,459,341,22
1476,0.93,-0.37,-0.07,1.4,-2.44,-2.14,229,290,213,458,350,22
1477,0.93,-0.37,-0.06,0.0,-3.17,-2.93,233,291,211,454,346,22
1478,0.93,-0.38,-0.06,-0.98,-2.32,-2.69,234,294,211,461,348,22
1479,0.92,-0.37,-0.07,-0.43,-3.11,-2.26,231,291,214,468,351,22
1480,0.93,-0.37,-0.07,-0.06,-2.69,-2.08,232,288,214,459,345,22
1481,0.93,-0.37,-0.07,0.73,-2.69,-2.08,233,291,214,464,346,22
1482,0.93,-0.37,-0.07,-0.37,-2.5,-2.56,234,289,212,462,351,22
1483,0.93,-0.37,-0.07,0.61,-2.69,-2.14,233,284,212,458,351,22
1484,0.93,-0.37,-0.07,0.06,-1.83,-1.53,239,291,211,459,351,22
1485,0.93,-0.38,-0.07,-0.79,-2.44,-2.5,234,297,213,457,348,22
1486,0.94,-0.36,-0.06,0.92,-3.78,-3.11,232,289,213,461,346,22
1487,0.93,-0.37,-0.06,-0.18,-3.36,-2.08,231,291,211,462,352,22
1488,0.93,-0.37,-0.07,0.49,-2.14,-2.56,232,285,212,456,349,22
1489,0.92,-0.37,-0.07,0.67,-2.26,-2.93,232,288,213,458,352,22
1490,0.93,-0.37,-0.07,0.73,-2.99,-2.56,239,302,209,464,349,22
1491,0.93,-0.37,-0.07,0.55,-2.38,-2.81,235,297,209,462,343,22
1492,0.92,-0.38,-0.07,0.43,-2.99,-2.14,236,292,214,459,349,22
1493,0.92,-0.38,-0.07,-0.43,-2.99,-2.2,227,292,215,462,348,22
1494,0.92,-0.37,-0.06,0.43,-2.32,-1.89,231,296,209,455,350,22
1495,0.93,-0.37,-0.07,0.18,-2.5,-2.75,232,290,210,462,349,22
1496,0.93,-0.37,-0.06,-0.55,-3.66,-2.99,233,288,216,464,348,22
1497,0.93,-0.37,-0.07,-0.12,-2.69,-1.77,233,285,214,460,350,22
1498,0.92,-0.37,-0.08,0.12,-3.11,-2.56,233,292,206,462,351,22
1499,0.92,-0.37,-0.06,-4.82,-5.98,-3.72,233,291,206,462,345,22
1500,0.95,-0.35,-0.09,1.46,-2.62,0.24,230,289,205,453,357,22
1501,0.91,-0.41,-0.07,-1.04,-0.49,-1.22,230,288,206,458,349,22
1502,0.92,-0.38,-0.05,-3.97,-4.03,-6.29,232,290,214,455,348,22
1503,0.95,-0.34,-0.11,0.31,-3.85,-4.64,235,295,214,461,347,22
1504,0.93,-0.36,-0.09,1.59,-2.62,1.16,231,305,212,454,347,22
1505,0.9,-0.39,-0.07,1.53,-2.01,-1.1,234,289,208,464,349,22
1506,0.91,-0.39,-0.08,-0.43,-4.09,-3.91,236,283,213,467,351,22
1507,0.93,-0.38,-0.08,-1.1,-1.71,-1.95,235,284,212,463,345,22
1508,0.93,-0.37,-0.08,1.1,-2.87,-1.46,232,283,210,462,344,22
1509,0.93,-0.38,-0.07,1.65,-2.2,-1.95,232,295,215,459,350,22
1510,0.91,-0.39,-0.08,-0.61,-4.64,-4.21,234,290,213,463,347,22
1511,0.94,-0.35,-0.08,0.37,-4.27,-3.42,236,289,208,462,348,22
1512,0.93,-0.37,-0.09,-0.55,-3.36,-1.59,235,288,208,463,348,22
1513,0.94,-0.36,-0.08,1.53,-2.14,-2.44,236,292,212,462,350,22
1514,0.92,-0.37,-0.07,0.43,-2.93,-2.01,232,288,219,462,350,22
1515,0.92,-0.37,-0.07,-0.43,-3.42,-3.11,234,288,216,459,351,22
1516,0.93,-0.36,-0.07,0.79,-2.38,-1.59,232,291,212,465,350,22
1517,0.91,-0.39,-0.08,0.37,-3.11,-2.32,234,291,207,462,349,22
1518,0.93,-0.38,-0.08,1.04,-4.03,-3.48,235,289,215,457,348,22
1519,0.93,-0.37,-0.07,0.0,-3.23,-1.89,237,289,216,457,344,22
1520,0.92,-0.38,-0.07,0.43,-2.26,-1.95,223,293,214,458,346,22
1521,0.92,-0.38,-0.07,0.06,-2.87,-2.38,234,292,204,461,350,22
1522,0.93,-0.37,-0.07,0.79,-2.81,-2.56,226,289,211,455,350,22
1523,0.92,-0.38,-0.07,0.49,-2.81,-2.62,234,291,204,465,345,22
1524,0.92,-0.38,-0.07,1.28,-2.75,-1.83,243,291,210,460,350,22
1525,0.93,-0.37,-0.07,-0.37,-2.69,-1.65,233,289,211,461,350,22
1526,0.92,-0.38,-0.07,0.06,-2.44,-3.05,232,289,213,457,350,22
1527,0.92,-0.37,-0.07,0.31,-2.5,-2.38,239,286,212,460,350,22
1528,0.93,-0.37,-0.07,0.85,-3.05,-3.17,233,290,203,457,346,22
1529,0.93,-0.37,-0.07,1.46,-2.62,-1.53,230,288,212,460,347,22
1530,0.93,-0.37,-0.07,1.22,-3.42,-2.32,233,289,208,456,349,22
1531,0.93,-0.38,-0.08,-0.31,-2.56,-2.32,230,290,208,464,347,22
1532,0.92,-0.38,-0.07,1.16,-3.6,-4.64,230,285,209,458,354,22
1533,0.91,-0.38,-0.06,0.0,-3.23,-2.2,236,292,206,456,346,22
1534,0.93,-0.38,-0.07,0.12,-3.6,-2.81,232,287,213,463,351,22
1535,0.93,-0.38,-0.07,-1.34,-2.87,-2.5,238,287,212,461,351,22
1536,0.92,-0.38,-0.07,0.31,-2.93,-2.56,231,293,212,461,349,22
1537,0.93,-0.37,-0.07,0.43,-2.81,-2.14,232,295,212,463,347,22
1538,0.94,-0.38,-0.08,1.65,-3.48,-1.89,233,284,212,460,350,22
1539,0.93,-0.37,-0.06,0.31,-2.38,-2.32,232,285,211,457,352,22
1540,0.93,-0.37,-0.07,-0.12,-2.44,-2.81,232,290,210,463,346,22
1541,0.93,-0.37,-0.07,0.24,-2.99,-2.99,233,290,216,463,350,22
1542,0.91,-0.39,-0.06,1.28,-2.93,-1.22,234,292,211,461,349,22
1543,0.93,-0.38,-0.08,1.28,-2.62,-0.92,233,293,210,459,349,22
1544,0.9,-0.4,-0.06,-1.53,-1.71,-0.24,230,283,208,464,348,22
1545,0.9,-0.42,-0.09,0.06,-3.54,-5.0,234,290,208,464,346,22
1546,0.93,-0.38,-0.07,-0.06,-2.5,-2.14,231,289,211,466,348,22
1547,0.88,-0.27,0.44,8.73,7.57,-7.93,258,298,208,455,319,22
1548,0.86,-0.33,0.39,-1.83,9.64,3.23,258,297,208,456,317,22
1549,0.75,-0.37,0.38,-10.5,-7.87,5.74,260,293,210,459,321,22
1550,0.91,-0.34,0.32,0.49,-0.98,-3.78,261,297,213,460,322,22
1551,0.87,-0.35,0.35,2.08,-3.66,-3.05,261,299,209,458,321,22
1552,0.87,-0.33,0.36,-2.93,5.31,-13.31,262,299,209,458,323,22
1553,0.88,-0.35,0.35,2.38,-9.03,-2.87,259,297,213,458,325,22
1554,0.88,-0.27,0.36,3.05,3.36,-1.28,262,300,212,456,324,22
1555,0.9,-0.27,0.37,0.18,1.16,-5.0,262,298,212,455,321,22
1556,0.9,-0.27,0.36,0.37,-3.05,-1.95,261,298,215,456,325,22
1557,0.91,-0.26,0.37,-1.77,-4.7,-5.92,269,300,212,453,321,22
1558,1.0,-0.19,0.28,-7.2,-19.29,-19.29,264,299,215,456,326,22
1559,0.94,-0.2,0.31,-0.67,-1.89,-3.05,261,305,213,454,325,22
1560,0.94,-0.22,0.33,-5.0,-3.48,-2.75,264,302,214,454,326,22
1561,0.94,-0.21,0.31,1.65,-3.48,-2.14,263,302,213,452,327,22
1562,0.93,-0.21,0.31,-0.85,-2.99,-2.56,263,302,214,457,326,22
1563,0.94,-0.2,0.3,2.32,-3.11,-2.44,264,300,214,452,327,22
1564,0.92,-0.21,0.31,1.04,-2.62,-2.44,262,301,215,453,329,22
1565,0.93,-0.22,0.31,-0.49,-4.33,-2.87,262,302,213,455,326,22
1566,0.93,-0.21,0.31,-2.69,-5.98,-2.93,259,300,213,456,326,22
1567,0.94,-0.21,0.3,-0.67,-3.72,-3.05,266,300,211,459,326,22
1568,1.02,-0.12,0.12,-22.03,-25.33,10.07,262,297,215,460,326,22
1569,0.81,-0.25,0.24,6.65,2.99,-7.02,263,299,215,457,327,22
1570,0.87,-0.41,0.27,-2.44,4.64,-5.86,262,302,213,455,331,22
1571,0.9,-0.44,0.34,-12.27,6.9,14.71,264,301,216,453,327,22
1572,0.88,-0.35,0.37,2.32,-4.94,-1.95,262,300,227,455,328,22
1573,0.87,-0.44,0.33,3.54,-7.93,-5.19,264,308,215,456,335,22
1574,0.89,-0.31,0.31,3.05,-0.12,-10.62,262,301,215,456,329,22
1575,0.88,-0.44,0.35,9.16,-12.02,6.9,265,301,217,458,329,22
1576,0.92,-0.29,0.29,1.22,-8.18,-8.18,264,303,214,457,325,22
1577,0.88,-0.39,0.29,0.06,-4.7,-2.38,262,301,219,460,328,22
1578,0.89,-0.36,0.28,1.59,-1.95,-1.77,263,302,215,459,329,22
1579,0.91,-0.33,0.29,3.97,-4.52,-2.81,267,301,216,454,328,22
1580,0.94,-0.33,0.27,-1.4,-6.23,-3.66,263,301,211,459,332,22
1581,0.93,-0.33,0.26,-0.79,-4.7,-2.38,263,302,217,459,328,22
1582,0.91,-0.32,0.25,-1.28,-4.15,-2.81,267,305,216,461,326,22
1583,0.92,-0.32,0.25,-0.73,-3.42,-2.56,262,299,213,454,331,22
1584,0.94,-0.34,0.26,-7.32,-2.14,-4.39,264,302,216,457,330,22
1585,0.89,-0.32,0.24,-2.75,0.0,0.67,262,305,215,459,334,22
1586,0.9,-0.35,0.27,5.19,-4.03,3.11,262,302,214,459,331,22
1587,0.9,-0.36,0.27,-3.42,-3.3,-2.87,268,305,220,459,329,22
1588,0.91,-0.36,0.28,-0.43,-1.16,-4.46,265,305,215,463,332,22
1589,0.89,-0.34,0.26,5.43,-0.73,-0.85,264,303,218,462,329,22
1590,0.9,-0.33,0.27,1.22,-2.62,-3.97,260,301,217,459,329,22
1591,0.92,-0.33,0.25,2.99,-3.05,-2.44,259,304,217,460,331,22
1592,0.92,-0.34,0.26,-0.49,-3.85,-3.42,265,302,215,456,330,22
1593,0.93,-0.33,0.25,-0.31,-3.23,-1.16,261,303,213,460,330,22
1594,0.9,-0.33,0.27,0.43,-3.05,-2.56,262,306,216,458,330,22
1595,0.91,-0.33,0.27,0.24,-2.38,-2.5,264,304,219,463,327,22
1596,0.9,-0.33,0.27,2.08,-1.95,-1.65,260,304,218,459,328,22
1597,0.91,-0.32,0.27,-0.12,-3.05,-2.38,263,305,218,457,331,22
1598,0.91,-0.34,0.27,0.73,-3.11,-2.81,263,305,217,458,330,22
1599,0.91,-0.33,0.28,-0.85,-3.05,-2.87,263,303,219,461,332,22
1600,0.91,-0.33,0.27,0.55,-2.5,-2.62,263,304,215,461,332,22
1601,0.91,-0.33,0.27,3.72,-2.32,-1.04,263,306,217,458,330,22
1602,0.92,-0.34,0.26,-1.83,-3.78,-2.69,263,303,216,458,332,22
1603,0.92,-0.33,0.27,0.85,-3.11,-2.32,260,304,216,454,327,22
1604,0.91,-0.33,0.26,8.85,-1.1,-1.53,264,300,218,463,331,22
1605,0.91,-0.33,0.27,1.77,-3.23,-2.5,264,304,216,453,330,22
1606,0.91,-0.33,0.27,0.43,-3.97,-2.99,267,304,219,459,336,22
1607,0.91,-0.33,0.28,-0.24,-3.05,-2.81,265,305,216,457,331,22
1608,0.92,-0.32,0.27,1.34,-1.53,-2.99,265,302,220,457,331,22
1609,0.92,-0.31,0.26,-1.28,-4.33,-2.69,264,304,218,461,332,22
1610,0.92,-0.31,0.27,-0.85,-4.09,-2.99,262,321,217,458,329,22
1611,0.92,-0.31,0.26,0.79,-2.75,-2.32,265,306,218,459,327,22
1612,0.93,-0.31,0.25,1.95,-3.36,-1.77,265,304,216,457,332,22
1613,0.92,-0.31,0.25,2.62,-2.2,-2.26,265,305,219,454,331,22
1614,0.92,-0.32,0.26,0.73,-1.89,-2.93,261,304,218,459,331,22
1615,0.91,-0.31,0.27,-2.44,-4.09,-2.5,262,303,216,458,330,22
1616,0.92,-0.31,0.25,0.24,-3.42,-2.01,264,315,218,456,326,22
1617,0.92,-0.31,0.26,0.49,-3.3,-2.5,264,304,218,455,329,22
1618,0.92,-0.31,0.25,0.18,-2.2,-2.01,265,304,217,461,330,22
1619,0.92,-0.32,0.26,1.1,-2.62,-2.87,265,305,218,458,329,22
1620,0.92,-0.31,0.26,-0.61,-3.36,-2.56,282,305,217,452,332,22
1621,0.92,-0.31,0.26,-1.28,-4.33,-2.08,265,304,224,462,331,22
1622,0.92,-0.32,0.25,0.12,-3.42,-2.14,263,306,219,457,332,22
1623,0.93,-0.31,0.26,-1.04,-3.6,-3.05,265,303,219,459,334,22
1624,0.93,-0.31,0.27,0.06,-3.54,-2.14,261,306,218,456,333,22
1625,0.92,-0.31,0.25,0.0,-2.32,-3.42,266,304,222,462,333,22
1626,0.92,-0.31,0.24,2.01,-1.95,-2.32,265,305,216,453,331,22
1627,0.92,-0.31,0.25,0.98,-2.56,-2.75,264,305,216,461,335,22
1628,0.91,-0.31,0.26,1.4,-2.14,-2.56,266,307,228,459,331,22
1629,0.91,-0.31,0.26,1.04,-3.11,-2.08,265,305,220,462,331,22
1630,0.92,-0.3,0.25,0.43,-3.17,-2.08,265,304,222,461,333,22
1631,0.92,-0.32,0.25,-0.18,-3.17,-2.75,266,306,220,457,333,22
1632,0.92,-0.31,0.25,1.4,-2.14,-1.83,264,312,222,462,333,22
1633,0.93,-0.31,0.25,1.1,-2.69,-3.17,260,303,219,462,329,22
1634,0.91,-0.31,0.27,-1.4,-2.32,-2.62,263,308,215,453,331,22
1635,0.92,-0.32,0.25,0.49,-2.26,-2.75,265,305,217,456,330,22
1636,0.92,-0.31,0.25,-0.49,-2.87,-2.01,266,305,221,460,332,22
1637,0.92,-0.3,0.26,0.55,-3.42,-2.99,262,306,219,456,333,22
1638,0.92,-0.31,0.25,0.98,-2.69,-3.11,267,308,222,457,332,22
1639,0.92,-0.31,0.25,2.62,-1.95,-2.56,265,304,219,458,328,22
1640,0.92,-0.3,0.25,-0.92,-3.05,-2.44,265,303,221,461,332,22
1641,0.93,-0.3,0.25,2.26,-3.3,-1.59,267,305,221,460,332,22
1642,0.93,-0.3,0.25,0.55,-2.87,-1.83,264,307,222,457,332,22
1643,0.93,-0.31,0.24,0.55,-2.56,-2.44,265,305,220,458,332,22
1644,0.93,-0.31,0.24,1.71,-2.62,-1.83,263,308,219,457,332,22
1645,0.93,-0.32,0.24,-0.06,-2.81,-1.4,264,302,218,463,332,22
1646,0.92,-0.31,0.25,0.98,-2.62,-2.69,266,307,219,457,331,22
1647,0.91,-0.3,0.25,-1.28,-2.81,-2.2,266,310,222,458,329,22
1648,0.92,-0.31,0.24,1.46,-2.75,-2.32,264,306,219,456,332,22
1649,0.93,-0.31,0.24,-0.06,-2.87,-2.44,268,309,220,457,333,22
1650,0.93,-0.32,0.23,0.98,-3.48,-3.05,264,305,222,462,332,22
1651,0.93,-0.33,0.23,-0.12,-2.62,-2.62,276,309,221,455,332,22
1652,0.93,-0.32,0.25,-1.71,-3.66,-2.93,262,309,218,463,335,22
1653,0.93,-0.32,0.25,1.16,-2.99,-2.69,262,306,222,458,335,22
1654,0.92,-0.31,0.25,0.67,-2.93,-2.32,264,308,220,458,329,22
1655,0.93,-0.3,0.25,-0.06,-3.66,-2.87,266,312,222,461,330,22
1656,0.96,-0.29,0.26,2.81,-3.78,-2.69,261,309,218,455,334,22
1657,0.94,-0.32,0.24,-0.92,-4.33,-2.69,266,306,223,455,331,22
1658,0.94,-0.3,0.25,-0.73,-3.42,-3.48,264,312,219,462,335,22
1659,0.93,-0.3,0.24,0.55,-2.62,-2.01,264,307,221,457,336,22
1660,0.91,-0.31,0.25,2.14,-1.89,-2.2,264,309,219,453,332,22
1661,0.92,-0.3,0.26,-1.83,-3.72,-3.6,267,304,222,461,336,22
1662,0.93,-0.31,0.24,1.1,-2.87,-2.99,266,307,223,462,335,22
1663,0.93,-0.32,0.25,0.73,-2.75,-2.81,264,309,222,457,332,22
1664,0.92,-0.31,0.25,0.92,-2.2,-1.65,264,308,221,458,336,22
1665,0.92,-0.3,0.27,0.37,-2.08,-2.2,265,309,221,459,333,22
1666,0.91,-0.3,0.27,1.34,-3.48,-2.62,266,309,223,460,335,22
1667,0.92,-0.31,0.26,2.08,-2.44,-0.85,265,307,218,454,334,22
1668,0.92,-0.31,0.25,0.43,-3.48,-1.95,264,310,221,461,334,22
1669,0.93,-0.31,0.25,1.59,-3.05,-2.01,261,309,220,454,334,22
1670,0.94,-0.3,0.25,-0.18,-3.23,-4.46,268,308,221,459,334,22
1671,0.94,-0.31,0.26,-3.42,-2.62,-2.99,264,307,220,460,334,22
1672,0.9,-0.31,0.26,1.77,-1.83,-1.83,263,311,223,461,334,22
1673,0.9,-0.32,0.27,0.12,-2.99,-3.54,268,307,220,462,337,22
1674,0.92,-0.31,0.25,1.53,-2.62,-2.26,266,308,221,458,336,22
1675,0.9,-0.33,0.26,-1.46,-3.72,-4.52,267,306,225,461,334,22
1676,0.87,-0.31,0.32,-2.81,0.24,0.92,263,310,223,461,333,22
1677,0.93,-0.31,0.27,-0.61,-3.6,-2.62,266,307,222,463,334,22
1678,0.91,-0.32,0.26,0.43,-2.26,-2.56,264,311,220,457,332,22
1679,0.92,-0.32,0.26,-0.18,-2.75,-1.95,265,308,223,459,331,22
1680,0.93,-0.32,0.26,0.98,-3.66,-2.81,268,310,220,461,333,22
1681,0.92,-0.33,0.26,1.4,-2.56,-2.32,264,310,220,461,336,22
1682,0.91,-0.32,0.26,-2.56,-2.99,-3.3,265,308,220,458,333,22
1683,0.91,-0.32,0.27,0.73,-3.23,-2.44,266,307,225,461,333,22
1684,0.92,-0.32,0.26,0.24,-3.42,-2.26,267,310,221,454,334,22
1685,0.92,-0.32,0.26,1.16,-3.36,-2.08,267,307,224,458,334,22
1686,0.92,-0.32,0.26,2.44,-2.93,-2.01,264,308,225,457,334,22
1687,0.93,-0.31,0.26,1.1,-3.17,-2.08,265,310,222,462,330,22
1688,0.92,-0.31,0.27,-0.61,-3.78,-2.99,265,320,223,456,334,22
1689,0.92,-0.31,0.28,-1.53,-5.0,-3.54,264,311,221,458,335,22
1690,0.93,-0.32,0.26,-0.06,-4.03,-1.95,298,308,225,458,334,22
1691,0.93,-0.31,0.26,-0.49,-2.81,-2.69,304,308,221,459,336,22
1692,0.91,-0.31,0.27,1.83,-1.83,-1.71,264,309,225,458,335,22
1693,0.92,-0.32,0.27,-0.24,-3.42,-2.62,264,308,224,459,335,22
1694,0.92,-0.31,0.26,0.61,-3.54,-2.08,261,310,220,461,336,22
1695,0.91,-0.33,0.26,1.53,-2.93,-2.08,269,310,222,461,336,22
1696,0.91,-0.33,0.26,0.0,-2.01,-2.38,262,310,223,467,336,22
1697,0.92,-0.33,0.26,-0.12,-3.05,-2.87,270,309,221,462,332,22
1698,0.92,-0.32,0.27,0.61,-2.38,-2.56,265,310,220,453,336,22
1699,0.92,-0.33,0.26,0.61,-3.78,-2.2,266,311,221,457,330,22
1700,0.91,-0.33,0.27,-0.31,-2.99,-2.69,265,309,225,462,336,22
1701,0.91,-0.32,0.28,0.67,-2.08,-2.44,265,312,225,460,335,22
1702,0.92,-0.32,0.26,1.16,-3.66,-2.32,264,310,225,459,337,22
1703,0.92,-0.33,0.27,0.79,-3.05,-2.08,266,311,222,459,336,22
1704,0.9,-0.32,0.27,0.85,-3.78,-0.98,268,310,226,462,334,22
1705,0.92,-0.34,0.26,-0.79,-3.05,-2.62,265,308,223,459,336,22
1706,0.92,-0.33,0.28,-1.34,-3.3,-3.17,265,307,224,459,337,22
1707,0.93,-0.33,0.25,-1.28,-4.09,-3.05,264,307,225,463,333,22
1708,0.91,-0.33,0.26,-0.79,-3.17,-2.08,266,309,223,459,335,22
1709,0.91,-0.33,0.27,0.98,-2.38,-3.3,267,312,225,465,335,22
1710,0.9,-0.33,0.27,0.61,-3.05,-2.75,266,306,222,456,336,22
1711,0.91,-0.33,0.27,0.43,-2.75,-1.77,265,313,220,458,331,22
1712,0.91,-0.32,0.27,1.95,-2.2,-1.65,267,310,226,459,336,22
1713,0.92,-0.33,0.27,0.61,-3.05,-2.5,268,309,227,458,337,22
1714,0.91,-0.33,0.27,-0.24,-2.87,-2.62,265,310,223,460,332,22
1715,0.91,-0.33,0.27,0.06,-3.17,-2.08,268,311,223,462,338,22
1716,0.91,-0.34,0.27,1.77,-2.56,-1.22,268,311,223,461,333,22
1717,0.91,-0.34,0.26,-0.06,-3.66,-3.17,265,309,227,458,335,22
1718,0.91,-0.34,0.27,3.6,-1.59,-1.65,265,310,227,456,337,22
1719,0.92,-0.33,0.27,0.55,-3.11,-2.44,268,307,224,458,336,22
1720,0.91,-0.33,0.28,0.06,-3.3,-1.89,263,313,227,461,334,22
1721,0.89,-0.37,0.27,-0.49,-3.91,-3.91,279,309,223,459,336,22
1722,0.91,-0.34,0.28,1.1,-2.44,-2.08,294,310,227,458,336,22
1723,0.89,-0.33,0.28,-0.67,-5.07,-2.93,265,312,224,459,334,22
1724,0.9,-0.33,0.29,0.06,-3.72,-2.2,273,311,224,463,336,22
1725,0.91,-0.34,0.27,-1.1,-3.54,-3.17,266,312,227,463,337,22
1726,0.91,-0.34,0.27,-1.59,-7.14,-3.05,269,308,229,462,337,22
1727,0.91,-0.35,0.26,-0.43,-2.93,-3.11,265,311,224,458,336,22
1728,0.91,-0.34,0.26,0.55,-2.32,-2.26,267,307,224,459,334,22
1729,0.9,-0.34,0.27,-1.46,-4.09,-3.23,264,313,224,463,336,22
1730,0.91,-0.34,0.28,0.73,-2.62,-2.62,265,311,228,462,336,22
1731,0.91,-0.33,0.28,2.14,-2.56,-2.32,265,311,226,456,338,22
1732,0.9,-0.34,0.28,-1.53,-3.48,-2.81,266,314,225,453,337,22
1733,0.91,-0.34,0.27,1.95,-3.36,-2.69,266,311,227,462,336,22
1734,0.91,-0.33,0.28,0.12,-2.69,-2.93,264,311,223,461,336,22
1735,0.91,-0.33,0.27,1.53,-2.01,-2.08,267,306,225,454,336,22
1736,0.91,-0.34,0.27,-0.18,-3.6,-2.99,266,310,224,459,337,22
1737,0.91,-0.33,0.28,-0.49,-3.54,-2.62,266,311,230,454,337,22
1738,0.91,-0.33,0.28,2.14,-2.81,-1.89,265,313,222,459,337,22
1739,0.91,-0.33,0.27,-0.37,-3.72,-3.17,266,313,225,459,333,22
1740,0.92,-0.33,0.27,0.24,-3.05,-2.44,287,307,226,459,338,22
1741,0.9,-0.33,0.28,0.31,-2.87,-2.62,266,311,234,459,335,22
1742,0.9,-0.34,0.27,2.01,-2.69,-2.75,266,308,224,459,334,22
1743,0.92,-0.34,0.27,0.92,-3.05,-2.01,265,312,227,459,335,22
1744,0.91,-0.34,0.28,-0.31,-3.42,-2.32,265,311,227,463,334,22
1745,0.91,-0.33,0.26,-0.79,-2.69,-2.14,266,311,224,459,338,22
1746,0.91,-0.34,0.27,0.24,-2.87,-2.08,268,311,227,462,338,22
1747,0.9,-0.34,0.28,0.06,-2.87,-2.62,267,315,228,460,338,22
1748,0.91,-0.34,0.28,-1.4,-3.17,-2.69,264,313,224,460,337,22
1749,0.91,-0.34,0.27,2.44,-3.05,-2.69,268,309,224,463,335,22
1750,0.91,-0.34,0.27,1.89,-3.17,-2.87,266,310,225,459,338,22
1751,0.91,-0.33,0.27,0.55,-3.11,-2.93,267,314,228,462,338,22
1752,0.91,-0.33,0.27,0.12,-2.75,-2.87,267,309,224,460,335,22
1753,0.89,-0.34,0.28,0.0,-2.2,-2.38,269,313,226,461,336,22
1754,0.91,-0.33,0.27,0.12,-3.85,-3.42,263,309,227,460,335,22
1755,0.91,-0.33,0.26,2.08,-2.44,-2.2,266,312,228,463,336,22
1756,0.91,-0.35,0.28,-1.89,-3.72,-3.3,266,313,224,455,337,22
1757,0.91,-0.34,0.27,-0.31,-2.81,-2.81,269,312,229,463,336,22
1758,0.92,-0.33,0.27,0.67,-3.11,-1.95,266,310,227,465,337,22
1759,0.91,-0.33,0.27,0.67,-2.93,-2.62,267,313,228,463,340,22
1760,0.91,-0.34,0.26,2.62,-2.93,-2.01,268,311,226,460,333,22
1761,0.91,-0.32,0.3,-3.6,-1.34,-7.26,268,312,230,461,339,22
1762,0.91,-0.34,0.27,-0.18,-3.11,-2.5,266,310,225,458,336,22
1763,0.92,-0.34,0.27,-0.79,-2.75,-2.87,269,312,228,464,337,22
1764,0.92,-0.34,0.26,1.16,-4.09,-1.65,267,312,227,459,338,22
1765,0.92,-0.33,0.27,-0.31,-2.93,-3.05,266,313,225,468,337,22
1766,0.91,-0.32,0.27,1.65,-2.93,-2.14,267,312,222,459,338,22
1767,0.91,-0.33,0.26,1.53,-3.36,-2.26,266,312,225,457,337,22
1768,0.91,-0.33,0.26,-0.12,-3.36,-3.05,285,308,224,457,339,22
1769,0.91,-0.31,0.28,-6.59,1.89,-6.29,267,314,228,461,335,22
1770,0.96,-0.29,0.28,-1.1,-7.75,-8.48,269,311,225,458,337,22
1771,0.94,-0.35,0.31,15.56,-1.4,-14.47,267,311,226,460,335,22
1772,0.9,-0.28,0.17,9.95,-12.45,-2.87,266,311,229,460,340,22
1773,1.0,-0.19,0.23,2.26,-6.35,-6.65,272,313,228,464,338,22
1774,1.02,-0.14,0.18,-8.36,-4.7,-6.04,269,310,228,461,338,22
1775,1.01,-0.13,0.22,-10.01,5.98,-4.94,267,314,227,461,341,22
1776,0.97,-0.18,0.21,-3.72,5.86,-9.58,274,308,225,462,339,22
1777,0.94,-0.16,0.22,-4.94,0.61,10.8,265,313,226,465,338,22
1778,0.94,-0.15,0.25,3.05,-1.16,-4.46,268,316,226,460,337,22
1779,0.92,-0.21,0.26,2.5,-0.43,2.5,258,311,228,464,334,22
1780,1.0,-0.2,0.22,2.38,-6.35,-4.03,267,317,229,463,336,22
1781,0.95,-0.21,0.26,0.98,-3.23,2.2,266,313,228,471,334,22
1782,0.96,-0.18,0.29,-2.87,-3.6,-1.4,266,311,227,465,337,22
1783,0.96,-0.2,0.27,-1.77,-4.27,-0.43,269,318,227,458,335,22
1784,0.94,-0.24,0.27,2.5,-4.39,-2.08,272,315,226,461,336,22
1785,0.94,-0.23,0.27,-0.12,-3.3,-1.95,270,315,228,459,339,22
1786,0.94,-0.23,0.27,-1.65,-4.03,-3.6,267,315,226,457,342,22
1787,0.95,-0.23,0.27,1.59,-2.44,-2.5,270,312,227,461,337,22
1788,0.93,-0.22,0.26,1.89,-2.56,-3.85,269,310,228,464,341,22
1789,0.95,-0.24,0.27,-0.31,-1.59,0.12,272,316,233,464,340,22
1790,0.94,-0.24,0.26,-2.01,-2.93,-1.59,267,310,227,462,338,22
1791,0.94,-0.25,0.25,-1.59,-3.23,-2.2,268,314,226,461,337,22
1792,0.94,-0.24,0.28,0.79,-2.69,-2.62,268,313,227,461,338,22
1793,0.94,-0.25,0.27,-0.85,-3.42,-3.11,269,314,226,463,343,22
1794,0.93,-0.23,0.27,-1.04,-2.93,-2.5,267,313,227,457,341,22
1795,0.94,-0.24,0.26,0.73,-3.48,-2.5,263,311,228,460,339,22
1796,0.94,-0.23,0.27,-0.24,-4.09,-2.2,269,317,229,462,341,22
1797,0.94,-0.24,0.26,0.24,-3.6,-2.44,267,313,228,461,339,22
1798,0.95,-0.24,0.24,0.49,-3.3,-2.62,267,312,224,460,339,22
1799,0.94,-0.23,0.26,-1.1,-3.23,-3.3,269,311,228,459,340,22
1800,0.95,-0.23,0.25,1.53,-2.62,-2.14,257,313,226,456,339,22
1801,0.94,-0.23,0.25,4.21,-1.65,-1.46,266,315,232,464,341,22
1802,0.96,-0.23,0.25,0.73,-2.38,-3.6,267,316,227,458,339,22
1803,0.96,-0.22,0.25,0.55,-3.11,-2.5,266,316,228,466,337,22
1804,0.95,-0.21,0.26,-1.89,-3.17,-2.2,274,316,227,461,335,22
1805,0.94,-0.25,0.23,-2.26,-4.39,-1.83,267,312,228,464,342,22
1806,0.96,-0.22,0.23,-1.4,-3.54,-4.76,268,315,228,462,337,22
1807,0.96,-0.23,0.23,2.56,-4.33,-1.95,270,315,226,459,339,22
1808,0.96,-0.23,0.23,0.06,-3.36,-3.05,269,317,230,462,339,22
1809,0.96,-0.23,0.25,-0.18,-3.36,-1.77,264,316,225,467,341,22
1810,0.94,-0.22,0.24,1.46,-3.23,-2.5,269,316,228,463,341,22
1811,0.95,-0.22,0.24,0.18,-3.91,-2.69,264,313,231,464,339,22
1812,0.96,-0.22,0.24,-1.1,-3.66,-3.05,268,315,229,466,339,22
1813,0.95,-0.23,0.23,0.85,-3.11,-1.95,267,310,230,465,339,22
1814,0.95,-0.23,0.24,1.28,-2.56,-2.69,273,314,229,464,339,22
1815,0.95,-0.22,0.23,0.73,-3.66,-2.26,270,313,228,463,339,22
1816,0.95,-0.22,0.24,0.61,-2.93,-3.6,272,312,224,462,339,22
1817,0.96,-0.23,0.22,1.4,-3.05,-1.95,273,313,229,464,340,22
1818,0.95,-0.22,0.24,1.46,-3.42,-1.95,271,314,223,468,341,22
1819,0.96,-0.22,0.23,0.61,-2.62,-2.14,296,313,230,457,336,22
1820,0.95,-0.21,0.22,2.75,-1.53,-2.32,269,316,230,459,340,22
1821,0.95,-0.23,0.23,-0.31,-3.36,-2.2,267,311,227,464,337,22
1822,0.96,-0.22,0.23,2.14,-3.3,-1.89,268,313,224,461,341,22
1823,0.95,-0.23,0.23,0.73,-2.75,-2.75,267,319,230,459,336,22
1824,0.96,-0.22,0.24,0.98,-3.05,-2.62,267,312,228,466,338,22
1825,0.95,-0.22,0.22,-0.55,-3.72,-3.3,267,312,225,462,340,22
1826,0.96,-0.21,0.22,-0.18,-3.6,-2.32,269,314,227,464,339,22
1827,0.96,-0.23,0.23,2.62,-2.26,-3.78,266,313,226,457,339,22
1828,0.97,-0.22,0.21,-0.06,-4.03,-3.85,266,315,229,462,338,22
1829,0.95,-0.21,0.24,-5.13,-5.0,-3.11,267,315,227,458,341,22
1830,0.96,-0.21,0.22,2.56,-3.11,-2.14,267,313,229,464,341,22
1831,0.95,-0.22,0.21,3.3,-2.5,-2.5,267,314,227,465,342,22
1832,0.96,-0.22,0.23,-0.49,-3.17,-2.87,268,314,228,465,341,22
1833,0.95,-0.22,0.23,-0.49,-3.78,-2.62,268,314,230,466,337,22
1834,0.97,-0.21,0.21,1.71,-3.11,-1.65,271,315,226,460,340,22
1835,0.95,-0.22,0.24,0.12,-3.05,-2.32,269,320,229,459,340,22
1836,0.96,-0.22,0.22,0.49,-2.99,-3.23,270,315,227,462,337,22
1837,0.95,-0.22,0.22,0.98,-2.81,-2.08,268,316,230,461,339,22
1838,0.96,-0.22,0.21,0.49,-3.48,-2.08,264,314,230,464,340,22
1839,0.96,-0.22,0.21,1.1,-3.11,-1.4,269,312,228,462,337,22
1840,0.96,-0.22,0.23,-1.16,-3.66,-2.62,267,313,226,462,341,22
1841,0.96,-0.23,0.23,3.3,-3.05,-1.4,269,314,225,457,339,22
1842,0.96,-0.22,0.22,0.06,-3.36,-2.87,268,310,230,461,340,22
1843,0.97,-0.22,0.22,2.38,-3.11,-2.87,269,312,229,469,340,22
1844,0.96,-0.22,0.23,-1.65,-2.62,-2.62,267,311,229,460,341,22
1845,0.97,-0.22,0.21,2.38,-2.81,-2.38,267,315,225,460,340,22
1846,0.97,-0.22,0.23,-0.12,-3.36,-1.95,264,313,228,460,340,22
1847,0.95,-0.21,0.22,1.71,-2.75,-2.38,269,314,229,461,341,22
1848,0.97,-0.23,0.22,-1.65,-2.56,-3.66,268,312,226,467,341,22
1849,0.96,-0.21,0.21,3.78,-2.81,-0.92,267,313,228,462,340,22
1850,0.96,-0.22,0.21,-0.12,-2.87,-1.59,266,314,231,463,343,22
1851,0.97,-0.21,0.2,-1.46,-2.56,-3.48,266,314,227,467,339,22
1852,0.94,-0.24,0.2,-2.5,-2.5,-3.54,268,314,227,466,340,22
1853,0.95,-0.2,0.24,3.97,-3.6,-0.55,267,316,230,461,341,22
1854,0.95,-0.23,0.22,0.61,-4.15,-1.53,269,314,236,457,341,22
1855,0.95,-0.24,0.22,0.0,-3.36,-2.01,269,316,231,464,340,22
1856,0.95,-0.22,0.21,1.95,-3.48,-2.38,268,316,226,465,343,22
1857,0.95,-0.23,0.22,-0.55,-2.32,-2.99,266,313,230,462,342,22
1858,0.96,-0.22,0.22,2.62,-3.6,-2.5,264,316,227,464,344,22
1859,0.95,-0.23,0.22,1.4,-1.59,-1.46,269,313,230,459,345,22
1860,0.95,-0.23,0.22,-0.55,-4.15,-3.11,268,318,231,460,342,22
1861,0.94,-0.22,0.22,4.21,-4.21,-1.65,266,314,226,462,344,22
1862,0.95,-0.23,0.22,2.01,-3.85,-2.75,267,318,231,466,339,22
1863,0.97,-0.16,0.22,1.89,-5.86,-12.33,267,314,232,458,342,22
1864,0.96,-0.21,0.22,-10.93,-2.44,-5.0,269,314,228,459,342,22
1865,0.96,-0.19,0.2,0.31,-2.87,-3.36,270,314,229,468,340,22
1866,0.98,-0.19,0.17,-1.28,-5.13,-2.75,268,316,229,457,342,22
1867,0.98,-0.14,0.2,2.87,-3.17,-2.5,269,314,228,461,341,22
1868,1.02,-0.16,0.2,-1.83,2.81,1.71,267,311,230,467,344,22
1869,0.96,-0.33,0.21,13.98,-9.16,2.01,268,315,230,462,341,22
1870,0.98,-0.23,0.2,-2.75,-1.53,-5.0,269,311,229,466,343,22
1871,0.9,-0.26,0.22,4.82,1.04,2.93,270,316,228,464,344,22
1872,0.97,-0.21,0.26,2.62,-9.7,-0.43,269,314,228,459,343,22
1873,0.95,-0.3,0.22,0.18,-3.91,-3.72,268,317,229,463,345,22
1874,0.94,-0.27,0.24,-1.65,-2.08,-3.23,267,317,228,462,341,22
1875,0.91,-0.24,0.3,8.85,-1.22,-3.72,267,315,230,464,345,22
1876,0.95,-0.25,0.28,-4.15,-3.36,-2.87,269,317,235,457,343,22
1877,0.93,-0.29,0.28,-2.44,-2.01,-1.77,268,313,235,460,342,22
1878,0.93,-0.28,0.27,-2.26,-5.0,-2.38,270,316,230,468,347,22
1879,0.93,-0.28,0.25,3.6,-2.62,-2.08,268,316,229,463,343,22
1880,0.93,-0.28,0.26,-0.18,-2.5,-3.17,267,315,231,468,343,22
1881,0.94,-0.29,0.25,-0.31,-2.69,-2.32,263,318,232,470,341,22
1882,0.94,-0.3,0.26,-1.59,-3.66,-2.26,268,317,235,462,345,22
1883,0.93,-0.26,0.28,-12.57,3.72,-10.13,271,320,227,463,346,22
1884,0.91,-0.22,0.33,2.69,-4.27,-6.9,267,314,230,464,341,22
1885,0.96,-0.29,0.24,-4.64,-5.07,-5.92,272,313,228,461,347,22
1886,0.94,-0.25,0.22,-4.33,-4.64,-6.59,265,315,232,468,342,22
1887,0.95,-0.28,0.21,-1.16,-2.14,-2.81,264,320,229,462,344,22
1888,0.93,-0.27,0.2,-0.24,-4.52,-3.91,266,318,232,467,350,22
1889,0.94,-0.3,0.22,-6.1,-3.72,-2.01,268,316,230,462,353,22
1890,0.93,-0.29,0.21,0.18,-1.95,-1.59,266,321,232,465,350,22
1891,0.96,-0.32,0.18,-2.69,-3.72,-3.11,269,326,228,463,349,22
1892,0.94,-0.28,0.19,1.34,-2.87,-4.39,268,318,229,459,354,22
1893,0.96,-0.25,0.2,-2.38,-1.59,-2.69,266,320,230,468,356,22
1894,0.96,-0.25,0.19,-0.49,-2.32,-0.31,270,314,234,467,355,22
1895,0.94,-0.28,0.2,0.31,-6.41,0.37,270,328,233,467,355,22
1896,0.97,-0.29,0.16,4.15,-1.95,-1.95,269,317,231,463,355,22
1897,0.93,-0.3,0.18,-0.37,-2.08,-1.4,270,315,231,462,352,22
1898,0.96,-0.29,0.17,-0.61,-2.44,-3.11,268,318,230,463,354,22
1899,0.96,-0.28,0.21,2.69,-0.49,4.03,266,313,232,463,353,22
1900,0.91,-0.35,0.2,-3.17,-0.12,-0.43,265,316,228,461,351,22
1901,0.91,-0.35,0.21,-0.12,0.0,-4.64,268,317,232,463,349,22
1902,0.95,-0.26,0.22,2.56,-4.33,-2.26,268,317,230,464,353,22
1903,0.93,-0.32,0.23,-2.75,-2.93,-2.69,269,316,238,466,351,22
1904,0.92,-0.3,0.25,4.33,-2.44,-2.38,269,320,231,462,352,22
1905,0.92,-0.31,0.24,1.16,-3.42,-2.08,270,317,233,463,352,22
1906,0.91,-0.3,0.25,6.23,-4.09,-1.77,269,318,230,463,351,22
1907,0.92,-0.32,0.24,0.67,-2.99,-2.69,268,317,235,467,350,22
1908,0.92,-0.32,0.25,-1.4,-3.42,-3.3,268,317,228,465,352,22
1909,0.93,-0.31,0.25,0.49,-2.99,-2.38,265,317,235,460,351,22
1910,0.93,-0.31,0.23,0.79,-2.56,-2.69,268,317,234,463,354,22
1911,0.92,-0.31,0.25,-1.16,-2.99,-2.93,271,320,235,463,350,22
1912,0.94,-0.31,0.24,1.04,-1.28,-1.95,268,318,234,461,353,22
1913,0.93,-0.32,0.27,5.13,0.55,1.4,268,321,235,462,353,22
1914,0.89,-0.39,0.23,6.9,-7.51,-6.1,268,317,232,461,353,22
1915,0.91,-0.32,0.25,6.29,-6.16,1.34,275,318,236,464,354,22
1916,0.91,-0.32,0.26,17.4,-0.18,0.49,268,317,234,464,353,22
1917,0.94,-0.26,0.29,2.56,-5.25,-1.46,269,322,232,461,351,22
1918,0.9,-0.28,0.31,1.83,-2.56,4.21,269,315,236,461,350,22
1919,0.9,-0.3,0.3,3.17,0.0,-2.56,268,317,232,460,350,22
1920,0.9,-0.3,0.3,0.49,-2.56,-3.6,271,318,233,461,353,22
1921,0.91,-0.31,0.31,1.16,-4.27,-2.99,267,321,232,460,348,22
1922,0.92,-0.3,0.29,1.04,-3.36,-3.91,269,322,232,461,351,22
1923,0.91,-0.29,0.3,0.67,-3.11,-2.69,269,318,234,461,350,22
1924,0.92,-0.3,0.29,0.0,-3.05,-2.62,268,317,237,459,351,22
1925,0.92,-0.3,0.3,-1.22,-2.87,-3.23,268,316,231,464,350,22
1926,0.91,-0.3,0.3,0.12,-2.32,-2.62,270,322,230,466,352,22
1927,0.91,-0.3,0.3,-0.06,-3.42,-2.62,268,318,234,462,353,22
1928,0.9,-0.3,0.31,0.18,-3.23,-2.75,268,317,233,465,352,22
1929,0.91,-0.3,0.29,0.98,-3.17,-2.38,268,319,234,461,352,22
1930,0.91,-0.34,0.26,5.43,-5.43,0.73,271,317,232,459,353,22
1931,0.91,-0.3,0.3,9.77,-3.17,-2.93,270,329,230,460,347,22
1932,0.93,-0.29,0.28,1.59,-3.72,-3.05,267,320,244,461,349,22
1933,0.91,-0.31,0.29,0.67,-2.99,-2.26,266,320,230,459,350,22
1934,0.93,-0.3,0.28,0.06,-2.38,-2.5,267,318,233,463,351,22
1935,0.9,-0.31,0.29,7.32,-0.31,-2.38,274,321,236,462,349,22
1936,0.9,-0.3,0.31,-3.17,-3.6,-2.81,269,318,235,464,350,22
1937,0.91,-0.3,0.28,0.49,-2.5,-2.14,272,318,232,459,349,22
1938,0.92,-0.31,0.29,1.22,-2.38,-1.4,268,316,234,464,349,22
1939,0.92,-0.3,0.3,-1.16,-3.91,-3.66,267,317,231,461,350,22
1940,0.92,-0.31,0.29,-0.43,-3.17,-3.17,268,318,233,463,349,22
1941,0.91,-0.31,0.29,-0.18,-2.62,-2.69,271,317,235,462,349,22
1942,0.92,-0.3,0.29,-0.49,-2.87,-2.5,269,316,233,459,351,22
1943,0.92,-0.31,0.28,-0.06,-3.48,-2.5,267,318,232,462,348,22
1944,0.92,-0.3,0.28,0.55,-4.09,-2.44,268,321,233,460,352,22
1945,0.91,-0.3,0.3,-0.24,-2.93,-2.44,269,319,230,462,348,22
1946,0.92,-0.31,0.28,1.95,-2.75,-2.69,269,319,233,461,349,22
1947,0.92,-0.3,0.29,-0.79,-3.36,-2.44,268,315,233,460,348,22
1948,0.91,-0.3,0.28,0.73,-3.36,-2.44,267,314,232,460,349,22
1949,0.91,-0.31,0.29,0.49,-2.93,-2.56,270,318,230,465,350,22
1950,0.92,-0.3,0.3,-0.98,-2.69,-2.5,269,317,232,457,347,22
1951,0.91,-0.31,0.28,3.11,-2.08,-2.56,268,317,233,465,349,22
1952,0.95,-0.25,0.3,1.34,-0.73,-2.32,277,322,236,462,349,22
1953,0.96,-0.28,0.29,-0.31,-2.99,-2.38,269,320,232,462,351,22
1954,0.93,-0.28,0.29,-2.08,-2.01,-2.87,269,318,233,465,350,22
1955,0.92,-0.3,0.29,0.06,-3.05,-2.44,269,318,234,465,351,22
1956,0.91,-0.3,0.3,-0.24,-4.09,-2.56,270,317,233,467,347,22
1957,0.92,-0.3,0.28,1.71,-3.66,-3.05,269,315,234,461,348,22
1958,0.93,-0.3,0.28,0.31,-2.56,-2.75,271,318,234,461,350,22
1959,0.92,-0.3,0.29,2.69,-3.11,-1.77,270,322,233,464,350,22
1960,0.92,-0.29,0.28,-0.06,-2.56,-2.56,269,317,233,467,351,22
1961,0.91,-0.3,0.28,-0.92,-3.66,-2.56,272,319,237,465,350,22
1962,0.92,-0.3,0.27,2.56,-3.23,-2.75,266,320,230,464,349,22
1963,0.92,-0.3,0.28,0.12,-3.6,-2.5,268,315,235,462,353,22
1964,0.92,-0.3,0.28,-1.04,-3.42,-2.5,270,330,236,462,350,22
1965,0.92,-0.3,0.28,-0.37,-2.87,-2.56,270,316,248,461,350,22
1966,0.92,-0.31,0.27,-2.56,-3.17,-4.09,268,318,235,466,351,22
1967,0.92,-0.31,0.26,0.12,-3.05,-1.89,274,318,231,461,352,22
1968,0.92,-0.31,0.26,1.4,-1.89,-3.78,264,323,234,462,349,22
1969,0.93,-0.3,0.27,0.37,-2.93,-2.99,271,320,233,462,352,22
1970,0.93,-0.3,0.27,1.16,-2.2,-2.26,270,318,231,459,352,22
1971,0.92,-0.31,0.28,0.0,-3.23,-2.75,267,321,234,461,350,22
1972,0.91,-0.3,0.27,1.95,-3.11,-2.32,269,318,236,463,350,22
1973,0.92,-0.3,0.28,-0.18,-2.62,-2.56,268,318,237,474,351,22
1974,0.92,-0.3,0.27,-0.61,-3.3,-2.93,269,318,234,463,350,22
1975,0.93,-0.3,0.25,0.79,-3.78,-2.2,268,318,232,461,348,22
1976,0.93,-0.31,0.26,-0.24,-3.36,-2.5,271,317,231,458,350,22
1977,0.92,-0.31,0.27,0.31,-3.05,-2.56,268,315,232,462,348,22
1978,0.92,-0.3,0.27,-0.85,-4.33,-2.69,268,318,235,466,350,22
1979,0.93,-0.31,0.26,2.08,-2.08,-2.56,266,322,232,462,352,22
1980,0.92,-0.3,0.27,-1.53,-2.44,-2.62,272,320,233,458,347,22
1981,0.92,-0.3,0.27,0.0,-2.2,-3.3,266,321,233,458,348,22
1982,0.91,-0.3,0.28,0.98,-3.6,-2.87,265,318,233,459,348,22
1983,0.92,-0.29,0.27,6.84,-1.46,-0.43,267,318,233,459,347,22
