,aX,aY,aZ,gX,gY,gZ,little,ring,middle,index,thumb,number
0,0.86,-0.48,0.13,-2.81,-3.85,-3.17,395,254,187,466,315,28
1,0.87,-0.47,0.13,-1.83,-3.6,-3.72,398,255,185,462,318,28
2,0.87,-0.47,0.14,0.98,-2.44,-5.92,399,255,189,465,318,28
3,0.88,-0.47,0.12,1.95,-2.81,-1.89,399,256,186,467,315,28
4,0.87,-0.47,0.14,-1.83,-3.72,-1.04,404,257,185,474,316,28
5,0.9,-0.45,0.12,-2.32,-1.22,-3.23,402,257,186,467,322,28
6,0.89,-0.46,0.12,4.64,-1.71,-7.69,403,255,189,470,320,28
7,0.88,-0.44,0.13,0.37,-4.15,-2.5,408,255,190,466,319,28
8,0.89,-0.44,0.12,-1.34,-2.62,-2.5,406,256,190,477,324,28
9,0.89,-0.45,0.12,-0.37,-3.11,-2.56,405,255,190,471,321,28
10,0.89,-0.45,0.13,2.87,-2.75,-2.2,419,253,191,466,320,28
11,0.89,-0.45,0.12,0.31,-3.23,-2.2,409,256,194,467,319,28
12,0.88,-0.45,0.12,1.53,-1.77,-3.17,409,258,188,467,319,28
13,0.88,-0.44,0.12,-1.04,-3.6,-2.01,412,258,194,470,321,28
14,0.89,-0.44,0.12,0.43,-3.23,-0.85,409,254,192,468,318,28
15,0.9,-0.44,0.12,0.12,-2.99,-2.2,415,254,195,470,322,28
16,0.89,-0.44,0.12,-1.53,-1.59,-1.46,408,256,195,469,317,28
17,0.89,-0.45,0.13,0.43,-1.4,-4.64,408,258,196,472,321,28
18,0.89,-0.43,0.14,2.38,-3.17,-3.72,409,257,196,470,317,28
19,0.9,-0.43,0.13,-2.87,-2.81,-2.87,408,259,194,468,320,28
20,0.86,-0.44,0.15,2.44,-3.05,1.53,410,260,197,471,318,28
21,0.89,-0.42,0.14,1.04,3.36,-1.1,411,257,193,467,322,28
22,0.87,-0.47,0.12,5.55,-4.21,-11.23,407,257,195,463,320,28
23,0.89,-0.42,0.16,-3.85,-4.09,-0.61,409,256,195,462,323,28
24,0.91,-0.42,0.15,0.18,-3.91,-3.85,410,258,196,468,323,28
25,0.9,-0.44,0.13,-0.37,-3.05,-2.38,408,257,195,467,317,28
26,0.9,-0.43,0.14,1.95,-3.36,-3.11,402,254,196,462,322,28
27,0.88,-0.43,0.15,-1.16,-3.05,-0.43,406,259,199,466,321,28
28,0.9,-0.44,0.12,1.83,-3.23,-2.2,405,259,194,468,324,28
29,0.89,-0.46,0.12,-0.12,-3.05,-1.71,408,257,199,467,321,28
30,0.89,-0.46,0.13,-0.49,-2.08,-1.95,405,257,198,468,321,28
31,0.88,-0.46,0.12,-0.49,-3.66,-2.08,406,260,200,484,318,28
32,0.88,-0.46,0.12,0.92,-3.05,-2.44,408,260,200,477,321,28
33,0.86,-0.46,0.12,0.0,-2.56,-2.81,405,258,199,468,324,28
34,0.88,-0.46,0.12,0.18,-3.05,-2.01,405,260,208,471,323,28
35,0.88,-0.45,0.11,-0.24,-2.32,-3.17,409,260,202,469,322,28
36,0.89,-0.46,0.14,0.06,-2.87,-1.46,405,256,197,467,322,28
37,0.88,-0.46,0.11,-0.24,-2.5,-2.62,408,257,198,470,321,28
38,0.89,-0.46,0.13,-1.89,-1.77,-4.03,402,259,197,468,322,28
39,0.89,-0.45,0.13,-0.37,-2.62,-2.56,406,258,203,470,327,28
40,0.89,-0.45,0.13,-0.06,-3.3,-2.75,403,259,197,463,321,28
41,0.89,-0.46,0.13,2.2,-3.66,-1.22,406,258,198,472,323,28
42,0.88,-0.46,0.13,0.79,-2.44,-2.2,407,257,201,468,323,28
43,0.88,-0.45,0.13,-0.06,-2.81,-1.83,403,260,212,461,322,28
44,0.87,-0.46,0.12,2.87,-3.97,-1.28,404,260,202,466,326,28
45,0.85,-0.45,0.12,1.71,-3.23,-0.43,404,259,201,468,326,28
46,0.9,-0.46,0.12,0.61,-2.81,-7.14,405,258,200,463,325,28
47,0.89,-0.45,0.12,1.95,-6.1,0.49,404,261,203,470,323,28
48,0.91,-0.43,0.14,-1.83,-3.54,-3.11,405,255,200,470,323,28
49,0.92,-0.39,0.11,2.2,11.35,-19.29,401,258,202,468,324,28
50,0.87,-0.41,0.09,0.79,-12.21,-3.42,424,260,199,472,324,28
51,0.91,-0.36,0.11,-2.87,-0.67,3.85,412,265,201,468,323,28
52,0.93,-0.4,0.1,1.04,-1.1,-3.3,404,260,202,467,323,28
53,0.9,-0.39,0.11,-0.18,-5.07,-2.01,402,257,201,467,329,28
54,0.79,-0.4,0.15,6.1,-6.59,11.47,402,262,199,470,324,28
55,0.94,-0.39,0.09,-2.99,-1.04,-8.06,427,258,201,468,325,28
56,0.93,-0.38,0.09,1.04,-3.23,-4.46,406,258,199,465,324,28
57,0.94,-0.37,0.1,0.79,-2.26,-1.16,404,258,201,464,323,28
58,0.94,-0.4,0.08,-2.38,-0.18,-3.17,407,261,201,465,323,28
59,0.93,-0.41,0.07,2.44,-5.86,-1.28,392,254,216,469,326,28
60,0.96,-0.41,0.08,-2.75,1.04,-2.56,402,258,202,473,324,28
61,0.94,-0.4,0.06,4.58,-4.33,-5.8,402,258,205,466,324,28
62,0.92,-0.4,0.06,-1.59,-2.62,-1.34,400,258,202,468,324,28
63,0.93,-0.37,0.08,2.62,-3.36,-4.46,401,270,200,465,325,28
64,0.93,-0.36,0.08,2.2,-3.3,-2.69,400,262,205,466,325,28
65,0.9,-0.37,0.1,-1.59,-3.3,1.46,397,261,206,466,324,28
66,0.92,-0.37,0.07,-2.44,-3.72,-3.05,399,256,214,470,327,28
67,0.93,-0.38,0.08,-0.61,-2.62,-3.66,400,261,202,472,322,28
68,0.9,-0.39,0.08,0.49,-4.52,-0.43,401,260,203,465,324,28
69,0.83,-0.37,0.14,10.01,-20.63,7.45,397,258,202,471,332,28
70,0.94,-0.39,0.06,-9.09,-3.97,-2.5,396,261,205,471,324,28
71,0.9,-0.35,0.11,7.51,9.64,-17.94,399,262,205,468,327,28
72,0.91,-0.41,0.07,-7.63,-0.85,-1.77,395,258,206,467,325,28
73,0.93,-0.35,0.11,-2.5,3.05,-3.3,400,264,202,471,324,28
74,0.96,-0.39,0.11,-4.21,8.0,-12.21,399,258,203,469,327,28
75,0.9,-0.4,0.14,-1.46,-3.72,-1.71,400,261,205,472,326,28
76,0.91,-0.4,0.13,-1.34,-3.85,-1.77,399,261,207,463,329,28
77,0.9,-0.4,0.14,-0.67,-3.36,-2.38,398,261,204,467,321,28
78,0.9,-0.42,0.12,1.53,-2.44,-2.08,399,262,204,466,326,28
79,0.91,-0.4,0.13,-1.04,-3.72,-3.42,399,258,205,464,329,28
80,0.92,-0.41,0.13,3.54,-3.05,-3.54,400,262,204,472,327,28
81,0.91,-0.4,0.13,1.04,-2.56,-3.78,398,263,206,471,329,28
82,0.91,-0.4,0.13,-1.1,-2.69,-2.14,400,274,206,469,329,28
83,0.92,-0.37,0.14,1.95,-2.08,-4.88,399,264,204,469,324,28
84,0.92,-0.37,0.14,1.65,-1.65,-4.27,398,262,215,466,327,28
85,0.92,-0.38,0.14,0.73,-2.81,-2.08,397,261,207,481,323,28
86,0.91,-0.38,0.14,-0.85,-3.78,-1.04,398,261,208,468,326,28
87,0.92,-0.4,0.14,-0.55,-2.75,-2.26,400,265,208,485,327,28
88,0.91,-0.41,0.14,-3.23,-1.89,-3.36,398,264,209,467,326,28
89,0.91,-0.4,0.14,2.26,-4.21,-2.44,399,263,207,468,326,28
90,0.92,-0.39,0.14,0.85,-2.81,-2.81,402,263,204,473,328,28
91,0.91,-0.4,0.14,-0.37,-2.93,-4.76,400,262,208,472,325,28
92,0.91,-0.4,0.14,0.55,-3.05,-2.75,410,264,206,469,326,28
93,0.9,-0.42,0.14,0.85,-5.43,-2.75,398,260,206,472,326,28
94,0.92,-0.44,0.09,-4.7,-3.36,-5.19,398,262,207,467,327,28
95,0.91,-0.41,0.12,0.37,-3.36,0.12,395,262,208,466,328,28
96,0.89,-0.43,0.12,-1.16,-2.81,-4.39,399,260,207,472,329,28
97,0.93,-0.41,0.11,1.59,-4.82,-4.27,398,262,208,463,324,28
98,0.91,-0.41,0.12,-0.73,-3.6,-2.01,398,261,209,468,325,28
99,0.92,-0.41,0.1,1.65,-2.75,-2.62,398,264,208,464,323,28
100,0.9,-0.41,0.11,2.56,-5.13,-0.12,397,262,210,463,321,28
101,0.88,-0.41,0.13,1.59,-2.26,-3.3,400,264,209,468,325,28
102,0.92,-0.41,0.11,-1.16,-3.11,-3.17,398,261,207,472,326,28
103,0.9,-0.42,0.11,0.61,-3.36,-2.14,400,261,209,468,327,28
104,0.92,-0.42,0.1,-1.65,-1.59,-3.3,400,261,209,463,327,28
105,0.9,-0.42,0.1,-1.4,-3.11,-3.42,398,262,204,463,326,28
106,0.92,-0.41,0.1,1.59,-2.75,-2.87,397,262,206,470,325,28
107,0.94,-0.38,0.1,3.3,-2.93,-3.72,401,264,208,470,325,28
108,0.91,-0.39,0.11,1.28,-2.87,-3.11,400,261,207,462,323,28
109,0.91,-0.4,0.1,0.98,-2.99,-2.62,399,260,205,469,325,28
110,0.92,-0.39,0.11,-0.85,-2.81,-2.81,401,265,207,468,327,28
111,0.92,-0.39,0.11,1.77,-3.3,-2.62,397,258,207,468,324,28
112,0.91,-0.4,0.11,1.1,-3.48,-1.46,397,265,208,469,326,28
113,0.9,-0.42,0.1,-0.98,-3.11,-1.28,398,262,211,464,325,28
114,0.91,-0.42,0.09,-0.49,-1.83,-3.42,399,266,210,468,328,28
115,0.89,-0.41,0.08,1.1,-3.05,-2.08,400,265,206,466,319,28
116,0.9,-0.41,0.1,0.31,-2.99,-2.99,399,262,208,472,328,28
117,0.91,-0.42,0.09,-0.37,-1.71,-3.48,397,260,205,468,327,28
118,0.9,-0.43,0.09,0.79,-2.81,-3.17,400,261,210,468,328,28
119,0.91,-0.42,0.09,0.98,-2.62,-2.44,399,264,206,465,328,28
120,0.91,-0.43,0.08,-0.49,-2.75,-2.81,398,265,207,472,326,28
121,0.9,-0.42,0.1,0.79,-2.26,-3.05,400,264,206,472,326,28
122,0.91,-0.42,0.09,0.67,-2.93,-2.69,401,264,210,471,327,28
123,0.9,-0.42,0.1,1.22,-2.93,-2.56,401,264,209,468,324,28
124,0.9,-0.42,0.1,0.06,-3.05,-3.54,398,265,208,465,326,28
125,0.91,-0.42,0.09,0.85,-2.62,-2.5,399,262,210,464,327,28
126,0.9,-0.42,0.1,-0.73,-2.32,-3.3,397,264,208,468,328,28
127,0.91,-0.4,0.11,1.1,-2.56,-3.54,399,262,210,471,329,28
128,0.9,-0.41,0.09,-0.73,-2.56,-4.09,398,263,211,470,325,28
129,0.91,-0.41,0.09,1.46,-2.32,-2.5,398,263,214,469,328,28
130,0.91,-0.42,0.09,0.18,-2.75,-3.05,399,269,209,473,324,28
131,0.91,-0.42,0.09,0.49,-2.87,-2.32,401,264,206,468,326,28
132,0.91,-0.41,0.1,1.65,-2.56,-3.42,397,262,210,468,326,28
133,0.91,-0.42,0.09,2.99,-3.23,-1.71,398,262,208,466,328,28
134,0.9,-0.41,0.1,1.22,-3.17,-3.3,399,275,207,472,325,28
135,0.91,-0.42,0.1,1.22,-2.81,-2.69,399,263,208,468,326,28
136,0.9,-0.41,0.1,0.18,-3.36,-1.59,399,265,208,471,323,28
137,0.91,-0.41,0.1,0.0,-3.23,-2.5,393,259,210,468,324,28
138,0.91,-0.42,0.09,1.65,-3.6,-1.89,396,260,209,466,327,28
139,0.91,-0.42,0.09,0.24,-3.48,-2.2,398,264,214,472,323,28
140,0.91,-0.42,0.09,0.24,-2.69,-2.44,399,263,211,467,323,28
141,0.9,-0.42,0.1,0.24,-3.11,-2.56,399,262,212,468,324,28
142,0.9,-0.41,0.1,-0.92,-2.69,-2.38,401,259,210,463,327,28
143,0.91,-0.42,0.09,0.06,-2.38,-4.09,396,262,208,468,327,28
144,0.91,-0.41,0.09,1.34,-3.05,-2.69,400,259,208,469,328,28
145,0.9,-0.41,0.1,1.4,-3.36,-1.89,394,265,207,472,322,28
146,0.91,-0.41,0.09,0.24,-2.69,-3.11,406,261,211,467,326,28
147,0.92,-0.41,0.09,1.16,-3.3,-2.2,398,263,208,471,328,28
148,0.91,-0.41,0.09,0.92,-2.87,-2.81,398,259,209,463,328,28
149,0.91,-0.41,0.1,-0.12,-2.2,-2.93,399,263,211,469,328,28
150,0.9,-0.41,0.08,2.38,-4.27,-1.4,397,264,210,472,325,28
151,0.9,-0.41,0.1,-1.77,-1.59,-3.6,397,264,213,462,326,28
152,0.91,-0.41,0.1,2.81,-3.17,-0.73,398,257,213,469,327,28
153,0.9,-0.41,0.1,1.46,-3.17,-1.16,398,264,211,463,326,28
154,0.91,-0.41,0.1,0.06,-2.93,-2.69,396,267,210,472,326,28
155,0.91,-0.41,0.09,0.0,-2.87,-2.5,400,263,214,468,324,28
156,0.91,-0.41,0.1,-0.79,-2.81,-3.3,394,261,208,465,328,28
157,0.91,-0.41,0.09,0.0,-2.5,-2.87,397,262,209,471,324,28
158,0.91,-0.41,0.1,0.67,-2.99,-2.5,400,259,214,469,327,28
159,0.91,-0.42,0.1,0.06,-2.62,-2.69,398,261,210,469,326,28
160,0.91,-0.41,0.09,0.31,-3.23,-3.3,398,260,212,468,326,28
161,0.91,-0.41,0.09,-1.34,-3.36,-2.5,398,263,211,467,325,28
162,0.91,-0.41,0.09,1.1,-2.5,-2.87,401,264,220,469,323,28
163,0.91,-0.41,0.09,0.43,-3.3,-2.32,398,263,209,473,328,28
164,0.91,-0.41,0.09,0.0,-2.81,-3.36,398,261,210,466,323,28
165,0.91,-0.41,0.1,1.04,-2.75,-2.2,401,262,209,472,327,28
166,0.9,-0.41,0.09,1.16,-4.33,-1.46,396,261,213,467,330,28
167,0.9,-0.43,0.08,-2.56,-3.72,1.53,401,260,210,469,328,28
168,0.91,-0.44,0.08,-1.16,-1.83,-1.65,398,262,210,464,327,28
169,0.92,-0.42,0.1,0.37,-2.2,-4.76,398,261,214,471,326,28
170,0.9,-0.45,0.07,2.14,-3.78,-8.0,395,263,211,472,328,28
171,0.9,-0.43,0.1,-1.59,-4.46,-0.61,399,264,209,470,327,28
172,0.89,-0.45,0.08,-2.62,-2.26,-1.83,398,264,213,473,324,28
173,0.91,-0.43,0.08,-1.59,-3.23,-5.13,397,261,209,470,326,28
174,0.91,-0.38,0.09,4.15,-15.01,-9.4,399,259,209,473,327,28
175,0.88,-0.47,0.02,3.42,3.05,-4.33,397,261,207,471,323,28
176,0.9,-0.48,-0.02,-2.14,-12.76,0.24,395,264,211,467,323,28
177,0.88,-0.43,0.04,5.68,-5.37,4.52,397,264,214,468,329,28
178,0.92,-0.47,0.01,6.71,-3.42,-0.37,397,262,210,463,328,28
179,0.88,-0.46,0.02,0.24,-3.6,1.04,397,262,212,469,323,28
180,0.92,-0.46,0.02,2.32,-3.23,-2.69,389,258,208,468,326,28
181,0.91,-0.44,0.06,-3.17,-6.04,9.16,391,257,214,472,327,28
182,0.82,-0.5,0.01,0.79,-5.74,1.28,393,261,213,468,324,28
183,0.9,-0.43,0.1,5.8,3.05,-10.38,392,261,216,471,324,28
184,0.91,-0.43,0.07,7.2,-2.26,-5.62,392,261,211,469,324,28
185,0.87,-0.46,0.06,-0.43,-3.36,2.75,393,261,210,469,326,28
186,0.88,-0.45,0.06,0.31,-2.62,-2.69,390,273,209,472,326,28
187,0.88,-0.48,0.02,-1.1,-2.75,-2.38,395,266,211,470,327,28
188,0.89,-0.47,0.03,1.89,-3.78,-4.03,394,258,214,468,327,28
189,0.88,-0.48,0.02,0.61,-3.91,-0.67,400,262,211,464,326,28
190,0.89,-0.46,0.05,2.38,-3.91,-2.44,392,260,213,469,327,28
191,0.89,-0.47,0.02,2.44,-2.81,-6.47,393,261,211,463,325,28
192,0.92,-0.45,0.01,0.06,-1.89,-3.42,391,262,213,468,326,28
193,0.88,-0.43,0.05,-0.06,-2.2,-4.33,395,263,209,473,329,28
194,0.92,-0.43,0.03,2.56,-5.43,-0.61,396,260,211,473,327,28
195,0.89,-0.44,0.04,6.65,-4.03,-3.66,395,259,213,469,329,28
196,0.88,-0.42,0.05,0.0,-2.2,-2.32,394,263,210,469,328,28
197,0.92,-0.42,0.05,2.56,-2.26,-2.44,396,263,211,473,327,28
198,0.92,-0.44,0.03,-1.22,-0.67,-4.21,388,262,206,471,326,28
199,0.91,-0.42,0.05,3.05,-2.99,-2.69,393,265,212,469,327,28
200,0.88,-0.46,0.02,-3.6,-0.67,-9.16,396,260,212,470,325,28
201,0.91,-0.43,0.03,-2.26,-2.75,-1.71,394,264,211,464,326,28
202,0.94,-0.39,0.02,-10.01,-2.01,-9.7,393,261,212,466,326,28
203,0.95,-0.36,0.06,-0.24,-3.72,-6.59,395,262,216,470,333,28
204,0.92,-0.43,-0.01,-2.62,-3.6,-6.41,396,262,211,469,326,28
205,0.89,-0.42,0.11,-6.84,-1.59,0.85,397,275,212,468,331,28
206,0.92,-0.42,0.03,-0.92,-0.12,-9.7,393,262,209,471,329,28
207,0.93,-0.38,0.07,0.0,-0.67,-3.36,400,265,210,463,332,28
208,0.89,-0.41,0.06,10.38,-6.53,-6.84,396,262,211,468,331,28
209,0.89,-0.4,0.06,-0.31,-4.52,-5.07,396,262,208,468,332,28
210,0.88,-0.44,0.04,-2.5,-1.16,-0.06,393,261,215,470,332,28
211,0.94,-0.37,0.06,1.53,-4.82,-4.52,394,264,215,473,332,28
212,0.91,-0.33,0.06,-0.49,-7.14,-5.37,397,262,212,472,329,28
213,0.95,-0.32,0.06,-1.65,-2.56,-1.89,395,261,211,470,332,28
214,0.93,-0.36,0.08,-4.82,2.87,-4.82,397,261,212,472,334,28
215,0.95,-0.41,0.02,-1.59,-0.24,-1.16,391,263,211,469,333,28
216,0.97,-0.36,0.04,-0.98,-4.09,-4.33,394,258,214,466,330,28
217,0.95,-0.33,0.08,2.26,0.37,-0.43,393,262,212,468,330,28
218,0.94,-0.38,0.05,-3.48,-3.6,-2.08,394,264,214,472,334,28
219,0.92,-0.42,0.05,2.08,-6.35,0.24,395,264,209,473,335,28
220,0.92,-0.41,0.11,-3.54,7.08,8.85,393,260,213,472,332,28
221,0.89,-0.51,0.05,-7.75,3.91,13.85,393,264,212,467,333,28
222,0.87,-0.48,0.02,6.1,-5.92,-10.62,395,256,214,469,334,28
223,0.9,-0.42,0.06,-0.06,2.32,-8.12,395,264,212,468,333,28
224,0.95,-0.34,0.06,8.91,-1.04,-10.38,388,267,213,471,335,28
225,0.93,-0.34,0.08,-2.32,-5.13,-3.66,393,262,212,467,334,28
226,0.9,-0.42,0.05,-8.73,-9.28,1.95,394,262,212,472,335,28
227,0.92,-0.43,0.02,-0.31,0.43,-8.54,391,268,209,469,334,28
228,0.88,-0.41,0.06,2.93,-2.08,-4.94,393,261,212,468,335,28
229,0.94,-0.37,0.06,-0.79,-1.46,-5.55,393,262,214,471,332,28
230,0.92,-0.36,0.08,-7.87,-1.89,-3.54,394,262,214,467,334,28
231,0.95,-0.37,0.01,-1.53,-5.13,-8.48,393,261,215,469,336,28
232,0.91,-0.39,0.03,-3.36,-1.59,-6.77,391,264,216,468,332,28
233,0.92,-0.35,0.04,6.16,-4.64,-7.63,393,265,211,472,332,28
234,0.97,-0.33,0.04,-0.43,-2.69,-1.83,393,262,218,470,334,28
235,0.92,-0.34,0.08,0.92,-2.38,-4.82,402,263,212,463,334,28
236,0.94,-0.4,0.03,-2.93,-2.14,-4.58,395,263,211,462,336,28
237,0.91,-0.39,0.05,1.04,-3.48,-1.4,395,265,213,470,333,28
238,0.93,-0.38,0.05,1.95,-0.79,-2.14,396,263,212,471,332,28
239,0.95,-0.38,0.03,0.85,-3.91,-2.93,394,263,215,467,336,28
240,0.9,-0.38,0.08,1.89,-4.21,-1.53,394,259,211,468,332,28
241,0.93,-0.39,0.04,0.92,-2.69,-1.46,396,262,211,472,342,28
242,0.93,-0.36,0.07,-1.22,-1.83,1.34,393,263,212,468,332,28
243,0.93,-0.34,0.07,3.3,0.0,-6.41,391,264,213,472,336,28
244,0.98,-0.3,0.01,4.88,-4.27,-3.66,390,262,226,467,336,28
245,0.9,-0.38,0.06,3.3,-2.62,-0.73,389,263,213,472,337,28
246,0.94,-0.41,0.01,0.12,-6.53,-6.29,389,261,215,468,334,28
247,0.91,-0.37,0.02,-3.85,-4.94,-1.95,390,264,212,466,337,28
248,0.93,-0.33,0.05,1.46,-3.66,-2.56,391,261,210,471,338,28
249,0.93,-0.4,0.04,0.37,-2.44,-1.77,395,263,217,468,336,28
250,0.93,-0.42,0.04,6.04,-4.15,-0.98,393,260,215,468,334,28
251,0.95,-0.34,0.04,3.72,-4.46,-4.58,393,265,212,472,333,28
252,0.96,-0.38,0.05,1.28,-0.43,-2.99,392,264,214,463,336,28
253,0.92,-0.36,0.03,2.75,-5.0,-3.6,392,272,213,468,334,28
254,0.9,-0.4,0.06,5.74,-1.77,0.79,393,261,212,470,335,28
255,0.91,-0.42,0.05,-2.87,-2.14,1.16,393,259,213,468,338,28
256,0.91,-0.42,0.03,-0.12,-3.91,-3.66,393,260,213,474,339,28
257,0.91,-0.39,0.05,4.03,-3.6,0.43,393,261,213,467,337,28
258,0.92,-0.38,0.05,3.72,-4.52,-3.54,394,271,213,467,345,28
259,0.89,-0.41,-0.01,-4.15,-4.33,-2.5,390,262,213,468,334,28
260,0.88,-0.39,0.09,-2.14,-10.68,10.01,392,261,215,468,335,28
261,0.89,-0.46,-0.0,-1.46,-6.04,-0.61,392,261,212,469,337,28
262,0.91,-0.42,0.01,-0.49,0.67,-3.23,388,263,217,469,342,28
263,0.9,-0.4,0.03,5.13,2.08,-8.61,391,261,215,464,337,28
264,0.88,-0.44,0.01,-2.2,-3.3,-4.58,392,261,213,470,338,28
265,0.93,-0.37,0.01,-4.09,-3.05,-5.19,385,262,214,473,338,28
266,0.93,-0.38,0.02,3.78,-2.26,-2.87,386,265,218,470,336,28
267,0.92,-0.38,0.0,-0.24,-4.33,2.81,390,260,215,472,336,28
268,0.91,-0.36,-0.08,1.1,-4.21,3.11,390,264,214,468,336,28
269,0.92,-0.42,-0.01,3.54,-1.89,-5.37,390,261,220,468,337,28
270,0.94,-0.39,0.02,2.75,-2.44,-3.66,388,261,213,470,339,28
271,0.94,-0.38,-0.01,1.71,-1.59,-6.35,389,266,214,468,337,28
272,0.9,-0.4,0.01,0.61,-2.2,-0.98,390,263,214,469,342,28
273,0.92,-0.4,-0.0,1.95,-2.75,2.56,390,264,216,469,340,28
274,0.9,-0.43,0.02,2.01,-1.4,-1.83,402,262,213,469,338,28
275,0.92,-0.4,0.03,-5.43,-2.08,-2.75,390,261,216,468,339,28
276,0.89,-0.44,-0.0,1.53,-4.76,0.0,389,262,214,470,336,28
277,0.91,-0.4,0.02,-4.46,0.85,-2.87,386,261,217,468,341,28
278,0.92,-0.44,0.01,0.18,-3.85,-3.11,391,273,213,465,336,28
279,0.92,-0.44,-0.02,-0.73,-2.62,-3.3,390,262,213,471,338,28
280,0.88,-0.46,-0.0,-0.49,-2.62,-3.97,388,263,213,464,339,28
281,0.9,-0.44,0.01,-0.67,-2.87,-3.3,389,261,216,468,339,28
282,0.93,-0.42,-0.01,3.17,-2.99,-4.27,389,263,211,469,340,28
283,0.9,-0.44,-0.0,-2.32,-1.83,-2.87,392,261,225,475,340,28
284,0.9,-0.44,0.01,1.1,-4.27,-2.56,389,262,215,468,340,28
285,0.89,-0.45,0.02,2.44,-3.05,-3.48,389,264,214,469,339,28
286,0.9,-0.42,0.04,-0.92,-2.32,-0.37,391,263,211,471,340,28
287,0.9,-0.43,0.03,4.7,-2.87,-9.03,391,260,213,470,337,28
288,0.89,-0.45,0.0,-1.71,-2.14,-1.4,393,261,215,471,341,28
289,0.9,-0.44,-0.0,2.14,-2.5,-2.75,389,264,214,470,341,28
290,0.91,-0.44,-0.0,0.43,-2.93,-4.21,389,264,215,468,338,28
291,0.88,-0.44,0.01,0.55,-4.03,-4.58,390,264,216,468,342,28
292,0.91,-0.42,0.0,-2.75,-2.26,-2.87,393,262,212,467,341,28
293,0.92,-0.42,-0.01,-0.55,-3.11,-3.11,393,262,216,471,332,28
294,0.9,-0.43,-0.0,0.55,-3.23,-1.77,398,263,219,470,337,28
295,0.9,-0.41,-0.0,0.0,-2.87,-5.74,391,260,214,468,339,28
296,0.92,-0.41,-0.01,0.0,-2.99,-2.62,394,262,214,470,340,28
297,0.92,-0.41,-0.0,-0.49,-2.93,-1.1,393,262,216,464,338,28
298,0.93,-0.41,-0.01,1.59,-2.38,-1.59,394,263,216,466,338,28
299,0.91,-0.42,0.0,1.1,-2.93,-2.01,394,265,216,462,334,28
300,0.92,-0.42,-0.01,0.12,-2.99,-2.08,391,260,214,467,336,28
301,0.91,-0.43,-0.02,2.26,-4.03,-2.99,391,263,215,469,337,28
302,0.89,-0.44,-0.02,-1.28,-4.03,-0.43,391,265,215,469,339,28
303,0.91,-0.4,0.01,5.25,-3.72,-0.85,391,262,214,463,334,28
304,0.92,-0.44,-0.03,-0.67,-5.0,-1.16,390,261,215,469,334,28
305,0.92,-0.42,-0.01,2.38,3.42,6.41,394,264,213,471,332,28
306,0.91,-0.49,-0.05,-6.96,-6.41,-5.19,392,280,221,468,332,28
307,0.88,-0.44,-0.01,0.0,-2.2,-4.15,389,264,217,466,337,28
308,0.88,-0.46,-0.01,-2.08,-2.32,1.04,390,265,217,467,337,28
309,0.89,-0.45,-0.02,1.16,-2.62,-2.62,389,266,213,469,338,28
310,0.9,-0.46,-0.04,0.61,-2.38,-0.67,389,260,217,467,337,28
311,0.89,-0.45,-0.02,-2.38,-4.33,-2.62,388,265,217,468,337,28
312,0.9,-0.45,-0.04,-0.37,-3.23,-2.56,388,261,218,471,335,28
313,0.89,-0.47,-0.02,-4.33,-4.58,0.73,390,264,217,467,336,28
314,0.87,-0.48,-0.04,-2.26,-3.6,0.43,390,263,213,470,337,28
315,0.88,-0.49,-0.05,-1.04,-2.99,-4.33,391,261,214,472,338,28
316,0.88,-0.48,-0.05,1.71,-2.75,-3.05,392,263,215,478,339,28
317,0.87,-0.49,-0.05,-0.31,-2.93,-2.69,390,263,214,470,342,28
318,0.88,-0.48,-0.05,0.37,-2.99,-3.36,390,264,215,468,337,28
319,0.88,-0.48,-0.04,0.12,-2.32,-4.33,395,263,216,468,339,28
320,0.88,-0.46,-0.04,2.2,-2.75,-5.19,387,264,218,467,336,28
321,0.88,-0.47,-0.03,0.79,-2.32,-1.04,391,262,213,469,338,28
322,0.87,-0.48,-0.03,0.43,-3.54,-0.79,388,266,217,463,337,28
323,0.88,-0.48,-0.04,1.59,-3.36,-3.72,388,270,215,469,340,28
324,0.87,-0.49,-0.04,-0.06,-3.23,-5.62,389,266,215,467,339,28
325,0.88,-0.47,-0.02,0.67,-2.62,-2.81,388,261,218,468,338,28
326,0.88,-0.49,-0.05,-0.92,-2.56,-0.31,390,263,212,467,338,28
327,0.87,-0.47,-0.02,3.36,-2.32,-6.23,386,278,215,471,334,28
328,0.89,-0.46,-0.01,2.01,-2.01,-3.78,389,263,219,468,340,28
329,0.91,-0.43,-0.03,-2.08,-3.6,-5.19,389,258,215,467,335,28
330,0.91,-0.44,-0.04,-0.31,-3.11,-4.09,391,263,213,468,338,28
331,0.88,-0.44,-0.02,0.12,-2.38,-0.85,389,264,214,467,345,28
332,0.91,-0.43,-0.03,-0.79,-2.93,-3.05,389,269,215,467,340,28
333,0.9,-0.45,-0.04,-0.49,-3.6,-2.44,389,264,217,467,338,28
334,0.9,-0.45,-0.04,-0.73,-3.6,-3.23,377,265,214,465,339,28
335,0.9,-0.44,-0.04,-0.67,-1.22,-6.23,386,262,217,467,335,28
336,0.91,-0.42,-0.04,0.79,-3.3,-3.36,389,266,214,468,341,28
337,0.91,-0.44,-0.05,0.31,-3.54,-2.32,386,262,213,467,338,28
338,0.91,-0.43,-0.04,1.83,-1.71,-4.15,390,264,218,467,338,28
339,0.89,-0.45,-0.04,-0.49,-2.99,1.04,391,262,215,467,337,28
340,0.89,-0.44,-0.01,3.48,-2.44,-2.26,388,264,215,462,341,28
341,0.87,-0.48,-0.01,5.62,-2.75,-3.3,387,260,212,468,341,28
342,0.9,-0.43,-0.01,-1.53,-3.05,-2.2,390,268,213,466,341,28
343,0.88,-0.44,-0.01,0.43,-2.81,-0.98,388,263,214,471,340,28
344,0.9,-0.45,-0.02,-0.61,-2.62,-3.11,388,259,216,466,341,28
345,0.9,-0.44,-0.02,-1.95,-2.75,-3.78,387,263,215,463,339,28
346,0.89,-0.44,-0.02,0.18,-3.54,-2.62,390,261,215,463,339,28
347,0.9,-0.45,-0.02,0.12,-3.23,-4.27,388,262,212,467,337,28
348,0.9,-0.44,-0.02,2.62,-4.7,0.67,391,262,213,469,336,28
349,0.89,-0.44,-0.03,-1.1,-3.54,-2.44,387,264,218,473,338,28
350,0.89,-0.45,-0.03,1.04,-2.5,-3.85,384,263,215,468,340,28
351,0.89,-0.44,-0.03,0.85,-2.69,-3.36,388,264,214,467,341,28
352,0.9,-0.44,-0.03,1.28,-2.93,-1.95,386,263,217,469,340,28
353,0.9,-0.45,-0.03,-0.06,-2.93,-1.28,386,263,217,463,342,28
354,0.89,-0.44,-0.03,0.79,-4.03,0.12,388,263,218,471,339,28
355,0.89,-0.45,-0.02,-0.31,-2.81,-2.08,390,266,217,467,342,28
356,0.91,-0.46,-0.07,-0.43,-6.04,-5.43,388,263,214,462,338,28
357,0.9,-0.45,-0.05,-1.04,-2.38,-2.44,385,266,217,480,340,28
358,0.89,-0.45,-0.03,1.34,-2.26,-3.54,388,263,216,471,339,28
359,0.91,-0.44,-0.03,0.73,-3.05,-2.56,386,264,215,471,340,28
360,0.89,-0.45,-0.04,1.1,-3.05,-2.93,389,269,218,464,338,28
361,0.89,-0.44,-0.03,0.79,-3.91,-1.71,390,265,216,468,341,28
362,0.88,-0.44,-0.04,-1.28,-5.25,-1.34,387,263,216,468,339,28
363,0.9,-0.44,-0.05,1.71,-3.23,-1.77,387,263,214,469,341,28
364,0.9,-0.43,-0.04,-0.85,-2.14,-2.69,388,265,219,467,340,28
365,0.89,-0.43,-0.04,-3.3,-2.81,-2.56,389,264,215,470,340,28
366,0.9,-0.43,-0.06,1.34,-3.23,-2.69,388,263,215,472,339,28
367,0.9,-0.45,-0.05,0.98,-3.36,-0.67,388,263,217,467,338,28
368,0.87,-0.45,-0.03,10.07,0.0,7.87,391,261,215,467,341,28
369,0.88,-0.46,-0.01,-0.18,-0.37,-5.37,388,264,215,468,337,28
370,0.9,-0.45,-0.04,-0.73,-3.17,-3.6,388,263,215,463,339,28
371,0.89,-0.44,-0.03,0.18,-2.75,-3.6,391,265,220,468,340,28
372,0.9,-0.44,-0.03,0.37,-2.93,-3.23,391,262,217,467,341,28
373,0.88,-0.45,-0.03,0.43,-3.3,-2.32,390,265,214,471,348,28
374,0.9,-0.43,-0.02,0.85,-4.33,0.79,384,263,215,468,340,28
375,0.9,-0.46,-0.05,-1.77,-4.58,-1.46,387,265,214,469,338,28
376,0.89,-0.46,-0.04,-0.85,-3.36,-2.56,385,262,217,468,340,28
377,0.9,-0.45,-0.04,-1.04,-3.23,-3.85,388,268,215,466,341,28
378,0.9,-0.44,-0.04,0.55,-3.11,-1.16,388,262,216,471,342,28
379,0.89,-0.45,-0.04,0.18,-3.05,-1.95,389,264,221,469,336,28
380,0.91,-0.45,-0.07,0.37,-3.97,-2.87,387,262,214,473,338,28
381,0.91,-0.45,-0.03,2.08,-3.11,-4.33,389,269,215,467,340,28
382,0.89,-0.43,-0.03,3.97,-2.69,0.67,390,263,209,467,338,28
383,0.88,-0.46,-0.05,-3.91,-2.14,-5.8,391,264,215,479,340,28
384,0.9,-0.44,-0.04,1.22,-3.23,-2.2,388,263,215,472,341,28
385,0.91,-0.44,-0.04,0.79,-2.99,-1.83,389,263,215,463,340,28
386,0.89,-0.45,-0.03,2.01,-3.3,-2.5,388,262,216,469,341,28
387,0.9,-0.45,-0.04,1.53,-3.48,-1.71,389,261,213,467,340,28
388,0.91,-0.43,-0.03,-0.31,-2.14,-4.52,389,261,218,462,340,28
389,0.89,-0.45,-0.04,-1.4,-2.32,-4.21,390,266,216,471,341,28
390,0.89,-0.45,-0.04,-0.49,-2.87,-3.23,391,264,217,472,339,28
391,0.9,-0.45,-0.04,0.67,-3.3,-1.83,388,267,222,468,339,28
392,0.89,-0.45,-0.03,2.62,-1.22,-2.5,388,263,218,472,337,28
393,0.91,-0.42,-0.02,1.28,-3.54,-1.46,388,260,214,468,335,28
394,0.9,-0.44,-0.04,-1.04,-2.14,-3.48,388,260,218,468,338,28
395,0.89,-0.46,-0.04,0.31,-3.23,-1.4,388,262,215,468,343,28
396,0.89,-0.46,-0.04,0.12,-2.99,-1.53,389,266,215,468,339,28
397,0.89,-0.45,-0.03,-0.61,-3.05,-2.75,388,262,215,465,339,28
398,0.89,-0.45,-0.03,1.46,-3.36,-2.44,386,264,213,470,339,28
399,0.89,-0.46,-0.03,1.04,-2.93,-2.99,390,263,216,464,341,28
400,0.88,-0.46,-0.04,1.1,-2.87,-1.89,390,264,218,463,339,28
401,0.89,-0.46,-0.04,0.0,-2.81,-4.15,386,264,217,463,350,28
402,0.88,-0.45,-0.03,-1.28,-2.01,-1.83,390,262,219,472,337,28
403,0.92,-0.45,-0.06,-2.26,-4.94,-1.59,391,264,217,468,341,28
404,0.88,-0.45,-0.05,1.77,-3.11,-1.1,390,265,218,468,341,28
405,0.88,-0.46,-0.05,-0.37,-3.05,-1.83,396,265,216,469,342,28
406,0.89,-0.46,-0.05,-0.37,-2.99,-3.23,391,265,218,471,339,28
407,0.89,-0.45,-0.04,0.0,-3.23,-2.38,392,265,216,462,336,28
408,0.88,-0.46,-0.05,-0.12,-2.62,-2.26,391,262,222,469,339,28
409,0.89,-0.46,-0.04,0.06,-2.87,-2.38,390,263,216,462,336,28
410,0.89,-0.46,-0.05,0.73,-2.93,-3.05,391,268,213,473,341,28
411,0.88,-0.46,-0.05,0.24,-2.5,-1.89,393,263,214,468,339,28
412,0.89,-0.45,-0.04,0.37,-3.3,-2.87,391,263,213,472,339,28
413,0.9,-0.46,-0.05,1.59,-2.81,-2.2,393,263,219,463,339,28
414,0.89,-0.46,-0.04,-1.46,-2.93,-1.89,393,262,218,465,337,28
415,0.89,-0.45,-0.04,0.12,-3.78,-2.08,390,263,213,471,342,28
416,0.88,-0.46,-0.04,1.04,-2.99,-2.2,390,264,216,468,339,28
417,0.89,-0.46,-0.05,0.31,-2.62,-3.6,392,265,220,461,340,28
418,0.89,-0.46,-0.05,0.49,-3.23,-3.11,392,264,214,468,338,28
419,0.89,-0.45,-0.05,-1.53,-2.08,-3.17,391,263,215,462,340,28
420,0.89,-0.45,-0.05,0.24,-3.6,-1.71,391,262,218,466,340,28
421,0.89,-0.45,-0.05,0.73,-2.75,-2.26,390,265,216,470,341,28
422,0.89,-0.46,-0.05,2.08,-2.81,-2.14,392,260,216,470,338,28
423,0.89,-0.46,-0.05,0.43,-2.81,-2.99,392,274,217,468,339,28
424,0.89,-0.46,-0.04,0.85,-3.05,-2.14,393,265,213,470,336,28
425,0.89,-0.45,-0.04,0.12,-3.42,-2.01,391,262,214,468,339,28
426,0.88,-0.46,-0.05,0.06,-2.87,-3.3,390,264,218,468,342,28
427,0.89,-0.46,-0.05,0.49,-2.81,-3.3,390,261,219,468,340,28
428,0.89,-0.46,-0.05,0.55,-3.54,-2.08,390,264,216,469,342,28
429,0.89,-0.45,-0.04,0.55,-3.17,-2.5,393,265,217,466,345,28
430,0.89,-0.45,-0.05,1.04,-2.93,-2.2,394,264,215,471,341,28
431,0.89,-0.45,-0.05,0.06,-2.81,-1.95,389,263,220,467,338,28
432,0.89,-0.46,-0.04,0.73,-2.5,-2.01,390,263,219,467,338,28
433,0.89,-0.44,-0.02,-0.98,-2.14,0.49,391,276,216,472,339,28
434,0.88,-0.47,-0.06,1.22,-3.42,-4.09,391,263,217,468,342,28
435,0.89,-0.46,-0.06,0.24,-3.54,-4.15,391,263,215,469,340,28
436,0.89,-0.45,-0.04,0.12,-3.11,-0.92,391,263,216,470,339,28
437,0.89,-0.46,-0.06,0.31,-3.05,-2.32,391,262,219,468,342,28
438,0.89,-0.46,-0.05,-0.61,-2.32,-3.48,388,261,218,468,340,28
439,0.88,-0.46,-0.05,0.37,-2.56,-2.56,392,263,216,472,351,28
440,0.88,-0.46,-0.05,1.04,-2.93,-2.62,402,266,218,472,343,28
441,0.88,-0.46,-0.06,0.18,-2.62,-2.08,398,265,218,469,342,28
442,0.89,-0.5,-0.1,-3.48,-2.44,-2.2,393,263,214,472,341,28
443,0.87,-0.48,-0.04,3.42,-2.75,-2.69,392,263,218,472,341,28
444,0.87,-0.49,-0.06,-1.22,-2.44,-7.32,395,263,215,472,340,28
445,0.87,-0.48,-0.05,-1.22,-3.72,-1.71,388,262,214,468,342,28
446,0.88,-0.48,-0.06,1.89,-3.11,-2.87,390,262,212,471,340,28
447,0.89,-0.47,-0.05,-0.06,-2.2,-4.03,398,263,217,465,339,28
448,0.87,-0.47,-0.04,1.22,-2.44,-2.87,391,262,217,468,343,28
449,0.88,-0.48,-0.06,-0.67,-0.85,-2.56,394,268,217,468,339,28
450,0.87,-0.48,-0.05,-0.43,-3.3,-2.5,391,264,217,470,339,28
451,0.87,-0.48,-0.05,1.46,-3.48,-1.59,391,265,215,468,337,28
452,0.88,-0.48,-0.05,1.95,-3.05,-1.65,392,265,219,465,340,28
453,0.88,-0.47,-0.04,0.12,-2.99,-3.66,391,264,219,472,339,28
454,0.88,-0.47,-0.06,0.24,-2.5,-2.75,393,261,218,472,339,28
455,0.88,-0.48,-0.05,-0.55,-3.23,-2.87,393,263,215,469,340,28
456,0.88,-0.47,-0.05,0.49,-2.81,-3.72,390,267,213,466,338,28
457,0.88,-0.47,-0.06,1.4,-2.69,-1.95,389,262,220,470,340,28
458,0.88,-0.48,-0.06,-1.04,-2.38,-3.23,392,263,216,468,341,28
459,0.87,-0.47,-0.04,0.06,-2.56,-2.38,391,265,217,463,337,28
460,0.88,-0.48,-0.05,1.04,-2.75,-1.71,394,265,216,472,336,28
461,0.88,-0.48,-0.05,-0.43,-3.11,-2.81,391,266,219,468,341,28
462,0.88,-0.47,-0.05,-1.4,-3.54,-2.2,391,265,214,469,343,28
463,0.87,-0.48,-0.05,0.73,-2.75,-2.38,391,265,217,467,342,28
464,0.88,-0.48,-0.06,1.28,-3.36,-2.08,391,265,215,468,340,28
465,0.88,-0.46,-0.06,-1.16,-2.26,-3.78,392,262,216,468,340,28
466,0.88,-0.48,-0.05,-0.67,-2.56,-3.97,391,264,218,468,342,28
467,0.89,-0.48,-0.05,0.24,-2.5,-3.3,391,264,216,467,339,28
468,0.88,-0.47,-0.06,-2.44,-1.89,-3.17,390,272,219,472,342,28
469,0.88,-0.47,-0.04,1.34,-3.85,-1.77,390,264,215,463,341,28
470,0.87,-0.47,-0.06,-1.1,-2.75,-2.69,392,267,218,472,342,28
471,0.89,-0.48,-0.05,1.59,-3.3,-2.14,389,262,217,471,339,28
472,0.89,-0.46,-0.05,0.06,-3.23,-1.95,391,264,218,466,340,28
473,0.9,-0.46,-0.04,0.79,-3.3,-2.87,391,266,218,466,342,28
474,0.87,-0.48,-0.06,1.22,-3.91,0.0,391,262,217,471,342,28
475,0.87,-0.48,-0.05,-0.79,-2.75,-2.75,391,265,216,464,341,28
476,0.89,-0.46,-0.05,0.24,-2.81,-1.65,392,264,215,472,341,28
477,0.87,-0.46,-0.03,0.55,-3.36,-2.87,403,260,219,462,339,28
478,0.89,-0.47,-0.05,-0.55,-4.09,-1.28,392,264,216,468,340,28
479,0.89,-0.47,-0.05,1.28,-2.08,-2.38,392,265,215,469,339,28
480,0.85,-0.47,-0.03,0.92,2.2,-15.56,391,263,217,468,343,28
481,0.88,-0.46,-0.03,0.43,-3.17,-1.71,394,266,216,467,340,28
482,0.9,-0.47,-0.04,-0.67,-2.69,-5.19,391,266,215,468,342,28
483,0.88,-0.47,-0.04,-0.79,-2.81,-2.69,389,265,218,467,339,28
484,0.88,-0.48,-0.04,-0.73,-2.32,-4.03,391,277,216,465,340,28
485,0.87,-0.47,-0.04,-0.98,-2.56,-1.83,391,268,214,468,340,28
486,0.87,-0.47,-0.03,0.67,-2.62,-0.98,388,264,214,468,341,28
487,0.88,-0.47,-0.04,-0.92,-3.48,-2.32,389,263,217,469,339,28
488,0.89,-0.48,-0.04,0.98,-3.36,-2.69,398,263,216,469,341,28
489,0.88,-0.48,-0.04,-0.55,-2.26,-3.54,391,263,217,465,340,28
490,0.88,-0.48,-0.04,-0.55,-3.11,-2.93,392,263,216,470,340,28
491,0.88,-0.48,-0.03,0.67,-2.99,-2.08,389,264,215,471,340,28
492,0.88,-0.48,-0.03,1.34,-2.62,-4.15,398,265,217,467,341,28
493,0.87,-0.47,-0.02,0.67,-3.3,-2.87,410,266,215,464,341,28
494,0.89,-0.48,-0.04,-0.85,-3.3,-3.85,390,265,216,471,338,28
495,0.87,-0.47,-0.05,-1.28,-3.23,-1.83,391,266,217,467,341,28
496,0.88,-0.46,-0.04,2.26,-2.87,-1.65,391,263,220,463,342,28
497,0.88,-0.47,-0.05,0.98,-2.75,-1.59,391,266,221,472,340,28
498,0.87,-0.47,-0.04,0.92,-4.82,-2.01,391,266,218,467,341,28
499,0.88,-0.46,-0.04,-1.22,-0.61,-4.58,391,263,226,463,342,28
500,0.89,-0.46,-0.03,1.95,-3.23,-1.53,392,264,215,471,342,28
501,0.9,-0.46,-0.04,-0.31,-2.62,-2.87,392,264,215,471,338,28
502,0.89,-0.46,-0.05,-0.61,-2.75,-2.26,389,262,219,467,340,28
503,0.88,-0.47,-0.04,0.37,-3.17,-2.5,389,264,217,467,343,28
504,0.88,-0.47,-0.05,-4.46,-3.23,-4.03,376,266,218,461,341,28
505,1.0,-0.3,-0.04,-13.24,-2.81,-2.38,400,284,197,452,315,28
506,0.94,-0.35,0.0,-0.92,-4.76,-8.61,394,283,195,455,316,28
507,0.96,-0.32,0.01,8.36,5.68,4.7,384,284,189,453,314,28
508,0.94,-0.34,0.01,-5.49,-2.62,-4.58,389,285,196,452,311,28
509,0.93,-0.33,0.01,-0.31,-1.53,-2.69,389,284,192,454,314,28
510,0.94,-0.35,0.0,1.59,-4.03,1.28,387,277,197,455,312,28
511,0.93,-0.37,-0.01,-5.13,-4.33,1.22,375,281,193,448,310,28
512,0.94,-0.36,-0.03,-1.89,-2.08,-4.88,373,281,208,448,313,28
513,0.93,-0.35,-0.02,1.46,-2.08,-3.36,369,285,199,456,312,28
514,0.94,-0.35,-0.03,-0.24,-2.87,-1.28,373,287,199,452,312,28
515,0.94,-0.34,-0.02,0.43,-4.76,-2.69,372,284,194,455,317,28
516,0.95,-0.34,-0.03,0.85,-1.77,-2.87,372,284,198,452,312,28
517,0.94,-0.34,-0.04,-0.06,-3.6,-2.75,373,280,192,457,315,28
518,0.95,-0.34,-0.04,0.67,-3.05,-1.95,369,282,196,457,315,28
519,0.93,-0.35,-0.04,0.18,-3.72,-1.59,367,282,198,454,314,28
520,0.95,-0.34,-0.04,-0.43,-3.66,-2.62,368,282,196,449,316,28
521,0.95,-0.33,-0.04,0.73,-4.58,-3.48,366,283,186,445,314,28
522,0.95,-0.34,-0.04,0.06,-3.36,-3.72,367,293,201,458,315,28
523,0.94,-0.33,-0.05,0.24,-3.23,-2.38,364,283,198,456,315,28
524,0.95,-0.33,-0.05,0.18,-3.72,-1.77,367,282,198,454,316,28
525,0.94,-0.33,-0.05,0.92,-3.6,-1.28,364,282,194,457,315,28
526,0.95,-0.34,-0.07,0.73,-4.64,-2.99,361,280,193,454,320,28
527,0.95,-0.33,-0.05,1.89,-2.62,-2.69,364,283,199,457,314,28
528,0.96,-0.33,-0.06,-0.06,-5.74,-3.23,366,284,192,450,312,28
529,0.94,-0.32,-0.06,0.0,-4.58,-3.6,365,286,195,451,309,28
530,0.94,-0.33,-0.05,1.16,-4.88,2.69,363,284,199,451,314,28
531,0.97,-0.32,-0.04,1.53,0.55,-0.24,359,284,202,456,317,28
532,0.94,-0.34,-0.06,-5.92,-1.28,-3.05,364,286,192,452,313,28
533,0.9,-0.35,-0.06,0.12,-5.43,1.28,359,284,185,451,316,28
534,0.95,-0.33,-0.05,1.65,-4.03,-3.85,365,275,196,454,312,28
535,0.95,-0.33,-0.06,1.28,-4.94,-3.23,368,283,198,456,317,28
536,0.92,-0.34,-0.07,0.49,-5.25,-1.89,363,280,193,459,311,28
537,0.97,-0.33,-0.09,0.06,-8.36,-2.93,364,284,203,450,313,28
538,0.93,-0.33,-0.08,0.31,-2.93,-2.26,362,288,189,453,316,28
539,0.94,-0.34,-0.09,-0.55,-4.64,-2.2,362,280,198,454,315,28
540,0.95,-0.33,-0.09,0.55,-2.56,-2.69,361,280,195,456,314,28
541,0.95,-0.33,-0.08,1.22,-1.95,-1.71,363,282,197,454,316,28
542,0.95,-0.33,-0.08,1.71,-3.23,-3.17,358,282,187,451,316,28
543,0.94,-0.33,-0.09,0.85,-2.69,-0.92,390,282,201,455,313,28
544,0.95,-0.33,-0.08,0.18,-3.78,-1.4,363,281,191,456,312,28
545,0.92,-0.33,-0.07,1.46,-1.77,-5.86,359,282,196,456,314,28
546,0.94,-0.32,-0.06,-1.59,5.13,-2.69,362,282,203,450,312,28
547,0.95,-0.31,-0.05,4.27,-2.62,-5.68,364,291,196,456,317,28
548,0.93,-0.32,-0.04,1.83,-3.54,-2.81,372,281,198,459,313,28
549,0.93,-0.29,-0.06,-6.9,-8.18,3.3,369,282,185,459,312,28
550,0.94,-0.32,-0.04,-0.92,-1.53,-3.3,371,284,202,460,314,28
551,0.96,-0.32,-0.05,-0.43,-2.99,-2.69,367,288,199,457,314,28
552,0.93,-0.32,-0.03,1.04,-4.52,-2.62,365,280,196,458,318,28
553,0.96,-0.32,-0.04,1.53,-2.44,-4.15,363,287,184,451,317,28
554,0.96,-0.3,-0.05,-3.48,-5.37,1.59,364,279,192,457,319,28
555,0.93,-0.34,-0.07,-2.5,0.18,-2.93,376,279,196,451,316,28
556,0.94,-0.33,-0.04,-1.4,-0.85,-7.39,363,288,197,455,313,28
557,0.91,-0.36,-0.0,-3.66,-7.2,8.36,362,282,197,456,316,28
558,1.0,-0.31,-0.07,-5.07,-11.54,-7.26,356,286,201,454,317,28
559,0.95,-0.28,-0.03,0.12,-2.2,-2.01,365,276,197,456,311,28
560,0.97,-0.28,-0.04,4.27,-3.23,-5.8,369,286,205,457,314,28
561,1.0,-0.28,-0.03,-1.04,-1.59,3.05,374,288,201,458,314,28
562,0.92,-0.29,-0.07,9.4,-0.31,-14.65,364,289,199,453,317,28
563,0.98,-0.27,-0.06,-2.56,-2.62,-3.78,368,286,198,447,314,28
564,0.95,-0.27,-0.05,1.04,1.59,-3.78,377,291,202,450,313,28
565,0.97,-0.27,-0.04,2.14,-2.08,-1.89,381,290,203,460,320,28
566,0.97,-0.26,-0.03,1.53,-3.05,-2.44,380,291,200,460,310,28
567,0.98,-0.26,-0.03,0.61,-3.6,-2.5,383,286,197,457,315,28
568,0.97,-0.26,-0.03,0.06,-3.91,-1.65,387,288,195,459,313,28
569,0.96,-0.26,-0.02,0.12,-4.09,-3.36,382,289,197,455,315,28
570,0.96,-0.25,-0.07,-5.49,0.55,2.5,383,286,194,464,315,28
571,0.98,-0.24,-0.02,4.88,2.62,-8.0,408,286,197,450,312,28
572,0.94,-0.27,-0.02,0.06,0.43,2.56,383,286,194,455,318,28
573,0.98,-0.27,-0.05,-2.44,-1.4,-5.07,377,289,194,453,317,28
574,0.96,-0.27,-0.02,3.36,-4.82,-3.91,378,288,206,452,313,28
575,0.94,-0.28,-0.04,-2.08,-3.6,-3.3,409,289,200,460,318,28
576,0.95,-0.28,-0.06,-4.58,-4.64,-4.94,381,291,200,455,319,28
577,0.91,-0.25,-0.04,7.32,-2.93,3.36,379,281,198,449,314,28
578,0.96,-0.24,-0.03,-4.27,0.61,-2.62,377,283,197,461,316,28
579,0.99,-0.22,-0.03,-1.34,-0.79,1.71,386,288,199,455,320,28
580,0.98,-0.26,-0.03,0.37,-2.08,-1.77,382,285,197,455,317,28
581,0.98,-0.25,-0.03,0.0,-6.16,-0.06,379,287,201,455,318,28
582,0.96,-0.25,-0.01,0.98,-6.77,-3.42,375,287,191,453,318,28
583,0.98,-0.23,-0.03,-0.67,-2.01,-0.85,375,291,191,456,317,28
584,0.94,-0.24,-0.04,-0.49,-7.87,2.5,374,289,199,457,307,28
585,0.99,-0.25,-0.01,3.6,1.22,-0.06,373,291,207,456,316,28
586,1.0,-0.22,-0.03,-2.26,-1.77,-6.23,370,282,202,455,318,28
587,0.97,-0.23,-0.03,-0.98,-2.01,-5.49,376,288,201,451,321,28
588,0.97,-0.24,-0.02,-0.31,-1.77,-2.99,375,289,204,456,314,28
589,0.96,-0.24,-0.02,-0.06,-1.77,-0.73,366,304,201,453,318,28
590,0.97,-0.25,-0.01,0.92,-2.01,-2.01,376,292,202,460,320,28
591,0.96,-0.27,-0.01,-1.22,-2.26,2.81,369,290,201,455,319,28
592,0.96,-0.28,0.02,1.34,-4.88,2.01,371,292,191,455,319,28
593,0.96,-0.3,0.0,0.85,-3.66,-0.37,375,288,201,457,317,28
594,0.95,-0.32,-0.02,-4.33,-1.53,1.77,378,291,206,460,319,28
595,0.93,-0.33,0.0,-0.61,-1.65,-1.34,376,292,203,456,315,28
596,0.94,-0.34,0.01,-0.37,-3.23,-4.21,377,289,199,458,323,28
597,0.95,-0.33,0.0,1.16,-2.08,-3.11,414,291,197,458,316,28
598,0.94,-0.33,0.01,-0.31,-1.71,-2.26,376,283,207,460,319,28
599,0.96,-0.33,0.0,0.98,-2.01,-5.19,376,290,206,450,320,28
600,0.94,-0.31,-0.01,1.28,-1.16,-7.63,374,290,203,458,314,28
601,0.96,-0.31,0.01,0.24,-5.92,-1.16,374,289,203,458,316,28
602,0.96,-0.31,0.01,-1.71,-0.67,-4.46,380,286,204,456,313,28
603,0.97,-0.3,0.0,0.37,-3.36,-3.6,373,303,202,455,324,28
604,0.95,-0.29,0.01,1.53,-2.44,-3.85,375,285,202,455,317,28
605,0.95,-0.31,0.0,-0.43,-2.32,-1.95,376,294,197,461,309,28
606,0.96,-0.3,0.0,0.18,-1.71,-4.21,375,293,200,456,317,28
607,0.96,-0.29,0.0,0.06,-2.87,-2.38,371,288,205,456,317,28
608,0.96,-0.31,-0.01,0.98,-3.11,-3.54,371,286,207,458,314,28
609,0.96,-0.3,-0.0,1.4,-4.94,-1.53,374,286,201,455,319,28
610,0.97,-0.3,0.0,1.4,-2.44,-2.2,372,290,201,447,316,28
611,0.95,-0.31,0.0,-0.06,-2.5,-3.42,372,295,196,458,313,28
612,0.97,-0.3,-0.0,0.61,-2.32,-4.58,370,287,198,457,317,28
613,0.96,-0.3,-0.0,-0.12,-2.75,-3.36,370,285,201,462,312,28
614,0.97,-0.3,0.0,0.37,-1.89,-2.75,367,299,192,457,316,28
615,0.95,-0.3,0.01,1.4,-4.09,-3.97,370,287,202,455,304,28
616,0.96,-0.3,-0.01,-0.73,-2.56,-3.36,367,290,199,461,318,28
617,0.95,-0.3,-0.0,0.73,-3.42,-1.65,370,290,196,460,319,28
618,0.95,-0.31,0.01,2.08,-2.32,-2.56,370,287,203,452,312,28
619,0.96,-0.3,0.0,1.16,-3.05,-2.69,368,292,198,456,320,28
620,0.97,-0.3,0.0,1.46,-1.89,-2.93,395,286,204,453,317,28
621,0.96,-0.3,0.0,0.37,-3.42,-1.83,364,290,197,459,308,28
622,0.96,-0.3,0.0,0.12,-1.4,-4.82,371,290,207,457,316,28
623,0.96,-0.3,-0.01,1.1,-2.75,-2.5,373,289,202,455,314,28
624,0.95,-0.3,0.0,0.73,-2.14,-2.14,372,291,207,454,317,28
625,0.95,-0.3,-0.0,1.1,-1.59,-3.66,369,290,201,461,315,28
626,0.95,-0.31,-0.0,0.24,-4.27,-1.77,368,290,194,459,316,28
627,0.96,-0.3,-0.0,-1.1,-3.05,-3.97,365,291,198,455,313,28
628,0.96,-0.3,0.0,0.61,-2.01,-2.08,371,286,196,452,320,28
629,0.96,-0.3,0.0,0.61,-1.4,-2.99,367,292,200,454,317,28
630,0.96,-0.31,-0.01,1.04,-2.69,-1.46,364,291,200,458,319,28
631,0.95,-0.31,0.01,1.53,-3.36,-2.14,370,286,207,454,320,28
632,0.95,-0.3,0.01,0.61,-1.89,-3.17,368,288,199,460,318,28
633,0.96,-0.31,-0.0,0.12,-3.17,-2.93,364,291,204,460,314,28
634,0.96,-0.31,0.0,0.73,-2.69,-2.69,366,286,202,454,318,28
635,0.97,-0.3,-0.01,0.0,-1.22,-0.49,366,291,200,457,318,28
636,0.96,-0.31,0.01,0.0,-2.2,-1.71,368,289,207,459,315,28
637,0.96,-0.3,0.0,0.55,-2.32,-2.44,366,290,202,458,316,28
638,0.94,-0.31,-0.01,0.55,-3.11,-1.71,368,294,200,458,318,28
639,0.96,-0.31,0.0,0.85,-5.25,-1.1,364,291,203,454,314,28
640,0.95,-0.31,0.01,-0.37,-1.46,-3.6,367,290,202,461,316,28
641,0.94,-0.31,0.01,-0.67,-1.59,-1.16,379,290,201,453,316,28
642,0.95,-0.32,0.0,0.49,-2.75,-2.75,363,290,208,459,317,28
643,0.96,-0.32,0.01,-0.55,-2.81,-0.73,365,290,206,457,317,28
644,0.95,-0.31,0.02,1.04,-2.38,-2.26,366,291,207,455,318,28
645,0.96,-0.31,0.01,-1.16,-1.83,-1.71,365,292,198,458,314,28
646,0.94,-0.33,0.01,1.59,-3.11,-1.16,365,290,202,460,318,28
647,0.93,-0.34,0.01,0.61,-4.39,-3.54,367,290,203,457,322,28
648,0.97,-0.3,0.0,0.24,0.0,-4.15,366,289,206,461,321,28
649,0.95,-0.31,0.03,3.78,1.04,-0.37,371,290,199,462,318,28
650,0.94,-0.34,0.03,-3.66,-2.26,4.09,381,293,205,468,316,28
651,0.95,-0.35,0.01,-2.62,-3.85,-1.46,390,294,202,461,318,28
652,0.93,-0.37,0.02,-0.79,-4.03,-0.49,392,292,207,460,314,28
653,0.92,-0.37,0.01,0.0,-4.82,-3.11,389,291,196,461,320,28
654,0.94,-0.36,0.01,0.43,-2.44,-2.32,397,290,204,457,313,28
655,0.94,-0.36,0.01,0.31,-2.32,-2.93,391,292,202,453,321,28
656,0.94,-0.36,0.01,-0.98,-2.99,-3.66,379,305,204,455,316,28
657,0.93,-0.36,0.01,-0.18,-4.39,-2.01,384,289,202,448,315,28
658,0.94,-0.35,0.0,-0.55,-2.62,-3.36,407,292,209,459,317,28
659,0.93,-0.35,0.01,0.92,-3.05,-2.08,385,303,204,453,318,28
660,0.93,-0.36,0.01,0.37,-3.36,-2.01,407,295,203,455,318,28
661,0.94,-0.35,0.0,0.98,-4.03,-3.6,380,295,208,456,312,28
662,0.94,-0.34,0.0,3.78,-1.34,-4.27,384,296,201,456,317,28
663,0.93,-0.35,0.01,0.55,-3.17,-3.11,385,292,203,452,311,28
664,0.94,-0.35,0.0,-0.06,-3.54,-2.81,379,292,202,457,320,28
665,0.94,-0.35,0.0,1.22,-2.87,-2.08,385,294,205,454,317,28
666,0.93,-0.35,-0.0,0.49,-2.69,-2.01,386,293,207,454,309,28
667,0.95,-0.35,0.0,0.85,-3.05,-2.08,385,291,207,451,313,28
668,0.94,-0.35,0.01,0.43,-3.48,-2.14,388,293,205,457,317,28
669,0.93,-0.35,0.01,0.92,-3.54,-2.38,389,295,204,454,313,28
670,0.94,-0.35,-0.0,1.1,-3.23,-2.32,386,287,196,461,316,28
671,0.93,-0.36,0.0,0.55,-3.48,-2.62,387,298,208,459,318,28
672,0.95,-0.35,-0.0,-0.92,-2.99,-1.83,388,288,205,454,316,28
673,0.94,-0.35,0.0,-0.12,-2.38,-1.28,384,293,208,453,320,28
674,0.93,-0.36,0.0,0.79,-2.5,-2.44,395,292,205,457,318,28
675,0.93,-0.36,0.01,-0.67,-0.92,-3.85,383,292,202,451,318,28
676,0.95,-0.35,-0.0,0.67,-1.77,-2.5,380,292,205,461,316,28
677,0.94,-0.36,0.0,0.18,-1.77,-1.28,382,295,206,468,320,28
678,0.93,-0.36,0.0,-1.83,-2.75,-3.48,381,293,204,449,309,28
679,0.95,-0.35,-0.01,2.62,-2.93,-1.4,379,297,203,460,313,28
680,0.95,-0.36,0.0,1.34,-2.38,-1.1,381,292,210,453,319,28
681,0.92,-0.37,0.0,0.79,-3.17,-2.69,383,296,194,460,316,28
682,0.93,-0.36,-0.01,-0.49,-2.56,-2.08,379,293,203,463,306,28
683,0.93,-0.37,-0.01,0.67,-5.31,-3.36,381,293,200,453,319,28
684,0.88,-0.35,0.01,-3.78,-7.63,-4.15,378,292,206,452,316,28
685,0.96,-0.32,-0.06,0.24,-8.79,-4.09,370,298,194,458,316,28
686,0.95,-0.33,-0.04,0.73,-2.44,-0.43,389,295,204,452,319,28
687,0.95,-0.33,-0.03,0.79,-3.42,-1.71,380,295,207,452,319,28
688,0.93,-0.33,-0.03,1.4,-2.62,-1.77,378,291,209,453,313,28
689,0.94,-0.33,-0.03,0.67,-2.08,-4.58,375,297,198,455,321,28
690,0.92,-0.33,-0.04,-0.55,-4.15,-2.93,392,291,208,460,319,28
691,0.96,-0.29,-0.03,-5.31,-4.7,-9.83,376,291,210,461,320,28
692,0.96,-0.29,-0.04,-6.04,-0.18,5.86,377,291,202,459,321,28
693,0.96,-0.32,-0.03,3.42,-3.72,-2.08,377,293,197,449,313,28
694,0.94,-0.33,-0.01,4.76,-2.44,-1.83,388,292,203,453,315,28
695,0.94,-0.33,0.0,0.73,-1.1,-2.56,388,296,207,457,320,28
696,0.95,-0.33,-0.01,0.24,-3.6,-2.81,391,294,209,458,319,28
697,0.94,-0.33,-0.0,0.24,-3.6,-2.62,390,294,206,461,319,28
698,0.94,-0.32,-0.0,0.43,-3.72,-4.03,391,294,205,460,317,28
699,0.95,-0.32,-0.01,0.24,-3.3,-3.42,399,293,205,457,314,28
700,0.96,-0.32,-0.02,0.12,-3.42,-2.81,393,293,196,459,315,28
701,0.96,-0.32,-0.02,0.24,-3.72,-2.38,388,293,208,457,315,28
702,0.95,-0.32,-0.01,0.61,-2.38,-2.44,388,296,206,453,317,28
703,0.95,-0.32,-0.01,-2.32,-5.55,1.4,390,293,206,454,320,28
704,0.94,-0.33,-0.03,5.07,-4.94,-3.78,386,297,209,458,320,28
705,0.93,-0.33,-0.02,2.81,-2.87,-1.1,390,290,205,457,317,28
706,0.95,-0.32,-0.01,0.0,-2.44,-2.87,388,293,208,451,316,28
707,0.95,-0.32,0.0,0.49,-2.44,-3.48,388,292,204,459,319,28
708,0.95,-0.36,-0.03,2.93,-5.62,3.05,388,290,201,449,319,28
709,0.96,-0.34,0.01,1.22,-3.66,-2.99,387,292,207,455,315,28
710,0.95,-0.33,-0.01,-0.61,-3.17,-3.11,383,296,203,460,318,28
711,0.94,-0.33,-0.02,-0.55,-4.03,-3.78,382,298,205,456,317,28
712,0.97,-0.3,-0.02,-0.12,-2.56,-5.31,377,292,205,456,317,28
713,0.95,-0.32,-0.02,2.32,-0.85,-2.08,371,290,198,460,317,28
714,0.94,-0.33,-0.02,0.49,-4.7,-1.28,380,294,203,456,313,28
715,0.92,-0.33,-0.0,-0.06,-2.56,-1.77,375,289,212,460,321,28
716,0.93,-0.32,-0.01,-0.43,-4.03,-3.3,375,293,208,460,316,28
717,0.96,-0.31,-0.03,-0.49,-3.97,-3.42,375,304,205,457,318,28
718,0.96,-0.31,-0.03,-0.49,-2.44,-2.2,371,287,203,456,322,28
719,0.94,-0.32,-0.02,-0.73,-3.11,-1.34,372,296,205,456,305,28
720,0.94,-0.31,-0.01,1.95,-4.09,-2.32,377,285,203,460,319,28
721,0.96,-0.31,-0.01,-0.37,-1.83,-4.09,367,292,205,455,319,28
722,0.95,-0.32,-0.02,1.83,-2.87,-5.74,376,294,208,458,320,28
723,0.95,-0.31,-0.02,0.67,-2.56,-3.3,374,289,195,460,316,28
724,0.96,-0.31,-0.02,0.67,-2.69,-2.5,375,295,201,459,321,28
725,0.95,-0.3,-0.03,1.1,-3.11,-3.11,370,294,201,453,314,28
726,0.96,-0.31,-0.03,-0.37,-3.78,-3.17,373,299,203,459,318,28
727,0.96,-0.3,-0.03,1.28,-2.75,-1.83,373,293,204,462,319,28
728,0.94,-0.3,-0.02,1.77,-2.14,-2.32,373,297,209,461,322,28
729,0.94,-0.31,-0.02,0.92,-2.69,-2.93,373,294,207,458,321,28
730,0.94,-0.32,-0.03,1.71,-2.2,-3.78,372,295,203,457,322,28
731,0.96,-0.31,-0.03,0.92,-2.99,-3.05,368,295,204,451,320,28
732,0.95,-0.31,-0.03,0.0,-2.44,-1.28,376,297,210,465,320,28
733,0.95,-0.31,-0.03,0.12,-1.28,-4.21,370,296,205,452,316,28
734,0.95,-0.31,-0.03,0.06,-3.36,-2.69,374,298,202,455,318,28
735,0.95,-0.31,-0.03,-0.79,-2.5,-2.81,371,294,210,460,315,28
736,0.96,-0.31,-0.03,-0.12,-2.5,-3.72,365,296,206,452,317,28
737,0.96,-0.31,-0.02,0.61,-1.95,-2.75,376,293,207,461,320,28
738,0.95,-0.31,-0.01,0.98,-1.95,-3.3,380,294,202,463,319,28
739,0.96,-0.31,-0.03,1.22,-2.99,-3.97,387,294,203,457,320,28
740,0.95,-0.3,-0.01,0.31,-2.87,-2.87,378,297,205,460,317,28
741,0.96,-0.31,-0.01,0.98,-2.99,-2.69,380,293,202,460,321,28
742,0.95,-0.3,-0.02,-0.55,-2.99,-2.5,377,292,207,453,317,28
743,0.96,-0.31,-0.02,0.37,-2.62,-2.2,380,297,202,458,319,28
744,0.96,-0.3,-0.03,0.18,-2.01,-2.87,379,295,201,455,318,28
745,0.96,-0.31,-0.03,0.79,-2.93,-2.26,378,291,200,463,315,28
746,0.96,-0.3,-0.03,0.37,-2.93,-3.17,380,292,196,463,312,28
747,0.96,-0.31,-0.03,0.12,-2.99,-0.12,378,293,210,459,321,28
748,0.96,-0.31,-0.04,-0.55,-4.46,0.55,412,294,208,450,318,28
749,0.95,-0.29,-0.0,2.62,-2.26,-3.66,377,298,203,454,320,28
750,0.95,-0.3,-0.01,2.87,-1.77,-4.27,377,294,209,457,320,28
751,0.95,-0.3,-0.02,0.49,-1.95,-3.48,376,298,204,458,318,28
752,0.96,-0.3,-0.02,0.37,-2.99,-2.75,376,292,200,460,315,28
753,0.96,-0.3,-0.02,0.85,-3.78,-3.11,377,297,208,461,319,28
754,0.97,-0.3,-0.03,-0.73,-2.93,-2.87,375,296,207,457,321,28
755,0.96,-0.3,-0.03,-0.61,-2.01,-2.99,371,294,212,459,323,28
756,0.94,-0.3,-0.03,-0.73,-3.11,-2.62,379,300,204,461,317,28
757,0.95,-0.29,-0.03,0.18,-3.72,-2.99,383,295,207,454,320,28
758,0.95,-0.29,-0.04,-0.31,-3.05,-1.16,375,291,197,458,321,28
759,0.96,-0.29,-0.03,0.85,-2.69,-2.5,374,293,201,455,315,28
760,0.97,-0.29,-0.03,0.85,-2.2,-3.3,373,292,204,458,320,28
761,0.95,-0.29,-0.03,2.44,-1.83,-5.0,374,298,209,458,317,28
762,0.96,-0.28,-0.03,1.71,-4.21,-3.3,374,296,210,456,321,28
763,0.95,-0.29,-0.03,0.18,-3.05,-2.75,374,292,210,458,319,28
764,0.96,-0.28,-0.03,0.06,-2.38,-3.23,375,291,202,453,324,28
765,0.98,-0.27,-0.04,-0.61,-4.09,-2.93,377,296,207,458,316,28
766,0.97,-0.27,-0.03,0.18,-2.32,-3.91,372,290,210,452,321,28
767,0.96,-0.28,-0.04,-0.85,-2.93,-3.36,375,293,208,456,319,28
768,0.97,-0.27,-0.03,0.18,-2.87,-1.46,377,295,210,461,322,28
769,0.96,-0.28,-0.04,1.53,-2.08,-2.81,371,294,206,460,319,28
770,0.96,-0.27,-0.02,0.18,-2.62,-2.08,376,298,209,459,319,28
771,0.96,-0.28,-0.03,-0.43,-2.38,-2.81,379,293,206,459,321,28
772,0.96,-0.28,-0.03,0.43,-2.93,-2.69,378,288,211,458,323,28
773,0.96,-0.28,-0.03,0.31,-2.87,-2.75,377,292,205,469,318,28
774,0.97,-0.28,-0.02,-0.73,-3.66,-4.52,376,295,202,459,327,28
775,0.97,-0.28,-0.03,0.55,-2.32,-1.83,385,290,200,456,317,28
776,0.96,-0.28,-0.03,-0.24,-3.42,-3.11,377,294,206,456,321,28
777,0.93,-0.29,-0.04,0.43,-5.13,-1.71,382,293,209,451,320,28
778,0.98,-0.26,-0.07,-5.74,-2.5,-4.94,378,294,213,457,322,28
779,0.95,-0.28,0.01,0.31,-1.77,1.59,379,292,209,458,322,28
780,0.94,-0.28,-0.0,2.26,-2.56,0.12,380,294,210,454,321,28
781,0.95,-0.28,-0.01,-0.31,-0.49,-1.34,377,295,205,458,320,28
782,0.97,-0.27,-0.02,0.61,-7.63,-2.56,376,296,209,453,320,28
783,0.97,-0.26,-0.04,2.14,-4.46,-3.54,377,300,205,456,323,28
784,0.94,-0.29,-0.03,1.83,-2.62,-0.73,376,288,207,456,320,28
785,0.95,-0.3,-0.04,-1.1,-2.69,-2.14,372,296,204,461,320,28
786,0.93,-0.3,-0.03,0.06,-3.42,-0.92,373,295,208,461,320,28
787,0.94,-0.29,-0.03,-0.73,-4.21,-4.58,372,290,208,459,314,28
788,0.97,-0.27,-0.04,2.14,-1.1,-2.38,371,299,214,456,316,28
789,0.97,-0.28,-0.04,1.53,-1.95,-1.77,376,297,209,456,319,28
790,0.97,-0.29,-0.03,1.28,-2.01,-0.79,382,293,212,460,320,28
791,0.95,-0.3,-0.03,-0.55,-1.71,-0.61,382,293,207,456,321,28
792,0.95,-0.31,-0.03,0.67,-3.72,-2.93,379,296,209,455,319,28
793,0.95,-0.3,-0.02,0.98,-8.67,-0.24,381,295,205,458,322,28
794,0.93,-0.29,-0.05,-0.18,-3.36,-0.31,376,293,204,462,320,28
795,0.98,-0.24,0.01,1.34,-0.55,-6.96,377,295,212,457,315,28
796,0.95,-0.28,-0.04,-2.69,0.98,-4.64,380,296,210,455,317,28
797,0.96,-0.27,-0.05,-2.44,-1.89,0.12,372,297,219,456,333,28
798,0.97,-0.26,-0.04,-1.4,-5.49,-2.38,379,298,208,456,316,28
799,0.96,-0.26,-0.05,-0.31,-1.95,1.71,377,294,205,459,321,28
800,0.97,-0.25,-0.05,0.24,-6.59,-2.01,373,293,202,453,322,28
801,0.96,-0.26,-0.05,1.16,-4.94,-4.09,372,288,206,458,317,28
802,0.96,-0.26,-0.06,1.77,-3.97,-1.65,374,293,207,452,322,28
803,0.98,-0.26,-0.06,1.89,-2.87,-2.81,375,296,209,452,319,28
804,0.98,-0.27,-0.07,10.74,-2.01,2.62,378,297,213,460,320,28
805,0.92,-0.31,-0.07,2.01,-1.83,-5.13,373,295,214,454,319,28
806,0.94,-0.33,-0.05,-1.46,-0.85,-0.67,365,293,209,459,322,28
807,0.96,-0.33,-0.04,-1.89,-2.26,3.3,373,293,214,455,314,28
808,0.98,-0.34,-0.06,-0.55,-5.55,-6.47,372,293,207,459,321,28
809,0.96,-0.32,-0.06,1.53,-1.95,-4.15,371,292,212,457,317,28
810,0.96,-0.34,-0.07,3.42,-1.77,-2.75,375,296,210,458,322,28
811,0.95,-0.35,-0.06,5.74,-2.56,2.62,369,293,204,454,322,28
812,0.91,-0.36,-0.04,-4.94,-3.54,-7.39,374,289,215,458,321,28
813,0.96,-0.33,-0.06,0.55,-2.62,-2.32,375,295,206,456,320,28
814,0.96,-0.32,-0.08,-3.85,-1.65,-6.53,371,293,203,460,318,28
815,0.91,-0.32,-0.07,-0.43,-1.83,-7.45,372,297,205,456,322,28
816,0.95,-0.33,-0.09,1.16,-1.16,-4.33,367,295,205,453,320,28
817,0.94,-0.33,-0.08,-0.92,-1.34,-6.41,372,293,208,455,320,28
818,0.98,-0.31,-0.08,0.37,-3.05,-4.82,375,298,204,459,321,28
819,0.94,-0.33,-0.07,1.46,-2.99,-2.75,374,289,210,462,321,28
820,0.95,-0.32,-0.07,1.1,-3.54,-2.62,370,294,210,452,322,28
821,0.93,-0.34,-0.07,-1.04,-3.6,1.65,371,295,206,455,319,28
822,0.94,-0.32,-0.06,0.37,-3.54,-2.99,370,294,209,455,321,28
823,0.96,-0.31,-0.06,-0.55,-4.88,-4.82,368,292,198,456,318,28
824,0.95,-0.3,-0.06,2.32,-0.67,-3.05,369,293,209,451,320,28
825,0.97,-0.29,-0.07,0.49,-4.27,0.06,368,296,209,460,316,28
826,0.95,-0.31,-0.09,2.87,-9.64,5.19,370,286,207,459,324,28
827,0.94,-0.34,-0.05,8.73,-2.01,-2.62,371,294,205,455,315,28
828,0.95,-0.33,-0.06,-0.79,-3.05,-1.34,371,293,210,457,316,28
829,0.94,-0.35,-0.11,-10.38,-4.7,1.71,370,295,205,458,317,28
830,0.94,-0.37,-0.06,1.65,1.22,-1.16,368,292,207,453,320,28
831,0.95,-0.34,-0.07,5.86,-0.55,-2.81,368,288,212,456,322,28
832,0.94,-0.32,-0.01,0.18,-3.23,-2.38,370,294,209,457,318,28
833,0.98,-0.32,-0.06,0.67,-1.53,-6.29,369,310,206,459,318,28
834,0.93,-0.34,-0.0,0.92,5.37,2.69,402,294,198,459,317,28
835,0.93,-0.36,-0.03,-3.78,-1.16,-0.55,384,297,204,454,322,28
836,0.96,-0.37,-0.01,-0.61,-3.6,-5.62,388,298,205,460,321,28
837,0.93,-0.36,-0.01,0.61,-3.3,-2.75,391,294,213,455,324,28
838,0.92,-0.32,0.0,9.4,-7.81,-1.89,387,291,209,455,324,28
839,0.91,-0.37,0.0,4.39,-3.72,-0.49,386,298,209,456,321,28
840,0.93,-0.35,-0.01,0.67,-4.21,-4.15,384,298,205,455,317,28
841,0.96,-0.34,-0.04,-0.98,-2.99,-2.75,382,299,206,461,321,28
842,0.94,-0.36,-0.04,0.49,-3.17,-3.66,382,294,210,451,324,28
843,0.92,-0.36,-0.02,0.12,-2.26,-5.07,375,292,211,460,322,28
844,0.93,-0.35,-0.0,2.75,-3.72,-0.49,371,294,206,453,319,28
845,0.96,-0.36,-0.01,3.85,-3.97,-2.38,378,297,212,456,321,28
846,0.96,-0.34,-0.0,2.26,-3.17,-1.71,376,298,207,456,317,28
847,0.93,-0.36,0.01,1.16,-1.46,-0.79,374,297,210,459,326,28
848,0.93,-0.38,-0.02,-0.24,-3.3,-2.38,373,297,206,455,320,28
849,0.91,-0.38,-0.01,-0.06,-2.56,-4.15,376,297,209,467,321,28
850,0.95,-0.36,0.02,-1.77,2.69,-1.65,377,297,207,455,322,28
851,0.93,-0.39,0.03,-0.61,-3.05,-2.5,389,297,208,462,325,28
852,0.92,-0.37,0.01,0.43,-3.91,-3.72,388,297,214,451,320,28
853,0.96,-0.36,0.01,-0.55,-3.3,-1.22,387,293,211,452,326,28
854,0.93,-0.36,0.01,1.22,-2.69,-4.09,381,296,209,460,321,28
855,0.93,-0.35,0.01,-0.49,-2.08,-0.79,385,302,209,457,320,28
856,0.93,-0.37,0.01,1.83,-2.44,-6.23,378,298,209,453,313,28
857,0.93,-0.37,0.0,-3.72,-0.18,-1.59,389,295,207,462,322,28
858,0.91,-0.38,0.02,-1.59,-2.32,-3.3,389,297,213,454,324,28
859,0.94,-0.37,0.01,-0.43,-2.26,-3.42,390,303,206,456,323,28
860,0.93,-0.37,0.02,0.85,-3.11,-1.4,396,298,209,459,324,28
861,0.93,-0.36,0.04,2.2,-2.44,-1.4,392,295,209,454,323,28
862,0.91,-0.38,0.01,0.18,-3.6,-4.03,394,302,207,462,323,28
863,0.94,-0.37,0.01,2.14,-4.03,-1.83,393,301,206,459,325,28
864,0.9,-0.38,0.0,-2.14,-3.54,-3.3,391,297,200,460,326,28
865,0.93,-0.36,-0.0,2.38,-2.81,-3.78,395,300,205,455,324,28
866,0.93,-0.37,0.01,1.95,-2.93,-0.85,394,300,209,456,326,28
867,0.93,-0.36,0.02,0.24,-2.38,0.18,394,291,208,457,323,28
868,0.95,-0.36,0.03,0.43,-0.55,0.49,397,299,210,460,323,28
869,0.93,-0.38,0.01,-3.3,-1.34,-4.76,392,300,210,459,325,28
870,0.92,-0.36,0.01,-1.53,-1.16,-4.88,391,299,216,458,324,28
871,0.94,-0.37,0.02,-2.75,-2.5,-3.05,389,297,212,462,322,28
872,0.91,-0.36,-0.02,-5.62,-3.91,-8.12,383,298,209,454,326,28
873,0.94,-0.34,-0.03,-5.0,-2.56,-6.59,381,297,198,456,322,28
874,0.96,-0.33,-0.0,-0.61,-1.46,-4.09,386,292,210,458,323,28
875,0.94,-0.32,0.01,-1.53,-0.79,-1.83,397,298,208,459,327,28
876,0.96,-0.32,-0.0,-0.43,-2.08,-0.43,442,301,212,458,320,28
877,0.95,-0.31,0.03,-1.04,-3.91,-2.26,409,304,207,455,323,28
878,0.96,-0.31,0.01,1.59,-5.68,-4.46,409,305,215,456,319,28
879,0.95,-0.32,-0.02,0.37,-3.17,-1.95,409,303,211,458,322,28
880,0.96,-0.32,-0.02,-0.73,-3.17,-2.69,407,305,213,452,323,28
881,0.96,-0.32,-0.02,-0.06,-3.54,-2.01,406,302,211,454,318,28
882,0.94,-0.32,-0.02,1.4,-2.5,-2.99,407,302,224,453,323,28
883,0.96,-0.32,-0.02,-0.73,-3.72,-3.54,405,303,210,462,322,28
884,0.95,-0.32,-0.03,1.28,-3.11,-3.97,399,303,211,460,321,28
885,0.97,-0.3,-0.03,-1.1,-2.38,-2.14,395,302,211,457,334,28
886,0.93,-0.31,-0.03,0.37,-3.6,-2.75,392,300,212,456,322,28
887,0.94,-0.31,-0.04,-0.73,-4.39,-3.42,391,306,204,470,322,28
888,0.94,-0.32,-0.04,1.59,-4.94,-2.08,382,304,209,458,325,28
889,0.95,-0.31,-0.04,1.04,-4.21,-2.93,384,305,214,454,318,28
890,0.96,-0.31,-0.05,0.24,-3.23,-2.08,381,306,212,454,322,28
891,0.94,-0.32,-0.04,-1.04,-1.28,-2.69,384,305,227,456,324,28
892,0.95,-0.32,-0.03,1.71,-0.85,-1.16,377,305,212,455,320,28
893,0.93,-0.33,-0.03,-0.24,-0.37,-1.95,384,305,204,458,325,28
894,0.94,-0.33,-0.01,-0.24,-3.17,-1.34,386,305,217,460,317,28
895,0.94,-0.34,-0.03,1.1,-5.68,-2.69,384,305,209,458,323,28
896,0.95,-0.33,-0.02,1.71,-4.58,-4.03,385,305,214,464,320,28
897,0.94,-0.33,-0.02,1.53,-2.62,-3.17,384,302,212,459,319,28
898,0.95,-0.32,-0.02,-15.44,-3.17,-3.48,383,303,208,457,321,28
899,0.96,-0.32,-0.02,1.16,-2.81,-2.26,383,305,203,457,318,28
900,0.94,-0.33,-0.02,2.26,-2.14,-1.65,377,306,214,457,317,28
901,0.93,-0.35,-0.01,0.0,-1.95,-0.55,380,305,210,457,323,28
902,0.94,-0.36,-0.02,-0.37,-2.44,-2.08,375,303,206,456,325,28
903,0.93,-0.37,-0.02,0.06,-2.62,-2.26,377,302,213,456,323,28
904,0.95,-0.37,-0.02,3.17,-4.58,-1.1,378,306,210,462,323,28
905,0.93,-0.37,-0.01,5.92,-3.72,-0.61,377,308,217,457,323,28
906,0.94,-0.38,0.01,6.84,-5.31,-1.16,377,305,211,458,324,28
907,0.96,-0.37,-0.0,3.17,-3.3,-2.08,377,306,210,459,324,28
908,0.91,-0.37,0.02,1.46,-1.71,-0.18,377,303,210,458,322,28
909,0.94,-0.38,0.01,2.5,-4.94,-4.39,376,304,216,453,322,28
910,0.9,-0.4,-0.01,-0.24,-3.91,-0.49,374,311,212,459,322,28
911,0.9,-0.41,0.0,0.31,-4.27,-3.17,373,305,215,451,326,28
912,0.92,-0.37,-0.02,0.49,-4.39,-4.03,387,305,211,457,324,28
913,0.92,-0.38,-0.01,1.4,-3.23,-3.23,381,305,200,461,325,28
914,0.93,-0.38,-0.02,1.16,-2.87,-1.28,374,306,212,462,318,28
915,0.93,-0.37,-0.01,1.16,-3.78,-0.61,380,303,212,469,321,28
916,0.91,-0.38,-0.01,-5.86,0.06,2.56,378,300,202,458,324,28
917,0.93,-0.38,0.0,-1.4,-5.07,-4.7,376,302,214,459,324,28
918,0.94,-0.38,-0.03,-2.87,-2.08,-2.93,372,305,211,461,325,28
919,0.94,-0.38,-0.02,-1.22,-2.62,-2.81,369,305,207,461,321,28
920,0.85,-0.41,0.02,-9.28,-11.17,7.39,375,302,213,458,321,28
921,0.9,-0.41,-0.02,-2.69,-1.53,1.83,371,304,217,456,319,28
922,0.91,-0.43,-0.05,4.88,-4.82,-1.65,369,304,215,457,322,28
923,0.9,-0.43,-0.03,7.14,-10.44,-0.24,369,302,215,456,322,28
924,0.95,-0.42,-0.01,6.47,-12.39,-2.44,373,306,210,456,323,28
925,0.9,-0.45,0.02,8.42,1.4,-2.93,369,304,214,458,322,28
926,0.88,-0.44,0.0,-0.92,-4.21,-7.63,371,302,206,457,324,28
927,0.92,-0.41,0.03,-1.28,-4.82,-2.75,372,305,207,460,328,28
928,0.88,-0.45,-0.02,-4.76,-1.46,-3.78,371,302,206,461,325,28
929,0.92,-0.4,-0.02,0.31,-3.42,-4.82,374,302,210,455,325,28
930,0.93,-0.41,-0.02,2.99,-1.28,-4.46,370,305,208,460,327,28
931,0.91,-0.41,0.01,4.88,-3.78,-2.26,373,302,206,456,320,28
932,0.94,-0.39,-0.0,1.4,-5.74,-6.23,365,304,213,456,323,28
933,0.9,-0.39,0.01,2.99,-4.76,-4.21,366,303,209,451,324,28
934,0.91,-0.38,0.0,2.01,-4.09,-5.19,372,308,213,460,321,28
935,0.95,-0.35,-0.0,1.28,-4.27,-2.2,371,307,209,457,326,28
936,0.95,-0.36,-0.02,1.89,-3.66,-4.76,374,307,209,457,335,28
937,0.94,-0.36,-0.01,1.22,-2.87,-1.71,369,306,210,464,326,28
938,0.95,-0.35,-0.01,0.79,-6.1,-5.8,397,305,216,457,324,28
939,0.94,-0.33,0.0,-1.1,-3.72,-1.22,371,303,209,458,319,28
940,0.96,-0.32,-0.04,1.28,-3.85,-4.21,367,300,214,456,322,28
941,0.96,-0.34,-0.02,1.46,2.38,1.22,375,302,201,458,324,28
942,0.93,-0.37,-0.01,0.98,-0.85,1.46,374,303,212,456,322,28
943,0.93,-0.37,0.0,1.71,-2.93,-3.78,373,307,210,451,325,28
944,0.91,-0.37,0.02,-0.79,-2.75,-1.46,376,302,209,453,325,28
945,0.94,-0.35,0.02,0.92,-3.78,-4.15,371,301,215,454,326,28
946,0.96,-0.33,-0.0,-3.23,-2.87,-4.03,371,307,205,457,324,28
947,0.95,-0.34,0.01,0.12,-2.81,-3.17,376,308,215,463,322,28
948,0.94,-0.35,-0.01,-2.32,-1.46,-0.67,373,300,213,457,321,28
949,0.99,-0.34,0.01,1.04,-2.93,0.67,372,300,213,460,324,28
950,0.94,-0.35,-0.01,-0.67,-4.09,-3.66,369,303,209,452,324,28
951,0.95,-0.33,-0.01,-0.92,-3.85,-1.83,372,302,214,458,326,28
952,0.96,-0.33,-0.01,-2.14,-3.97,-4.03,370,303,205,456,327,28
953,0.95,-0.33,-0.02,0.06,-2.69,-2.75,378,303,205,454,328,28
954,0.94,-0.34,-0.02,-1.53,-1.95,-3.48,371,303,215,459,325,28
955,0.95,-0.32,-0.01,2.93,-2.99,-4.7,373,301,203,459,326,28
956,0.93,-0.33,-0.01,-0.43,-3.78,-1.65,369,302,214,455,326,28
957,0.93,-0.33,-0.02,-0.98,-2.69,-0.67,370,297,217,456,325,28
958,0.95,-0.31,-0.0,0.0,-3.36,-1.77,372,302,215,461,328,28
959,0.95,-0.31,-0.01,-0.49,-4.15,-1.22,371,308,211,450,328,28
960,0.93,-0.33,-0.03,0.79,-6.59,2.75,377,298,211,454,326,28
961,0.93,-0.32,-0.03,-1.16,-5.68,-4.09,371,302,210,459,330,28
962,0.95,-0.31,-0.04,-1.4,-1.89,-6.9,376,314,204,451,327,28
963,0.94,-0.32,-0.02,1.34,-1.34,-0.49,382,306,211,452,327,28
964,0.93,-0.33,-0.04,4.21,-2.01,-4.52,390,313,210,458,323,28
965,0.91,-0.32,-0.01,0.55,-5.25,-0.24,389,306,208,458,322,28
966,0.92,-0.35,-0.03,-0.73,-1.34,-1.22,388,308,210,451,328,28
967,0.95,-0.33,-0.04,-1.28,-2.08,-7.87,385,307,199,446,326,28
968,0.96,-0.31,-0.02,-1.71,-1.53,-2.44,383,303,206,457,330,28
969,0.94,-0.33,-0.02,-0.43,-4.21,-0.49,383,305,215,456,325,28
970,0.94,-0.33,-0.02,-1.65,-1.77,-0.24,384,305,215,458,327,28
971,0.96,-0.32,-0.05,-0.79,-1.83,-3.91,370,308,213,453,328,28
972,0.94,-0.32,-0.05,0.43,-5.0,-5.0,377,300,212,460,329,28
973,0.95,-0.32,-0.04,-0.98,-2.69,-3.72,375,304,214,456,322,28
974,0.94,-0.32,-0.03,-0.85,-3.6,-2.2,375,303,209,459,329,28
975,0.97,-0.31,-0.05,-0.37,-3.3,-3.78,372,306,210,457,327,28
976,0.95,-0.32,-0.05,1.16,-2.32,-3.3,374,307,216,457,329,28
977,0.92,-0.33,-0.03,-3.3,-3.3,-3.05,376,306,216,455,326,28
978,0.95,-0.33,-0.03,2.01,-3.91,0.49,370,307,205,452,328,28
979,0.94,-0.33,-0.02,1.22,-2.14,-0.31,374,309,216,447,326,28
980,0.94,-0.34,-0.01,-0.06,0.06,-0.73,383,306,205,453,324,28
981,0.98,-0.33,-0.04,-3.23,-1.22,-7.08,388,307,214,457,327,28
982,0.93,-0.34,-0.01,1.83,-2.2,-1.28,403,312,213,462,322,28
983,0.96,-0.32,-0.03,3.6,-3.85,-4.82,401,303,210,461,330,28
984,0.93,-0.34,-0.03,1.46,-4.27,-2.69,397,304,212,458,328,28
985,0.94,-0.33,-0.01,2.56,-3.91,-0.18,394,308,202,454,326,28
986,0.93,-0.34,-0.03,2.01,-4.09,-1.34,398,304,202,458,331,28
987,0.95,-0.33,-0.03,0.24,-4.21,-2.99,392,304,212,449,326,28
988,0.95,-0.33,-0.03,2.08,-2.99,-2.26,385,300,220,458,328,28
989,0.95,-0.33,-0.03,0.31,-2.69,-2.62,385,306,216,450,327,28
990,0.95,-0.33,-0.02,0.73,-3.48,-3.3,383,308,209,452,327,28
991,0.95,-0.33,-0.03,1.04,-3.17,-2.14,382,306,213,455,327,28
992,0.94,-0.33,-0.03,0.31,-3.05,-3.42,389,308,215,454,328,28
993,0.95,-0.33,-0.03,0.55,-3.54,-1.71,384,307,212,450,324,28
994,0.95,-0.33,-0.03,0.61,-2.62,-2.75,381,305,207,452,326,28
995,0.95,-0.33,-0.03,1.46,-3.17,-2.26,385,305,205,452,325,28
996,0.94,-0.33,-0.03,1.46,-2.2,-1.4,378,303,213,457,326,28
997,0.94,-0.32,-0.02,1.34,-3.54,-2.5,378,305,212,459,320,28
998,0.95,-0.33,-0.02,0.06,-2.08,-2.75,378,308,216,456,327,28
999,0.94,-0.33,-0.03,0.24,-2.26,-3.11,379,300,214,455,326,28
1000,0.97,-0.32,-0.01,1.04,-1.46,-1.04,379,300,208,451,327,28
1001,0.92,-0.34,-0.02,4.15,-1.65,2.38,376,300,216,456,329,28
1002,0.93,-0.35,-0.04,-4.82,0.37,-5.25,380,306,218,454,329,28
1003,0.94,-0.34,-0.03,1.4,-3.05,-1.1,378,310,212,458,322,28
1004,0.96,-0.33,-0.02,0.61,-4.76,-4.46,384,306,220,454,325,28
1005,0.93,-0.33,-0.04,0.12,-2.75,-5.0,379,305,203,454,329,28
1006,0.93,-0.32,-0.02,0.18,-2.26,0.67,380,302,199,459,330,28
1007,0.95,-0.33,-0.03,2.01,-3.23,-1.77,373,311,214,455,326,28
1008,0.96,-0.31,-0.03,-0.49,-2.81,-3.3,374,304,210,459,324,28
1009,0.95,-0.32,-0.01,-0.43,-3.05,-2.81,364,307,214,458,324,28
1010,0.95,-0.31,-0.03,3.23,-1.65,-5.8,366,305,212,459,328,28
1011,1.0,-0.3,-0.33,28.08,-8.85,-8.12,228,247,165,411,356,28
1012,0.79,-0.38,-0.49,64.27,-43.46,-5.43,405,262,159,428,319,28
1013,0.78,-0.46,-0.4,27.1,-4.39,-3.42,410,259,154,433,333,28
1014,0.82,-0.49,-0.4,7.45,-3.36,-6.9,408,261,158,435,336,28
1015,0.77,-0.49,-0.38,0.49,-8.97,2.81,406,259,161,441,339,28
1016,0.78,-0.47,-0.4,-1.1,-4.09,-2.26,403,259,164,442,342,28
1017,0.77,-0.48,-0.39,3.42,-2.08,-2.26,399,262,168,434,343,28
1018,0.77,-0.49,-0.4,0.43,-3.54,-1.95,427,261,162,441,340,28
1019,0.77,-0.48,-0.42,1.22,-2.99,-2.93,394,260,165,446,344,28
1020,0.75,-0.48,-0.41,-2.01,-1.53,-4.27,394,259,166,435,345,28
1021,0.76,-0.48,-0.42,1.16,-2.32,-1.16,395,260,168,438,344,28
1022,0.77,-0.48,-0.41,-0.49,-1.95,-1.46,392,261,166,444,340,28
1023,0.77,-0.47,-0.42,-1.71,-3.23,-1.53,385,258,168,441,342,28
1024,0.77,-0.48,-0.42,-0.98,-2.2,-3.48,388,259,168,443,346,28
1025,0.77,-0.47,-0.42,0.49,-3.6,-2.81,388,261,169,441,345,28
1026,0.76,-0.47,-0.42,-0.37,-3.11,-1.77,387,262,169,442,346,28
1027,0.77,-0.48,-0.43,0.24,-1.83,-3.97,387,259,168,442,342,28
1028,0.77,-0.46,-0.41,2.44,-1.1,-1.89,387,260,172,443,347,28
1029,0.78,-0.48,-0.42,2.14,-2.93,-2.32,387,258,168,440,346,28
1030,0.77,-0.47,-0.4,0.92,-2.81,-3.42,383,259,174,441,349,28
1031,0.78,-0.48,-0.4,0.0,-3.42,-2.5,387,259,173,441,348,28
1032,0.78,-0.49,-0.39,-1.53,-2.81,-3.11,379,259,174,442,346,28
1033,0.78,-0.48,-0.4,0.73,-2.93,-1.77,384,260,174,446,342,28
1034,0.77,-0.48,-0.4,0.31,-2.5,-2.93,385,260,174,442,348,28
1035,0.79,-0.47,-0.39,-0.43,-2.32,-2.75,383,261,172,442,348,28
1036,0.79,-0.47,-0.41,0.55,-2.69,-2.56,384,259,171,445,344,28
1037,0.78,-0.47,-0.4,2.01,-1.77,-3.3,381,260,174,444,347,28
1038,0.78,-0.47,-0.4,0.67,-2.62,-2.81,384,260,171,443,347,28
1039,0.79,-0.46,-0.39,0.43,-2.08,-2.14,387,264,171,446,346,28
1040,0.78,-0.47,-0.39,0.98,-3.17,-2.69,384,258,175,446,343,28
1041,0.79,-0.47,-0.39,0.49,-3.17,-3.54,380,259,175,442,348,28
1042,0.79,-0.48,-0.4,-1.89,-2.2,-2.87,384,261,174,439,351,28
1043,0.79,-0.47,-0.4,1.04,-3.36,-3.17,381,264,171,447,346,28
1044,0.79,-0.47,-0.4,-0.49,-3.85,-3.05,385,260,173,445,347,28
1045,0.83,-0.48,-0.45,0.31,-2.2,-3.23,385,263,176,444,347,28
1046,0.79,-0.47,-0.4,0.61,-1.46,-3.85,385,262,179,437,351,28
1047,0.78,-0.47,-0.39,1.34,-3.17,-2.14,383,261,173,443,351,28
1048,0.79,-0.46,-0.39,0.06,-2.2,-2.87,386,260,177,445,350,28
1049,0.79,-0.47,-0.4,0.85,-2.81,-2.32,387,262,177,442,351,28
1050,0.78,-0.46,-0.39,0.85,-2.5,-1.95,385,262,176,443,354,28
1051,0.78,-0.47,-0.37,-1.53,-1.65,-3.91,387,261,177,445,350,28
1052,0.8,-0.47,-0.41,0.67,-2.2,-2.99,381,257,180,438,350,28
1053,0.8,-0.46,-0.4,0.18,-2.01,-2.62,385,263,179,441,353,28
1054,0.8,-0.45,-0.39,0.24,-2.62,-2.56,381,264,179,444,353,28
1055,0.8,-0.45,-0.38,1.04,-2.44,-2.99,384,269,179,444,355,28
1056,0.8,-0.46,-0.38,0.79,-2.62,-2.99,383,262,182,441,355,28
1057,0.81,-0.49,-0.39,-0.24,-2.2,-3.05,379,267,177,444,355,28
1058,0.8,-0.46,-0.39,0.24,-2.87,-2.62,382,262,180,445,354,28
1059,0.8,-0.46,-0.39,-0.37,-3.6,-2.56,380,261,180,447,353,28
1060,0.79,-0.45,-0.39,0.31,-3.54,-2.56,381,264,182,443,354,28
1061,0.79,-0.45,-0.4,0.49,-2.26,-3.17,380,262,178,453,353,28
1062,0.79,-0.44,-0.39,0.92,-2.81,-1.77,378,267,179,440,354,28
1063,0.8,-0.46,-0.38,-1.65,-2.44,-3.05,379,264,179,439,349,28
1064,0.8,-0.45,-0.4,1.65,-3.11,-2.44,388,264,179,446,353,28
1065,0.8,-0.45,-0.38,-0.55,-2.87,-2.81,378,260,180,444,353,28
1066,0.8,-0.46,-0.39,-1.77,-3.48,-3.54,379,262,183,444,353,28
1067,0.79,-0.47,-0.38,0.0,0.98,-4.27,380,261,181,456,355,28
1068,0.78,-0.47,-0.39,3.85,-2.44,-2.62,380,263,185,443,352,28
1069,0.82,-0.49,-0.41,0.12,-0.85,-0.98,377,262,182,448,355,28
1070,0.81,-0.48,-0.39,-0.49,0.61,-12.76,381,263,183,444,355,28
1071,0.81,-0.44,-0.41,-3.72,-2.93,-3.85,382,263,185,443,353,28
1072,0.8,-0.45,-0.42,-2.2,-3.97,-1.46,381,265,184,442,354,28
1073,0.8,-0.43,-0.4,11.11,-5.55,-5.37,381,264,183,438,350,28
1074,0.8,-0.42,-0.37,-2.38,-0.12,-1.83,381,264,182,446,353,28
1075,0.8,-0.39,-0.35,-5.62,3.6,-6.16,380,264,185,445,355,28
1076,0.8,-0.41,-0.36,-1.83,-3.23,0.06,381,264,181,440,353,28
1077,0.83,-0.43,-0.42,1.04,-2.99,-1.53,381,261,180,446,351,28
1078,0.81,-0.43,-0.39,0.67,-2.26,-0.85,382,262,185,442,354,28
1079,0.81,-0.43,-0.39,0.24,-2.08,-1.46,381,262,183,442,353,28
1080,0.81,-0.42,-0.37,-1.59,-3.05,-3.17,383,265,185,438,355,28
1081,0.8,-0.42,-0.37,0.79,-2.81,-1.59,383,263,183,444,352,28
1082,0.82,-0.43,-0.39,-0.24,-1.77,-3.48,379,266,181,445,348,28
1083,0.83,-0.43,-0.39,-0.73,-3.97,-5.0,387,266,183,445,354,28
1084,0.82,-0.41,-0.39,0.92,-4.46,-3.23,381,266,183,442,353,28
1085,0.83,-0.42,-0.39,4.27,-2.08,0.06,376,264,185,441,353,28
1086,0.82,-0.42,-0.38,-0.85,-3.54,-3.3,383,265,183,442,352,28
1087,0.81,-0.42,-0.37,-2.26,-3.42,-1.83,381,264,186,445,353,28
1088,0.83,-0.41,-0.38,0.06,-1.59,-2.14,380,265,183,438,354,28
1089,0.82,-0.4,-0.37,-1.95,-2.69,-0.79,380,266,183,442,351,28
1090,0.82,-0.41,-0.38,-0.12,-1.77,-2.08,379,266,185,438,354,28
1091,0.81,-0.41,-0.35,-2.44,-6.96,-2.81,382,265,185,445,357,28
1092,0.86,-0.39,-0.36,-1.77,-6.77,-6.59,382,264,181,445,356,28
1093,0.81,-0.41,-0.41,-0.98,-2.26,-5.31,375,268,183,444,355,28
1094,0.79,-0.41,-0.44,-12.08,2.32,-0.55,377,270,187,440,353,28
1095,0.79,-0.44,-0.42,-0.24,-3.48,-5.86,374,262,188,437,353,28
1096,0.85,-0.4,-0.38,0.43,2.26,1.46,374,265,184,438,355,28
1097,0.85,-0.41,-0.42,-13.67,1.65,-7.45,376,267,183,441,353,28
1098,0.82,-0.46,-0.44,1.89,-0.98,-1.16,376,265,183,446,355,28
1099,0.82,-0.42,-0.32,2.87,-2.75,3.66,375,267,184,445,354,28
1100,0.85,-0.42,-0.34,1.83,-2.08,-1.77,375,263,185,440,353,28
1101,0.85,-0.43,-0.34,0.31,-2.93,-2.14,373,268,184,444,355,28
1102,0.83,-0.42,-0.32,0.92,-1.4,-2.5,375,265,186,439,353,28
1103,0.82,-0.44,-0.32,-0.12,-4.82,-3.72,378,266,185,442,354,28
1104,0.84,-0.43,-0.35,1.34,-1.34,-4.03,373,269,184,441,353,28
1105,0.84,-0.42,-0.33,0.73,-3.23,-3.36,375,265,187,437,356,28
1106,0.85,-0.43,-0.34,2.14,-3.48,-3.54,374,264,186,441,354,28
1107,0.85,-0.43,-0.33,1.83,-3.48,-3.6,376,268,186,444,354,28
1108,0.86,-0.44,-0.38,-0.06,-0.37,-3.91,375,265,187,445,353,28
1109,0.84,-0.42,-0.31,-0.49,-4.21,-1.59,377,265,188,445,353,28
1110,0.86,-0.43,-0.33,3.23,-2.62,-3.42,375,267,183,441,354,28
1111,0.84,-0.43,-0.32,-0.98,-3.78,-2.75,375,270,185,442,351,28
1112,0.84,-0.43,-0.32,0.18,-3.91,-2.75,378,267,189,442,354,28
1113,0.84,-0.43,-0.32,-0.55,-1.95,-3.48,375,265,195,445,353,28
1114,0.84,-0.43,-0.31,0.0,-2.32,-2.69,376,265,196,441,354,28
1115,0.84,-0.43,-0.31,0.92,-2.44,-2.75,377,265,187,439,357,28
1116,0.85,-0.43,-0.31,0.0,-3.36,-3.23,376,269,187,441,351,28
1117,0.82,-0.44,-0.31,-1.53,-4.39,-1.95,377,265,187,453,355,28
1118,0.78,-0.44,-0.31,7.08,-2.62,-4.7,374,260,191,441,354,28
1119,0.83,-0.43,-0.27,-0.18,0.18,-2.5,374,268,190,456,355,28
1120,0.83,-0.44,-0.34,-2.44,-1.4,2.2,372,266,189,442,355,28
1121,0.84,-0.42,-0.31,-1.77,-1.34,-3.11,376,266,200,441,353,28
1122,0.85,-0.42,-0.3,0.37,-3.48,-1.89,376,266,188,439,356,28
1123,0.86,-0.42,-0.3,3.05,-2.14,-2.44,378,267,191,445,352,28
1124,0.89,-0.44,-0.31,0.12,-2.81,-3.3,376,267,189,445,354,28
1125,0.86,-0.42,-0.3,1.59,-5.0,-1.28,372,269,186,439,355,28
1126,0.86,-0.42,-0.3,1.46,-2.2,-3.48,378,265,183,442,350,28
1127,0.85,-0.43,-0.3,2.44,-2.75,-3.17,378,265,188,442,355,28
1128,0.85,-0.42,-0.3,0.0,-3.66,-3.17,376,268,185,442,352,28
1129,0.85,-0.42,-0.29,0.85,-2.01,-2.87,376,264,189,443,355,28
1130,0.85,-0.43,-0.29,1.04,-2.69,-2.93,375,265,188,436,347,28
1131,0.84,-0.43,-0.29,1.04,-6.16,-2.62,379,266,189,443,353,28
1132,0.85,-0.42,-0.3,-0.37,-2.32,-1.22,378,266,190,445,356,28
1133,0.85,-0.42,-0.3,-0.55,-3.42,-2.75,378,266,191,443,351,28
1134,0.85,-0.43,-0.31,1.1,-3.66,-3.97,377,265,188,436,351,28
1135,0.84,-0.42,-0.31,0.73,-2.69,-2.01,376,269,186,442,355,28
1136,0.83,-0.43,-0.31,-1.83,-2.44,-1.59,378,266,188,442,354,28
1137,0.84,-0.43,-0.29,-1.59,-2.93,-2.69,376,264,184,436,353,28
1138,0.84,-0.47,-0.31,-0.18,-4.82,-6.9,374,269,186,445,352,28
1139,0.88,-0.42,-0.31,0.61,-2.99,-2.93,379,268,197,438,356,28
1140,0.87,-0.42,-0.31,0.49,-3.3,-2.81,375,269,191,442,356,28
1141,0.85,-0.42,-0.29,1.95,-0.79,-0.85,377,268,190,445,355,28
1142,0.84,-0.42,-0.28,1.71,-2.2,0.79,378,265,192,442,355,28
1143,0.87,-0.42,-0.31,-1.04,0.61,-0.18,379,265,186,440,355,28
1144,0.87,-0.42,-0.32,0.85,-3.85,-3.17,376,265,190,450,365,28
1145,0.87,-0.42,-0.31,-1.71,-2.01,-3.42,379,265,188,441,356,28
1146,0.86,-0.42,-0.3,-0.61,-2.81,-2.01,378,265,190,454,354,28
1147,0.85,-0.42,-0.3,-1.46,-2.69,-2.2,375,268,191,443,352,28
1148,0.8,-0.44,-0.28,-1.89,-2.62,-2.08,379,265,188,440,354,28
1149,0.85,-0.44,-0.34,-0.79,-3.3,-3.48,378,264,189,444,350,28
1150,0.85,-0.43,-0.31,-4.03,-2.81,-0.06,378,269,187,442,354,28
1151,0.84,-0.43,-0.3,-3.78,-3.85,1.16,378,263,193,442,353,28
1152,0.85,-0.43,-0.3,-2.56,-5.55,0.61,375,268,189,447,353,28
1153,0.86,-0.44,-0.3,3.11,1.53,-0.24,376,266,193,438,354,28
1154,0.83,-0.45,-0.3,-2.56,-3.3,-4.76,377,268,189,446,357,28
1155,0.81,-0.44,-0.29,1.34,-4.58,-4.33,377,266,192,445,353,28
1156,0.83,-0.44,-0.31,-0.43,-4.52,-2.56,378,266,189,445,350,28
1157,0.83,-0.44,-0.31,-3.6,-2.69,-3.42,379,268,188,441,350,28
1158,0.86,-0.45,-0.34,0.73,-2.87,-2.5,380,270,191,438,352,28
1159,0.86,-0.43,-0.31,-0.67,-3.05,-4.09,375,268,193,443,353,28
1160,0.87,-0.43,-0.32,0.37,0.12,-3.42,380,266,189,438,354,28
1161,0.86,-0.43,-0.3,0.85,-2.32,-2.69,372,266,190,441,355,28
1162,0.86,-0.43,-0.29,0.18,-2.5,-2.99,378,268,190,442,352,28
1163,0.85,-0.43,-0.3,-0.92,-3.54,-2.62,383,269,187,442,353,28
1164,0.86,-0.44,-0.29,-0.24,-2.99,-2.56,396,266,187,437,355,28
1165,0.85,-0.44,-0.3,-1.4,-4.64,-1.59,379,270,192,447,347,28
1166,0.84,-0.44,-0.3,-0.73,-3.78,-1.95,381,263,185,442,355,28
1167,0.84,-0.43,-0.29,-0.55,-2.14,-2.69,377,268,190,437,352,28
1168,0.84,-0.44,-0.29,1.53,-2.2,-2.99,378,266,190,443,353,28
1169,0.85,-0.44,-0.29,0.85,-2.44,-3.42,375,265,193,442,353,28
1170,0.85,-0.44,-0.29,1.04,-2.75,-3.05,382,264,190,442,357,28
1171,0.85,-0.44,-0.29,-0.06,-3.17,-2.38,378,267,190,437,353,28
1172,0.85,-0.44,-0.3,0.06,-2.62,-3.3,377,265,194,442,354,28
1173,0.85,-0.43,-0.3,0.92,-3.23,-2.81,374,266,194,442,352,28
1174,0.85,-0.43,-0.3,-0.06,-3.48,-3.17,376,268,194,442,355,28
1175,0.85,-0.43,-0.31,1.53,-1.04,-3.17,373,267,193,443,353,28
1176,0.85,-0.42,-0.3,2.01,-2.5,-2.14,377,266,195,437,347,28
1177,0.87,-0.42,-0.3,2.93,-0.73,-2.01,378,267,193,441,354,28
1178,0.86,-0.42,-0.29,0.85,-1.71,-1.71,377,268,193,442,355,28
1179,0.86,-0.43,-0.29,1.89,-3.11,-2.26,378,266,193,437,351,28
1180,0.87,-0.42,-0.29,0.55,-3.97,-2.99,373,267,193,443,353,28
1181,0.86,-0.42,-0.3,1.1,-4.09,-3.23,374,267,191,440,353,28
1182,0.86,-0.42,-0.31,1.53,-0.85,-3.54,374,267,201,444,352,28
1183,0.86,-0.42,-0.3,-0.12,-2.38,-3.6,363,267,192,442,351,28
1184,0.87,-0.42,-0.3,0.85,-2.81,-1.53,376,267,193,442,354,28
1185,0.87,-0.42,-0.31,0.92,-2.81,-4.09,373,266,192,451,351,28
1186,0.86,-0.42,-0.29,1.34,-3.3,-3.23,373,267,192,444,351,28
1187,0.85,-0.42,-0.29,0.12,-3.3,-3.3,373,267,192,442,352,28
1188,0.85,-0.42,-0.31,-0.67,-4.39,-3.05,374,269,194,443,355,28
1189,0.85,-0.41,-0.31,0.18,-3.3,-2.32,375,267,190,447,352,28
1190,0.85,-0.42,-0.31,0.24,-2.62,-2.32,374,269,191,457,354,28
1191,0.85,-0.42,-0.31,1.89,-2.01,-2.14,375,266,189,446,352,28
1192,0.85,-0.41,-0.3,-0.43,-2.56,-2.44,376,270,192,448,353,28
1193,0.86,-0.41,-0.3,0.12,-3.23,-1.71,375,269,195,445,351,28
1194,0.85,-0.41,-0.3,0.43,-3.05,-2.01,373,267,192,445,354,28
1195,0.85,-0.42,-0.3,0.61,-3.05,-2.32,376,271,193,442,354,28
1196,0.85,-0.41,-0.3,1.04,-4.09,-2.62,377,269,193,442,353,28
1197,0.86,-0.41,-0.32,1.59,-2.93,-2.32,376,269,191,445,353,28
1198,0.88,-0.43,-0.33,-0.31,-2.5,-3.78,373,268,192,443,352,28
1199,0.86,-0.41,-0.32,1.59,-3.05,-2.69,373,268,192,446,351,28
1200,0.85,-0.41,-0.3,1.4,-1.89,-2.99,375,269,191,442,352,28
1201,0.86,-0.41,-0.3,0.85,-2.75,-2.75,375,269,195,441,354,28
1202,0.86,-0.41,-0.32,1.95,-3.54,-2.14,375,268,193,442,350,28
1203,0.87,-0.41,-0.32,-0.06,-4.09,-2.5,375,268,193,444,354,28
1204,0.86,-0.41,-0.32,0.92,-4.21,-2.69,372,270,193,443,354,28
1205,0.86,-0.41,-0.32,1.59,-2.2,-2.44,376,269,193,446,350,28
1206,0.87,-0.41,-0.31,1.16,-2.5,-2.62,377,267,190,455,354,28
1207,0.86,-0.41,-0.3,-0.24,-2.69,-2.62,383,269,194,442,354,28
1208,0.86,-0.41,-0.31,-0.61,-2.38,-2.62,377,267,190,448,355,28
1209,0.84,-0.39,-0.3,1.89,-2.2,-2.56,375,267,192,442,349,28
1210,0.86,-0.4,-0.31,0.73,-3.23,-2.93,374,270,195,442,352,28
1211,0.86,-0.4,-0.31,1.53,-4.52,-2.62,375,267,196,446,353,28
1212,0.86,-0.4,-0.32,1.65,-3.23,-2.38,374,270,190,445,352,28
1213,0.86,-0.41,-0.31,0.73,-2.01,-2.5,376,268,189,443,348,28
1214,0.86,-0.41,-0.31,0.18,-2.87,-2.87,388,268,190,442,355,28
1215,0.85,-0.41,-0.31,0.24,-2.44,-2.08,374,268,192,446,357,28
1216,0.85,-0.41,-0.3,1.95,-2.32,-2.14,377,278,196,440,353,28
1217,0.84,-0.41,-0.31,-1.28,-4.21,-1.34,379,267,192,440,355,28
1218,0.85,-0.41,-0.31,-0.43,-3.85,-2.32,377,268,196,442,352,28
1219,0.86,-0.41,-0.31,-0.98,-2.32,-2.08,374,280,193,441,355,28
1220,0.86,-0.41,-0.31,0.0,-1.59,-2.01,377,268,190,438,353,28
1221,0.85,-0.41,-0.31,2.32,-2.56,-2.32,382,270,193,444,352,28
1222,0.86,-0.41,-0.3,1.71,-2.38,-2.32,378,269,194,443,353,28
1223,0.86,-0.42,-0.32,-0.18,-4.58,-4.88,380,272,192,442,351,28
1224,0.86,-0.41,-0.31,0.43,-4.58,-3.48,390,272,192,445,353,28
1225,0.84,-0.41,-0.3,-2.44,-6.1,-5.13,387,272,193,440,355,28
1226,0.85,-0.4,-0.3,-0.79,-3.85,-2.99,387,275,196,445,353,28
1227,0.87,-0.4,-0.31,2.62,-1.59,-2.99,384,272,197,437,354,28
1228,0.86,-0.41,-0.3,1.89,-2.69,-2.99,387,269,192,440,354,28
1229,0.86,-0.41,-0.31,1.34,-2.56,-2.99,386,273,193,441,353,28
1230,0.86,-0.4,-0.3,-0.37,-3.6,-1.89,386,274,193,442,352,28
1231,0.86,-0.41,-0.31,-0.12,-3.54,-3.42,383,270,194,444,353,28
1232,0.86,-0.4,-0.3,-1.22,-4.09,-2.69,393,276,192,438,353,28
1233,0.85,-0.4,-0.31,0.31,-2.5,-1.16,386,272,193,443,352,28
1234,0.86,-0.4,-0.31,0.06,-1.89,-2.62,390,274,197,441,353,28
1235,0.86,-0.4,-0.3,0.92,-1.83,-1.89,386,274,195,446,352,28
1236,0.87,-0.39,-0.3,-0.06,-2.62,-1.22,384,273,194,437,353,28
1237,0.87,-0.4,-0.3,0.31,-3.6,-1.89,386,271,194,443,351,28
1238,0.87,-0.4,-0.32,-1.4,-2.93,-3.85,386,274,194,454,354,28
1239,0.87,-0.39,-0.32,0.92,-5.25,-1.22,388,276,196,447,351,28
1240,0.85,-0.39,-0.33,-0.85,-3.3,-2.32,388,275,194,446,351,28
1241,0.85,-0.39,-0.32,0.12,-1.83,-2.56,385,272,194,441,355,28
1242,0.86,-0.39,-0.31,0.0,-4.27,-3.54,386,272,196,442,354,28
1243,0.86,-0.39,-0.3,-1.65,-2.32,-2.38,386,269,192,443,352,28
1244,0.86,-0.39,-0.31,-0.37,-2.99,-2.75,385,272,196,444,354,28
1245,0.85,-0.39,-0.29,0.43,-2.38,-2.93,386,275,194,442,354,28
1246,0.85,-0.39,-0.3,0.24,-2.69,-2.87,386,279,195,445,354,28
1247,0.86,-0.39,-0.31,1.95,-2.2,-2.93,386,269,195,443,353,28
1248,0.86,-0.39,-0.31,0.37,-2.26,-2.5,384,272,194,439,356,28
1249,0.86,-0.4,-0.31,0.18,-3.42,-1.95,384,274,191,442,349,28
1250,0.86,-0.4,-0.31,-0.49,-3.17,-2.44,385,273,194,441,353,28
1251,0.86,-0.39,-0.31,-0.49,-4.15,-2.01,385,273,195,447,353,28
1252,0.86,-0.39,-0.31,0.37,-2.81,-2.26,384,272,195,442,352,28
1253,0.87,-0.39,-0.32,0.37,-2.01,-2.5,385,273,196,442,349,28
1254,0.86,-0.39,-0.31,-0.49,-2.87,-2.32,387,273,195,444,353,28
1255,0.85,-0.4,-0.32,0.18,-1.34,-2.87,387,271,194,437,353,28
1256,0.86,-0.4,-0.32,1.28,-2.32,-2.87,383,276,193,442,354,28
1257,0.89,-0.39,-0.31,-0.73,-2.81,-2.93,385,273,197,441,355,28
1258,0.86,-0.39,-0.32,-1.95,-4.46,-3.05,384,273,198,440,351,28
1259,0.86,-0.39,-0.33,-1.59,-3.11,-3.05,385,275,195,441,353,28
1260,0.86,-0.39,-0.3,0.06,-2.69,-2.2,383,271,193,438,354,28
1261,0.86,-0.4,-0.31,0.61,-3.05,-2.56,387,272,201,443,352,28
1262,0.86,-0.39,-0.31,0.55,-2.26,-2.99,380,274,193,441,353,28
1263,0.86,-0.39,-0.3,0.43,-2.5,-2.99,385,270,195,441,353,28
1264,0.86,-0.4,-0.31,0.73,-2.69,-2.69,385,276,191,445,353,28
1265,0.86,-0.39,-0.31,0.43,-3.11,-1.95,386,273,198,442,351,28
1266,0.86,-0.39,-0.3,-0.31,-3.36,-2.5,386,275,193,438,353,28
1267,0.86,-0.39,-0.31,-1.04,-4.21,-2.32,384,275,198,443,352,28
1268,0.85,-0.39,-0.32,-0.73,-3.11,-2.99,384,270,195,440,352,28
1269,0.86,-0.39,-0.32,0.37,-2.81,-2.81,379,272,197,441,350,28
1270,0.86,-0.39,-0.32,1.34,-2.56,-2.01,384,279,194,442,355,28
1271,0.86,-0.39,-0.31,0.67,-2.08,-3.23,379,272,195,442,355,28
1272,0.86,-0.39,-0.32,1.65,-2.93,-1.71,375,276,198,437,352,28
1273,0.87,-0.4,-0.33,0.85,-3.54,-1.89,379,275,190,439,355,28
1274,0.97,-0.42,-0.43,3.85,-9.16,1.95,383,275,195,441,352,28
1275,0.85,-0.39,-0.31,0.49,-2.87,-2.87,381,274,198,436,353,28
1276,0.87,-0.39,-0.31,0.55,-3.05,-2.62,381,275,194,444,350,28
1277,0.86,-0.39,-0.32,-0.12,-3.72,-1.77,381,275,196,440,354,28
1278,0.86,-0.39,-0.32,-0.31,-3.48,-2.56,379,276,196,441,353,28
1279,0.86,-0.4,-0.32,-0.24,-2.14,-2.26,381,276,198,444,353,28
1280,0.86,-0.39,-0.32,1.28,-2.5,-2.26,379,274,197,439,350,28
1281,0.86,-0.39,-0.31,0.85,-2.87,-2.32,382,277,193,437,355,28
1282,0.86,-0.39,-0.31,-1.83,-2.56,-2.5,378,275,196,440,351,28
1283,0.86,-0.4,-0.28,-0.85,-2.08,-2.38,380,275,192,444,354,28
1284,0.89,-0.41,-0.32,3.36,-4.58,-0.73,386,275,193,438,354,28
1285,0.86,-0.38,-0.3,1.89,-3.91,-1.89,380,274,195,436,354,28
1286,0.87,-0.39,-0.32,0.55,-4.09,-2.01,380,274,198,440,351,28
1287,0.86,-0.4,-0.33,-0.98,-1.77,-3.78,378,274,196,440,345,28
1288,0.86,-0.38,-0.31,-0.06,-2.62,-2.01,378,277,196,441,356,28
1289,0.86,-0.39,-0.3,1.22,-2.14,-2.5,378,276,196,438,355,28
1290,0.86,-0.39,-0.3,0.06,-2.44,-2.81,378,276,198,440,352,28
1291,0.87,-0.4,-0.32,-0.61,-2.75,-2.56,378,277,195,442,354,28
1292,0.86,-0.39,-0.31,-0.18,-2.44,-2.08,378,272,196,442,353,28
1293,0.87,-0.39,-0.31,0.98,-3.23,-2.56,377,273,196,441,353,28
1294,0.86,-0.39,-0.31,-0.06,-3.3,-1.83,377,274,195,437,354,28
1295,0.86,-0.39,-0.31,0.73,-3.66,-2.38,376,276,196,445,351,28
1296,0.87,-0.39,-0.33,1.4,-4.64,-1.59,378,275,201,441,354,28
1297,0.86,-0.38,-0.31,2.38,-1.22,-2.62,378,277,195,444,354,28
1298,0.86,-0.39,-0.32,1.71,-1.53,-2.93,379,274,198,442,354,28
1299,0.88,-0.41,-0.31,0.06,-2.99,-2.69,380,275,196,441,354,28
1300,0.86,-0.4,-0.31,-2.01,-2.62,-2.38,380,273,194,435,352,28
1301,0.87,-0.4,-0.32,-0.67,-3.6,-2.87,386,274,200,444,352,28
1302,0.87,-0.4,-0.32,1.16,-2.99,-2.93,379,272,192,438,354,28
1303,0.86,-0.4,-0.31,1.46,-2.32,-2.81,381,275,194,442,351,28
1304,0.86,-0.39,-0.31,1.22,-2.93,-1.89,375,274,196,437,356,28
1305,0.85,-0.39,-0.31,-0.55,-3.36,-2.81,380,282,196,442,354,28
1306,0.86,-0.4,-0.31,1.22,-2.75,-1.95,383,275,200,442,354,28
1307,0.87,-0.4,-0.32,-0.98,-2.69,-3.48,379,274,194,441,354,28
1308,0.87,-0.4,-0.31,0.49,-2.2,-3.3,379,273,196,438,354,28
1309,0.87,-0.4,-0.31,-0.43,-3.54,-3.6,380,277,195,444,358,28
1310,0.87,-0.39,-0.3,0.12,-2.56,-2.75,380,274,196,441,350,28
1311,0.86,-0.39,-0.3,0.0,-4.33,-2.75,376,286,198,442,353,28
1312,0.86,-0.39,-0.33,-0.67,-2.99,-2.26,391,273,195,441,353,28
1313,0.86,-0.39,-0.33,1.46,-1.22,-2.75,381,275,196,444,354,28
1314,0.86,-0.38,-0.31,1.83,-1.59,-2.32,380,278,198,440,354,28
1315,0.87,-0.39,-0.32,0.85,-1.77,-3.05,378,277,199,440,354,28
1316,0.86,-0.39,-0.31,2.44,-2.81,-2.2,375,273,199,444,355,28
1317,0.87,-0.39,-0.31,1.59,-2.62,-2.99,376,274,197,442,356,28
1318,0.86,-0.39,-0.31,-0.55,-2.75,-2.08,378,275,199,441,356,28
1319,0.86,-0.39,-0.31,1.04,-2.69,-1.4,378,288,197,441,351,28
1320,0.86,-0.39,-0.3,-0.06,-3.48,-2.75,377,275,197,440,357,28
1321,0.86,-0.39,-0.31,0.12,-4.21,-2.56,376,279,195,440,351,28
1322,0.85,-0.38,-0.31,-0.73,-3.6,-2.44,376,276,195,440,351,28
1323,0.86,-0.38,-0.33,-0.31,-2.56,-2.81,380,275,196,437,352,28
1324,0.86,-0.38,-0.32,-0.18,-2.81,-2.87,380,279,197,444,354,28
1325,0.86,-0.38,-0.32,-0.18,-2.81,-2.93,376,274,196,442,355,28
1326,0.86,-0.38,-0.32,2.08,-2.38,-2.08,371,276,196,436,354,28
1327,0.87,-0.39,-0.32,0.61,-2.44,-2.69,398,277,196,439,352,28
1328,0.87,-0.39,-0.32,-0.49,-2.5,-3.23,379,278,201,441,353,28
1329,0.86,-0.38,-0.31,2.2,-2.44,-3.05,378,275,195,437,352,28
1330,0.87,-0.38,-0.32,1.59,-3.72,-3.3,376,277,198,441,355,28
1331,0.86,-0.38,-0.32,-0.92,-3.66,-2.75,377,272,196,441,355,28
1332,0.86,-0.38,-0.32,-0.92,-3.42,-2.38,378,291,195,441,353,28
1333,0.87,-0.38,-0.34,1.53,-1.71,-3.72,376,278,200,445,354,28
1334,0.87,-0.39,-0.33,-0.24,-1.77,-2.75,377,275,197,439,354,28
1335,0.87,-0.38,-0.33,0.43,-2.75,-1.95,378,275,198,437,353,28
1336,0.86,-0.38,-0.31,0.49,-2.2,-2.87,378,275,200,443,353,28
1337,0.86,-0.39,-0.32,0.24,-2.75,-2.93,374,278,201,443,353,28
1338,0.86,-0.38,-0.31,0.24,-2.87,-2.14,378,275,200,441,353,28
1339,0.86,-0.38,-0.31,-0.43,-2.44,-2.08,379,274,198,440,349,28
1340,0.86,-0.38,-0.31,-0.55,-3.36,-2.5,374,276,197,441,353,28
1341,0.86,-0.38,-0.32,-0.92,-4.33,-2.62,377,279,200,442,354,28
1342,0.87,-0.38,-0.33,-0.06,-3.91,-3.42,378,276,200,445,352,28
1343,0.87,-0.38,-0.34,-0.85,-1.89,-2.81,382,275,197,440,354,28
1344,0.87,-0.38,-0.32,0.31,-1.28,-2.01,383,271,197,436,354,28
1345,0.87,-0.38,-0.31,2.2,-3.3,-1.83,372,276,200,436,356,28
1346,0.87,-0.38,-0.32,1.34,-3.17,-2.44,378,275,201,438,356,28
1347,0.86,-0.39,-0.32,-0.49,-2.56,-2.08,375,272,202,442,354,28
1348,0.87,-0.38,-0.32,0.55,-3.85,-3.11,374,275,200,441,353,28
1349,0.87,-0.38,-0.32,-0.55,-3.72,-2.99,377,275,195,444,351,28
1350,0.86,-0.38,-0.33,-0.31,-3.6,-2.44,415,275,198,445,355,28
1351,0.86,-0.38,-0.33,-0.18,-2.2,-2.44,378,274,199,441,351,28
1352,0.86,-0.38,-0.32,1.65,-2.32,-2.75,374,275,201,442,356,28
1353,0.87,-0.38,-0.31,0.67,-2.14,-2.44,378,278,197,440,351,28
1354,0.87,-0.38,-0.32,-0.37,-2.26,-2.2,377,276,200,442,351,28
1355,0.87,-0.38,-0.31,0.18,-4.27,-3.23,377,271,196,436,352,28
1356,0.86,-0.38,-0.32,0.92,-3.91,-3.23,378,276,195,440,355,28
1357,0.86,-0.37,-0.33,-1.77,-2.56,-2.44,375,278,195,444,354,28
1358,0.86,-0.38,-0.33,0.24,-2.26,-2.69,377,274,198,442,354,28
1359,0.87,-0.37,-0.31,1.4,-2.99,-2.14,377,277,200,444,351,28
1360,0.87,-0.37,-0.32,1.59,-1.95,-2.75,378,275,201,442,355,28
1361,0.87,-0.37,-0.32,-0.37,-2.87,-1.95,374,276,195,438,353,28
1362,0.87,-0.37,-0.32,1.16,-3.36,-2.56,378,278,196,443,350,28
1363,0.87,-0.37,-0.31,1.04,-3.17,-2.93,379,279,200,438,352,28
1364,0.87,-0.37,-0.32,-0.92,-3.97,-2.69,390,275,201,442,353,28
1365,0.87,-0.37,-0.34,0.55,-4.03,-2.38,372,278,199,442,350,28
1366,0.87,-0.37,-0.33,1.16,-2.56,-1.89,375,275,198,440,354,28
1367,0.86,-0.37,-0.33,0.61,-2.5,-2.44,379,277,204,444,355,28
1368,0.86,-0.37,-0.32,-0.55,-2.56,-2.99,379,276,198,439,352,28
1369,0.87,-0.37,-0.32,-0.79,-2.99,-2.38,377,279,197,442,355,28
1370,0.87,-0.37,-0.33,0.49,-3.11,-2.2,375,275,200,444,360,28
1371,0.87,-0.38,-0.34,1.22,-3.23,-2.26,379,277,201,444,354,28
1372,0.87,-0.37,-0.34,-0.37,-3.91,-2.81,379,276,201,441,351,28
1373,0.87,-0.37,-0.34,-0.49,-4.03,-3.17,376,277,198,442,355,28
1374,0.87,-0.37,-0.34,0.85,-2.44,-2.75,378,275,197,457,354,28
1375,0.86,-0.37,-0.32,0.55,-2.2,-2.44,376,278,198,446,354,28
1376,0.87,-0.37,-0.33,0.98,-1.95,-2.14,379,276,198,446,350,28
1377,0.87,-0.37,-0.32,0.12,-2.26,-1.95,378,278,202,443,355,28
1378,0.86,-0.38,-0.33,0.67,-2.32,-2.69,374,276,198,446,353,28
1379,0.86,-0.37,-0.32,-0.73,-5.13,-4.15,380,275,196,440,351,28
1380,0.87,-0.36,-0.32,-0.31,-3.78,-3.17,378,277,200,456,352,28
1381,0.87,-0.36,-0.33,1.22,-3.91,-2.62,379,276,201,446,354,28
1382,0.87,-0.37,-0.33,0.06,-2.38,-2.14,377,279,199,441,357,28
1383,0.86,-0.37,-0.33,-0.98,-3.17,-2.26,379,279,202,440,355,28
1384,0.87,-0.37,-0.33,0.43,-2.5,-2.38,377,276,193,438,355,28
1385,0.87,-0.37,-0.33,0.55,-2.62,-2.81,376,277,198,450,354,28
1386,0.87,-0.37,-0.33,-0.92,-2.56,-2.87,377,282,201,441,355,28
1387,0.87,-0.37,-0.33,1.83,-2.93,-3.42,376,277,199,437,354,28
1388,0.87,-0.37,-0.34,-0.18,-3.72,-2.62,376,278,198,443,354,28
1389,0.87,-0.37,-0.33,0.06,-2.93,-2.75,376,275,198,440,356,28
1390,0.87,-0.37,-0.33,1.1,-1.53,-3.05,377,278,202,440,353,28
1391,0.87,-0.36,-0.32,1.22,-2.2,-1.89,377,278,198,438,353,28
1392,0.88,-0.37,-0.33,0.98,-2.14,-2.62,376,279,199,436,352,28
1393,0.87,-0.37,-0.33,0.49,-2.81,-2.62,375,276,201,445,350,28
1394,0.87,-0.37,-0.32,0.61,-2.75,-2.69,376,286,202,436,353,28
1395,0.87,-0.37,-0.32,0.67,-2.81,-3.05,376,279,203,441,353,28
1396,0.87,-0.36,-0.33,2.14,-3.72,-2.32,377,277,197,437,353,28
1397,0.87,-0.36,-0.31,0.55,-3.17,-2.01,402,277,205,443,354,28
1398,0.87,-0.36,-0.33,1.83,-1.46,-3.54,374,276,201,436,351,28
1399,0.87,-0.37,-0.32,1.77,-1.53,-2.62,374,278,201,436,355,28
1400,0.87,-0.37,-0.32,-0.49,-2.14,-2.32,373,276,201,440,348,28
1401,0.87,-0.37,-0.32,-0.18,-2.75,-1.95,377,275,201,440,354,28
1402,0.87,-0.37,-0.32,-0.12,-2.2,-2.93,374,278,202,445,355,28
1403,0.87,-0.38,-0.33,2.14,-2.26,-2.69,375,274,198,446,353,28
1404,0.88,-0.37,-0.32,1.04,-3.66,-2.62,375,277,199,441,352,28
1405,0.88,-0.37,-0.33,-0.79,-3.36,-3.23,374,276,200,442,351,28
1406,0.86,-0.37,-0.33,-1.22,-1.53,-3.42,375,279,203,444,353,28
1407,0.87,-0.37,-0.33,-1.53,-2.44,-2.32,377,278,199,441,355,28
1408,0.87,-0.37,-0.33,-0.18,-2.56,-2.01,376,278,203,436,354,28
1409,0.87,-0.37,-0.32,0.85,-2.14,-2.2,374,276,199,441,353,28
1410,0.87,-0.37,-0.32,1.71,-2.87,-1.95,377,277,202,443,352,28
1411,0.87,-0.36,-0.31,0.55,-2.01,-2.56,375,276,202,444,354,28
1412,0.86,-0.37,-0.32,1.1,-3.42,-3.11,379,277,197,440,355,28
1413,0.91,-0.38,-0.34,-0.55,-5.49,-3.11,374,279,202,441,352,28
1414,0.87,-0.38,-0.35,-1.04,-3.78,-2.75,372,279,201,439,351,28
1415,0.87,-0.37,-0.32,1.4,-1.22,-2.99,377,280,203,435,353,28
1416,0.89,-0.37,-0.32,1.04,-2.5,-3.66,378,278,202,441,352,28
1417,0.88,-0.39,-0.32,-1.16,-1.89,-3.11,379,280,198,439,353,28
1418,0.86,-0.38,-0.29,1.4,-0.73,0.49,376,276,199,441,352,28
1419,0.87,-0.38,-0.31,-1.04,-2.62,-1.28,379,276,201,443,353,28
1420,0.88,-0.38,-0.32,1.89,-4.03,-1.77,377,277,199,442,354,28
1421,0.85,-0.38,-0.32,2.5,-3.42,-1.89,375,280,200,442,357,28
1422,0.86,-0.37,-0.33,0.24,-3.97,-2.93,379,279,199,439,354,28
1423,0.86,-0.37,-0.34,2.75,-1.28,-1.04,397,279,201,442,354,28
1424,0.88,-0.37,-0.34,2.2,-2.26,-2.87,378,278,199,440,355,28
1425,0.87,-0.37,-0.33,2.38,-1.89,-1.95,377,276,216,442,355,28
1426,0.85,-0.36,-0.29,3.91,2.56,-1.83,372,277,203,436,355,28
1427,0.86,-0.37,-0.31,-0.79,-1.95,-1.4,378,279,199,445,354,28
1428,0.88,-0.36,-0.3,-0.49,-2.5,-2.08,380,276,202,442,354,28
1429,0.87,-0.37,-0.33,0.79,-3.97,-3.23,377,274,201,445,354,28
1430,0.87,-0.37,-0.34,0.0,-4.33,-3.17,376,274,198,435,354,28
1431,0.87,-0.37,-0.34,-0.12,-4.27,-2.5,379,279,199,444,355,28
1432,0.87,-0.37,-0.33,-0.61,-2.5,-2.2,375,277,198,441,354,28
1433,0.87,-0.37,-0.32,-0.31,-2.69,-2.2,380,278,201,444,354,28
1434,0.88,-0.36,-0.33,-0.06,-1.83,-3.42,376,278,203,445,354,28
1435,0.88,-0.38,-0.34,0.67,-3.72,-4.46,377,277,202,441,353,28
1436,0.88,-0.37,-0.34,14.89,-4.76,-6.9,379,278,202,437,356,28
1437,0.88,-0.36,-0.32,0.92,-3.72,-2.01,379,281,191,440,354,28
1438,0.88,-0.36,-0.31,1.53,-2.75,-2.2,379,279,199,444,349,28
1439,0.89,-0.37,-0.34,-3.36,-6.41,-7.69,376,279,201,452,357,28
1440,0.87,-0.37,-0.35,-9.7,1.71,-6.16,378,276,200,436,353,28
1441,0.86,-0.38,-0.28,8.61,-2.93,0.61,379,276,203,444,348,28
1442,0.88,-0.38,-0.29,-0.31,-2.69,-1.59,377,277,207,436,352,28
1443,0.88,-0.36,-0.28,1.89,-4.82,-0.49,379,276,199,445,353,28
1444,0.85,-0.38,-0.28,6.59,-2.56,-0.79,377,279,199,440,354,28
1445,0.86,-0.39,-0.32,-2.99,-2.75,-0.37,377,277,203,446,352,28
1446,0.86,-0.39,-0.3,-1.22,-2.5,-1.77,380,277,202,441,356,28
1447,0.87,-0.38,-0.29,0.06,-3.42,-3.42,376,277,203,441,353,28
1448,0.87,-0.39,-0.31,-1.95,-3.23,-3.17,380,280,198,441,352,28
1449,0.87,-0.39,-0.31,0.85,-3.23,-2.69,379,279,199,442,352,28
1450,0.87,-0.39,-0.31,0.18,-3.42,-1.95,377,276,198,442,355,28
1451,0.87,-0.39,-0.31,1.4,-2.81,-2.75,377,276,203,443,353,28
1452,0.84,-0.4,-0.29,0.98,-1.77,-3.72,378,277,201,436,352,28
1453,0.87,-0.38,-0.3,-1.77,-2.62,-2.32,375,278,201,445,352,28
1454,0.86,-0.36,-0.28,2.62,-3.36,-2.93,381,279,200,441,358,28
1455,0.88,-0.37,-0.3,1.22,-3.66,-1.83,377,276,200,441,351,28
1456,0.88,-0.37,-0.31,0.98,-4.09,-1.53,385,277,200,442,355,28
1457,0.87,-0.37,-0.32,-1.59,-3.36,-2.01,381,280,203,440,359,28
1458,0.86,-0.36,-0.31,0.98,-4.88,-3.23,380,280,201,436,350,28
1459,0.88,-0.37,-0.31,-0.61,-2.38,-3.17,379,279,202,438,354,28
1460,0.88,-0.38,-0.31,-2.56,-1.71,-3.36,374,277,201,440,355,28
1461,0.88,-0.37,-0.32,-0.85,-2.08,-2.62,378,278,201,440,350,28
1462,0.88,-0.36,-0.31,-0.73,-3.3,-2.69,378,284,201,440,354,28
1463,0.88,-0.35,-0.3,-0.67,-2.75,-1.59,375,280,200,443,354,28
1464,0.87,-0.37,-0.3,-2.32,-2.08,-1.77,379,278,199,440,357,28
1465,0.88,-0.37,-0.32,-2.08,-2.93,-1.77,379,279,204,444,354,28
1466,0.88,-0.37,-0.3,-2.81,-2.87,-1.95,378,281,200,441,355,28
1467,0.88,-0.36,-0.31,0.85,-2.69,-1.77,372,275,204,445,355,28
1468,0.88,-0.36,-0.31,-0.37,-3.48,-1.89,383,279,197,439,351,28
1469,0.88,-0.36,-0.31,0.61,-3.48,-2.32,377,277,204,445,354,28
1470,0.87,-0.36,-0.3,-1.4,-3.17,-2.32,377,277,202,437,354,28
1471,0.88,-0.36,-0.31,0.18,-2.87,-2.69,374,276,202,439,351,28
1472,0.88,-0.36,-0.31,1.16,-2.87,-2.62,377,279,200,444,356,28
1473,0.88,-0.35,-0.31,0.98,-3.23,-2.62,378,275,203,437,354,28
1474,0.88,-0.35,-0.31,-0.37,-4.09,-2.62,382,278,202,440,353,28
1475,0.88,-0.36,-0.32,-2.01,-1.65,-4.15,379,276,203,444,353,28
1476,0.88,-0.35,-0.32,-0.49,-2.5,-2.75,382,277,199,442,354,28
1477,0.88,-0.36,-0.32,1.46,-2.08,-2.14,379,278,201,439,352,28
1478,0.88,-0.35,-0.31,0.55,-1.95,-3.17,377,281,204,440,354,28
1479,0.88,-0.36,-0.32,-0.55,-2.62,-2.38,378,280,200,447,356,28
1480,0.87,-0.35,-0.3,-0.12,-2.81,-2.08,377,277,200,445,349,28
1481,0.88,-0.36,-0.31,0.98,-2.56,-2.69,379,272,201,446,358,28
1482,0.88,-0.36,-0.31,0.31,-3.48,-2.69,385,277,201,444,358,28
1483,0.89,-0.35,-0.32,-0.06,-3.97,-2.87,373,279,201,440,354,28
1484,0.88,-0.35,-0.32,0.85,-3.91,-2.99,377,277,199,446,355,28
1485,0.88,-0.36,-0.33,-0.49,-2.44,-2.62,376,282,201,440,357,28
1486,0.87,-0.34,-0.31,0.98,-3.05,-1.77,375,277,204,441,353,28
1487,0.88,-0.35,-0.31,1.04,-2.38,-2.2,376,275,204,443,352,28
1488,0.87,-0.35,-0.3,0.85,-1.28,-1.83,373,277,201,444,350,28
1489,0.88,-0.35,-0.31,1.04,-3.17,-2.08,373,278,204,441,350,28
1490,0.87,-0.35,-0.31,0.61,-2.62,-1.89,376,276,203,440,353,28
1491,0.87,-0.35,-0.31,-0.73,-4.94,-2.87,376,280,203,438,354,28
1492,0.89,-0.36,-0.33,-0.73,-3.66,-3.17,388,278,205,443,357,28
1493,0.88,-0.35,-0.33,0.67,-3.6,-3.23,376,276,202,437,360,28
1494,0.88,-0.38,-0.3,-1.46,-0.61,-3.72,376,278,200,437,354,28
1495,0.87,-0.35,-0.32,-0.31,-0.79,-3.6,378,276,204,441,355,28
1496,0.87,-0.34,-0.3,0.61,-3.48,-1.65,372,278,203,445,355,28
1497,0.88,-0.35,-0.32,0.73,-1.89,-2.38,376,280,200,440,354,28
1498,0.86,-0.34,-0.27,0.73,0.0,-0.73,376,277,200,441,347,28
1499,0.89,-0.34,-0.31,-1.16,-2.56,-3.97,377,276,202,438,355,28
1500,0.88,-0.35,-0.31,-2.14,-1.83,-4.27,376,277,204,443,357,28
1501,0.89,-0.35,-0.33,-0.31,-2.99,-2.62,377,276,202,455,355,28
1502,0.88,-0.34,-0.32,0.73,-2.69,-2.5,377,277,206,435,355,28
1503,0.89,-0.35,-0.32,0.98,-2.5,-1.77,379,277,201,444,355,28
1504,0.89,-0.35,-0.32,0.98,-3.3,-2.93,377,277,202,438,357,28
1505,0.88,-0.35,-0.33,1.28,-3.42,-2.87,374,277,201,437,356,28
1506,0.88,-0.35,-0.32,1.16,-2.93,-2.81,378,277,203,441,352,28
1507,0.9,-0.35,-0.33,0.61,-2.26,0.24,378,274,203,441,352,28
1508,0.89,-0.37,-0.31,2.69,-1.16,-2.75,376,276,202,430,348,28
1509,0.86,-0.36,-0.27,-3.23,-3.48,-2.62,377,277,202,441,355,28
1510,0.89,-0.37,-0.29,-0.31,-1.34,-1.04,376,280,206,445,354,28
1511,0.89,-0.36,-0.29,-0.31,-3.97,-5.31,375,278,203,443,355,28
1512,0.89,-0.34,-0.28,2.75,-2.14,-3.42,372,279,204,445,356,28
1513,0.89,-0.35,-0.32,-0.24,-4.39,-2.62,375,276,203,442,354,28
1514,0.88,-0.36,-0.31,1.77,-2.62,-1.65,374,280,201,438,356,28
1515,0.88,-0.36,-0.3,0.67,-2.62,-1.77,377,280,202,444,360,28
1516,0.87,-0.37,-0.3,-0.61,-3.05,-2.2,376,289,199,439,356,28
1517,0.87,-0.36,-0.27,2.81,-2.5,-1.71,380,275,202,438,354,28
1518,0.9,-0.35,-0.29,0.43,-2.56,-2.99,378,278,208,442,354,28
1519,0.89,-0.37,-0.32,0.37,-2.69,-2.26,379,276,203,441,354,28
1520,0.87,-0.37,-0.31,0.55,-3.17,-2.44,378,277,208,442,354,28
1521,0.88,-0.37,-0.31,-0.06,-2.87,-1.4,405,292,204,437,352,28
1522,0.87,-0.38,-0.31,-0.06,-2.26,-1.4,380,279,205,441,354,28
1523,0.88,-0.38,-0.3,0.0,-3.48,-3.72,379,281,201,439,355,28
1524,0.93,-0.42,0.23,0.92,-2.44,-10.38,420,319,242,453,329,28
1525,0.89,-0.41,0.24,-7.32,5.13,-1.83,428,321,243,451,326,28
1526,0.91,-0.39,0.22,-17.94,-9.83,-8.42,423,324,243,454,330,28
1527,0.91,-0.4,0.2,3.91,-3.36,0.49,426,326,245,455,331,28
1528,0.9,-0.4,0.22,2.01,-3.42,-1.34,424,322,243,455,334,28
1529,0.9,-0.4,0.22,0.92,-2.32,-2.93,427,326,245,460,333,28
1530,0.9,-0.4,0.22,-1.1,-3.05,-2.56,423,325,246,458,335,28
1531,0.9,-0.4,0.23,-1.1,-3.3,-2.62,423,326,242,454,335,28
1532,0.88,-0.41,0.22,1.22,-2.38,-3.05,422,327,243,450,337,28
1533,0.88,-0.42,0.21,-2.01,-1.89,-1.95,423,326,241,459,333,28
1534,0.9,-0.41,0.2,0.98,-2.44,-2.69,421,326,246,458,337,28
1535,0.89,-0.41,0.22,0.98,-2.5,-2.44,424,329,244,456,337,28
1536,0.88,-0.41,0.22,1.22,-2.81,-2.93,422,329,243,454,334,28
1537,0.89,-0.41,0.21,1.04,-3.36,-2.14,421,324,244,461,338,28
1538,0.89,-0.43,0.22,-3.72,-4.7,-0.43,420,327,244,455,342,28
1539,0.89,-0.41,0.22,0.06,-3.48,-2.62,418,330,246,456,336,28
1540,0.9,-0.4,0.21,0.37,-2.44,-2.2,450,329,241,459,336,28
1541,0.89,-0.42,0.21,-1.22,-1.34,-2.26,411,327,244,458,340,28
1542,0.92,-0.4,0.22,0.18,-0.18,-7.75,414,328,244,460,336,28
1543,0.89,-0.39,0.21,-2.38,-0.98,-6.1,417,331,243,456,341,28
1544,0.9,-0.37,0.21,1.34,-5.07,-1.34,411,326,243,453,337,28
1545,0.88,-0.41,0.23,0.12,-3.11,-0.79,418,329,246,458,335,28
1546,0.88,-0.39,0.24,-0.92,-3.72,-0.06,417,328,246,460,340,28
1547,0.89,-0.39,0.23,-1.46,-1.53,-2.5,417,327,245,452,340,28
1548,0.92,-0.38,0.21,0.37,-1.89,-3.17,420,329,244,456,339,28
1549,0.88,-0.41,0.2,2.38,-5.13,-2.32,420,325,249,456,339,28
1550,0.9,-0.4,0.2,-0.31,-2.44,-4.09,417,332,244,456,340,28
1551,0.91,-0.36,0.23,-5.25,1.95,-4.46,419,345,245,456,340,28
1552,0.91,-0.36,0.22,1.1,-4.58,-3.48,416,329,244,452,340,28
1553,0.91,-0.38,0.23,0.79,-4.39,-1.89,418,328,249,450,338,28
1554,0.9,-0.38,0.22,0.61,-5.07,-0.31,416,328,246,451,339,28
1555,0.89,-0.38,0.21,-0.61,-0.79,-3.54,417,330,247,456,335,28
1556,0.89,-0.39,0.22,-0.12,-0.49,-2.56,416,329,244,457,340,28
1557,0.92,-0.35,0.24,1.83,-3.11,-1.4,418,329,247,460,339,28
1558,0.92,-0.38,0.22,0.49,-3.85,-1.77,417,331,245,459,340,28
1559,0.9,-0.38,0.22,-0.06,-2.44,-1.95,422,327,244,456,338,28
1560,0.93,-0.35,0.21,-3.36,-2.01,-1.89,418,333,249,457,339,28
1561,0.91,-0.34,0.25,-5.25,-1.04,-3.66,414,329,247,456,335,28
1562,0.91,-0.35,0.23,-0.67,-2.87,-4.46,417,330,247,451,340,28
1563,0.91,-0.33,0.22,3.72,-3.48,-1.65,418,330,247,454,341,28
1564,0.91,-0.38,0.23,1.71,-2.5,-3.85,414,329,247,457,342,28
1565,0.9,-0.41,0.19,0.12,-2.81,-6.1,417,328,247,456,342,28
1566,0.9,-0.35,0.22,0.31,-3.85,0.31,413,333,246,460,342,28
1567,0.92,-0.36,0.19,3.78,-4.82,-0.79,417,333,248,452,340,28
1568,0.92,-0.39,0.19,-1.34,-1.53,-4.21,416,330,248,454,340,28
1569,0.9,-0.37,0.21,1.83,-2.93,-1.4,417,331,248,456,340,28
1570,0.92,-0.39,0.2,2.69,-5.8,-2.56,414,330,248,456,342,28
1571,0.93,-0.35,0.21,-2.32,-2.2,-0.43,406,332,253,452,340,28
1572,0.91,-0.37,0.21,0.12,-1.28,-3.6,416,329,250,458,338,28
1573,0.92,-0.37,0.19,2.99,-3.54,-3.17,413,334,248,455,340,28
1574,0.94,-0.33,0.21,1.77,0.67,-5.13,417,330,246,456,339,28
1575,0.94,-0.29,0.26,1.59,4.82,-4.82,419,329,245,452,343,28
1576,0.94,-0.33,0.23,0.37,-5.55,-2.62,416,329,248,456,342,28
1577,0.93,-0.33,0.22,-1.89,-3.72,-1.89,429,332,247,460,340,28
1578,0.9,-0.36,0.22,2.26,-3.17,-2.56,416,331,249,459,343,28
1579,0.92,-0.37,0.2,1.16,-3.48,-2.62,416,334,247,456,341,28
1580,0.92,-0.33,0.22,2.26,-3.17,-1.77,418,331,247,454,343,28
1581,0.92,-0.34,0.25,-1.71,-1.46,-1.59,418,331,245,454,344,28
1582,0.93,-0.32,0.2,5.98,-5.37,-0.73,417,330,246,459,341,28
1583,0.92,-0.34,0.23,0.79,-0.61,-3.3,416,330,243,455,343,28
1584,0.95,-0.33,0.22,-1.95,-3.91,-2.32,417,333,249,454,341,28
1585,0.91,-0.37,0.22,1.71,-3.05,-2.99,417,336,249,455,342,28
1586,0.89,-0.38,0.23,-2.32,-2.87,-4.27,428,331,248,456,342,28
1587,0.94,-0.32,0.22,-1.59,-1.65,-3.42,413,329,249,451,341,28
1588,0.91,-0.34,0.2,4.21,-5.86,-2.56,418,328,245,456,342,28
1589,0.92,-0.34,0.23,0.49,0.06,-1.77,415,331,248,454,342,28
1590,0.93,-0.32,0.24,-0.55,-4.21,-3.66,417,331,247,453,341,28
1591,0.94,-0.32,0.2,-0.98,-3.85,-3.54,415,330,248,459,344,28
1592,0.94,-0.33,0.21,5.68,-5.37,-2.01,419,330,251,458,341,28
1593,0.94,-0.33,0.23,-1.28,-2.75,-1.16,429,331,244,454,344,28
1594,0.91,-0.35,0.23,-0.06,-3.6,-3.17,418,334,247,455,344,28
1595,0.93,-0.34,0.22,-2.38,-1.77,-3.72,413,333,246,458,342,28
1596,0.91,-0.35,0.23,2.26,-2.26,-3.66,416,333,249,457,343,28
1597,0.94,-0.35,0.23,5.0,-2.93,-4.27,419,331,247,450,346,28
1598,0.93,-0.32,0.22,0.85,-4.09,-2.08,416,336,248,455,344,28
1599,0.93,-0.33,0.21,1.34,-3.42,-2.81,413,334,248,451,342,28
1600,0.92,-0.34,0.22,3.17,-2.69,-4.88,417,334,249,457,345,28
1601,0.93,-0.33,0.24,1.95,-2.81,-3.66,420,334,248,455,346,28
1602,0.93,-0.33,0.22,-0.12,-3.66,-2.81,417,332,244,459,346,28
1603,0.91,-0.32,0.24,-0.12,-1.65,-2.26,417,331,247,458,347,28
1604,0.93,-0.32,0.23,1.1,-4.64,-1.95,416,330,246,456,344,28
1605,0.91,-0.35,0.23,1.16,-0.67,-3.36,411,328,247,455,346,28
1606,0.93,-0.33,0.23,-0.06,-3.3,-3.05,418,332,248,459,346,28
1607,0.91,-0.35,0.24,-3.36,-1.95,-3.6,417,332,248,454,347,28
1608,0.93,-0.33,0.22,-1.65,-4.46,-3.54,417,331,253,457,346,28
1609,0.93,-0.32,0.22,-3.42,-0.61,-3.72,418,335,248,457,349,28
1610,0.92,-0.33,0.23,0.67,-5.55,-1.4,416,332,249,451,342,28
1611,0.91,-0.35,0.22,-0.31,-1.65,-2.26,419,334,259,454,342,28
1612,0.95,-0.35,0.21,-7.32,-1.53,-4.33,416,333,250,456,347,28
1613,0.94,-0.35,0.22,0.24,0.92,-3.17,417,333,246,454,346,28
1614,0.93,-0.33,0.24,-0.31,-3.91,-1.22,415,337,248,452,346,28
1615,0.93,-0.33,0.24,1.89,-3.54,-1.1,443,335,248,449,347,28
1616,0.89,-0.35,0.23,-2.14,-1.83,-4.64,418,333,259,451,343,28
1617,0.88,-0.34,0.25,-2.75,-0.24,-7.32,419,333,247,457,345,28
1618,0.95,-0.34,0.23,5.37,-8.18,4.27,416,334,247,453,346,28
1619,0.95,-0.29,0.21,-0.79,-1.65,0.98,415,332,246,453,345,28
1620,0.91,-0.32,0.22,0.43,-1.71,-4.15,415,334,251,455,346,28
1621,0.94,-0.31,0.2,5.13,-3.6,-3.66,417,336,244,451,343,28
1622,0.92,-0.34,0.22,-2.93,0.61,-3.97,413,331,247,456,346,28
1623,0.92,-0.33,0.23,1.77,-4.64,-0.43,417,334,247,455,348,28
1624,0.91,-0.33,0.24,-3.3,-1.77,-6.59,416,331,251,458,348,28
1625,0.91,-0.33,0.22,-3.23,-3.11,-5.98,414,335,244,458,347,28
1626,0.94,-0.3,0.21,1.22,-5.0,-2.38,414,332,248,449,347,28
1627,0.93,-0.32,0.21,0.79,-3.23,-2.5,413,335,250,454,347,28
1628,0.93,-0.33,0.2,-1.04,-3.42,-3.78,415,335,245,449,347,28
1629,0.92,-0.34,0.18,7.32,-1.04,-3.48,411,334,243,454,350,28
1630,0.97,-0.34,0.19,-1.34,-4.76,-3.42,414,334,244,452,344,28
1631,0.92,-0.32,0.21,2.75,-3.23,-3.42,417,334,242,449,347,28
1632,0.92,-0.32,0.21,0.24,-3.3,-1.89,416,336,246,454,350,28
1633,0.96,-0.3,0.22,-2.08,-3.36,-3.48,415,331,247,451,348,28
1634,0.92,-0.32,0.2,1.4,-4.27,-2.2,414,337,244,454,344,28
1635,0.93,-0.33,0.22,-0.67,0.12,-3.48,415,339,243,456,348,28
1636,0.94,-0.34,0.2,-2.26,-4.64,-3.11,411,334,242,458,347,28
1637,0.92,-0.33,0.21,-3.48,-1.83,-4.03,413,332,244,454,352,28
1638,0.92,-0.33,0.19,0.0,-3.23,-2.99,414,335,242,453,351,28
1639,0.92,-0.32,0.2,1.59,-3.36,-1.65,414,334,242,456,349,28
1640,0.92,-0.33,0.2,-0.18,-1.34,-4.09,430,341,241,449,351,28
1641,0.93,-0.31,0.24,-1.46,-2.26,-3.42,416,335,246,455,349,28
1642,0.93,-0.32,0.24,0.24,-3.54,-1.89,412,333,245,453,348,28
1643,0.95,-0.29,0.22,-2.69,-2.87,-2.2,417,332,250,454,346,28
1644,0.94,-0.28,0.24,0.61,-3.3,-0.49,414,337,248,454,348,28
1645,0.94,-0.32,0.22,2.81,-4.7,-1.89,416,335,245,451,348,28
1646,0.93,-0.33,0.2,-1.28,-3.42,-3.6,418,333,243,453,353,28
1647,0.92,-0.32,0.2,0.61,-3.91,-2.81,411,337,247,455,350,28
1648,0.94,-0.31,0.21,1.04,-2.2,-2.75,416,339,245,458,350,28
1649,0.92,-0.31,0.22,0.37,-2.81,-2.69,414,335,248,453,350,28
1650,0.91,-0.31,0.23,1.59,-2.62,-2.32,414,335,248,454,352,28
1651,0.94,-0.31,0.2,0.31,-2.32,-1.28,415,334,247,454,352,28
1652,0.91,-0.33,0.2,-2.69,-0.43,-4.52,414,334,248,461,351,28
1653,0.95,-0.3,0.22,4.52,-5.25,-1.1,414,334,243,458,351,28
1654,0.94,-0.33,0.21,-0.06,-3.6,-4.21,417,339,248,455,347,28
1655,0.91,-0.36,0.19,1.16,-2.32,-6.29,415,337,245,452,354,28
1656,0.94,-0.34,0.17,-2.62,-1.83,-7.39,415,335,247,454,351,28
1657,0.91,-0.32,0.2,-4.64,-3.48,-4.76,413,335,245,457,352,28
1658,0.92,-0.27,0.19,5.43,-5.0,1.28,414,333,252,457,354,28
1659,0.93,-0.31,0.21,-2.87,-0.31,-1.34,413,336,247,452,352,28
1660,0.93,-0.33,0.17,5.74,-1.16,0.98,412,334,248,449,353,28
1661,0.91,-0.32,0.17,-3.48,-5.13,-2.08,413,338,246,455,351,28
1662,0.91,-0.34,0.21,-2.93,-0.73,-4.82,414,335,249,457,351,28
1663,0.95,-0.3,0.21,1.22,-4.39,-1.53,415,335,248,451,351,28
1664,0.92,-0.32,0.2,1.95,-4.64,-2.62,414,337,245,450,352,28
1665,0.91,-0.33,0.21,-0.73,-1.4,-4.64,416,337,252,457,353,28
1666,0.9,-0.34,0.21,-7.39,-0.55,-5.07,415,335,246,450,347,28
1667,0.95,-0.3,0.17,9.28,-1.95,-2.44,410,334,247,455,352,28
1668,0.96,-0.35,0.18,-0.24,-3.6,-5.37,414,338,248,454,351,28
1669,0.93,-0.32,0.2,4.39,-3.3,-3.54,414,337,249,449,353,28
1670,0.94,-0.33,0.19,0.79,-4.46,-1.59,416,335,249,454,350,28
1671,0.91,-0.34,0.22,-1.16,-1.34,-3.48,413,336,251,450,351,28
1672,0.93,-0.31,0.2,4.21,-5.0,-3.17,416,336,247,454,353,28
1673,0.92,-0.36,0.19,-0.12,-1.53,-3.85,414,334,246,454,349,28
1674,0.93,-0.33,0.18,-2.26,-3.36,-1.59,414,335,246,457,353,28
1675,0.91,-0.32,0.17,0.49,-3.48,-4.88,417,338,249,454,351,28
1676,0.93,-0.31,0.19,-1.89,-0.85,-4.09,435,335,248,453,359,28
1677,0.95,-0.29,0.2,7.08,-3.66,4.27,414,335,246,458,349,28
1678,0.98,-0.3,0.23,-0.79,2.56,3.54,414,333,247,456,347,28
1679,0.88,-0.37,0.22,-3.23,-0.31,5.31,418,335,244,456,345,28
1680,0.87,-0.41,0.25,-7.32,7.69,-1.95,418,333,249,457,348,28
1681,0.83,-0.47,0.32,-1.83,0.49,-1.46,420,333,249,460,347,28
1682,0.89,-0.44,0.27,-1.71,-3.11,-2.5,417,334,250,459,348,28
1683,0.89,-0.43,0.25,2.69,-5.0,-4.21,418,336,252,459,348,28
1684,0.87,-0.43,0.28,5.74,-4.03,-2.56,419,333,252,459,346,28
1685,0.85,-0.44,0.28,-0.37,1.71,-3.54,420,333,250,458,343,28
1686,0.86,-0.43,0.29,-1.71,-2.2,-3.17,418,333,253,443,340,28
1687,0.85,-0.43,0.28,5.25,-1.95,-0.61,424,335,259,451,332,28
1688,0.87,-0.43,0.31,1.22,-2.93,-3.05,422,336,254,456,336,28
1689,0.84,-0.43,0.31,1.04,-3.17,-2.93,424,336,270,452,337,28
1690,0.87,-0.43,0.29,-1.34,-3.97,-4.39,421,331,258,451,337,28
1691,0.88,-0.42,0.31,3.42,-3.42,-2.14,422,335,259,448,334,28
1692,0.87,-0.42,0.3,2.69,-3.66,-1.1,423,336,257,453,339,28
1693,0.86,-0.42,0.29,2.14,-2.99,-1.95,423,334,259,455,335,28
1694,0.87,-0.41,0.3,-0.31,-2.32,-3.3,426,335,256,449,339,28
1695,0.87,-0.41,0.29,0.85,-3.48,-1.71,423,337,258,450,338,28
1696,0.86,-0.42,0.3,-0.67,-2.75,-2.93,425,335,254,456,340,28
1697,0.87,-0.42,0.3,0.79,-3.48,-1.46,423,332,259,453,339,28
1698,0.87,-0.42,0.28,1.89,-3.48,-2.2,420,335,259,458,339,28
1699,0.86,-0.42,0.29,1.59,-3.05,-1.22,424,335,259,448,336,28
1700,0.86,-0.42,0.28,1.34,-3.54,-2.01,417,335,256,455,339,28
1701,0.86,-0.43,0.3,0.92,-3.54,-2.14,424,335,259,453,339,28
1702,0.86,-0.42,0.3,-0.73,-2.81,-2.99,425,333,268,448,337,28
1703,0.86,-0.42,0.29,1.04,-2.5,-2.14,422,337,257,458,339,28
1704,0.85,-0.42,0.32,0.37,-2.01,-2.38,424,338,257,451,341,28
1705,0.86,-0.42,0.31,0.18,-3.42,-2.56,424,337,256,455,337,28
1706,0.86,-0.43,0.31,-0.06,-3.85,-2.26,423,339,258,452,341,28
1707,0.85,-0.44,0.31,0.37,-2.56,-2.44,421,334,260,457,337,28
1708,0.84,-0.44,0.32,-0.12,-2.93,-1.46,422,340,257,457,338,28
1709,0.86,-0.44,0.3,-0.79,-3.48,-2.93,422,335,256,449,341,28
1710,0.86,-0.43,0.31,-0.12,-3.78,-2.32,422,335,257,458,340,28
1711,0.85,-0.43,0.32,0.12,-3.05,-1.59,424,336,257,449,339,28
1712,0.83,-0.46,0.33,2.75,-4.7,-5.74,422,334,255,457,340,28
1713,0.92,-0.33,0.19,7.32,-2.38,-10.5,422,334,259,449,340,28
1714,0.94,-0.36,0.2,12.76,-12.76,1.71,421,334,255,453,339,28
1715,0.91,-0.31,0.25,6.23,-0.73,-0.18,420,335,263,451,344,28
1716,0.91,-0.33,0.26,1.34,-3.6,-5.19,424,336,254,456,339,28
1717,0.92,-0.31,0.26,2.5,-4.21,-3.54,420,336,258,453,339,28
1718,0.92,-0.34,0.25,3.72,-1.53,-9.22,425,334,255,452,340,28
1719,0.99,-0.2,0.16,19.9,-35.34,-1.04,434,337,259,452,343,28
1720,1.01,-0.11,0.19,27.65,-11.11,-12.08,423,338,257,453,339,28
1721,0.97,-0.13,0.17,2.14,-3.78,-3.17,422,334,260,451,340,28
1722,0.96,-0.12,0.16,0.06,-0.85,-4.64,424,337,259,453,336,28
1723,1.0,-0.13,0.14,5.74,1.65,-6.16,420,340,258,454,339,28
1724,0.99,-0.13,0.2,3.66,-5.25,-5.0,424,342,260,456,338,28
1725,0.98,-0.12,0.19,-0.92,-1.77,-3.6,422,342,258,454,341,28
1726,1.01,-0.11,0.2,-7.45,-3.48,8.67,423,343,258,457,341,28
1727,0.98,-0.16,0.19,-12.08,9.52,-5.8,424,343,257,454,338,28
1728,0.99,-0.17,0.17,2.08,-6.23,-1.1,424,341,256,458,342,28
1729,0.98,-0.16,0.2,-4.94,-2.2,-1.16,422,352,256,454,342,28
1730,0.95,-0.17,0.25,-9.7,-11.35,2.44,422,341,259,468,341,28
1731,0.97,-0.26,0.23,-2.99,14.04,-4.7,421,341,257,451,342,28
1732,0.99,-0.27,0.16,4.94,-7.2,3.42,420,341,256,455,343,28
1733,0.95,-0.26,0.21,0.55,-4.58,1.4,423,344,256,450,343,28
1734,0.9,-0.31,0.18,-1.89,-7.26,-3.48,422,343,257,447,342,28
1735,0.95,-0.29,0.17,17.52,-6.47,-1.1,423,341,256,453,340,28
1736,0.97,-0.25,0.16,-3.66,-5.13,-6.35,421,343,253,453,345,28
1737,0.97,-0.28,0.13,1.16,-7.26,0.06,423,345,256,447,346,28
1738,0.95,-0.28,0.11,0.73,-5.37,0.43,426,353,258,452,346,28
1739,0.96,-0.29,0.08,4.58,-3.78,0.98,424,346,260,455,348,28
1740,0.95,-0.3,0.1,-2.99,-3.72,-0.61,426,348,257,452,346,28
1741,0.97,-0.31,0.07,-0.79,-5.62,-2.14,429,347,256,448,348,28
1742,0.95,-0.3,0.07,-1.4,-3.6,-3.11,426,348,260,456,349,28
1743,0.94,-0.29,0.08,-1.89,-1.1,-3.23,428,348,258,452,344,28
1744,0.95,-0.29,0.07,0.61,-2.56,-1.65,428,348,260,446,350,28
1745,0.95,-0.3,0.09,-2.08,-3.97,-1.83,428,348,259,455,346,28
1746,0.94,-0.3,0.07,1.28,-2.75,-1.46,426,349,258,452,347,28
1747,0.95,-0.29,0.08,-7.81,-4.21,-4.33,425,349,255,456,350,28
1748,0.95,-0.31,0.06,-3.11,-4.76,-3.3,428,349,262,448,351,28
1749,0.94,-0.31,0.06,-0.06,-2.14,-2.32,426,349,259,453,348,28
1750,0.95,-0.3,0.06,-0.55,-2.14,-2.5,425,345,257,450,350,28
1751,0.95,-0.31,0.06,1.71,-2.93,-1.53,426,358,260,452,349,28
1752,0.95,-0.3,0.06,-1.04,-1.53,-3.48,425,349,256,451,347,28
1753,0.94,-0.31,0.06,-2.08,-3.23,-3.48,429,348,257,454,349,28
1754,0.96,-0.29,0.06,0.61,-0.06,-2.87,425,345,257,454,350,28
1755,0.94,-0.27,0.12,-2.26,0.79,-7.57,431,350,257,464,348,28
1756,0.97,-0.25,0.11,1.71,-4.03,-2.75,432,353,258,461,351,28
1757,0.96,-0.26,0.13,-0.67,-2.44,-2.32,435,353,255,460,349,28
1758,0.97,-0.26,0.12,-3.11,-4.21,-2.69,435,353,256,458,353,28
1759,0.95,-0.25,0.1,-1.1,-4.39,-2.38,439,352,254,460,350,28
1760,0.96,-0.25,0.1,-0.18,-3.72,-1.77,436,353,258,471,351,28
1761,0.97,-0.27,0.08,2.56,-0.92,-1.34,435,353,257,454,350,28
1762,0.93,-0.29,0.06,2.62,-1.16,1.16,432,354,255,455,349,28
1763,0.95,-0.29,0.1,-2.38,-4.82,-1.71,427,356,255,457,353,28
1764,0.96,-0.27,0.09,1.95,-2.44,-0.67,429,355,256,457,353,28
1765,0.96,-0.29,0.09,2.56,-2.38,-0.92,431,352,255,454,356,28
1766,0.95,-0.29,0.1,-1.04,-3.05,-2.14,430,350,254,461,355,28
1767,0.96,-0.29,0.09,2.62,-2.69,-0.61,432,354,252,458,356,28
1768,0.96,-0.29,0.1,0.24,-3.97,-2.08,429,357,257,458,352,28
1769,0.95,-0.28,0.1,0.49,-3.3,-2.2,430,357,260,452,354,28
1770,0.95,-0.29,0.09,1.4,-1.95,-2.56,429,356,267,452,356,28
1771,0.96,-0.31,0.1,1.46,-2.99,-1.46,428,355,259,455,360,28
1772,0.96,-0.31,0.09,-0.12,-3.78,-1.95,426,352,254,456,354,28
1773,0.95,-0.28,0.1,-0.79,-3.97,-1.83,425,351,255,453,354,28
1774,0.95,-0.31,0.08,4.33,-5.13,-1.71,428,356,252,457,354,28
1775,0.95,-0.32,0.09,1.1,-3.17,-3.66,428,354,252,460,353,28
1776,0.95,-0.32,0.08,-2.44,-2.62,-5.43,425,353,256,455,356,28
1777,0.94,-0.3,0.1,1.28,-3.42,-2.2,467,353,254,458,350,28
1778,0.95,-0.3,0.1,0.49,-2.93,-2.26,430,352,255,458,354,28
1779,0.96,-0.3,0.09,-0.49,-3.85,-3.05,428,358,252,457,358,28
1780,0.96,-0.28,0.07,0.24,-4.88,-4.52,427,355,259,457,358,28
1781,0.95,-0.3,0.08,2.01,-3.66,-3.11,425,360,250,454,358,28
1782,0.95,-0.29,0.08,0.37,-1.89,-1.04,424,363,251,453,358,28
1783,0.91,-0.34,0.1,-5.8,-2.87,1.16,426,355,252,460,356,28
1784,0.94,-0.28,0.09,2.14,-1.34,-3.11,428,357,255,460,354,28
1785,0.95,-0.31,0.1,-1.53,-0.79,-4.7,427,355,252,459,359,28
1786,0.93,-0.3,0.12,0.79,-1.34,-2.08,429,354,251,456,358,28
1787,0.98,-0.28,0.12,-2.38,-3.36,-1.34,427,358,251,457,356,28
1788,0.97,-0.31,0.1,-0.31,-5.55,-7.14,428,357,252,456,358,28
1789,0.96,-0.3,0.07,2.26,-2.14,-4.76,466,354,250,455,355,28
1790,0.95,-0.31,0.11,0.24,-2.62,-4.21,421,356,249,457,359,28
1791,0.95,-0.29,0.11,3.85,-3.78,1.1,425,354,251,452,360,28
1792,0.93,-0.31,0.07,3.17,-3.3,-1.71,429,354,250,455,355,28
1793,1.02,-0.22,0.04,-2.5,7.81,2.14,425,356,253,459,359,28
1794,0.86,-0.35,0.27,2.87,4.39,6.16,426,355,252,460,356,28
1795,0.94,-0.39,0.19,-2.14,-4.03,2.32,426,354,247,455,358,28
1796,0.9,-0.4,0.18,2.38,-5.92,1.83,424,358,255,459,358,28
1797,0.9,-0.4,0.19,-2.69,-0.12,-4.09,425,356,248,458,358,28
1798,0.89,-0.4,0.19,1.77,-3.11,-2.99,426,355,252,456,355,28
1799,0.93,-0.34,0.18,-2.44,-5.74,-6.59,426,356,247,453,357,28
1800,0.92,-0.34,0.21,0.92,-1.71,-3.05,424,357,248,455,359,28
1801,0.92,-0.36,0.2,-1.77,-3.78,-4.52,424,356,249,458,357,28
1802,0.91,-0.36,0.21,-1.1,-3.05,-2.38,423,356,249,454,358,28
1803,0.95,-0.38,0.2,-0.85,-2.93,-0.61,421,358,248,450,360,28
1804,0.92,-0.38,0.2,0.31,-2.75,-1.22,424,356,245,457,360,28
1805,0.89,-0.35,0.21,0.06,-4.88,-4.76,422,358,250,459,358,28
1806,0.91,-0.36,0.16,1.4,-6.23,1.77,429,357,247,454,361,28
1807,0.87,-0.37,0.21,-2.14,0.31,-5.37,427,355,248,457,359,28
1808,0.89,-0.4,0.19,-2.14,-5.43,-2.81,432,360,250,460,361,28
1809,0.92,-0.35,0.21,-4.15,0.31,-5.92,425,358,247,459,357,28
1810,0.94,-0.35,0.18,-0.98,-2.38,-3.54,446,355,247,455,364,28
1811,0.93,-0.34,0.17,2.56,-3.17,-1.65,423,358,249,460,359,28
1812,0.88,-0.4,0.18,-0.12,-0.85,-2.44,422,354,253,450,360,28
1813,0.91,-0.36,0.19,-0.98,-1.04,-4.21,425,356,251,461,360,28
1814,0.94,-0.36,0.16,2.44,-6.04,1.16,424,358,248,459,361,28
1815,0.87,-0.39,0.18,1.83,-7.45,-0.24,422,353,246,453,360,28
1816,0.93,-0.32,0.14,6.96,-5.86,2.32,421,355,252,452,361,28
1817,0.92,-0.36,0.17,-1.22,0.98,-4.64,424,359,248,449,360,28
1818,0.9,-0.38,0.18,-0.24,-2.08,-2.38,422,354,247,463,361,28
1819,0.92,-0.36,0.18,-1.22,-0.31,-3.36,426,357,251,454,365,28
1820,0.91,-0.41,0.14,-1.22,-3.17,-4.46,423,356,254,457,361,28
1821,0.91,-0.36,0.16,2.69,-2.81,-3.91,424,356,246,454,363,28
1822,0.91,-0.34,0.16,0.79,-1.65,-2.93,425,356,248,452,358,28
1823,0.94,-0.36,0.17,2.5,-4.03,0.06,423,359,249,454,359,28
1824,0.93,-0.37,0.18,-4.64,-3.23,-4.94,425,358,253,453,357,28
1825,0.91,-0.38,0.16,3.97,-4.46,-1.4,427,358,250,455,364,28
1826,0.94,-0.34,0.17,-2.5,-0.92,-5.98,423,353,251,448,361,28
1827,0.94,-0.33,0.17,5.07,-6.04,-0.24,423,356,247,450,359,28
1828,0.94,-0.38,0.14,2.2,-1.34,-2.14,424,359,246,459,362,28
1829,0.94,-0.33,0.17,4.27,-2.69,-1.1,426,356,250,454,365,28
1830,0.91,-0.34,0.18,1.4,-0.55,-2.38,421,354,248,452,364,28
1831,0.9,-0.35,0.17,0.61,-2.38,-1.28,422,356,250,449,362,28
1832,0.93,-0.32,0.22,-5.37,0.49,-5.92,419,357,249,451,362,28
1833,0.93,-0.35,0.17,0.18,-6.23,-0.61,421,358,251,450,361,28
1834,0.94,-0.32,0.16,1.59,-2.2,-1.89,422,356,250,456,361,28
1835,0.91,-0.35,0.18,-1.1,-3.85,-2.81,424,354,248,452,372,28
1836,0.91,-0.37,0.16,1.34,-5.68,-1.59,420,356,249,453,363,28
1837,0.93,-0.37,0.16,-5.13,0.67,-5.98,422,356,250,456,361,28
1838,0.94,-0.34,0.16,5.55,-3.17,-1.16,422,353,251,453,365,28
1839,0.89,-0.38,0.19,-2.5,0.37,-4.88,422,357,250,459,364,28
1840,0.94,-0.35,0.18,-5.74,-1.16,-5.0,421,357,250,454,363,28
1841,0.92,-0.32,0.2,0.98,-4.21,-1.59,424,363,252,455,361,28
1842,0.94,-0.32,0.2,-1.71,-1.4,-3.05,424,357,253,454,366,28
1843,0.94,-0.33,0.18,5.37,-3.36,-1.16,423,354,250,453,366,28
1844,0.93,-0.34,0.19,-3.72,-0.24,-5.0,424,361,250,455,365,28
1845,0.93,-0.3,0.21,2.93,-3.11,0.0,425,364,251,449,364,28
1846,0.96,-0.33,0.18,-4.09,-1.95,-3.78,422,353,248,451,365,28
1847,0.95,-0.31,0.18,0.61,-1.89,-2.81,423,358,252,452,363,28
1848,0.91,-0.34,0.19,0.79,-1.53,0.31,424,363,249,457,363,28
1849,0.95,-0.33,0.19,-2.56,-1.1,-4.33,425,354,251,453,365,28
1850,0.92,-0.32,0.15,-5.62,-4.27,-5.19,424,356,251,452,365,28
1851,0.91,-0.37,0.14,7.69,-14.77,-2.38,424,359,248,455,363,28
1852,0.96,-0.32,0.11,8.12,-6.47,15.2,423,356,252,458,361,28
1853,0.93,-0.34,0.14,-0.85,-2.26,-0.73,422,362,247,455,364,28
1854,0.93,-0.33,0.14,0.12,-3.54,-0.73,421,359,247,449,363,28
1855,0.92,-0.35,0.15,-3.91,0.18,-3.05,421,357,250,457,362,28
1856,0.92,-0.32,0.16,-0.06,0.61,0.12,420,355,250,455,363,28
1857,0.9,-0.33,0.19,1.89,-1.16,0.55,422,357,252,449,364,28
1858,0.95,-0.34,0.14,5.25,-5.37,0.49,420,357,250,456,363,28
1859,0.95,-0.34,0.15,1.4,-2.38,-2.01,416,353,253,455,364,28
1860,0.9,-0.36,0.17,-0.98,-3.97,-5.86,422,357,249,451,364,28
1861,0.91,-0.36,0.15,1.83,-3.91,-1.71,418,359,248,456,362,28
1862,0.92,-0.36,0.15,1.04,-2.2,-2.93,421,354,251,448,361,28
1863,0.92,-0.36,0.15,2.38,-4.15,-0.12,422,360,251,453,364,28
1864,0.92,-0.38,0.13,-1.83,-0.73,-3.36,422,358,251,453,364,28
1865,0.94,-0.35,0.12,3.85,-1.53,-2.08,423,358,253,452,365,28
1866,0.91,-0.36,0.14,-1.53,-1.77,-5.31,421,357,252,453,366,28
1867,0.91,-0.38,0.13,5.07,-6.84,6.9,421,357,253,456,364,28
1868,0.92,-0.38,0.16,-0.49,1.34,-6.16,424,357,251,447,359,28
1869,0.9,-0.39,0.13,-0.06,-3.05,-2.87,427,357,253,453,363,28
1870,0.92,-0.35,0.16,-1.71,-1.95,-4.03,422,356,250,449,365,28
1871,0.94,-0.35,0.14,4.39,-3.72,-3.48,420,354,251,449,362,28
1872,0.92,-0.35,0.14,3.78,-4.21,-4.15,417,359,256,455,362,28
1873,0.93,-0.32,0.16,0.06,-4.15,-5.43,422,356,252,456,356,28
1874,0.95,-0.3,0.16,0.24,-2.75,-5.43,426,356,254,459,356,28
1875,0.92,-0.31,0.17,-3.78,-2.56,-7.08,425,357,252,459,353,28
1876,0.93,-0.31,0.16,-9.64,-0.67,-7.39,423,358,251,453,356,28
1877,0.93,-0.32,0.18,-0.18,-2.2,-0.43,421,352,252,456,353,28
1878,0.94,-0.3,0.19,-1.04,-0.92,-4.52,429,350,252,453,350,28
1879,0.94,-0.3,0.16,2.38,-0.61,-4.33,424,348,253,461,354,28
1880,0.93,-0.32,0.16,1.59,-1.46,-1.4,426,352,252,461,352,28
1881,0.95,-0.31,0.17,-0.18,-1.71,-1.77,428,354,253,463,353,28
1882,0.94,-0.28,0.2,-2.5,-0.06,-7.08,444,352,255,455,350,28
1883,0.97,-0.3,0.14,7.08,-6.84,1.4,424,353,253,462,353,28
1884,0.9,-0.37,0.16,-1.16,-2.08,-0.12,426,355,256,459,355,28
1885,0.97,-0.3,0.16,-1.1,-1.53,-2.01,422,352,256,460,354,28
1886,0.91,-0.32,0.2,0.24,-0.67,-4.21,427,350,257,458,357,28
1887,0.95,-0.31,0.17,-2.56,-6.23,-1.46,426,352,252,456,354,28
1888,0.92,-0.34,0.16,-2.93,-3.11,-5.43,424,353,257,463,354,28
1889,0.94,-0.32,0.17,-1.77,-4.94,-4.09,421,353,257,459,356,28
1890,0.91,-0.33,0.14,4.76,-5.98,-1.83,423,355,253,461,357,28
1891,0.93,-0.34,0.15,-2.38,0.79,-3.23,425,353,253,465,358,28
1892,0.94,-0.32,0.16,-0.12,-3.72,-3.17,424,351,251,460,356,28
1893,0.89,-0.34,0.18,1.28,-1.1,-3.11,424,357,257,460,357,28
1894,0.94,-0.33,0.16,-3.72,-1.22,-5.55,424,353,255,459,348,28
1895,0.93,-0.3,0.18,-2.87,-0.98,-3.42,420,356,253,459,357,28
1896,0.97,-0.32,0.15,-3.66,-3.48,-4.7,424,354,255,459,354,28
1897,0.97,-0.3,0.15,1.65,-3.42,2.01,423,354,255,456,356,28
1898,0.95,-0.32,0.13,0.24,-2.32,-2.62,424,353,252,460,359,28
1899,0.92,-0.31,0.16,1.53,-4.52,-1.1,422,356,252,461,358,28
1900,0.92,-0.32,0.15,-1.16,-1.95,-2.44,421,356,255,456,358,28
1901,0.94,-0.34,0.15,-1.34,-1.95,-5.49,421,357,254,456,360,28
1902,0.94,-0.32,0.14,-0.55,-5.19,-3.85,424,353,253,455,357,28
1903,0.95,-0.33,0.11,-1.83,-3.85,-3.17,419,359,251,459,357,28
1904,0.94,-0.33,0.13,2.5,-3.17,-2.32,420,356,254,457,357,28
1905,0.96,-0.31,0.12,2.38,-4.21,-1.22,423,354,256,461,357,28
1906,0.9,-0.41,0.09,3.78,-6.59,-2.01,424,351,256,452,359,28
1907,0.91,-0.35,0.13,-0.67,-2.26,-4.88,423,357,256,454,362,28
1908,0.97,-0.33,0.12,0.49,-2.75,-3.85,417,356,256,460,354,28
1909,0.94,-0.33,0.13,0.98,-3.72,-2.2,426,356,251,458,358,28
1910,0.93,-0.33,0.12,-0.67,-2.62,-2.26,429,357,252,458,358,28
1911,0.93,-0.31,0.13,3.05,-3.3,-1.22,422,354,253,460,356,28
1912,0.94,-0.31,0.14,-1.16,-0.18,-3.23,424,355,251,457,359,28
1913,0.93,-0.34,0.12,1.34,-3.6,-0.55,422,357,253,456,359,28
1914,0.94,-0.36,0.11,-4.33,-2.81,-5.37,422,354,257,460,355,28
1915,0.95,-0.31,0.12,0.85,-2.99,-2.87,423,354,255,456,358,28
1916,0.94,-0.33,0.12,-0.92,-3.66,-4.64,419,356,252,460,362,28
1917,0.97,-0.32,0.09,-1.89,-2.14,-4.03,424,354,256,453,360,28
1918,0.89,-0.33,0.12,-3.36,-5.31,-3.66,425,358,256,454,359,28
1919,0.93,-0.33,0.11,3.11,-1.4,0.73,422,369,255,460,356,28
1920,0.97,-0.31,0.13,5.19,-3.66,-2.44,423,355,252,459,359,28
1921,0.94,-0.35,0.1,2.81,-7.81,0.31,422,354,257,459,358,28
1922,0.93,-0.33,0.09,0.37,-5.68,-2.56,421,354,254,455,358,28
1923,0.92,-0.3,0.11,4.39,-6.9,-0.85,423,352,253,456,359,28
1924,0.93,-0.31,0.1,-1.83,-1.83,-3.97,424,353,254,457,360,28
1925,0.94,-0.32,0.1,2.75,-4.27,-3.36,412,354,252,463,360,28
1926,0.95,-0.3,0.12,1.1,-3.48,-2.01,424,351,256,459,360,28
1927,0.95,-0.34,0.08,0.61,-3.66,-2.87,422,357,253,459,361,28
1928,0.95,-0.34,0.08,-0.12,-0.79,-2.69,423,354,257,459,360,28
1929,0.92,-0.36,0.07,-5.49,0.43,-7.51,422,356,254,459,361,28
1930,0.92,-0.32,0.09,1.77,-4.09,-1.89,422,352,253,459,359,28
1931,0.92,-0.33,0.09,-1.53,-2.69,-1.59,424,355,253,461,359,28
1932,0.98,-0.3,0.07,0.43,-0.85,-2.93,422,356,256,453,362,28
1933,0.91,-0.34,0.1,0.24,-2.08,-2.44,423,355,255,460,358,28
1934,0.93,-0.36,0.06,2.32,-5.55,-1.83,420,358,254,457,358,28
1935,0.95,-0.32,0.07,0.24,-0.31,-2.93,419,356,255,452,366,28
1936,0.95,-0.33,0.08,2.44,-4.09,-3.3,423,357,254,453,360,28
1937,0.95,-0.31,0.1,0.49,0.49,-4.88,428,352,252,462,357,28
1938,0.93,-0.3,0.1,0.43,-1.53,-4.03,422,354,256,461,361,28
1939,0.96,-0.28,0.1,1.16,-5.74,-1.83,425,356,252,457,357,28
1940,0.98,-0.29,0.1,-3.42,-1.83,-3.78,426,355,256,458,357,28
1941,0.96,-0.3,0.09,-1.95,-3.11,-3.23,420,354,250,455,361,28
1942,0.94,-0.28,0.13,1.16,-0.79,-2.69,422,355,254,458,360,28
1943,0.96,-0.28,0.13,2.5,-3.85,-1.53,422,355,256,459,359,28
1944,0.98,-0.3,0.11,-1.28,-3.85,-2.2,426,353,251,461,361,28
1945,0.97,-0.29,0.12,3.42,-5.37,0.85,422,356,251,452,360,28
1946,0.98,-0.26,0.1,-1.4,-1.95,1.28,425,354,255,457,360,28
1947,0.95,-0.33,0.07,-2.69,-5.49,-2.87,426,353,257,461,358,28
1948,0.94,-0.29,0.09,-0.18,-2.26,-2.81,421,355,254,456,359,28
1949,0.97,-0.29,0.07,2.69,-1.77,-3.97,422,353,254,458,360,28
1950,0.94,-0.32,0.1,4.52,-2.2,-0.92,425,356,256,455,360,28
1951,0.98,-0.3,0.09,-0.98,-2.26,-5.55,421,356,254,459,357,28
1952,0.97,-0.3,0.09,-2.2,-3.6,-2.38,423,355,254,457,361,28
1953,0.94,-0.31,0.09,-0.43,-3.11,-1.77,422,354,256,460,360,28
1954,0.94,-0.32,0.09,-2.14,-1.77,-3.85,422,358,253,456,361,28
1955,0.94,-0.32,0.1,-2.26,-3.11,-3.05,422,356,253,459,360,28
1956,0.92,-0.3,0.09,4.46,-6.04,-3.05,423,355,257,457,361,28
1957,0.94,-0.3,0.06,1.16,-3.48,-3.78,423,354,256,461,362,28
1958,0.97,-0.29,0.09,1.28,-0.85,-5.25,423,356,258,456,360,28
1959,0.95,-0.3,0.09,5.07,-4.27,-2.14,424,355,257,457,357,28
1960,0.95,-0.3,0.09,-1.22,-1.89,-1.83,422,357,254,457,361,28
1961,0.92,-0.33,0.11,-4.94,-1.28,-1.59,423,354,255,462,357,28
1962,0.93,-0.32,0.11,6.04,-12.15,-1.16,423,355,257,461,360,28
1963,0.93,-0.32,0.06,1.04,-1.22,-4.94,420,357,256,459,362,28
1964,0.93,-0.33,0.09,-1.22,0.55,-2.14,421,357,254,458,361,28
1965,0.92,-0.31,0.1,-1.04,-3.17,-5.74,424,354,256,462,357,28
1966,0.96,-0.28,0.09,0.55,-3.11,-0.24,422,356,253,462,366,28
1967,0.95,-0.31,0.09,-0.73,-3.85,-1.89,422,354,256,460,354,28
1968,0.97,-0.3,0.08,0.73,-2.44,-2.01,420,355,255,457,356,28
1969,0.96,-0.32,0.08,-0.12,-3.17,-3.11,422,354,258,452,355,28
1970,0.97,-0.3,0.1,-1.71,-1.04,-2.75,424,357,254,455,357,28
1971,0.69,-0.22,0.2,11.84,3.3,-16.48,427,354,254,458,356,28
1972,0.87,-0.33,0.13,12.15,-16.6,-2.14,425,354,254,454,357,28
1973,0.92,-0.35,0.13,-2.99,-2.2,-0.92,427,355,258,458,356,28
1974,0.94,-0.35,0.13,-0.18,-3.91,-3.17,427,361,257,460,357,28
