,aX,aY,aZ,gX,gY,gZ,little,ring,middle,index,thumb,number
0,-0.12,-0.98,0.15,0.43,-2.75,-2.44,450,317,252,327,296,23
1,-0.12,-0.98,0.15,0.73,-3.11,-2.99,477,316,261,328,294,23
2,-0.13,-0.98,0.15,0.12,-3.17,-2.69,453,318,255,325,294,23
3,-0.13,-0.98,0.15,-0.12,-3.23,-3.42,452,316,255,330,298,23
4,-0.13,-0.98,0.15,0.49,-3.78,-2.56,452,315,255,326,292,23
5,-0.12,-0.98,0.15,0.67,-3.54,-3.05,452,318,251,330,296,23
6,-0.13,-0.98,0.16,0.06,-2.32,-2.99,449,316,257,327,296,23
7,-0.13,-0.94,0.15,0.67,-3.17,-3.23,449,312,255,324,295,23
8,-0.11,-1.0,0.16,4.09,-3.6,-2.93,449,313,255,329,296,23
9,-0.09,-0.98,0.19,1.22,-5.19,-4.03,455,315,253,327,295,23
10,-0.1,-0.98,0.18,0.67,-2.93,-2.32,452,318,259,323,288,23
11,-0.11,-0.98,0.18,0.67,-3.78,-2.5,468,320,255,328,296,23
12,-0.11,-0.97,0.17,0.73,-2.5,-2.14,446,316,256,325,298,23
13,-0.1,-0.98,0.2,1.1,-2.62,-4.03,449,316,259,328,293,23
14,-0.08,-0.98,0.19,0.49,-3.11,-3.17,449,318,258,328,298,23
15,-0.09,-0.97,0.19,0.67,-2.44,0.12,448,316,255,328,293,23
16,-0.12,-0.97,0.18,0.24,-2.5,-1.77,450,318,253,326,296,23
17,-0.12,-0.97,0.18,0.67,-3.11,-2.08,456,316,253,328,298,23
18,-0.13,-0.97,0.19,0.67,-2.38,-2.99,451,317,253,329,294,23
19,-0.14,-0.96,0.18,0.43,-3.78,-2.99,449,316,256,325,297,23
20,-0.12,-1.0,0.19,1.1,-2.99,-2.32,449,317,254,333,299,23
21,-0.14,-0.97,0.2,0.85,-4.52,-4.21,448,311,251,323,298,23
22,-0.12,-0.97,0.2,0.49,-3.78,-3.23,448,318,252,330,296,23
23,-0.11,-0.98,0.19,-0.31,-2.14,-3.78,451,318,257,331,298,23
24,-0.12,-0.98,0.19,-0.06,-2.69,-2.5,449,316,257,339,299,23
25,-0.11,-0.98,0.19,2.32,-2.01,-1.53,448,317,255,331,296,23
26,-0.12,-0.98,0.19,0.43,-2.44,-2.2,461,314,252,332,296,23
27,-0.13,-0.97,0.19,-0.31,-2.81,-2.08,449,315,258,330,296,23
28,-0.12,-0.98,0.17,1.71,-2.69,-1.4,447,317,253,335,294,23
29,-0.13,-0.97,0.19,0.12,-3.42,-2.44,445,312,257,327,297,23
30,-0.13,-0.97,0.19,1.53,-3.54,-2.44,457,314,260,328,299,23
31,-0.12,-0.97,0.18,-0.85,-2.38,-4.94,449,314,255,326,297,23
32,-0.14,-0.96,0.17,0.49,-2.2,-1.77,447,314,255,333,296,23
33,-0.13,-0.97,0.19,0.31,-2.69,-3.05,450,312,255,331,299,23
34,-0.14,-0.98,0.19,0.85,-2.62,-3.97,450,314,256,326,295,23
35,-0.11,-0.97,0.19,-0.31,-4.09,-3.11,443,314,256,331,303,23
36,-0.13,-0.98,0.21,0.12,0.55,-2.5,446,314,257,329,297,23
37,-0.15,-0.97,0.19,1.04,-3.36,-0.85,447,317,256,334,297,23
38,-0.14,-0.97,0.18,0.73,-3.05,-1.59,447,316,258,332,295,23
39,-0.13,-0.97,0.17,-0.43,-3.66,-3.48,446,315,255,328,294,23
40,-0.13,-0.97,0.19,-0.43,-5.49,-9.16,454,315,256,336,299,23
41,-0.12,-0.98,0.18,0.49,-2.44,-2.01,446,316,259,332,298,23
42,-0.12,-0.98,0.19,-0.43,-1.89,-1.1,449,314,257,332,297,23
43,-0.12,-0.97,0.18,0.0,-2.26,-2.56,444,314,253,331,299,23
44,-0.13,-0.98,0.18,-0.37,-2.44,-2.14,449,311,257,332,298,23
45,-0.13,-0.98,0.18,0.06,-2.62,-1.22,448,317,256,328,297,23
46,-0.13,-0.97,0.17,-0.18,-2.81,-2.87,449,316,256,334,295,23
47,-0.12,-0.98,0.18,0.61,-3.36,-2.62,450,311,255,327,295,23
48,-0.13,-0.98,0.17,0.24,-2.93,-2.69,447,316,256,338,297,23
49,-0.12,-0.97,0.18,0.43,-2.87,-2.75,444,316,261,334,299,23
50,-0.12,-0.97,0.18,0.61,-2.81,-2.93,447,316,252,337,297,23
51,-0.12,-0.94,0.18,1.71,-3.78,-2.01,447,314,254,333,296,23
52,-0.12,-0.95,0.15,1.71,-3.23,-2.56,446,316,256,333,298,23
53,-0.12,-0.98,0.18,-0.49,-2.69,-2.99,473,317,257,334,297,23
54,-0.12,-0.98,0.18,0.18,-2.38,-2.69,450,314,256,333,297,23
55,-0.13,-0.98,0.18,0.73,-4.7,-3.42,448,317,254,335,300,23
56,-0.1,-0.97,0.18,1.95,-3.78,-1.34,448,316,254,332,297,23
57,-0.13,-0.98,0.18,-0.49,-1.95,-1.71,446,314,260,339,298,23
58,-0.15,-0.97,0.19,-0.37,-2.87,-2.75,445,312,252,338,298,23
59,-0.14,-0.97,0.19,0.43,-2.87,-2.5,443,315,254,330,298,23
60,-0.14,-0.97,0.19,0.67,-6.04,-5.31,450,313,255,336,297,23
61,-0.13,-0.97,0.19,0.37,-3.17,-2.32,447,316,250,330,295,23
62,-0.13,-0.97,0.2,0.0,-2.93,-2.08,446,313,256,334,300,23
63,-0.13,-0.97,0.19,0.55,-2.81,-2.08,449,317,256,333,294,23
64,-0.13,-0.97,0.19,-0.43,-3.3,-3.17,441,313,253,335,300,23
65,-0.12,-0.97,0.2,-0.18,-2.08,-2.26,447,314,252,334,300,23
66,-0.12,-0.97,0.2,0.73,-3.05,-2.87,446,314,254,339,298,23
67,-0.13,-0.96,0.18,0.85,-1.83,-2.32,449,314,254,333,300,23
68,-0.12,-0.97,0.19,-0.31,-3.72,-3.17,446,314,255,330,292,23
69,-0.12,-0.96,0.19,1.34,-3.85,-2.08,458,316,255,333,294,23
70,-0.15,-0.97,0.2,-1.16,-4.09,-3.48,445,313,256,337,300,23
71,-0.12,-0.97,0.19,-1.4,-3.36,-4.15,464,313,252,340,298,23
72,-0.13,-0.97,0.2,0.85,-2.99,-1.83,445,313,255,336,301,23
73,-0.13,-0.97,0.17,0.12,-3.85,-0.98,463,313,253,339,298,23
74,-0.12,-0.97,0.2,0.43,-3.17,-2.44,443,314,256,336,299,23
75,-0.13,-0.96,0.19,0.12,-3.54,-0.49,444,318,254,333,297,23
76,-0.15,-0.96,0.19,0.67,-3.17,-3.91,443,312,254,330,295,23
77,-0.13,-0.97,0.2,0.0,-2.75,-3.11,445,311,255,337,298,23
78,-0.14,-0.97,0.19,0.49,-3.54,-3.48,445,314,256,338,298,23
79,-0.14,-0.97,0.19,1.1,-3.97,-2.69,443,313,257,339,298,23
80,-0.16,-0.97,0.19,0.18,-2.87,-2.56,445,314,256,336,297,23
81,-0.15,-0.97,0.2,0.55,-2.87,-2.69,445,315,250,339,298,23
82,-0.14,-0.97,0.19,0.31,-2.99,-2.87,446,316,255,338,298,23
83,-0.14,-0.96,0.19,0.73,-3.66,-2.56,444,314,253,341,296,23
84,-0.14,-0.96,0.2,0.61,-2.99,-2.32,447,315,256,336,295,23
85,-0.14,-0.97,0.19,1.95,-4.09,-2.26,445,315,256,338,298,23
86,-0.13,-0.96,0.21,1.1,-2.56,-2.2,433,313,253,333,301,23
87,-0.14,-0.97,0.2,-0.18,-2.32,-3.11,440,316,252,340,297,23
88,-0.14,-0.97,0.2,0.24,-3.66,-2.62,444,313,257,338,298,23
89,-0.13,-0.97,0.2,0.67,-3.36,-2.81,442,315,256,337,298,23
90,-0.13,-0.96,0.2,1.04,-3.3,-2.32,445,315,255,336,297,23
91,-0.13,-0.97,0.21,0.24,-2.75,-2.44,451,312,264,337,299,23
92,-0.13,-0.97,0.21,1.1,-4.27,-3.42,443,314,255,340,300,23
93,-0.14,-0.97,0.22,2.81,-3.23,-1.22,444,314,263,335,298,23
94,-0.14,-0.96,0.21,1.16,-4.46,-2.75,446,313,251,337,302,23
95,-0.14,-0.96,0.22,0.61,-2.69,-3.36,443,313,253,338,298,23
96,-0.13,-0.97,0.22,0.0,-1.95,-2.87,446,314,252,335,298,23
97,-0.13,-0.96,0.21,0.55,-3.23,-2.08,446,315,254,340,298,23
98,-0.14,-0.97,0.22,0.85,-2.69,-2.5,444,311,257,343,295,23
99,-0.13,-0.96,0.2,0.85,-2.87,-2.2,445,316,256,337,296,23
100,-0.14,-0.97,0.22,0.98,-3.54,-2.32,440,311,252,337,296,23
101,-0.14,-0.97,0.22,0.24,-3.85,-1.34,445,316,254,340,300,23
102,-0.14,-0.96,0.21,1.04,-4.21,-2.08,441,313,254,338,299,23
103,-0.15,-0.96,0.21,0.49,-2.81,2.14,444,315,267,337,298,23
104,-0.15,-0.96,0.23,1.1,-4.21,-3.97,444,312,256,340,300,23
105,-0.16,-0.96,0.23,-0.18,-2.69,-3.85,446,313,253,341,301,23
106,-0.15,-0.97,0.23,-0.79,-3.72,-2.93,449,312,255,336,299,23
107,-0.15,-0.96,0.22,0.37,-2.99,-2.81,451,313,254,335,296,23
108,-0.15,-0.96,0.21,-0.79,-3.11,-3.23,440,315,254,341,298,23
109,-0.15,-0.96,0.21,1.71,-2.2,-1.22,444,313,256,338,301,23
110,-0.15,-0.96,0.21,1.04,-3.17,-1.89,439,316,253,334,301,23
111,-0.16,-0.96,0.23,1.28,-3.6,-1.89,443,313,254,343,296,23
112,-0.16,-0.96,0.23,1.1,-3.91,-2.5,441,313,252,335,298,23
113,-0.15,-0.96,0.22,1.16,-3.6,-1.65,443,312,256,340,295,23
114,-0.17,-0.96,0.24,-0.31,-1.4,-1.34,445,316,254,338,299,23
115,-0.18,-0.95,0.24,0.61,-3.17,-1.1,439,313,254,339,297,23
116,-0.18,-0.95,0.24,0.18,-3.11,-2.01,443,313,255,343,301,23
117,-0.17,-0.95,0.24,1.16,-3.97,-2.08,440,315,251,340,302,23
118,-0.18,-0.95,0.24,0.85,-3.23,-2.99,440,316,254,339,302,23
119,-0.18,-0.95,0.25,1.34,-2.93,-2.56,445,313,253,343,298,23
120,-0.18,-0.95,0.26,0.61,-2.56,-1.04,445,317,254,335,300,23
121,-0.18,-0.95,0.25,0.73,-3.6,-2.44,443,314,261,344,299,23
122,-0.19,-0.94,0.26,1.34,-3.54,-2.08,443,314,256,343,296,23
123,-0.19,-0.95,0.26,0.12,-3.6,-2.32,439,321,259,341,297,23
124,-0.19,-0.94,0.26,0.24,-2.81,-3.11,457,313,255,344,299,23
125,-0.19,-0.95,0.26,0.06,-2.14,-3.36,443,312,254,335,299,23
126,-0.19,-0.95,0.26,0.55,-3.54,-1.71,440,317,265,341,295,23
127,-0.19,-0.95,0.26,-0.67,-2.01,-2.5,441,313,257,337,298,23
128,-0.19,-0.94,0.23,0.92,-3.6,-2.08,440,313,254,340,299,23
129,-0.19,-0.95,0.24,-0.31,-2.62,-3.11,444,312,255,336,301,23
130,-0.26,-0.92,0.21,4.09,-5.13,-2.14,442,315,253,342,302,23
131,-0.04,-0.92,0.23,-1.04,-15.14,-3.48,442,325,260,340,296,23
132,-0.16,-0.97,0.31,-0.43,-20.26,-37.17,444,314,255,341,302,23
133,-0.13,-0.99,0.22,-2.38,2.93,6.71,442,315,257,340,298,23
134,-0.17,-0.98,0.25,0.31,8.61,7.2,444,315,256,344,301,23
135,-0.2,-0.94,0.3,5.74,-3.11,-1.22,442,318,256,337,299,23
136,-0.15,-0.94,0.3,1.95,-6.53,-2.87,444,313,256,341,301,23
137,-0.17,-0.95,0.35,-0.55,-4.46,-3.48,450,315,255,341,294,23
138,-0.23,-0.95,0.28,-7.69,6.41,17.03,444,310,254,346,299,23
139,-0.25,-0.94,0.22,-3.91,0.12,-4.09,438,310,250,344,300,23
140,-0.24,-0.91,0.23,2.38,-2.14,-5.8,461,312,254,345,302,23
141,-0.24,-0.97,0.22,-6.1,0.06,-2.01,442,313,254,341,299,23
142,-0.17,-0.92,0.14,-7.39,-5.0,2.75,442,312,254,345,299,23
143,-0.17,-0.94,0.12,-2.69,-5.86,-5.37,443,315,257,344,299,23
144,-0.3,-0.97,0.16,-3.05,-9.09,-1.34,439,312,254,341,300,23
145,-0.01,-1.0,0.11,-14.89,1.4,-23.68,444,311,256,345,301,23
146,-0.28,-0.98,0.11,6.23,-3.23,4.58,445,311,252,343,298,23
147,-0.21,-0.95,0.02,-2.44,-3.66,-6.47,442,313,256,349,301,23
148,-0.24,-0.98,0.11,6.16,-9.7,-0.24,435,311,256,342,299,23
149,-0.28,-0.96,0.12,7.08,-6.04,2.93,442,315,264,342,299,23
150,-0.23,-0.95,0.11,0.67,-5.8,15.44,442,315,256,346,298,23
151,-0.23,-0.96,0.13,-1.16,-2.69,-3.48,437,314,266,350,299,23
152,-0.24,-0.97,0.14,0.79,-4.94,-1.89,437,312,255,342,302,23
153,-0.22,-0.96,0.11,0.43,-3.85,-3.48,445,315,257,354,300,23
154,-0.22,-0.96,0.12,2.56,-3.66,-2.38,456,311,257,338,301,23
155,-0.23,-0.95,0.13,0.85,-1.89,-2.2,443,315,254,341,301,23
156,-0.24,-0.95,0.14,0.61,-2.38,-2.08,442,315,255,343,301,23
157,-0.23,-0.96,0.13,0.85,-2.75,-2.32,435,312,251,342,304,23
158,-0.24,-0.96,0.14,0.37,-3.42,-2.75,442,311,256,356,301,23
159,-0.24,-0.96,0.13,-1.1,-2.38,-2.2,439,315,260,343,303,23
160,-0.25,-0.96,0.15,0.12,-1.65,-1.46,441,316,253,343,298,23
161,-0.24,-0.95,0.15,1.1,-2.26,-2.38,444,311,256,342,301,23
162,-0.25,-0.94,0.14,3.3,-2.69,-0.67,443,314,254,339,301,23
163,-0.25,-0.95,0.17,-1.28,-4.76,-5.92,441,311,254,341,300,23
164,-0.25,-0.95,0.16,-0.98,-4.88,-3.3,444,312,253,342,300,23
165,-0.24,-0.95,0.15,-1.1,-5.37,-4.15,444,313,254,346,300,23
166,-0.24,-0.95,0.14,0.31,-3.66,-2.69,443,313,255,346,299,23
167,-0.24,-0.94,0.16,-0.24,-4.58,-2.87,443,316,254,343,302,23
168,-0.25,-0.95,0.15,0.24,-3.36,-2.93,438,315,257,343,301,23
169,-0.24,-0.95,0.16,-0.49,-2.32,-3.97,441,315,253,338,300,23
170,-0.15,-0.97,0.16,-13.79,10.86,-27.89,442,311,252,343,300,23
171,-0.24,-0.96,0.11,-0.18,-13.24,4.46,443,315,254,351,302,23
172,-0.23,-0.93,0.12,6.04,-3.66,2.14,441,315,256,344,297,23
173,-0.29,-0.98,0.12,4.94,-1.22,-15.38,446,313,254,342,300,23
174,-0.09,-0.94,-0.02,1.71,-4.39,-6.53,442,312,258,339,301,23
175,-0.18,-0.95,0.06,-1.04,-13.31,-2.08,437,314,253,346,301,23
176,-0.2,-0.98,0.11,-0.55,-4.46,-4.7,442,312,253,340,301,23
177,-0.19,-0.97,0.1,2.26,-1.04,-2.01,440,316,257,338,300,23
178,-0.2,-0.97,0.09,0.37,-0.73,-1.83,443,312,253,347,302,23
179,-0.21,-0.97,0.09,0.43,-3.17,-3.11,441,313,257,345,299,23
180,-0.2,-0.97,0.1,0.43,-2.75,-2.99,440,312,254,344,302,23
181,-0.21,-0.97,0.1,1.28,-2.08,-1.89,441,316,254,345,300,23
182,-0.21,-0.97,0.1,0.24,-2.08,-2.5,442,314,253,356,303,23
183,-0.22,-0.97,0.09,-0.18,-2.75,-1.89,439,312,254,347,300,23
184,-0.2,-0.97,0.09,1.46,-3.6,-2.44,444,313,253,346,300,23
185,-0.23,-0.97,0.09,1.89,-2.2,-1.71,442,312,256,341,301,23
186,-0.22,-0.97,0.1,1.04,-3.54,-2.62,441,314,252,343,304,23
187,-0.2,-0.97,0.1,0.43,-2.08,-2.81,440,314,254,347,298,23
188,-0.22,-0.96,0.08,0.0,-3.91,-3.11,440,315,256,347,302,23
189,-0.21,-0.97,0.1,0.18,-3.72,-2.69,441,315,253,345,300,23
190,-0.21,-0.97,0.1,0.0,-3.3,-3.05,440,315,254,343,302,23
191,-0.21,-0.97,0.1,0.61,-2.93,-1.83,444,313,254,346,301,23
192,-0.22,-0.97,0.09,0.98,-3.6,-2.93,440,310,249,347,298,23
193,-0.22,-0.97,0.1,0.06,-2.2,-1.89,437,313,264,344,304,23
194,-0.22,-0.97,0.09,0.24,-2.62,-2.87,441,316,250,341,301,23
195,-0.22,-0.97,0.09,-0.37,-3.17,-2.5,441,316,254,342,299,23
196,-0.21,-0.97,0.1,0.73,-3.85,-3.36,441,313,255,346,300,23
197,-0.22,-0.96,0.09,0.24,-3.6,-3.11,442,309,252,350,300,23
198,-0.22,-0.97,0.1,0.67,-3.36,-2.56,440,312,255,341,299,23
199,-0.22,-0.97,0.1,0.12,-2.81,-1.77,448,319,256,345,298,23
200,-0.22,-0.97,0.11,0.0,-2.01,-2.08,439,315,251,349,300,23
201,-0.22,-0.97,0.11,1.34,-2.32,-2.62,442,312,253,344,299,23
202,-0.22,-0.97,0.1,-0.06,-3.05,-3.3,439,316,253,348,301,23
203,-0.21,-0.97,0.1,0.37,-2.75,-2.5,440,313,256,351,297,23
204,-0.21,-0.97,0.1,1.04,-2.75,-2.69,440,313,253,349,301,23
205,-0.21,-0.97,0.1,0.0,-2.99,-3.05,440,316,255,346,294,23
206,-0.22,-0.96,0.09,0.79,-3.17,-2.75,440,315,256,341,297,23
207,-0.21,-0.96,0.1,1.16,-2.2,-2.38,442,312,254,345,300,23
208,-0.22,-0.96,0.1,0.31,-3.42,-2.44,445,314,256,341,300,23
209,-0.22,-0.96,0.1,0.31,-3.85,-2.56,441,321,257,347,300,23
210,-0.22,-0.97,0.1,0.06,-3.05,-2.5,438,313,256,341,297,23
211,-0.22,-0.96,0.09,0.0,-2.93,-2.44,441,315,254,346,296,23
212,-0.23,-0.97,0.1,-0.06,-2.5,-2.81,442,313,252,349,298,23
213,-0.22,-0.96,0.09,0.0,-2.99,-3.23,439,311,254,346,299,23
214,-0.22,-0.96,0.09,-0.31,-3.05,-2.75,440,313,256,345,302,23
215,-0.21,-0.96,0.1,0.92,-2.56,-2.38,439,312,254,348,299,23
216,-0.22,-0.97,0.1,0.79,-2.62,-2.32,441,315,255,349,299,23
217,-0.23,-0.97,0.11,1.65,-2.56,-2.81,463,311,252,346,304,23
218,-0.23,-0.97,0.11,1.1,-3.23,-2.2,440,313,256,346,301,23
219,-0.23,-0.98,0.08,-0.31,-2.69,-2.14,442,314,256,346,301,23
220,-0.22,-0.96,0.11,0.0,-2.5,-2.32,440,313,252,350,301,23
221,-0.23,-0.96,0.1,1.28,-2.99,-2.69,441,315,254,345,302,23
222,-0.23,-0.96,0.1,-0.67,-3.48,-2.75,440,316,256,344,304,23
223,-0.22,-0.96,0.1,-0.18,-3.11,-3.05,439,313,254,346,302,23
224,-0.22,-0.97,0.1,0.18,-3.42,-2.81,437,310,255,346,299,23
225,-0.22,-0.97,0.1,0.49,-2.62,-2.56,440,312,253,347,303,23
226,-0.22,-0.96,0.1,0.55,-3.17,-2.2,440,313,255,346,299,23
227,-0.23,-0.96,0.1,0.43,-2.62,-2.26,438,312,255,342,303,23
228,-0.23,-0.96,0.11,0.37,-3.05,-2.56,441,311,255,350,302,23
229,-0.23,-0.96,0.1,0.55,-2.62,-2.38,442,314,254,350,301,23
230,-0.23,-0.96,0.11,0.06,-2.75,-3.05,439,312,253,358,303,23
231,-0.23,-0.96,0.1,0.79,-2.99,-2.38,440,314,255,352,303,23
232,-0.23,-0.96,0.1,-0.06,-3.23,-2.81,438,313,255,343,302,23
233,-0.22,-0.96,0.1,0.79,-3.36,-2.69,447,315,253,347,303,23
234,-0.23,-0.96,0.09,0.06,-3.11,-2.56,440,316,254,344,300,23
235,-0.23,-0.96,0.1,0.0,-3.11,-2.75,439,313,254,351,302,23
236,-0.23,-0.96,0.11,0.43,-2.81,-2.5,440,312,265,347,301,23
237,-0.23,-0.96,0.11,0.31,-2.62,-2.32,436,313,256,350,302,23
238,-0.23,-0.96,0.1,0.79,-3.42,-2.81,442,313,255,352,301,23
239,-0.23,-0.96,0.1,0.49,-3.3,-2.32,441,310,252,351,297,23
240,-0.23,-0.96,0.1,0.37,-2.87,-2.62,439,315,253,345,297,23
241,-0.23,-0.96,0.1,0.12,-3.6,-2.56,439,312,256,347,300,23
242,-0.23,-0.97,0.11,0.49,-2.75,-2.56,437,312,255,348,303,23
243,-0.23,-0.96,0.12,-0.31,-4.09,-2.62,442,313,257,347,301,23
244,-0.24,-0.97,0.11,0.49,-3.54,-1.71,440,313,254,349,303,23
245,-0.23,-0.96,0.11,-1.65,-3.3,-1.1,438,313,256,348,300,23
246,-0.25,-0.95,0.06,-2.99,-4.82,-0.79,438,314,255,347,301,23
247,-0.25,-0.97,0.13,2.08,-3.48,-1.89,440,314,256,346,300,23
248,-0.24,-0.95,0.11,1.16,-2.56,-1.53,437,315,254,348,302,23
249,-0.24,-0.96,0.12,2.26,-2.75,-1.4,439,312,254,344,299,23
250,-0.24,-0.96,0.13,0.37,-2.38,-1.4,436,312,257,348,303,23
251,-0.26,-0.95,0.13,1.59,-2.75,-1.65,439,308,256,350,302,23
252,-0.26,-0.96,0.13,-0.18,-3.48,-2.99,439,313,252,346,303,23
253,-0.25,-0.95,0.12,0.37,-3.3,-2.87,439,310,255,347,301,23
254,-0.26,-0.95,0.13,0.31,-3.48,-2.99,443,313,259,346,303,23
255,-0.25,-0.95,0.12,-0.12,-2.5,-2.69,442,313,256,342,301,23
256,-0.26,-0.95,0.12,0.31,-2.81,-2.69,440,315,255,352,302,23
257,-0.26,-0.95,0.12,0.31,-3.66,-3.17,440,314,255,353,301,23
258,-0.25,-0.95,0.12,0.0,-2.75,-2.75,440,313,256,347,302,23
259,-0.25,-0.95,0.13,0.67,-2.38,-2.75,441,314,255,348,302,23
260,-0.26,-0.95,0.12,0.06,-2.75,-2.2,440,313,255,349,302,23
261,-0.26,-0.96,0.12,-0.18,-1.77,-2.08,438,314,253,345,298,23
262,-0.25,-0.95,0.13,-0.73,-2.69,-2.99,438,315,254,348,300,23
263,-0.26,-0.95,0.13,0.55,-2.44,-2.38,442,314,256,348,304,23
264,-0.26,-0.95,0.12,0.37,-2.62,-2.81,441,310,254,357,301,23
265,-0.26,-0.95,0.13,0.31,-3.72,-2.99,435,314,252,348,302,23
266,-0.26,-0.95,0.13,0.37,-2.99,-2.5,447,309,256,352,302,23
267,-0.25,-0.95,0.12,0.37,-3.05,-2.38,438,315,254,348,301,23
268,-0.26,-0.95,0.13,0.24,-2.5,-2.69,438,312,253,346,299,23
269,-0.26,-0.95,0.12,0.55,-2.99,-2.87,440,312,256,347,305,23
270,-0.25,-0.95,0.12,0.24,-3.48,-3.17,440,313,254,358,300,23
271,-0.26,-0.95,0.12,-0.37,-3.72,-3.11,439,309,254,348,302,23
272,-0.26,-0.95,0.13,0.31,-2.75,-2.44,437,314,253,353,303,23
273,-0.26,-0.95,0.12,0.37,-3.11,-3.05,461,312,254,349,301,23
274,-0.26,-0.95,0.12,0.12,-2.38,-2.38,438,313,254,352,302,23
275,-0.26,-0.95,0.12,0.06,-2.75,-3.42,439,316,254,349,298,23
276,-0.26,-0.95,0.13,0.0,-2.44,-1.95,437,311,255,348,302,23
277,-0.26,-0.95,0.12,0.98,-2.5,-2.01,438,313,252,353,303,23
278,-0.27,-0.95,0.13,0.06,-3.11,-3.11,440,314,256,346,301,23
279,-0.26,-0.95,0.13,0.61,-2.75,-2.38,440,312,256,351,299,23
280,-0.27,-0.95,0.13,0.18,-2.08,-2.62,436,313,254,351,302,23
281,-0.26,-0.95,0.13,-0.06,-2.69,-2.26,438,312,253,353,305,23
282,-0.26,-0.95,0.12,0.06,-3.6,-3.11,446,314,255,350,302,23
283,-0.26,-0.96,0.13,-0.24,-3.17,-1.53,441,314,256,351,302,23
284,-0.29,-0.96,0.14,0.79,-2.44,-0.79,439,313,255,347,299,23
285,-0.27,-0.95,0.13,0.18,-3.42,-2.93,435,308,251,353,301,23
286,-0.27,-0.95,0.12,0.92,-3.48,-3.42,440,316,252,351,300,23
287,-0.27,-0.95,0.12,0.06,-3.6,-2.93,438,312,252,352,301,23
288,-0.27,-0.95,0.13,-0.18,-3.17,-2.69,436,314,253,349,303,23
289,-0.26,-0.95,0.13,0.55,-2.99,-2.99,438,314,255,351,303,23
290,-0.27,-0.95,0.13,0.0,-2.75,-2.32,436,313,255,345,303,23
291,-0.27,-0.95,0.13,0.06,-2.62,-2.62,440,313,257,345,302,23
292,-0.27,-0.95,0.13,0.0,-3.05,-2.93,441,314,256,346,301,23
293,-0.27,-0.95,0.12,0.31,-3.36,-2.26,442,313,256,349,301,23
294,-0.27,-0.95,0.13,0.43,-2.81,-2.75,438,310,254,346,301,23
295,-0.27,-0.95,0.13,0.79,-3.05,-2.69,440,313,255,351,301,23
296,-0.27,-0.95,0.13,0.55,-2.38,-2.81,438,315,254,348,303,23
297,-0.27,-0.95,0.12,1.04,-2.38,-2.75,441,313,256,353,299,23
298,-0.27,-0.95,0.14,0.31,-2.87,-2.75,440,313,251,349,299,23
299,-0.27,-0.95,0.13,0.73,-2.75,-2.26,440,315,254,348,302,23
300,-0.27,-0.95,0.13,0.24,-2.75,-2.87,441,313,252,350,304,23
301,-0.26,-0.94,0.12,1.28,-1.83,-3.85,433,311,255,351,300,23
302,-0.28,-0.94,0.13,1.04,-1.89,-1.77,440,313,254,353,298,23
303,-0.27,-0.94,0.12,0.24,-3.66,-2.62,439,312,253,353,298,23
304,-0.28,-0.94,0.12,0.73,-2.5,-2.99,440,313,257,351,301,23
305,-0.27,-0.94,0.13,0.61,-2.69,-2.32,438,313,254,352,301,23
306,-0.27,-0.95,0.13,-0.31,-3.54,-3.17,440,315,257,348,304,23
307,-0.28,-0.95,0.15,-0.61,-2.2,-5.25,438,313,256,353,301,23
308,-0.26,-0.94,0.12,0.67,-3.97,-4.76,437,314,252,350,303,23
309,-0.27,-0.94,0.13,0.31,-3.3,-2.2,438,309,252,350,300,23
310,-0.27,-0.95,0.14,0.43,-2.2,-2.01,439,315,254,350,302,23
311,-0.29,-0.95,0.14,0.0,-1.34,-1.71,436,315,255,354,299,23
312,-0.29,-0.94,0.13,0.06,-0.92,-1.1,438,313,254,349,301,23
313,-0.29,-0.95,0.13,0.0,-2.32,-2.93,437,314,255,350,302,23
314,-0.29,-0.95,0.13,0.31,-2.38,-2.69,441,313,255,353,299,23
315,-0.28,-0.94,0.12,0.12,-2.75,-2.69,439,316,255,355,303,23
316,-0.29,-0.94,0.12,1.04,-2.01,-2.26,441,315,254,350,301,23
317,-0.29,-0.94,0.13,0.73,-3.42,-2.81,438,313,253,351,301,23
318,-0.29,-0.94,0.12,0.67,-3.05,-2.75,438,315,256,349,301,23
319,-0.3,-0.94,0.13,0.79,-3.23,-2.75,435,314,256,352,303,23
320,-0.32,-0.94,0.15,0.92,-1.89,-2.62,436,311,253,352,302,23
321,-0.29,-0.94,0.14,0.61,-3.23,-3.66,440,314,251,355,304,23
322,-0.29,-0.94,0.14,1.34,-2.56,-2.5,439,316,254,350,301,23
323,-0.29,-0.94,0.14,0.67,-2.62,-1.95,437,315,255,354,298,23
324,-0.3,-0.94,0.14,0.92,-2.08,-2.2,438,313,253,351,303,23
325,-0.29,-0.94,0.14,-0.06,-2.69,-2.56,440,313,254,362,300,23
326,-0.29,-0.94,0.14,0.43,-2.93,-2.2,433,309,253,350,298,23
327,-0.29,-0.94,0.14,0.43,-2.93,-2.08,437,314,252,356,301,23
328,-0.3,-0.94,0.14,0.73,-2.5,-2.32,440,313,251,353,298,23
329,-0.3,-0.94,0.14,0.43,-3.6,-2.93,439,315,258,350,302,23
330,-0.3,-0.94,0.14,0.18,-2.87,-2.56,434,315,256,354,301,23
331,-0.3,-0.94,0.14,0.49,-3.23,-2.93,437,315,256,350,299,23
332,-0.29,-0.94,0.14,-0.06,-2.5,-2.56,437,315,256,351,299,23
333,-0.3,-0.94,0.14,0.79,-3.11,-2.93,438,313,251,352,299,23
334,-0.3,-0.94,0.15,0.73,-2.87,-2.87,437,318,256,353,294,23
335,-0.3,-0.93,0.15,-0.18,-3.78,-3.23,437,313,255,350,303,23
336,-0.3,-0.93,0.16,0.31,-2.62,-2.56,438,312,257,347,300,23
337,-0.3,-0.94,0.14,0.49,-2.5,-2.32,440,311,251,346,303,23
338,-0.29,-0.94,0.15,2.69,-3.91,-2.99,440,312,255,351,299,23
339,-0.3,-0.93,0.14,1.4,-4.15,-3.54,438,313,255,354,303,23
340,-0.3,-0.94,0.13,0.12,-3.11,-2.75,435,312,256,345,299,23
341,-0.3,-0.94,0.15,0.31,-2.44,-2.2,437,314,255,349,301,23
342,-0.3,-0.94,0.14,0.24,-2.99,-3.48,432,314,256,363,299,23
343,-0.3,-0.93,0.14,0.31,-3.36,-2.2,438,315,253,353,301,23
344,-0.3,-0.94,0.14,0.43,-3.17,-2.87,438,314,251,351,301,23
345,-0.3,-0.94,0.15,0.06,-3.54,-2.81,439,312,255,349,302,23
346,-0.3,-0.93,0.14,0.18,-3.17,-2.93,434,312,252,352,304,23
347,-0.3,-0.94,0.14,0.12,-3.23,-2.69,440,312,256,350,302,23
348,-0.3,-0.94,0.14,-0.06,-2.75,-2.81,440,312,250,352,304,23
349,-0.3,-0.94,0.15,0.31,-2.87,-2.38,438,313,256,348,296,23
350,-0.3,-0.93,0.14,0.18,-3.48,-3.05,444,312,252,352,299,23
351,-0.31,-0.94,0.15,0.43,-2.81,-2.32,439,310,253,353,297,23
352,-0.3,-0.94,0.15,0.18,-3.23,-2.81,441,309,255,346,302,23
353,-0.3,-0.93,0.14,0.98,-2.93,-2.56,440,315,252,351,301,23
354,-0.3,-0.93,0.14,0.61,-3.42,-2.81,434,315,255,350,302,23
355,-0.3,-0.93,0.14,0.18,-3.6,-3.3,434,316,253,352,301,23
356,-0.3,-0.93,0.15,0.37,-3.3,-2.87,437,313,252,349,298,23
357,-0.3,-0.93,0.15,0.98,-3.17,-2.5,436,316,254,354,300,23
358,-0.3,-0.94,0.15,0.18,-3.36,-3.11,437,315,255,351,301,23
359,-0.31,-0.95,0.18,1.28,-0.43,0.43,436,313,256,351,302,23
360,-0.38,-0.91,0.13,-2.93,-7.02,-3.11,439,313,251,348,298,23
361,-0.29,-0.95,0.17,-0.06,-5.49,1.16,440,309,252,356,301,23
362,-0.3,-0.93,0.17,-0.37,-4.94,-2.44,436,324,265,347,302,23
363,-0.3,-0.92,0.15,-0.49,-0.43,-5.25,437,312,253,351,303,23
364,-0.32,-0.93,0.14,1.83,-3.72,-0.67,438,313,253,351,299,23
365,-0.32,-0.93,0.15,2.5,-2.5,-3.48,443,312,254,353,301,23
366,-0.25,-0.93,0.14,1.1,-2.44,-9.58,434,311,253,352,303,23
367,-0.31,-0.94,0.14,-3.72,-2.69,-4.03,435,311,253,351,301,23
368,-0.21,-1.06,0.08,6.04,7.32,-5.25,436,314,255,351,302,23
369,-0.38,-0.85,0.13,1.46,14.28,20.87,437,311,255,352,300,23
370,-0.45,-0.89,0.12,1.83,-0.06,-3.97,434,314,251,351,301,23
371,-0.46,-0.84,0.08,-3.85,-5.37,-6.04,437,316,257,354,304,23
372,-0.43,-0.88,0.11,3.85,-2.01,-0.79,436,312,252,354,302,23
373,-0.44,-0.88,0.15,1.89,-2.62,-2.69,437,309,252,350,303,23
374,-0.4,-0.91,0.14,0.31,-3.72,-3.78,437,311,252,351,302,23
375,-0.46,-0.9,0.16,7.57,-0.06,-0.67,437,316,257,347,304,23
376,-0.5,-0.79,0.19,6.71,-1.28,0.06,438,314,255,348,302,23
377,-0.46,-0.79,0.16,3.78,-3.17,-1.46,436,313,251,353,304,23
378,-0.65,-0.81,0.26,7.2,8.12,12.27,437,315,255,359,304,23
379,-0.58,-0.74,0.25,7.08,-0.98,20.87,437,314,253,354,299,23
380,-0.6,-0.74,0.22,1.28,-3.66,-9.4,437,314,255,353,300,23
381,-0.62,-0.73,0.21,-7.26,-6.84,-6.65,437,312,254,355,299,23
382,-0.6,-0.75,0.19,-2.26,-3.17,-3.42,437,315,255,359,303,23
383,-0.6,-0.75,0.18,0.61,-4.46,-6.1,437,312,256,347,301,23
384,-0.62,-0.76,0.22,0.98,-1.95,-2.26,435,312,254,358,294,23
385,-0.59,-0.75,0.23,7.87,-6.16,-2.01,439,311,252,352,301,23
386,-0.63,-0.72,0.27,7.75,-6.04,1.53,439,311,254,349,303,23
387,-0.64,-0.69,0.27,-5.8,-2.01,-2.32,437,315,255,356,302,23
388,-0.59,-0.73,0.28,0.85,-4.39,-6.71,438,311,255,354,305,23
389,-0.61,-0.73,0.3,12.76,-0.12,1.89,434,311,256,354,304,23
390,-0.66,-0.67,0.3,3.85,-2.14,-0.18,436,316,252,353,303,23
391,-0.64,-0.7,0.37,3.05,-1.22,1.53,436,313,253,357,300,23
392,-0.78,-0.61,0.29,4.52,2.93,8.54,437,313,257,354,303,23
393,-0.72,-0.59,0.32,3.54,1.71,1.71,431,312,254,354,304,23
394,-0.79,-0.59,0.3,2.38,-4.88,-7.57,437,311,253,358,302,23
395,-0.69,-0.6,0.29,-3.72,-7.39,-11.6,448,315,257,348,304,23
396,-0.74,-0.63,0.34,1.16,-3.97,3.17,436,315,255,355,300,23
397,-0.7,-0.64,0.35,-0.49,-6.04,-3.54,435,314,256,353,303,23
398,-0.63,-0.68,0.24,-24.48,-0.98,-27.71,437,310,257,353,303,23
399,-0.36,-0.86,0.15,-21.55,-17.76,-19.53,435,316,253,351,310,23
400,-0.53,-0.89,0.2,-9.46,-22.46,-24.35,437,314,257,350,304,23
401,-0.41,-0.9,0.29,-15.5,-15.5,-29.97,437,315,256,353,303,23
402,-0.34,-0.92,0.16,-5.92,-5.37,-12.02,436,313,254,353,306,23
403,-0.31,-0.91,0.18,-3.23,6.9,-4.03,439,314,253,348,301,23
404,-0.3,-0.93,0.11,-3.91,-0.55,-8.06,438,317,251,358,304,23
405,-0.32,-0.95,0.13,-2.69,-1.65,-1.83,437,313,255,354,304,23
406,-0.28,-0.94,0.09,1.16,-3.36,-3.66,440,312,253,353,306,23
407,-0.3,-0.94,0.1,-0.55,-5.62,-5.31,437,313,256,354,305,23
408,-0.29,-0.94,0.1,-0.61,-3.36,-3.42,434,310,251,354,304,23
409,-0.3,-0.94,0.1,0.61,-3.72,-2.81,441,313,251,354,301,23
410,-0.29,-0.95,0.11,0.61,-3.17,-2.69,437,313,253,358,306,23
411,-0.3,-0.95,0.11,-0.24,-2.87,-3.42,439,313,250,353,303,23
412,-0.3,-0.94,0.09,-0.55,-2.26,-2.5,436,315,253,358,306,23
413,-0.29,-0.95,0.1,0.06,-3.54,-3.48,438,315,256,354,305,23
414,-0.29,-0.93,0.1,-0.55,-2.32,-3.05,436,315,259,358,306,23
415,-0.3,-0.96,0.12,1.22,-4.33,-3.05,436,316,256,353,304,23
416,-0.27,-0.96,0.09,-3.85,-5.74,-8.42,443,313,251,358,304,23
417,-0.23,-0.96,0.05,-1.28,-2.01,-5.49,433,313,252,359,308,23
418,-0.27,-0.96,0.07,1.28,-4.03,-0.61,436,312,252,356,301,23
419,-0.25,-0.96,0.06,0.79,-2.75,-2.62,437,315,254,357,304,23
420,-0.26,-0.96,0.05,-0.67,-2.14,-3.23,435,313,254,355,305,23
421,-0.25,-0.96,0.06,0.73,-6.04,-5.13,436,328,258,355,308,23
422,-0.26,-0.96,0.06,3.66,-3.23,-2.75,435,316,262,353,305,23
423,-0.26,-0.95,0.05,0.55,-2.44,-3.48,436,317,256,369,305,23
424,-0.25,-0.93,0.08,0.61,-2.69,-2.69,436,313,254,358,304,23
425,-0.25,-0.96,0.06,0.0,-4.03,-3.78,436,314,253,355,306,23
426,-0.24,-0.95,0.06,0.55,-3.05,-2.56,437,315,252,359,305,23
427,-0.25,-0.96,0.06,0.98,-2.87,-2.87,438,315,254,358,303,23
428,-0.25,-0.96,0.06,0.55,-2.87,-2.75,436,314,253,359,305,23
429,-0.24,-0.96,0.05,0.37,-2.99,-3.66,438,313,253,354,307,23
430,-0.24,-0.96,0.06,0.43,-2.69,-2.14,435,312,253,359,305,23
431,-0.25,-0.96,0.05,0.55,-2.75,-3.36,438,316,253,355,305,23
432,-0.25,-0.96,0.05,0.73,-2.87,-3.17,435,314,256,351,304,23
433,-0.25,-0.96,0.06,-0.18,-3.6,-2.56,436,317,255,354,305,23
434,-0.24,-0.96,0.06,0.43,-2.81,-2.93,435,314,253,359,303,23
435,-0.25,-0.96,0.06,-0.55,-2.81,-2.5,436,324,255,356,308,23
436,-0.25,-0.96,0.07,0.85,-3.3,-2.56,437,311,254,357,304,23
437,-0.25,-0.96,0.06,0.61,-3.66,-2.38,437,313,253,357,305,23
438,-0.25,-0.96,0.07,1.53,-2.87,-2.38,435,314,257,358,305,23
439,-0.25,-0.96,0.06,0.49,-3.05,-2.62,434,315,267,359,308,23
440,-0.25,-0.96,0.07,0.55,-2.38,-2.99,436,313,252,355,306,23
441,-0.25,-0.96,0.07,0.24,-3.54,-2.62,436,315,254,358,303,23
442,-0.25,-0.96,0.07,1.53,-3.72,-1.71,433,316,254,355,306,23
443,-0.25,-0.96,0.06,0.61,-2.87,-2.01,445,314,254,355,306,23
444,-0.25,-0.96,0.07,0.18,-2.5,-2.69,437,314,256,359,305,23
445,-0.25,-0.96,0.06,0.0,-3.72,-2.75,435,316,253,358,304,23
446,-0.25,-0.96,0.07,0.43,-2.32,-2.2,436,316,254,354,300,23
447,-0.25,-0.96,0.06,0.06,-3.17,-2.75,435,315,255,355,309,23
448,-0.25,-0.96,0.06,0.55,-3.78,-2.5,436,314,255,350,306,23
449,-0.25,-0.96,0.06,0.67,-3.3,-2.2,438,314,254,356,305,23
450,-0.25,-0.96,0.07,0.37,-2.99,-2.26,436,316,255,356,305,23
451,-0.26,-0.96,0.07,0.24,-3.23,-2.99,434,311,253,355,308,23
452,-0.25,-0.96,0.06,0.18,-3.23,-2.87,435,315,256,355,305,23
453,-0.25,-0.96,0.06,-0.79,-2.93,-2.87,435,315,254,356,305,23
454,-0.24,-0.96,0.06,-0.06,-2.99,-2.93,450,316,253,358,306,23
455,-0.25,-0.96,0.06,0.06,-3.48,-2.87,440,313,254,356,308,23
456,-0.25,-0.96,0.06,0.0,-2.75,-2.5,435,313,256,362,306,23
457,-0.25,-0.96,0.06,0.49,-2.38,-2.38,435,314,254,356,298,23
458,-0.25,-0.96,0.06,0.12,-2.5,-2.2,436,313,253,355,309,23
459,-0.24,-0.96,0.06,0.43,-2.87,-3.23,444,314,253,356,304,23
460,-0.25,-0.96,0.06,0.73,-3.6,-2.5,432,321,254,356,307,23
461,-0.25,-0.96,0.06,0.85,-2.99,-2.56,436,318,250,358,305,23
462,-0.25,-0.96,0.06,0.55,-3.05,-2.44,435,316,255,358,304,23
463,-0.25,-0.96,0.07,0.61,-2.62,-2.5,439,316,254,356,307,23
464,-0.25,-0.96,0.07,-0.12,-3.17,-2.99,435,315,252,356,308,23
465,-0.25,-0.96,0.06,-0.12,-2.69,-3.36,437,317,253,358,306,23
466,-0.25,-0.95,0.04,-1.4,-2.93,-4.46,438,315,254,354,305,23
467,-0.25,-0.96,0.06,0.24,-3.23,-2.32,433,314,255,358,306,23
468,-0.24,-0.96,0.06,-0.37,-3.6,-2.62,435,313,248,356,307,23
469,-0.24,-0.96,0.06,0.37,-2.62,-3.11,438,314,254,357,306,23
470,-0.24,-0.96,0.05,0.31,-3.17,-2.56,435,314,254,358,304,23
471,-0.26,-0.97,0.06,0.85,-3.36,-2.69,424,316,253,354,303,23
472,-0.25,-0.96,0.06,0.18,-2.99,-2.5,436,311,255,355,307,23
473,-0.25,-0.96,0.06,0.06,-2.56,-3.23,436,316,253,359,306,23
474,-0.25,-0.96,0.06,0.31,-3.36,-2.75,443,315,254,357,306,23
475,-0.25,-0.96,0.07,0.18,-2.2,-3.17,437,316,253,352,306,23
476,-0.23,-0.96,0.05,0.06,-2.93,-2.56,435,311,253,357,307,23
477,-0.25,-0.95,0.07,-0.31,-3.72,-1.71,443,315,252,358,307,23
478,-0.27,-0.96,0.07,-1.16,-3.23,-6.47,446,317,252,359,306,23
479,-0.27,-0.97,0.05,-2.99,-0.73,-7.39,432,315,256,360,307,23
480,-0.28,-0.96,-0.04,-10.68,-2.5,-4.88,433,321,252,356,308,23
481,-0.23,-0.93,-0.07,12.33,-5.31,6.29,435,314,254,357,306,23
482,-0.29,-0.96,-0.0,3.91,-2.87,-1.16,437,313,256,359,306,23
483,-0.28,-0.96,-0.0,-0.61,-2.2,-3.17,435,313,255,356,308,23
484,-0.28,-0.95,-0.02,0.55,-2.01,-1.53,435,318,254,356,308,23
485,-0.28,-0.96,-0.0,0.92,-2.01,-1.77,436,314,253,357,307,23
486,-0.29,-0.96,-0.01,-0.85,-2.62,-1.83,434,313,254,354,308,23
487,-0.29,-0.95,-0.03,0.85,-13.31,-9.95,475,312,253,361,306,23
488,-0.17,-0.96,-0.0,7.57,-12.88,-0.55,435,314,253,352,300,23
489,-0.28,-0.95,0.05,2.75,1.22,-2.38,437,314,254,358,305,23
490,-0.29,-0.95,0.06,5.25,-2.62,-3.54,435,315,255,352,306,23
491,-0.28,-0.95,0.08,-1.4,-2.01,-3.05,435,315,255,362,307,23
492,-0.27,-0.95,0.06,0.06,-4.03,-1.16,436,325,253,360,303,23
493,-0.32,-0.94,0.1,4.52,-5.98,2.2,437,313,258,361,306,23
494,-0.29,-0.96,0.13,1.34,-4.03,0.43,436,314,255,360,305,23
495,-0.29,-0.95,0.1,0.67,-3.97,-2.26,431,314,254,353,300,23
496,-0.29,-0.95,0.11,1.77,-4.21,-2.38,433,310,260,362,304,23
497,-0.3,-0.95,0.11,-0.55,-2.38,-1.71,434,314,256,361,305,23
498,-0.29,-0.95,0.1,0.73,-3.05,-1.95,434,317,252,354,302,23
499,-0.29,-0.95,0.11,0.55,-3.78,-1.4,437,315,253,353,309,23
500,-0.28,-0.94,0.1,-1.59,-1.34,-5.0,462,314,254,360,306,23
501,-0.28,-0.95,0.09,0.79,-6.23,-0.79,436,316,252,361,307,23
502,-0.3,-0.96,0.13,-0.24,-1.83,-0.92,434,314,254,355,309,23
503,-0.3,-0.94,0.11,-0.73,-2.93,-2.69,438,314,253,356,306,23
504,-0.29,-0.94,0.09,1.53,-3.66,-1.53,441,312,255,359,307,23
505,-0.3,-0.94,0.09,0.31,-3.17,-1.83,432,316,259,357,306,23
506,-0.3,-0.95,0.11,-0.37,-2.69,-2.01,436,317,254,357,306,23
507,-0.3,-0.94,0.08,0.43,-2.99,-2.08,433,314,257,356,306,23
508,-0.31,-0.94,0.09,0.85,-3.97,-2.2,437,314,260,358,309,23
509,-0.3,-0.94,0.09,1.1,-2.99,-2.26,436,314,256,359,309,23
510,-0.3,-0.94,0.09,-0.92,-3.48,-2.32,434,331,255,358,304,23
511,-0.3,-0.95,0.09,-0.55,-2.87,-2.87,441,314,253,360,306,23
512,-0.29,-0.95,0.09,1.59,-4.46,-2.93,435,315,253,358,306,23
513,-0.3,-0.95,0.09,0.43,-3.48,-1.89,434,315,257,354,306,23
514,-0.3,-0.94,0.09,0.85,-2.99,-2.44,435,313,255,360,302,23
515,-0.3,-0.94,0.09,-0.12,-3.48,-2.75,441,314,252,359,308,23
516,-0.29,-0.94,0.08,-3.3,-2.87,-4.76,442,313,253,359,308,23
517,-0.27,-0.87,0.01,5.0,-19.96,-3.91,423,314,257,355,309,23
518,-0.31,-0.96,0.09,-8.3,6.59,-2.93,434,314,256,360,309,23
519,-0.28,-0.96,0.0,-4.09,0.06,-6.16,433,316,252,362,306,23
520,-0.27,-0.96,0.01,4.33,1.46,-0.92,434,316,254,355,306,23
521,-0.31,-0.95,0.0,1.46,0.43,1.16,433,316,256,357,313,23
522,-0.27,-0.96,0.01,-4.7,-7.02,-4.94,432,317,252,358,308,23
523,-0.29,-0.95,-0.02,-3.42,-0.98,-2.62,435,312,255,363,307,23
524,-0.26,-0.95,-0.04,-1.89,-2.26,-5.31,432,312,256,363,307,23
525,-0.29,-0.95,-0.03,-0.79,-1.04,-4.27,431,313,261,362,306,23
526,-0.27,-0.95,-0.04,0.55,-3.05,-2.99,430,313,254,362,305,23
527,-0.28,-0.95,-0.04,-0.18,-3.17,-2.62,430,314,254,360,306,23
528,-0.27,-0.95,-0.04,-0.31,-3.3,-2.62,430,315,262,356,305,23
529,-0.28,-0.96,-0.04,0.24,-2.2,-2.56,430,310,253,360,303,23
530,-0.28,-0.94,-0.03,-1.46,-1.77,-2.93,433,311,255,363,309,23
531,-0.28,-0.95,-0.04,1.22,-3.11,-3.23,428,316,252,363,304,23
532,-0.28,-0.95,-0.05,0.79,-2.99,-2.5,432,315,253,357,308,23
533,-0.27,-0.95,-0.04,0.24,-3.42,-2.69,432,314,253,363,305,23
534,-0.27,-0.95,-0.04,-0.18,-3.66,-3.36,435,316,254,359,304,23
535,-0.28,-0.96,-0.04,0.61,-3.85,-1.83,432,317,251,361,310,23
536,-0.27,-0.95,-0.05,0.55,-2.93,-2.87,430,316,251,363,308,23
537,-0.28,-0.95,-0.05,0.12,-2.5,-2.26,431,316,256,355,308,23
538,-0.28,-0.95,-0.06,0.49,-2.62,-2.56,430,314,254,359,308,23
539,-0.27,-0.95,-0.04,0.92,-3.72,-2.75,438,323,258,359,308,23
540,-0.28,-0.95,-0.05,0.67,-3.23,-2.38,430,314,256,369,302,23
541,-0.28,-0.95,-0.04,0.18,-2.08,-2.81,427,316,252,364,306,23
542,-0.28,-0.95,-0.05,0.79,-3.48,-2.08,433,316,257,356,307,23
543,-0.28,-0.95,-0.05,0.18,-2.75,-2.32,431,314,256,354,307,23
544,-0.27,-0.95,-0.04,-0.31,-2.99,-3.05,431,313,255,358,308,23
545,-0.28,-0.95,-0.05,0.43,-3.3,-2.56,430,313,257,363,307,23
546,-0.28,-0.95,-0.06,-0.73,-2.62,-3.54,432,317,255,362,304,23
547,-0.28,-0.95,-0.07,0.73,-2.62,-2.62,438,314,257,363,309,23
548,-0.28,-0.95,-0.05,1.34,-2.62,-3.05,430,312,260,359,305,23
549,-0.27,-0.95,-0.05,1.16,-2.81,-2.26,431,316,254,359,309,23
550,-0.29,-0.95,-0.05,-1.22,-3.11,-2.75,432,312,256,359,306,23
551,-0.27,-0.94,-0.09,-1.65,-3.91,-0.73,429,311,256,357,308,23
552,-0.27,-0.95,-0.04,3.78,-1.53,-1.71,432,309,260,359,308,23
553,-0.3,-0.95,-0.05,0.37,-4.27,-1.53,468,315,268,359,306,23
554,-0.28,-0.95,-0.04,1.16,-3.05,-2.87,430,317,255,362,307,23
555,-0.29,-0.95,-0.05,1.53,-2.56,-2.08,434,326,255,365,308,23
556,-0.29,-0.95,-0.05,-0.79,-2.87,-3.11,430,313,254,359,306,23
557,-0.28,-0.94,-0.06,0.31,-2.75,-2.62,430,316,254,357,306,23
558,-0.28,-0.96,-0.03,0.24,-2.56,-2.93,439,314,255,360,306,23
559,-0.28,-0.95,-0.05,-0.43,-2.56,-3.42,431,320,254,362,308,23
560,-0.28,-0.94,-0.06,-1.1,-2.62,-2.56,434,315,253,360,306,23
561,-0.27,-0.94,-0.07,0.18,-2.93,-3.23,432,316,256,359,307,23
562,-0.29,-0.96,-0.04,2.08,-3.11,-2.5,430,314,252,362,307,23
563,-0.29,-0.95,-0.05,0.67,-2.62,-2.38,431,316,255,359,307,23
564,-0.29,-0.95,-0.06,-0.12,-3.17,-2.93,442,311,257,359,308,23
565,-0.28,-0.95,-0.05,-1.71,-3.6,-3.23,434,317,252,362,307,23
566,-0.29,-0.95,-0.07,1.1,-2.99,-2.75,427,317,254,362,314,23
567,-0.28,-0.95,-0.05,0.67,-3.3,-3.05,436,314,256,364,305,23
568,-0.29,-0.95,-0.06,-0.37,-2.81,-3.11,430,320,256,360,308,23
569,-0.29,-0.95,-0.06,0.37,-2.56,-2.81,433,318,255,359,310,23
570,-0.28,-0.95,-0.06,0.12,-3.6,-2.87,432,314,257,365,308,23
571,-0.28,-0.95,-0.06,-0.24,-3.11,-2.87,427,317,263,359,308,23
572,-0.28,-0.95,-0.06,0.12,-2.93,-2.93,431,318,258,356,307,23
573,-0.29,-0.95,-0.06,0.18,-2.81,-2.56,437,315,256,361,302,23
574,-0.28,-0.95,-0.07,-2.01,-2.2,-3.48,431,314,255,359,307,23
575,-0.27,-0.97,-0.07,-3.17,3.72,-7.08,431,314,257,360,307,23
576,-0.15,-0.95,-0.18,-4.76,15.44,-12.82,430,313,255,359,308,23
577,-0.12,-0.97,-0.18,2.2,11.05,-6.9,429,329,254,359,307,23
578,-0.11,-0.95,-0.2,3.3,-9.34,4.76,432,312,257,362,308,23
579,-0.19,-0.95,-0.18,-5.25,-1.89,-3.11,432,317,252,358,306,23
580,-0.15,-1.01,-0.13,-7.45,-1.28,-5.62,430,317,256,361,306,23
581,-0.18,-0.97,-0.15,1.46,-12.45,-4.15,427,314,256,362,304,23
582,-0.08,-0.96,-0.17,6.29,-5.62,0.24,430,314,256,362,305,23
583,-0.23,-0.98,-0.05,6.59,-6.9,-0.43,433,314,255,360,307,23
584,-0.21,-0.97,-0.07,2.14,-5.07,-0.79,430,315,258,359,307,23
585,-0.16,-0.97,-0.12,-2.32,-7.57,-7.87,432,314,255,359,306,23
586,-0.19,-0.95,-0.11,0.67,0.0,-6.23,427,315,261,361,301,23
587,-0.16,-0.97,-0.09,2.5,-2.81,-2.5,429,316,254,361,307,23
588,-0.21,-0.96,-0.07,-7.69,2.44,-0.24,430,312,254,359,305,23
589,-0.16,-0.94,-0.05,-7.6,-4.7,7.75,391,297,229,263,300,23
590,-0.13,-1.03,-0.01,-23.93,-10.38,9.34,416,334,228,286,300,23
591,-0.13,-0.98,-0.15,15.01,-6.04,-7.75,418,336,233,294,305,23
592,-0.16,-0.99,-0.05,-5.68,-2.99,0.43,424,341,233,295,306,23
593,-0.19,-0.98,-0.09,1.34,-6.65,0.24,422,339,234,296,304,23
594,-0.17,-0.98,-0.11,3.66,10.01,5.25,424,345,233,296,306,23
595,-0.23,-0.99,-0.07,17.33,18.98,6.71,427,347,230,296,306,23
596,-0.24,-0.95,-0.04,1.46,-2.87,0.73,426,345,230,298,310,23
597,-0.14,-0.98,0.02,-7.69,-21.97,0.12,429,347,233,294,306,23
598,-0.17,-0.97,-0.03,-0.73,-5.31,-7.87,426,348,233,294,304,23
599,-0.19,-0.98,-0.08,0.73,-3.85,-5.07,427,347,231,293,308,23
600,-0.2,-0.97,-0.06,-2.81,-2.62,-2.99,428,349,230,296,309,23
601,-0.2,-0.98,-0.05,2.56,-5.8,-2.5,426,348,231,294,310,23
602,-0.21,-0.97,-0.05,0.0,-4.88,-1.28,429,351,233,294,310,23
603,-0.2,-0.97,-0.02,0.67,-3.54,-2.2,427,353,230,295,308,23
604,-0.21,-0.97,-0.01,0.92,-3.36,-1.46,427,349,231,295,312,23
605,-0.22,-0.98,-0.02,0.92,-1.46,-0.73,424,351,237,299,309,23
606,-0.2,-0.98,-0.06,-6.29,-3.3,-2.81,438,350,237,296,310,23
607,-0.19,-0.98,-0.04,1.04,-3.72,-3.97,425,349,233,309,312,23
608,-0.2,-0.98,-0.07,-1.22,-6.9,-2.87,425,350,234,293,311,23
609,-0.21,-0.97,-0.05,2.38,-2.38,-3.11,423,350,235,290,310,23
610,-0.21,-0.97,-0.05,0.18,-2.99,-2.14,424,350,236,300,311,23
611,-0.21,-0.97,-0.06,-2.93,-2.14,-3.72,436,352,230,294,309,23
612,-0.21,-0.97,-0.06,0.85,-2.14,-2.38,424,352,234,292,309,23
613,-0.2,-0.97,-0.04,2.75,-2.81,-1.65,423,352,239,287,311,23
614,-0.22,-0.97,-0.02,-4.52,-4.58,-3.36,424,351,236,294,312,23
615,-0.21,-0.97,-0.04,2.38,-3.91,-2.56,420,352,235,289,311,23
616,-0.2,-0.97,-0.07,-3.6,-0.43,-3.85,421,353,235,294,311,23
617,-0.22,-0.97,-0.06,3.05,-3.66,-1.95,421,348,229,298,312,23
618,-0.21,-0.97,-0.07,-0.06,-2.08,-2.5,421,353,240,299,309,23
619,-0.22,-0.96,-0.07,1.22,-2.08,-1.83,420,353,237,296,310,23
620,-0.21,-0.97,-0.08,0.92,-2.81,-2.62,420,352,240,293,313,23
621,-0.2,-0.97,-0.08,-1.22,-3.72,-1.89,420,347,235,295,315,23
622,-0.22,-0.97,-0.09,0.73,-3.05,-2.44,424,352,234,298,315,23
623,-0.22,-0.97,-0.07,1.34,-2.81,-2.32,425,351,241,290,310,23
624,-0.22,-0.97,-0.06,0.24,-4.15,-2.38,421,348,238,297,313,23
625,-0.22,-0.96,-0.07,-0.18,-2.32,-2.5,425,353,227,290,313,23
626,-0.21,-0.97,-0.11,2.69,-1.22,-5.07,424,357,240,298,313,23
627,-0.21,-0.97,-0.06,2.32,-2.08,-2.99,422,355,237,295,311,23
628,-0.21,-1.0,-0.04,0.55,-2.62,-2.32,436,354,253,294,314,23
629,-0.21,-0.97,-0.04,0.06,-4.03,-2.14,428,353,238,289,312,23
630,-0.21,-0.97,-0.04,1.22,-3.42,-2.44,429,351,238,298,307,23
631,-0.21,-0.97,-0.03,1.59,-3.05,-2.99,426,357,236,294,312,23
632,-0.21,-0.97,-0.03,0.98,-3.17,-2.81,426,352,240,300,311,23
633,-0.21,-0.97,-0.02,0.24,-3.72,-3.05,426,350,238,293,314,23
634,-0.21,-0.97,-0.02,1.28,-4.82,-2.38,427,349,239,299,313,23
635,-0.21,-0.98,-0.02,1.28,-3.42,-2.32,426,351,235,295,310,23
636,-0.22,-0.98,-0.0,0.24,-2.5,-2.32,424,352,239,296,311,23
637,-0.22,-0.97,0.0,1.34,-2.75,-3.36,433,355,238,295,314,23
638,-0.21,-0.97,-0.01,0.24,-3.42,-2.32,424,355,239,295,312,23
639,-0.23,-0.97,0.02,0.92,-0.55,-4.64,422,355,240,296,315,23
640,-0.2,-0.97,-0.02,1.28,-2.62,-2.69,423,351,238,300,310,23
641,-0.2,-0.97,-0.02,-1.34,-3.6,-2.01,421,352,241,297,313,23
642,-0.2,-0.98,-0.03,0.06,-4.15,-2.14,425,351,238,296,312,23
643,-0.21,-0.98,-0.02,0.73,-3.42,-2.75,424,354,237,295,313,23
644,-0.19,-0.98,-0.02,-0.06,-2.01,-3.11,421,354,240,299,310,23
645,-0.21,-0.98,-0.01,-5.8,-7.32,-0.98,425,351,240,296,312,23
646,-0.26,-0.97,-0.04,1.34,-5.49,-3.17,422,351,241,297,312,23
647,-0.21,-0.97,-0.02,-7.69,1.95,-1.77,425,353,233,292,312,23
648,-0.22,-0.96,-0.01,6.59,-5.0,-3.66,418,349,237,290,312,23
649,-0.22,-0.97,-0.08,-5.55,-15.87,-6.59,420,353,240,300,316,23
650,-0.19,-0.97,0.04,3.17,-2.08,-4.64,420,349,240,295,313,23
651,-0.21,-0.97,0.01,-1.22,4.21,-4.64,419,350,245,297,311,23
652,-0.18,-0.97,0.0,-2.38,4.33,-6.71,422,354,237,302,313,23
653,-0.19,-0.97,-0.01,4.27,-9.58,-1.89,418,349,234,299,314,23
654,-0.17,-0.98,-0.02,0.98,-4.03,-1.89,415,352,244,301,317,23
655,-0.18,-0.98,0.0,-0.67,-2.01,-1.59,413,351,236,295,310,23
656,-0.2,-0.98,-0.0,-0.18,-4.15,-0.61,415,352,240,302,316,23
657,-0.22,-0.97,-0.05,-4.03,-8.54,0.18,413,348,240,302,315,23
658,-0.16,-0.98,-0.04,-5.62,-2.62,-1.4,416,349,239,301,317,23
659,-0.18,-0.98,-0.01,6.84,1.77,-3.23,415,351,240,299,312,23
660,-0.13,-0.99,-0.01,4.09,-2.01,-1.95,415,354,238,298,315,23
661,-0.15,-0.98,0.02,8.61,-3.36,-4.03,413,352,238,298,315,23
662,-0.2,-0.97,0.02,1.53,-5.31,-1.77,412,354,237,297,313,23
663,-0.16,-0.98,0.01,-12.27,-1.28,-7.51,410,351,235,298,310,23
664,-0.13,-0.98,0.02,-1.77,0.67,-1.71,412,352,251,304,313,23
665,-0.18,-0.99,-0.04,1.1,-2.75,-4.46,408,353,243,299,318,23
666,-0.16,-0.98,-0.02,-1.83,-1.89,-3.6,411,351,235,293,306,23
667,-0.17,-0.98,-0.02,-0.43,-3.42,-2.75,412,355,244,292,316,23
668,-0.16,-0.98,-0.02,4.39,-0.79,-4.21,410,352,242,296,314,23
669,-0.14,-0.98,0.0,0.18,-1.34,-4.09,410,352,238,299,322,23
670,-0.13,-0.98,-0.0,-2.75,-3.97,0.18,413,354,240,302,313,23
671,-0.14,-0.98,-0.08,-4.76,-5.31,-1.53,411,358,240,301,319,23
672,-0.17,-1.0,-0.11,-1.83,-6.84,0.49,405,347,241,301,312,23
673,-0.16,-0.96,-0.12,-1.59,-3.23,-0.49,415,347,241,293,306,23
674,-0.18,-0.97,-0.14,1.77,-1.53,-5.13,417,342,241,299,310,23
675,-0.17,-0.97,-0.13,2.75,-3.66,-2.5,418,356,241,302,310,23
676,-0.17,-0.98,-0.13,1.22,-3.17,-2.5,421,349,241,301,311,23
677,-0.18,-0.97,-0.12,0.0,-3.91,-2.75,424,345,247,303,315,23
678,-0.18,-0.97,-0.12,0.61,-2.87,-2.69,449,349,243,297,313,23
679,-0.18,-0.97,-0.11,1.22,-3.66,-2.32,423,348,247,299,311,23
680,-0.17,-0.97,-0.11,0.67,-2.32,-2.75,419,351,246,302,315,23
681,-0.18,-0.97,-0.1,1.04,-2.93,-2.38,434,351,243,291,312,23
682,-0.18,-0.97,-0.1,2.2,-3.97,-2.69,422,350,243,304,313,23
683,-0.19,-0.97,-0.1,1.22,-2.62,-2.38,422,353,239,304,319,23
684,-0.18,-0.97,-0.09,0.43,-2.99,-2.5,415,343,246,303,314,23
685,-0.19,-0.98,-0.09,-0.12,-2.69,-2.44,419,350,248,293,316,23
686,-0.19,-0.97,-0.09,0.43,-2.5,-2.5,416,351,245,301,319,23
687,-0.2,-0.97,-0.08,0.06,-2.56,-2.32,417,351,242,295,317,23
688,-0.18,-0.97,-0.08,2.32,-3.85,-2.87,419,347,249,298,312,23
689,-0.2,-0.97,-0.08,0.67,-2.32,-2.44,416,353,242,296,317,23
690,-0.2,-0.97,-0.07,0.79,-3.6,0.31,413,352,241,300,314,23
691,-0.19,-0.97,-0.09,-0.06,-2.56,-2.87,424,353,244,304,316,23
692,-0.19,-0.97,-0.08,0.92,-2.75,-2.99,413,348,244,304,314,23
693,-0.2,-0.97,-0.08,1.04,-3.91,-1.77,413,353,243,297,317,23
694,-0.2,-0.97,-0.08,-0.67,-3.91,-1.65,411,348,240,296,315,23
695,-0.2,-0.96,-0.09,0.37,-2.87,-3.48,408,351,242,301,315,23
696,-0.2,-0.96,-0.08,0.43,-2.2,-1.95,416,352,250,296,321,23
697,-0.2,-0.97,-0.08,-0.37,-3.11,-3.05,411,349,242,299,318,23
698,-0.2,-0.97,-0.08,0.79,-4.15,-2.99,414,350,243,294,318,23
699,-0.2,-0.97,-0.08,1.4,-2.56,-2.87,416,354,245,297,315,23
700,-0.22,-0.97,-0.09,-0.49,-2.08,-3.6,412,349,245,285,319,23
701,-0.19,-0.97,-0.06,0.67,-3.05,-2.56,412,348,245,301,320,23
702,-0.2,-0.97,-0.07,-0.49,-1.59,-2.56,414,352,246,294,319,23
703,-0.19,-0.97,-0.1,-2.32,-4.03,-2.93,410,354,242,299,317,23
704,-0.18,-0.97,-0.11,-2.26,-1.65,-3.85,412,350,240,292,318,23
705,-0.17,-0.97,-0.12,3.36,-3.36,-2.32,415,352,239,294,320,23
706,-0.17,-0.98,-0.11,1.4,-2.62,-3.11,415,354,246,294,318,23
707,-0.15,-0.97,-0.1,1.59,-2.62,-2.56,415,354,247,294,314,23
708,-0.17,-0.98,-0.09,2.44,-3.85,-1.71,419,361,242,293,315,23
709,-0.17,-0.97,-0.1,1.59,-3.72,-2.44,422,357,245,302,318,23
710,-0.18,-0.97,-0.11,0.12,-2.2,-2.44,417,356,248,299,319,23
711,-0.17,-0.97,-0.1,-0.06,-2.62,-2.26,422,351,244,293,318,23
712,-0.17,-0.97,-0.1,0.73,-3.17,-2.69,419,354,245,306,321,23
713,-0.18,-0.97,-0.1,1.53,-3.72,-2.38,421,355,242,301,317,23
714,-0.18,-0.98,-0.1,2.56,-2.56,-2.69,424,356,237,300,317,23
715,-0.18,-0.97,-0.09,1.22,-3.3,-2.75,423,352,242,302,320,23
716,-0.18,-0.98,-0.08,0.43,-3.54,-2.62,414,355,246,296,320,23
717,-0.18,-0.97,-0.08,0.06,-2.56,-2.56,423,360,244,300,321,23
718,-0.18,-0.97,-0.09,0.67,-3.36,-2.62,418,354,246,298,316,23
719,-0.18,-0.97,-0.08,0.92,-1.83,-2.56,420,353,239,294,312,23
720,-0.18,-0.97,-0.09,1.04,-2.56,-2.5,420,356,247,299,321,23
721,-0.18,-0.97,-0.08,1.28,-2.99,-2.56,420,351,246,302,319,23
722,-0.18,-0.97,-0.08,-0.85,-2.75,-2.87,417,361,243,302,320,23
723,-0.18,-0.97,-0.09,-0.67,-2.2,-2.5,418,353,249,297,319,23
724,-0.18,-0.97,-0.1,0.0,-3.48,-2.5,418,354,247,302,322,23
725,-0.18,-0.98,-0.09,0.79,-3.6,-2.93,416,359,243,304,322,23
726,-0.18,-0.97,-0.1,-0.55,-3.54,-2.93,414,361,248,296,317,23
727,-0.17,-0.97,-0.09,-1.53,-3.17,-2.44,419,353,249,303,318,23
728,-0.17,-0.98,-0.11,1.53,-3.48,-2.26,414,354,248,298,322,23
729,-0.18,-0.96,-0.09,1.16,-3.17,-2.44,417,349,248,303,320,23
730,-0.17,-0.97,-0.09,-0.37,-2.81,-2.32,421,357,256,302,322,23
731,-0.18,-0.98,-0.08,-0.24,-2.2,-2.44,422,356,243,300,319,23
732,-0.17,-0.97,-0.08,1.59,-3.91,-2.62,421,355,246,297,317,23
733,-0.18,-0.98,-0.08,-0.06,-2.87,-2.08,421,356,248,296,322,23
734,-0.18,-0.97,-0.08,-0.67,-2.56,-2.75,421,356,246,298,319,23
735,-0.18,-0.98,-0.08,0.55,-2.87,-2.56,421,354,237,296,321,23
736,-0.18,-0.97,-0.08,2.08,-3.36,-2.93,423,356,247,301,315,23
737,-0.18,-0.96,-0.1,2.87,-4.09,-3.23,419,356,251,299,319,23
738,-0.17,-0.98,-0.09,0.85,-2.87,-2.69,418,354,248,302,318,23
739,-0.19,-0.98,-0.08,-0.98,-2.44,-1.77,419,353,246,306,322,23
740,-0.18,-0.98,-0.09,0.18,-2.2,-2.87,418,357,250,303,316,23
741,-0.18,-0.97,-0.09,0.12,-2.75,-2.26,417,357,248,296,323,23
742,-0.18,-0.97,-0.07,0.98,-2.32,-2.44,419,352,246,301,322,23
743,-0.19,-0.97,-0.08,0.06,-3.6,-2.38,418,354,247,305,318,23
744,-0.18,-0.97,-0.07,0.12,-2.62,-2.69,412,353,247,299,321,23
745,-0.19,-0.98,-0.08,0.0,-3.3,-2.44,414,357,249,303,322,23
746,-0.18,-0.97,-0.07,0.12,-3.42,-2.32,410,355,252,304,314,23
747,-0.19,-0.97,-0.07,0.73,-3.85,-2.32,414,353,248,305,321,23
748,-0.19,-0.97,-0.08,-0.37,-2.08,-2.81,417,359,250,306,320,23
749,-0.19,-0.97,-0.08,-2.14,-2.14,-2.44,415,355,243,296,320,23
750,-0.18,-0.98,-0.1,-1.16,-2.81,-3.17,415,351,243,306,316,23
751,-0.18,-0.97,-0.12,1.1,-2.87,-2.44,414,357,245,305,320,23
752,-0.18,-0.97,-0.1,2.26,-3.23,-2.38,411,354,248,307,323,23
753,-0.18,-0.98,-0.09,0.31,-2.38,-2.62,410,356,245,297,320,23
754,-0.18,-0.97,-0.09,0.98,-3.05,-2.69,405,357,244,305,318,23
755,-0.19,-0.98,-0.08,1.4,-4.27,-3.17,402,366,253,302,321,23
756,-0.18,-0.96,-0.09,0.0,-3.05,-2.75,403,353,250,295,319,23
757,-0.19,-0.97,-0.09,-0.12,-2.99,-2.38,398,352,247,295,319,23
758,-0.17,-0.99,-0.09,-0.92,-3.42,-2.81,409,354,248,305,320,23
759,-0.19,-0.97,-0.1,0.92,-2.87,-2.2,384,346,250,304,321,23
760,-0.19,-0.97,-0.09,0.12,-3.23,-2.32,383,353,247,304,322,23
761,-0.19,-0.97,-0.1,-1.16,-2.93,-2.5,395,351,246,301,323,23
762,-0.19,-0.97,-0.11,-1.1,-1.83,-2.75,394,355,247,304,319,23
763,-0.19,-0.97,-0.11,-0.79,-2.99,-2.26,397,355,249,300,319,23
764,-0.18,-0.97,-0.11,0.79,-4.03,-2.62,392,355,247,302,316,23
765,-0.19,-0.98,-0.11,1.46,-3.36,-2.62,388,353,251,304,322,23
766,-0.19,-0.97,-0.11,-1.34,-2.5,-2.44,390,353,248,298,319,23
767,-0.19,-0.97,-0.1,0.12,-2.56,-2.81,392,355,248,302,322,23
768,-0.2,-0.98,-0.11,2.08,-3.3,-2.01,390,354,250,300,323,23
769,-0.19,-0.97,-0.11,0.67,-3.05,-2.81,390,351,244,300,321,23
770,-0.19,-0.97,-0.11,0.73,-2.26,-2.75,392,357,248,301,320,23
771,-0.19,-0.97,-0.12,-1.83,-2.44,-2.81,393,356,246,293,314,23
772,-0.19,-0.96,-0.12,1.46,-2.62,-3.42,391,355,244,307,318,23
773,-0.19,-0.97,-0.1,1.16,-2.26,-2.69,389,356,252,303,319,23
774,-0.19,-0.97,-0.1,-1.4,-2.69,-2.81,393,354,238,300,317,23
775,-0.2,-0.97,-0.1,-0.61,-2.01,-2.26,388,354,247,303,318,23
776,-0.2,-0.97,-0.11,0.37,-2.5,-2.56,382,357,249,293,322,23
777,-0.2,-0.96,-0.11,-0.31,-2.26,-2.81,388,354,243,303,322,23
778,-0.19,-0.97,-0.12,-0.18,-2.32,-2.81,385,357,247,299,321,23
779,-0.19,-0.96,-0.11,0.79,-2.69,-2.75,382,354,250,303,320,23
780,-0.19,-0.97,-0.11,0.06,-2.81,-2.44,383,355,240,302,320,23
781,-0.19,-0.97,-0.13,0.43,-3.17,-2.75,383,354,250,300,322,23
782,-0.19,-0.97,-0.11,0.55,-2.32,-2.5,381,352,246,297,321,23
783,-0.19,-0.97,-0.11,0.0,-2.87,-2.81,385,354,248,300,322,23
784,-0.19,-0.96,-0.13,-0.12,-2.75,-2.5,384,357,242,304,320,23
785,-0.19,-0.97,-0.12,1.16,-2.81,-2.62,385,352,245,300,321,23
786,-0.19,-0.97,-0.12,-0.06,-2.62,-2.93,376,359,248,309,320,23
787,-0.19,-0.97,-0.13,-0.43,-1.83,-2.99,382,355,247,298,322,23
788,-0.19,-0.97,-0.12,1.34,-2.26,-2.93,386,353,248,299,321,23
789,-0.19,-0.97,-0.11,1.71,-3.78,-2.14,383,356,248,303,319,23
790,-0.19,-0.97,-0.11,2.38,-3.91,-3.36,384,354,246,306,322,23
791,-0.2,-0.97,-0.1,0.79,-2.93,-2.81,382,355,255,297,323,23
792,-0.19,-0.97,-0.1,-0.31,-1.22,-3.17,378,355,246,299,316,23
793,-0.18,-0.97,-0.1,-0.55,-3.3,-2.01,380,359,250,304,321,23
794,-0.19,-0.96,-0.11,0.98,-3.23,-2.44,379,353,250,304,323,23
795,-0.18,-0.97,-0.1,-0.31,-2.62,-2.62,382,356,242,297,317,23
796,-0.2,-0.97,-0.1,-0.37,-2.87,-2.81,384,354,246,301,320,23
797,-0.19,-0.97,-0.1,1.28,-2.75,-2.81,381,356,249,302,320,23
798,-0.19,-0.98,-0.1,-1.1,-1.4,-2.69,385,349,245,303,320,23
799,-0.17,-0.97,-0.11,-1.89,-0.43,-4.82,403,351,252,296,321,23
800,-0.16,-0.97,-0.12,-0.18,-1.83,-3.17,404,357,255,304,321,23
801,-0.17,-0.97,-0.14,-0.85,-3.17,-2.69,426,356,248,297,320,23
802,-0.17,-0.97,-0.14,1.34,-2.81,-1.59,415,358,250,305,318,23
803,-0.16,-0.97,-0.14,-1.16,-4.58,-2.01,412,354,250,298,321,23
804,-0.16,-0.97,-0.14,-0.79,-3.78,-2.93,413,349,250,305,320,23
805,-0.16,-0.97,-0.13,-0.18,-2.26,-2.75,417,357,252,299,323,23
806,-0.17,-0.97,-0.14,1.34,-3.11,-2.87,418,353,249,300,324,23
807,-0.16,-0.98,-0.13,2.75,-3.23,-3.72,418,355,246,305,323,23
808,-0.16,-1.0,-0.13,0.31,-2.44,-3.23,417,359,249,303,321,23
809,-0.17,-0.98,-0.12,1.34,-3.97,-4.09,418,354,250,296,318,23
810,-0.16,-0.98,-0.08,-1.59,-2.44,-2.69,427,349,248,297,323,23
811,-0.16,-0.97,-0.11,2.14,-3.23,-2.93,411,350,250,298,321,23
812,-0.16,-0.98,-0.12,1.4,-2.93,-2.75,411,357,251,301,323,23
813,-0.17,-0.98,-0.12,0.0,-3.3,-2.2,416,354,249,303,319,23
814,-0.16,-0.97,-0.11,-0.55,-2.26,-2.38,413,356,239,302,322,23
815,-0.17,-0.97,-0.12,0.37,-2.56,-2.38,425,356,253,300,322,23
816,-0.17,-0.98,-0.11,0.55,-4.58,-2.99,410,354,250,298,320,23
817,-0.18,-0.96,-0.11,2.14,-3.17,-2.81,410,354,256,306,320,23
818,-0.17,-0.98,-0.1,0.43,-2.87,-2.75,412,356,252,305,318,23
819,-0.17,-0.97,-0.1,-1.4,-3.54,-2.38,412,357,250,308,321,23
820,-0.17,-0.98,-0.11,0.49,-3.17,-2.62,413,358,251,301,323,23
821,-0.17,-0.97,-0.11,0.43,-2.81,-2.5,408,355,251,306,321,23
822,-0.17,-0.97,-0.11,0.24,-3.05,-2.44,414,353,249,300,324,23
823,-0.17,-0.97,-0.1,0.31,-2.08,-2.08,411,351,250,304,321,23
824,-0.17,-0.98,-0.1,0.49,-2.62,-2.38,411,354,252,307,331,23
825,-0.17,-0.97,-0.13,0.98,-4.21,-3.23,412,354,253,306,326,23
826,-0.17,-0.97,-0.09,0.12,-3.6,-2.69,407,357,251,300,322,23
827,-0.17,-0.98,-0.1,1.16,-2.69,-2.56,410,356,251,318,320,23
828,-0.17,-0.98,-0.1,0.98,-3.05,-3.11,408,356,253,305,332,23
829,-0.17,-0.97,-0.1,0.0,-2.56,-2.32,409,357,250,302,325,23
830,-0.17,-1.0,-0.09,0.31,-3.05,-2.69,408,356,250,300,322,23
831,-0.17,-0.97,-0.09,-0.24,-2.14,-2.93,410,354,246,306,324,23
832,-0.18,-0.98,-0.11,1.16,-3.3,-2.44,410,353,250,302,325,23
833,-0.16,-0.97,-0.1,1.89,-2.87,-2.69,414,355,252,303,316,23
834,-0.17,-0.98,-0.08,1.59,-2.69,-4.33,409,355,252,304,322,23
835,-0.18,-0.96,-0.09,-0.61,-3.11,-2.08,406,358,251,307,322,23
836,-0.17,-0.96,-0.09,-1.16,-3.36,-1.95,407,357,240,301,309,23
837,-0.17,-0.98,-0.1,0.37,-2.5,-1.95,408,359,252,299,322,23
838,-0.17,-0.98,-0.09,2.69,-3.91,-2.69,412,355,250,305,321,23
839,-0.18,-0.97,-0.1,-0.12,-3.3,-2.5,409,353,249,306,321,23
840,-0.17,-0.97,-0.1,1.46,-3.85,-2.69,405,352,251,300,323,23
841,-0.17,-0.97,-0.1,0.98,-2.99,-2.2,405,354,252,298,317,23
842,-0.18,-0.97,-0.08,0.31,-3.48,-1.95,406,357,256,303,321,23
843,-0.18,-0.98,-0.09,0.85,-3.23,-2.56,406,355,258,307,322,23
844,-0.17,-0.98,-0.09,0.31,-2.62,-2.69,406,357,249,302,325,23
845,-0.18,-0.97,-0.09,-0.06,-2.56,-2.32,405,354,250,305,322,23
846,-0.17,-0.98,-0.09,0.67,-2.75,-3.23,407,354,249,302,324,23
847,-0.17,-0.98,-0.09,0.43,-3.05,-2.87,408,359,252,300,321,23
848,-0.18,-0.97,-0.08,0.98,-3.05,-1.71,408,356,251,299,317,23
849,-0.18,-0.97,-0.07,1.16,-2.5,-2.99,420,357,247,299,323,23
850,-0.17,-0.98,-0.07,1.28,-3.54,-2.93,408,357,255,305,322,23
851,-0.17,-0.98,-0.07,1.22,-3.17,-2.81,405,357,249,305,318,23
852,-0.17,-0.97,-0.08,0.06,-2.38,-2.5,403,354,254,306,322,23
853,-0.18,-0.98,-0.08,-0.37,-3.17,-2.01,406,356,251,303,315,23
854,-0.17,-0.98,-0.08,0.06,-2.56,-2.5,404,353,250,304,323,23
855,-0.17,-0.98,-0.08,0.18,-2.62,-2.56,405,357,241,306,318,23
856,-0.18,-0.98,-0.08,-0.18,-3.11,-2.56,409,355,249,305,325,23
857,-0.18,-0.98,-0.09,0.06,-3.11,-2.44,406,356,253,302,314,23
858,-0.17,-0.98,-0.09,0.61,-3.05,-2.62,406,354,247,305,322,23
859,-0.18,-0.98,-0.09,0.12,-3.6,-2.5,405,354,242,298,321,23
860,-0.17,-0.97,-0.09,0.73,-3.3,-2.62,414,356,249,303,322,23
861,-0.18,-0.97,-0.08,0.43,-3.48,-2.56,404,353,252,299,323,23
862,-0.17,-0.98,-0.08,0.61,-2.62,-3.05,407,355,261,307,326,23
863,-0.18,-0.97,-0.08,0.12,-2.87,-2.62,409,355,245,307,318,23
864,-0.17,-0.98,-0.09,-0.67,-2.75,-2.69,410,354,242,317,322,23
865,-0.17,-0.98,-0.08,0.67,-2.08,-2.62,403,356,254,308,320,23
866,-0.17,-0.98,-0.08,0.12,-3.05,-2.69,402,354,253,304,319,23
867,-0.17,-0.97,-0.08,0.31,-2.99,-2.62,406,355,252,307,320,23
868,-0.17,-0.98,-0.09,-0.43,-2.56,-2.87,405,356,244,301,325,23
869,-0.18,-0.97,-0.11,0.06,-3.23,-2.62,407,354,251,305,324,23
870,-0.17,-0.98,-0.09,0.79,-4.21,-2.69,405,350,244,299,323,23
871,-0.18,-0.97,-0.09,0.73,-2.75,-2.56,406,356,249,308,323,23
872,-0.17,-0.98,-0.08,0.73,-2.99,-2.75,404,356,247,307,322,23
873,-0.17,-0.98,-0.08,0.43,-2.5,-2.87,401,359,252,307,323,23
874,-0.17,-0.98,-0.09,-1.28,-2.14,-2.32,403,355,252,305,324,23
875,-0.17,-0.98,-0.09,-0.06,-2.81,-2.5,407,357,253,308,320,23
876,-0.18,-0.98,-0.09,0.31,-2.87,-2.75,402,356,254,300,326,23
877,-0.17,-0.98,-0.08,0.24,-2.81,-2.75,402,356,252,305,323,23
878,-0.18,-0.98,-0.09,0.67,-3.54,-2.56,403,357,245,304,320,23
879,-0.17,-0.98,-0.07,0.24,-3.3,-2.69,405,355,253,305,320,23
880,-0.17,-0.98,-0.08,0.79,-2.99,-3.36,430,354,263,307,327,23
881,-0.17,-0.98,-0.07,-0.12,-3.17,-2.26,397,346,247,307,324,23
882,-0.18,-0.98,-0.08,0.55,-2.81,-2.56,399,349,252,307,324,23
883,-0.17,-0.94,-0.12,-0.06,-3.97,-3.11,397,350,251,306,323,23
884,-0.18,-0.97,-0.07,0.24,-2.93,-2.44,428,348,250,299,325,23
885,-0.17,-0.97,-0.08,0.37,-2.81,-2.69,401,350,251,309,325,23
886,-0.18,-0.98,-0.07,-1.89,-2.32,-1.28,402,351,250,304,318,23
887,-0.18,-0.98,-0.07,-1.28,-2.5,-1.53,400,350,252,302,325,23
888,-0.16,-0.98,-0.08,1.1,-2.14,-3.42,400,349,255,309,326,23
889,-0.17,-0.98,-0.12,-11.05,-2.14,-2.62,402,347,253,304,325,23
890,-0.21,-0.97,-0.13,-8.3,-1.4,-2.2,400,350,248,301,320,23
891,-0.19,-0.96,-0.2,1.83,-4.58,-2.38,401,354,250,311,323,23
892,-0.19,-0.95,-0.23,1.59,-4.46,-3.42,405,354,249,304,323,23
893,-0.19,-0.96,-0.13,-1.77,-3.66,-2.93,407,354,252,298,323,23
894,-0.2,-0.96,-0.12,2.2,-6.29,-0.67,408,356,253,306,323,23
895,-0.18,-0.97,-0.14,-1.89,-3.6,-0.79,408,354,264,306,320,23
896,-0.19,-0.96,-0.16,0.61,-5.0,-3.48,409,354,264,307,326,23
897,-0.18,-0.96,-0.15,1.89,-2.99,-1.83,408,350,249,309,324,23
898,-0.17,-0.98,-0.14,-3.85,-2.38,-3.36,409,349,248,305,325,23
899,-0.19,-0.97,-0.13,-0.18,-2.26,-3.85,409,354,252,308,323,23
900,-0.19,-0.96,-0.16,-0.61,-2.01,-1.28,408,346,249,300,322,23
901,-0.18,-0.97,-0.15,3.48,-3.54,-2.69,410,356,254,317,320,23
902,-0.19,-0.97,-0.11,-2.99,-2.69,-3.85,408,357,253,303,325,23
903,-0.19,-0.96,-0.14,-2.26,-3.48,-1.34,409,353,252,309,320,23
904,-0.18,-0.96,-0.16,0.79,-3.36,-2.32,409,353,255,307,324,23
905,-0.23,-0.96,-0.17,0.79,-3.78,-1.65,414,351,248,310,331,23
906,-0.22,-0.96,-0.16,2.01,-3.66,-3.05,410,355,250,304,324,23
907,-0.17,-0.97,-0.13,-6.16,-3.23,-0.18,408,352,262,302,323,23
908,-0.23,-0.96,-0.17,0.55,-2.99,-5.49,408,356,247,302,323,23
909,-0.23,-0.95,-0.19,1.28,-3.42,-2.2,408,349,253,310,321,23
910,-0.22,-0.95,-0.19,-1.46,-4.33,-0.73,407,352,251,307,325,23
911,-0.22,-0.95,-0.16,-2.14,-2.08,-1.89,407,356,248,303,319,23
912,-0.23,-0.95,-0.17,1.71,-3.48,-2.93,408,357,252,312,321,23
913,-0.23,-0.95,-0.16,-0.85,-6.47,-2.44,411,356,250,305,321,23
914,-0.21,-0.97,-0.12,0.61,2.2,-2.69,408,354,248,304,322,23
915,-0.23,-0.95,-0.18,2.69,-1.59,-4.7,407,355,252,308,324,23
916,-0.24,-0.95,-0.17,-1.59,-2.08,-0.49,406,356,250,308,326,23
917,-0.23,-0.95,-0.15,3.3,-3.91,-2.62,406,359,245,307,318,23
918,-0.24,-0.95,-0.15,0.98,-3.6,-2.32,401,352,251,309,321,23
919,-0.23,-0.96,-0.14,1.28,-3.91,-2.62,400,359,251,309,322,23
920,-0.24,-0.96,-0.13,0.43,-3.6,-3.11,400,351,251,300,323,23
921,-0.24,-0.96,-0.12,1.53,-2.75,-2.99,396,355,260,305,323,23
922,-0.22,-0.95,-0.14,2.2,-4.7,-0.73,391,357,252,301,324,23
923,-0.25,-0.95,-0.13,0.61,-3.36,-2.26,395,350,253,310,321,23
924,-0.24,-0.96,-0.12,-2.2,-2.2,-3.3,385,357,255,309,325,23
925,-0.24,-0.98,-0.13,-8.18,1.95,-5.62,402,354,254,310,325,23
926,-0.19,-0.96,-0.17,-1.4,-0.24,-7.08,403,358,246,312,319,23
927,-0.15,-0.96,-0.16,-1.65,0.55,-3.11,411,332,253,305,318,23
928,-0.18,-0.96,-0.15,0.12,-1.16,-0.49,410,337,250,305,318,23
929,-0.18,-0.96,-0.16,2.26,-3.42,-1.4,412,335,252,298,311,23
930,-0.16,-0.97,-0.14,1.77,-2.69,-4.64,408,332,249,303,312,23
931,-0.2,-0.97,-0.14,-1.1,-1.53,-1.71,417,342,256,297,317,23
932,-0.18,-0.97,-0.13,1.71,-2.44,-2.26,408,344,253,301,314,23
933,-0.18,-0.97,-0.13,4.82,-5.8,-3.17,410,339,254,302,311,23
934,-0.19,-0.96,-0.14,-2.32,-3.6,-1.28,410,342,255,307,313,23
935,-0.24,-0.96,-0.18,1.28,-3.23,-1.28,408,346,255,301,316,23
936,-0.21,-0.96,-0.14,2.5,-3.48,-1.04,406,341,253,300,314,23
937,-0.2,-0.97,-0.1,-1.59,-3.91,-3.85,408,346,256,305,317,23
938,-0.22,-0.96,-0.1,-5.07,-0.67,-3.23,405,341,254,306,317,23
939,-0.2,-0.96,-0.13,4.52,1.1,-6.84,405,345,256,303,316,23
940,-0.21,-0.96,-0.11,6.41,-4.64,-2.26,407,345,248,307,312,23
941,-0.22,-0.96,-0.1,-3.54,-4.03,-4.52,405,346,253,303,315,23
942,-0.18,-0.97,-0.11,2.14,-1.77,-3.91,401,346,251,301,314,23
943,-0.16,-0.98,-0.1,1.1,0.12,-3.85,401,343,248,305,318,23
944,-0.19,-0.97,-0.12,-2.26,-0.24,-2.99,404,347,251,318,316,23
945,-0.17,-0.97,-0.1,2.2,-1.77,-4.52,405,348,254,301,317,23
946,-0.19,-0.98,-0.09,-1.34,-1.83,-5.86,390,346,255,305,314,23
947,-0.2,-0.96,-0.12,4.15,-6.29,-6.41,402,346,253,305,320,23
948,-0.16,-0.97,-0.13,0.67,-4.7,-2.32,399,341,253,304,317,23
949,-0.19,-0.97,-0.09,1.1,-3.78,-1.1,401,343,252,305,320,23
950,-0.15,-0.98,-0.07,2.01,-7.39,-1.4,399,344,253,306,318,23
951,-0.18,-0.98,-0.09,0.24,-6.96,-5.68,397,344,254,309,318,23
952,-0.21,-0.97,-0.08,-0.49,3.91,-0.61,397,340,251,301,316,23
953,-0.15,-0.97,-0.07,5.25,-4.39,-1.46,396,345,255,307,318,23
954,-0.21,-0.97,-0.04,1.53,-5.74,-2.56,398,345,255,306,314,23
955,-0.2,-0.97,-0.09,2.2,-4.27,0.0,391,345,257,313,316,23
956,-0.17,-0.97,-0.01,-0.06,-3.72,-1.1,396,343,257,305,315,23
957,-0.21,-0.97,-0.01,1.04,-4.76,-1.46,389,346,254,302,315,23
958,-0.22,-0.97,-0.05,-1.46,-4.52,-0.61,390,347,256,302,318,23
959,-0.22,-0.98,-0.06,-1.16,-3.66,-1.71,388,343,252,308,318,23
960,-0.23,-0.98,-0.05,1.34,-2.2,-3.11,386,344,260,305,319,23
961,-0.22,-0.97,-0.05,-2.5,-2.56,-2.14,382,349,253,306,315,23
962,-0.23,-0.97,-0.07,-0.85,-4.15,-0.85,381,344,247,307,320,23
963,-0.22,-0.97,-0.04,0.24,-2.38,-1.77,385,345,250,311,317,23
964,-0.21,-0.97,-0.05,1.1,-2.75,-3.36,384,346,252,305,321,23
965,-0.22,-0.97,-0.06,1.71,-3.36,-3.23,391,344,249,312,318,23
966,-0.2,-0.97,-0.04,1.22,-1.95,-2.44,384,344,255,308,315,23
967,-0.21,-0.97,-0.03,1.28,-3.85,-2.93,386,347,256,302,315,23
968,-0.19,-0.97,-0.01,2.44,-1.95,-3.97,382,349,254,304,317,23
969,-0.19,-0.97,-0.02,0.98,-2.56,-2.69,383,348,250,304,317,23
970,-0.21,-0.97,-0.03,-0.49,-4.46,-0.73,381,347,255,306,321,23
971,-0.24,-0.97,-0.03,-0.92,-4.09,-1.34,382,347,251,308,314,23
972,-0.23,-0.97,-0.04,0.31,-1.46,-4.09,384,347,254,309,317,23
973,-0.2,-0.97,-0.04,1.53,-2.01,-4.09,385,346,253,310,318,23
974,-0.2,-0.97,-0.03,-0.31,-3.48,-1.4,380,342,255,309,319,23
975,-0.23,-0.97,-0.04,-0.18,-4.27,-0.73,384,348,253,305,318,23
976,-0.24,-0.98,-0.03,-0.73,-3.3,-2.44,373,346,264,308,320,23
977,-0.2,-0.97,-0.04,0.0,-1.89,-3.72,384,343,256,305,320,23
978,-0.21,-0.97,-0.03,1.95,-3.23,-2.38,382,345,255,309,318,23
979,-0.23,-0.96,-0.03,-0.43,-3.78,-1.71,395,347,257,308,321,23
980,-0.23,-0.97,-0.03,1.77,-3.78,-3.23,377,345,254,306,318,23
981,-0.21,-0.97,-0.03,0.0,-1.16,-3.3,378,345,251,307,320,23
982,-0.23,-0.97,-0.03,-0.85,-1.71,-3.48,377,346,252,302,318,23
983,-0.22,-0.97,-0.05,0.31,-1.46,-4.7,379,346,250,302,321,23
984,-0.2,-0.97,-0.04,1.71,-2.14,-3.85,377,348,256,306,316,23
985,-0.22,-0.97,-0.02,1.1,-4.03,-1.22,378,346,254,308,321,23
986,-0.24,-0.97,-0.03,-0.92,-3.23,-2.44,381,342,255,305,323,23
987,-0.22,-0.97,-0.04,0.18,-1.53,-4.21,374,342,256,303,321,23
988,-0.19,-0.97,-0.02,1.59,-2.01,-3.17,379,344,255,309,326,23
989,-0.22,-0.97,-0.03,1.16,-5.31,-0.49,375,347,251,301,320,23
990,-0.25,-0.98,-0.03,-0.24,-3.72,-2.5,368,344,254,303,321,23
991,-0.23,-0.97,-0.05,0.0,-1.59,-3.6,370,345,250,303,322,23
992,-0.22,-0.97,-0.04,-0.92,-2.56,-1.83,371,348,256,309,315,23
993,-0.23,-0.96,-0.03,0.06,-4.88,-0.49,412,345,254,310,324,23
994,-0.25,-0.97,-0.03,0.79,-4.15,-2.01,370,347,254,311,323,23
995,-0.21,-0.97,-0.03,0.0,-0.55,-4.76,372,348,255,305,323,23
996,-0.19,-0.97,-0.05,-0.85,-1.77,-3.66,378,347,245,309,322,23
997,-0.22,-0.97,-0.07,-0.43,-2.32,-2.38,393,345,252,308,321,23
998,-0.2,-0.96,-0.07,0.0,-2.69,-2.14,405,349,251,304,323,23
999,-0.19,-0.98,-0.04,-0.73,-1.16,-3.91,402,345,256,305,334,23
1000,-0.18,-0.97,-0.06,-0.73,-1.83,-2.2,403,350,253,309,324,23
1001,-0.2,-0.98,-0.07,-1.65,-3.6,-1.53,408,353,253,308,325,23
1002,-0.22,-0.98,-0.06,-3.97,1.34,-4.7,406,353,249,311,323,23
1003,-0.19,-0.97,-0.05,0.31,-3.42,-2.08,408,348,251,308,325,23
1004,-0.21,-0.97,-0.07,-1.28,-4.82,-1.28,406,353,257,307,320,23
1005,-0.2,-0.97,-0.09,-4.27,-2.75,-4.58,406,350,254,322,323,23
1006,-0.18,-0.97,-0.05,0.73,-4.09,-1.77,408,349,257,305,323,23
1007,-0.18,-0.97,-0.06,0.67,-3.23,-1.77,405,348,253,310,319,23
1008,-0.16,-0.98,-0.06,0.98,-3.36,-2.32,412,348,253,307,323,23
1009,-0.16,-0.98,-0.07,2.75,-6.47,-7.26,409,349,266,307,324,23
1010,-0.18,-0.98,-0.06,0.31,-2.93,-3.23,405,349,255,305,323,23
1011,-0.2,-0.97,-0.1,-5.86,0.43,2.14,411,349,254,310,317,23
1012,-0.12,-0.97,0.01,6.71,-6.96,-3.42,407,350,254,303,324,23
1013,-0.19,-0.97,-0.12,-10.62,0.73,0.85,409,351,253,303,315,23
1014,-0.15,-0.98,-0.02,10.01,-3.97,-5.92,402,350,257,305,321,23
1015,-0.16,-0.98,-0.11,-4.52,-2.32,3.11,398,350,256,307,320,23
1016,-0.2,-0.97,-0.08,-3.6,-2.99,-2.38,397,348,251,311,320,23
1017,-0.16,-0.97,-0.05,1.04,-2.69,-3.17,427,350,256,311,337,23
1018,-0.12,-0.98,-0.02,12.7,4.33,-7.63,395,349,252,307,321,23
1019,-0.18,-0.98,-0.08,-14.1,1.04,-6.1,400,351,254,306,322,23
1020,-0.18,-0.96,-0.13,-0.24,-2.44,4.94,399,351,248,306,319,23
1021,-0.18,-0.98,-0.09,-0.12,-2.56,0.61,403,352,254,309,325,23
1022,-0.21,-0.97,-0.1,0.49,-10.38,-0.24,400,353,255,308,323,23
1023,-0.16,-0.98,-0.06,-1.1,5.19,-3.6,396,348,253,302,324,23
1024,-0.19,-0.97,-0.11,6.53,-4.33,-1.83,431,349,251,306,322,23
1025,-0.19,-0.98,-0.08,0.73,-3.23,-1.95,401,349,252,307,323,23
1026,-0.2,-0.97,-0.06,3.72,-5.07,-2.81,393,349,252,303,324,23
1027,-0.18,-0.95,-0.01,2.2,-3.23,-2.08,396,354,253,307,324,23
1028,-0.19,-0.97,-0.04,-0.37,-3.23,-2.08,395,352,254,305,323,23
1029,-0.2,-0.97,-0.06,-0.61,-1.65,-3.6,422,348,255,310,323,23
1030,-0.19,-0.98,-0.06,2.32,-2.69,-3.11,393,348,256,305,318,23
1031,-0.21,-0.97,-0.04,2.08,-5.31,-0.85,400,350,246,308,324,23
1032,-0.2,-0.98,-0.03,-1.53,-1.89,-3.78,394,348,255,305,322,23
1033,-0.18,-0.98,-0.06,-1.28,-0.85,-2.75,399,347,253,308,326,23
1034,-0.22,-0.98,-0.07,-0.06,-4.33,-1.1,401,346,252,301,323,23
1035,-0.2,-0.97,-0.05,2.69,-3.05,-2.81,402,349,255,304,322,23
1036,-0.21,-0.97,-0.05,-0.85,-1.04,-2.62,402,351,253,311,324,23
1037,-0.2,-0.96,-0.08,-1.46,-1.65,-2.99,402,351,254,303,326,23
1038,-0.19,-0.98,-0.08,-9.95,4.7,-8.67,403,346,258,306,324,23
1039,-0.18,-0.99,-0.09,0.85,-2.5,-2.56,407,352,257,312,324,23
1040,-0.2,-0.96,-0.11,1.34,15.44,-3.85,406,344,254,311,317,23
1041,-0.19,-0.98,-0.1,-0.61,-4.39,-4.39,408,321,257,303,319,23
1042,-0.15,-0.98,-0.12,2.14,-3.36,-4.58,403,327,257,307,315,23
1043,-0.14,-0.98,-0.11,-0.37,-2.87,-2.62,404,328,265,306,316,23
1044,-0.13,-0.98,-0.12,1.1,-4.58,-2.2,406,326,253,305,318,23
1045,-0.13,-0.98,-0.11,1.83,-4.76,-2.14,407,326,255,319,314,23
1046,-0.14,-0.98,-0.1,3.3,-5.31,-1.4,407,330,256,307,316,23
1047,-0.15,-0.97,-0.09,1.4,-3.11,-2.01,403,328,257,301,315,23
1048,-0.15,-0.98,-0.09,0.61,-3.17,-2.26,407,332,255,312,320,23
1049,-0.16,-0.98,-0.1,0.31,-2.5,-2.69,405,331,255,305,317,23
1050,-0.14,-0.98,-0.08,-0.49,-1.77,-2.26,401,332,255,311,318,23
1051,-0.18,-0.98,-0.04,-1.22,-5.86,-2.32,401,332,252,307,319,23
1052,-0.17,-0.97,-0.08,-0.12,-4.03,-0.92,402,331,241,305,313,23
1053,-0.19,-0.98,-0.08,1.59,-5.13,-1.04,396,335,256,308,317,23
1054,-0.17,-0.98,-0.09,0.37,-2.5,-3.72,400,333,252,306,318,23
1055,-0.15,-0.99,-0.09,0.55,-3.85,-2.93,393,331,251,306,318,23
1056,-0.17,-0.99,-0.08,-0.37,-2.44,-2.44,397,333,253,312,318,23
1057,-0.16,-0.98,-0.11,0.67,-3.11,-2.44,395,333,255,306,318,23
1058,-0.17,-0.97,-0.13,-2.26,-2.26,-0.55,394,334,256,312,318,23
1059,-0.18,-0.98,-0.11,-0.85,-3.05,-1.46,398,337,254,305,321,23
1060,-0.17,-0.97,-0.1,0.06,-3.23,-2.2,406,334,254,309,318,23
1061,-0.18,-0.97,-0.11,0.12,-4.64,-2.14,397,336,254,306,317,23
1062,-0.18,-0.97,-0.11,-1.34,-2.44,-1.71,396,334,255,312,321,23
1063,-0.17,-0.97,-0.1,1.95,-2.81,-2.69,398,333,256,309,316,23
1064,-0.2,-0.97,-0.1,1.1,-4.15,-1.77,399,338,253,309,317,23
1065,-0.18,-0.97,-0.09,1.59,-2.69,-3.54,392,336,256,318,321,23
1066,-0.16,-0.97,-0.1,0.24,-3.11,-3.05,396,334,253,308,321,23
1067,-0.16,-0.98,-0.09,0.55,-2.69,-2.44,396,337,255,312,320,23
1068,-0.17,-0.98,-0.08,1.1,-3.54,-2.2,396,337,255,307,320,23
1069,-0.17,-0.98,-0.08,1.22,-2.38,-3.11,403,333,249,307,319,23
1070,-0.17,-0.98,-0.08,1.28,-3.3,-2.32,415,339,257,304,318,23
1071,-0.17,-0.97,-0.08,0.61,-3.91,-2.32,397,328,251,313,323,23
1072,-0.18,-0.98,-0.09,-1.83,-3.05,-2.38,402,337,256,311,321,23
1073,-0.17,-0.98,-0.1,-3.97,-1.59,-4.09,401,345,257,305,320,23
1074,-0.16,-0.97,-0.13,0.24,-4.03,-1.77,406,341,253,308,323,23
1075,-0.16,-0.97,-0.12,3.3,-4.03,-2.81,406,340,251,309,321,23
1076,-0.17,-0.96,-0.12,1.59,-3.36,-2.56,406,341,256,305,322,23
1077,-0.17,-0.97,-0.11,2.56,-2.5,-2.99,407,338,254,306,319,23
1078,-0.17,-0.98,-0.1,-0.24,-2.56,-2.26,408,343,254,303,317,23
1079,-0.18,-0.97,-0.1,0.06,-2.87,-2.44,403,343,257,313,323,23
1080,-0.17,-0.98,-0.1,1.46,-3.11,-2.2,401,340,249,309,323,23
1081,-0.18,-0.97,-0.1,0.06,-2.26,-2.69,403,335,256,302,321,23
1082,-0.17,-0.98,-0.09,0.31,-2.87,-2.62,400,343,253,312,321,23
1083,-0.18,-0.98,-0.09,-0.06,-2.14,-2.87,396,341,257,306,325,23
1084,-0.18,-0.97,-0.1,2.38,-4.82,-3.48,401,342,254,303,322,23
1085,-0.16,-0.98,-0.12,-2.38,-2.32,-1.83,400,339,253,304,321,23
1086,-0.21,-0.98,-0.1,-2.14,-1.04,-9.03,398,341,258,314,320,23
1087,-0.15,-0.97,-0.11,1.16,-2.2,-2.26,400,340,262,306,320,23
1088,-0.16,-0.98,-0.12,0.49,-3.17,-8.06,402,337,255,302,321,23
1089,-0.16,-0.97,-0.12,3.72,0.85,-1.53,401,338,254,308,322,23
1090,-0.12,-0.97,-0.1,-1.83,-5.0,-2.69,400,347,252,308,316,23
1091,-0.17,-0.97,-0.1,-0.12,-7.87,3.48,396,339,252,309,323,23
1092,-0.12,-0.97,-0.13,3.3,2.38,-4.21,396,341,253,307,322,23
1093,-0.2,-0.98,-0.1,2.01,-2.38,1.71,395,342,254,305,324,23
1094,-0.11,-0.98,-0.08,-0.31,-10.62,-2.26,405,340,254,312,323,23
1095,-0.17,-0.97,-0.12,-2.32,1.34,-5.74,397,341,254,309,324,23
1096,-0.14,-0.98,-0.11,8.61,9.16,-2.75,396,339,253,305,323,23
1097,-0.13,-0.98,-0.06,-3.78,-14.47,-2.87,399,343,254,314,321,23
1098,-0.14,-0.98,-0.11,2.44,-11.11,4.33,400,344,253,307,323,23
1099,-0.14,-0.99,-0.11,-1.65,9.28,-5.62,395,343,252,304,320,23
1100,-0.16,-0.98,-0.07,1.59,-12.45,0.73,396,338,253,308,321,23
1101,-0.16,-0.98,-0.06,0.0,-7.32,-3.66,398,339,255,310,323,23
1102,-0.17,-0.99,-0.07,-0.98,-0.18,-2.93,398,342,250,312,322,23
1103,-0.17,-0.98,-0.09,0.31,-4.7,-2.2,393,340,253,313,321,23
1104,-0.15,-0.98,-0.07,0.06,0.67,-6.59,394,342,254,309,326,23
1105,-0.14,-0.98,-0.03,0.85,-2.99,-0.98,391,343,254,308,323,23
1106,-0.14,-0.97,-0.06,9.46,-1.1,-4.27,391,341,255,305,326,23
1107,-0.17,-0.98,-0.03,-2.81,-7.63,-2.69,392,342,254,304,325,23
1108,-0.15,-0.98,-0.07,-2.2,-1.53,-4.82,390,340,256,309,324,23
1109,-0.17,-0.99,-0.04,-1.65,-8.36,-3.42,387,344,256,310,324,23
1110,-0.14,-0.98,-0.06,-3.48,-5.37,-0.12,385,342,259,308,324,23
1111,-0.17,-0.98,-0.07,-1.46,0.43,-0.31,382,341,254,311,325,23
1112,-0.15,-1.0,-0.09,0.43,0.55,1.22,387,340,257,308,322,23
1113,-0.21,-0.98,-0.05,-2.26,-11.35,0.06,383,343,250,308,323,23
1114,-0.16,-0.97,-0.07,-4.09,4.27,-2.01,378,345,253,305,323,23
1115,-0.18,-0.97,-0.08,3.36,3.85,-6.29,379,341,258,307,327,23
1116,-0.35,-0.94,0.12,12.57,-5.13,-11.66,458,384,224,278,283,23
1117,-0.26,-0.97,0.08,0.18,-14.77,1.34,457,381,223,285,289,23
1118,-0.26,-0.95,0.03,7.81,-1.34,1.83,459,380,224,284,293,23
1119,-0.32,-0.93,0.17,1.53,14.04,-12.27,456,378,223,286,294,23
1120,-0.26,-0.94,0.18,-7.14,4.21,-13.18,457,380,226,284,292,23
1121,-0.23,-0.95,0.07,-7.2,-5.74,-4.58,462,380,225,285,295,23
1122,-0.21,-0.96,0.01,1.4,-1.65,-2.08,456,383,221,289,292,23
1123,-0.24,-0.96,0.07,4.03,-6.77,-2.2,458,381,220,298,296,23
1124,-0.22,-0.95,0.12,5.19,-1.59,-3.11,457,376,225,282,294,23
1125,-0.22,-0.95,0.11,2.08,2.62,-3.6,458,374,221,288,296,23
1126,-0.24,-0.96,0.13,0.24,-4.7,-2.08,456,371,223,285,297,23
1127,-0.25,-0.96,0.16,-1.95,-4.7,-1.4,455,371,222,287,292,23
1128,-0.24,-0.96,0.08,-2.44,-2.32,-2.14,452,371,218,287,299,23
1129,-0.23,-0.97,0.1,-0.92,-3.72,-4.27,453,374,227,291,302,23
1130,-0.25,-0.97,0.08,-0.67,-2.38,-3.17,463,377,220,292,299,23
1131,-0.24,-0.96,0.09,2.32,-4.82,-1.1,454,373,226,277,293,23
1132,-0.23,-0.98,0.09,-1.1,-4.82,-3.05,452,377,221,289,300,23
1133,-0.23,-0.98,0.09,0.18,-5.74,2.01,455,376,225,286,297,23
1134,-0.24,-0.94,0.09,9.83,-5.25,-6.1,453,370,226,287,300,23
1135,-0.24,-0.97,0.12,-0.55,-3.3,-0.24,455,376,222,289,297,23
1136,-0.23,-0.96,0.11,0.12,-3.54,-2.26,448,377,226,290,295,23
1137,-0.24,-0.96,0.13,0.12,-2.32,-2.62,449,371,225,285,297,23
1138,-0.25,-0.96,0.13,3.11,-4.7,-2.99,452,375,223,295,307,23
1139,-0.22,-0.96,0.11,1.16,-3.36,-2.01,453,373,225,288,298,23
1140,-0.24,-0.97,0.12,1.89,-2.14,-2.44,448,374,226,291,296,23
1141,-0.23,-0.95,0.12,3.23,-6.41,-1.04,447,373,231,292,298,23
1142,-0.26,-0.96,0.17,0.79,-6.35,0.61,446,376,224,290,300,23
1143,-0.24,-0.95,0.16,2.69,-6.9,-0.73,451,377,224,288,300,23
1144,-0.23,-0.95,0.15,1.28,-6.35,0.31,450,374,221,291,300,23
1145,-0.25,-0.95,0.18,2.32,-4.03,-2.14,451,371,226,293,299,23
1146,-0.25,-0.94,0.18,-1.83,-5.37,-2.38,448,374,226,294,298,23
1147,-0.25,-0.94,0.15,-0.85,-6.04,-1.53,448,373,225,295,297,23
1148,-0.24,-0.96,0.16,0.43,-3.05,-1.83,450,369,224,289,304,23
1149,-0.24,-0.96,0.17,-0.18,-2.87,-2.69,453,373,216,298,301,23
1150,-0.24,-0.95,0.15,2.44,-3.6,-2.56,448,373,217,300,302,23
1151,-0.26,-0.96,0.18,-0.55,-0.85,-2.2,445,372,225,297,297,23
1152,-0.25,-0.95,0.18,0.79,-4.88,-2.69,446,368,226,296,303,23
1153,-0.25,-0.95,0.17,0.12,-3.66,-2.44,443,372,226,285,303,23
1154,-0.25,-0.95,0.16,-0.49,-2.75,-2.56,446,373,224,298,304,23
1155,-0.25,-0.95,0.17,0.67,-2.81,-2.56,446,367,220,298,307,23
1156,-0.24,-0.96,0.17,0.49,-3.85,-2.08,442,373,227,292,300,23
1157,-0.25,-0.95,0.17,0.31,-4.82,-2.56,451,371,222,293,308,23
1158,-0.25,-0.95,0.17,-0.98,-1.53,-2.44,444,369,220,296,307,23
1159,-0.25,-0.95,0.17,-0.12,-3.11,-2.56,444,371,218,294,300,23
1160,-0.25,-0.94,0.17,0.0,-3.85,-2.62,454,370,225,290,309,23
1161,-0.24,-0.95,0.17,1.4,-2.75,-2.56,448,370,226,306,310,23
1162,-0.24,-0.96,0.16,-0.85,-3.78,-2.75,448,364,222,292,305,23
1163,-0.25,-0.96,0.16,0.31,-2.93,-2.14,442,371,222,297,309,23
1164,-0.23,-0.95,0.16,2.56,-2.81,-2.87,441,368,224,290,307,23
1165,-0.24,-0.96,0.2,-1.77,-1.4,-2.38,443,373,223,297,305,23
1166,-0.26,-0.93,0.21,9.09,0.18,-3.11,444,370,219,296,305,23
1167,-0.25,-0.95,0.2,-2.62,-1.53,-2.75,445,368,220,291,309,23
1168,-0.23,-0.95,0.16,-1.34,0.18,-4.46,442,366,224,298,305,23
1169,-0.22,-0.95,0.18,-0.12,-4.27,-3.05,446,370,222,299,309,23
1170,-0.23,-0.95,0.18,1.65,-3.6,-2.87,443,369,222,294,310,23
1171,-0.23,-0.95,0.19,0.98,-2.01,-2.75,446,372,223,293,307,23
1172,-0.23,-0.95,0.18,-0.55,-3.3,-1.95,442,371,222,299,310,23
1173,-0.23,-0.96,0.2,-8.73,-2.14,-2.69,441,372,214,293,310,23
1174,-0.22,-0.95,0.16,-0.79,-2.56,-2.62,441,363,227,301,303,23
1175,-0.23,-0.96,0.2,-0.92,-1.22,-1.95,443,367,227,302,304,23
1176,-0.23,-0.95,0.16,-6.04,-2.99,-3.48,444,370,222,299,307,23
1177,-0.22,-0.96,0.14,-1.77,-2.08,-3.72,442,366,218,298,309,23
1178,-0.25,-0.95,0.17,1.04,-0.18,-2.01,451,370,227,302,308,23
1179,-0.22,-0.96,0.15,-0.12,-2.38,-2.44,440,368,223,298,310,23
1180,-0.23,-0.95,0.16,2.75,-3.3,-1.95,442,368,223,302,307,23
1181,-0.24,-0.96,0.18,0.67,-1.4,-2.44,444,368,235,295,307,23
1182,-0.24,-0.95,0.18,-1.95,-3.48,-1.89,441,373,215,296,305,23
1183,-0.23,-0.96,0.18,-1.95,-2.81,-2.32,436,367,221,299,309,23
1184,-0.23,-0.95,0.16,1.22,-2.99,-2.99,440,370,226,300,311,23
1185,-0.23,-0.96,0.17,0.43,-2.5,-2.93,445,369,224,298,306,23
1186,-0.23,-0.95,0.16,-0.73,-2.75,-2.75,442,367,225,300,310,23
1187,-0.23,-0.94,0.16,0.92,-3.3,-2.87,442,369,222,298,310,23
1188,-0.24,-0.97,0.18,2.2,-3.17,-2.81,442,366,220,304,310,23
1189,-0.23,-0.95,0.17,-1.22,-2.56,-2.87,440,369,224,304,306,23
1190,-0.24,-0.95,0.17,-0.49,-3.11,-2.81,443,365,222,303,308,23
1191,-0.23,-0.96,0.17,0.55,-3.42,-1.1,442,366,222,300,309,23
1192,-0.24,-0.95,0.17,-1.04,-3.3,-1.95,441,367,232,304,310,23
1193,-0.23,-0.95,0.17,0.06,-2.75,-2.38,441,361,225,305,311,23
1194,-0.24,-0.97,0.19,0.92,-2.56,-2.2,437,366,224,297,307,23
1195,-0.23,-0.96,0.16,1.46,-2.99,-2.87,440,367,218,306,312,23
1196,-0.23,-0.97,0.21,2.87,-1.77,-4.09,443,368,217,306,309,23
1197,-0.24,-0.96,0.18,-1.89,-3.11,-2.56,459,369,221,305,311,23
1198,-0.24,-0.96,0.2,-0.49,-2.75,-2.2,441,364,222,309,309,23
1199,-0.23,-0.96,0.16,0.92,-3.6,-1.89,437,371,223,305,306,23
1200,-0.24,-0.96,0.18,2.38,-3.6,-2.5,439,370,226,309,308,23
1201,-0.23,-0.95,0.17,1.89,-4.39,-2.5,442,374,225,303,312,23
1202,-0.25,-0.93,0.18,-0.06,-3.3,-3.3,440,364,214,299,308,23
1203,-0.25,-0.94,0.2,1.46,-3.23,-2.44,440,371,220,304,310,23
1204,-0.23,-0.98,0.17,1.77,-1.34,-2.14,442,369,219,309,307,23
1205,-0.24,-0.96,0.18,0.55,-2.75,-3.17,440,368,225,307,304,23
1206,-0.25,-0.95,0.2,-0.24,-3.17,-3.05,439,364,220,303,310,23
1207,-0.26,-0.94,0.21,1.16,-1.46,-2.26,439,369,221,306,305,23
1208,-0.24,-0.95,0.18,1.46,-2.99,-3.11,443,363,225,308,315,23
1209,-0.22,-0.97,0.16,-4.09,-1.16,-5.19,442,370,228,299,310,23
1210,-0.23,-0.95,0.17,3.42,-3.78,-5.07,446,371,221,306,312,23
1211,-0.23,-0.96,0.19,-1.16,-3.3,-2.5,448,368,226,302,311,23
1212,-0.24,-0.93,0.17,1.16,-3.48,-3.48,482,367,219,305,312,23
1213,-0.24,-0.96,0.17,0.0,-2.93,-1.22,450,374,225,308,313,23
1214,-0.23,-0.95,0.18,-4.21,-0.85,-5.62,451,372,228,311,315,23
1215,-0.23,-0.97,0.12,-0.73,-3.05,-4.09,448,374,224,309,313,23
1216,-0.23,-0.97,0.13,1.59,-2.44,-1.46,448,378,225,308,310,23
1217,-0.24,-0.97,0.15,5.98,-15.63,-0.18,446,371,225,308,313,23
1218,-0.28,-0.96,0.21,8.61,-7.45,2.75,445,376,226,308,314,23
1219,-0.23,-0.96,0.18,-0.61,-5.0,-2.26,446,374,229,306,311,23
1220,-0.24,-0.96,0.16,0.31,-4.15,-2.01,444,372,225,309,313,23
1221,-0.24,-0.95,0.17,1.46,-3.91,-2.44,449,373,227,309,314,23
1222,-0.22,-0.97,0.17,2.44,-4.33,-1.89,448,373,226,308,317,23
1223,-0.24,-0.95,0.18,-1.83,-1.95,-2.93,485,374,228,310,307,23
1224,-0.25,-0.95,0.15,0.61,-0.43,-5.13,447,378,232,305,309,23
1225,-0.22,-0.95,0.16,0.31,0.67,-4.33,449,367,229,307,312,23
1226,-0.24,-0.95,0.16,0.85,-3.36,-2.2,448,376,237,306,314,23
1227,-0.24,-0.96,0.16,0.92,-3.42,-2.5,445,382,222,310,313,23
1228,-0.25,-0.96,0.19,0.31,-3.97,-2.32,445,377,227,307,309,23
1229,-0.24,-0.95,0.17,0.61,-2.44,-2.75,445,374,215,312,313,23
1230,-0.24,-0.95,0.18,1.04,-3.91,-2.99,445,373,223,298,313,23
1231,-0.24,-0.96,0.19,-0.31,-2.38,-2.81,448,373,228,308,315,23
1232,-0.23,-0.94,0.18,0.98,-4.39,-1.77,447,370,227,312,316,23
1233,-0.23,-0.96,0.19,1.89,-3.42,-2.56,443,373,228,309,315,23
1234,-0.24,-0.95,0.18,-0.31,-2.08,-2.38,445,371,229,304,313,23
1235,-0.24,-0.96,0.18,-0.24,-2.62,-2.75,443,375,228,313,309,23
1236,-0.24,-0.96,0.18,2.01,-2.75,-2.5,440,381,234,312,315,23
1237,-0.24,-0.96,0.18,1.46,-3.91,-2.44,452,374,227,305,314,23
1238,-0.25,-0.95,0.18,4.09,-1.71,-4.52,443,376,226,305,316,23
1239,-0.23,-0.97,0.19,0.12,-4.82,-2.5,443,376,225,315,315,23
1240,-0.23,-0.95,0.2,-0.06,-2.08,-3.23,443,374,236,307,313,23
1241,-0.23,-0.96,0.2,0.0,-3.54,-1.1,442,374,228,312,315,23
1242,-0.22,-0.96,0.19,-2.62,-4.64,-1.53,445,374,230,312,315,23
1243,-0.23,-0.95,0.12,2.2,-5.25,-2.69,445,372,225,311,313,23
1244,-0.26,-0.96,0.14,-2.2,-6.29,-1.53,443,372,216,300,316,23
1245,-0.22,-0.94,0.17,0.18,-0.85,-2.38,444,373,238,311,316,23
1246,-0.24,-0.95,0.19,-0.92,-2.75,-1.1,444,369,218,311,317,23
1247,-0.24,-0.96,0.18,0.67,-3.05,-3.42,445,371,229,309,315,23
1248,-0.24,-0.97,0.19,1.77,-5.0,-4.46,442,378,226,308,314,23
1249,-0.22,-0.98,0.21,-5.0,-8.91,-9.95,437,372,225,312,315,23
1250,-0.2,-0.98,0.14,-3.97,-4.46,-12.76,441,372,231,306,316,23
1251,-0.22,-0.96,0.19,-0.18,-2.38,-2.87,444,372,227,310,315,23
1252,-0.2,-0.96,0.17,-2.01,-1.04,-1.53,442,372,229,311,317,23
1253,-0.19,-0.96,0.16,0.37,-3.78,-2.69,445,374,227,314,314,23
1254,-0.19,-0.97,0.15,-1.95,-4.58,-0.79,437,370,227,313,315,23
1255,-0.19,-0.97,0.12,0.49,-3.78,-2.38,440,375,230,309,315,23
1256,-0.2,-0.97,0.13,2.26,-2.56,-2.44,441,371,232,310,324,23
1257,-0.2,-0.96,0.13,-1.95,-1.83,-2.93,434,373,237,312,312,23
1258,-0.21,-0.97,0.13,-0.73,-2.08,-2.81,438,374,239,315,314,23
1259,-0.21,-0.97,0.13,0.12,-2.38,-1.65,438,372,232,307,315,23
1260,-0.2,-0.97,0.13,1.77,-5.31,-2.5,437,390,224,313,315,23
1261,-0.21,-0.97,0.13,0.0,-3.66,-2.01,439,375,225,315,314,23
1262,-0.22,-0.96,0.18,-0.12,-5.19,-1.95,437,377,225,314,314,23
1263,-0.22,-0.96,0.12,7.2,-9.4,5.31,435,369,226,311,313,23
1264,-0.23,-0.95,0.18,3.97,-4.33,-2.08,439,372,224,312,311,23
1265,-0.24,-0.95,0.18,0.37,-4.39,-1.53,438,375,225,316,314,23
1266,-0.24,-0.96,0.16,-0.12,-2.14,-2.14,439,372,226,309,315,23
1267,-0.23,-0.95,0.16,-0.12,-2.62,-1.53,438,374,227,309,315,23
1268,-0.24,-0.95,0.17,-0.43,-1.46,-3.3,440,375,225,313,316,23
1269,-0.22,-0.95,0.16,2.62,-4.52,-3.91,436,373,232,311,317,23
1270,-0.22,-0.96,0.24,-0.37,-8.42,-4.94,437,371,227,312,314,23
1271,-0.2,-0.95,0.17,0.67,-8.54,-1.83,438,376,231,310,313,23
1272,-0.23,-0.94,0.23,4.7,-10.31,-1.16,439,375,223,318,316,23
1273,-0.2,-0.95,0.26,-5.92,-7.02,-3.54,438,372,229,312,316,23
1274,-0.24,-0.94,0.28,-2.99,-6.41,0.49,434,374,225,308,313,23
1275,-0.19,-0.95,0.24,-8.3,0.85,-1.46,439,374,231,312,318,23
1276,-0.21,-0.96,0.19,-0.85,-1.34,-5.8,437,371,223,314,314,23
1277,-0.21,-0.96,0.14,-5.13,-0.06,-4.27,438,374,228,316,318,23
1278,-0.21,-0.96,0.13,-4.09,-5.0,1.04,438,374,224,310,311,23
1279,-0.22,-0.96,0.12,2.14,-3.23,-2.69,438,380,226,315,315,23
1280,-0.23,-0.96,0.14,-0.37,-2.81,-3.42,436,374,227,314,316,23
1281,-0.2,-0.96,0.17,-5.0,-0.61,0.67,437,372,226,313,318,23
1282,-0.23,-0.96,0.13,-0.43,-2.5,-1.34,437,373,226,315,317,23
1283,-0.21,-0.97,0.11,3.66,2.14,-2.5,434,373,226,317,317,23
1284,-0.21,-0.97,0.14,0.61,-1.65,-0.49,439,374,226,312,314,23
1285,-0.21,-0.96,0.15,2.93,-4.88,-2.38,462,374,228,315,320,23
1286,-0.23,-0.96,0.2,2.44,-4.46,-1.46,435,372,226,317,317,23
1287,-0.22,-0.96,0.16,-0.43,-1.1,-2.99,438,373,224,313,312,23
1288,-0.22,-0.96,0.17,-0.79,-1.89,-2.87,434,372,229,319,317,23
1289,-0.22,-0.95,0.18,-0.18,-2.81,-2.2,438,371,221,313,317,23
1290,-0.25,-0.95,0.18,-5.0,-6.35,-0.31,433,374,226,318,313,23
1291,-0.21,-0.92,0.12,3.36,-6.53,-1.16,435,373,230,317,313,23
1292,-0.24,-0.96,0.09,0.24,-10.62,-4.52,436,372,228,314,315,23
1293,-0.26,-0.96,0.13,1.4,-1.77,-3.54,435,370,224,320,319,23
1294,-0.3,-0.95,0.11,0.06,4.94,-0.31,434,366,226,321,316,23
1295,-0.27,-0.95,0.07,0.73,-1.22,-2.08,435,369,230,317,313,23
1296,-0.13,-0.95,0.11,12.45,45.35,-14.28,434,371,228,309,312,23
1297,-0.2,-0.98,0.13,10.07,8.54,0.12,440,379,224,315,310,23
1298,-0.19,-0.96,0.17,0.43,-2.26,-3.3,439,371,222,313,314,23
1299,-0.2,-0.96,0.16,-0.85,-0.67,-3.66,444,376,228,318,316,23
1300,-0.18,-0.97,0.14,-0.06,-5.25,-3.78,443,374,213,316,311,23
1301,-0.19,-0.97,0.16,0.0,-3.3,-2.32,449,366,226,314,316,23
1302,-0.2,-0.96,0.16,0.06,-4.03,-2.08,445,371,222,320,316,23
1303,-0.19,-0.97,0.16,0.24,-4.7,-2.69,439,374,228,315,314,23
1304,-0.16,-0.97,0.13,0.31,-2.38,-1.65,443,377,225,314,312,23
1305,-0.18,-0.97,0.13,0.79,-2.87,-2.08,439,376,228,316,317,23
1306,-0.19,-0.96,0.15,-0.79,-1.28,-3.3,444,373,228,309,314,23
1307,-0.18,-0.97,0.14,0.31,-5.37,-2.62,442,374,227,315,314,23
1308,-0.16,-0.96,0.14,-0.73,-5.0,-3.36,442,375,225,318,311,23
1309,-0.16,-0.97,0.12,-0.37,-6.16,-3.54,441,375,228,315,316,23
1310,-0.15,-0.97,0.19,3.78,-3.05,-2.14,443,375,225,310,313,23
1311,-0.16,-0.97,0.15,0.92,-4.82,-0.18,441,379,228,322,317,23
1312,-0.16,-0.98,0.14,0.55,-2.38,-3.42,441,375,231,321,315,23
1313,-0.17,-0.98,0.15,-0.98,-4.09,-1.89,436,375,227,315,316,23
1314,-0.16,-0.98,0.12,-0.31,-2.99,-1.95,438,373,228,309,317,23
1315,-0.16,-0.98,0.1,-1.34,-3.78,-3.54,439,373,227,310,315,23
1316,-0.15,-0.98,0.09,0.24,-3.17,-2.81,436,374,226,314,316,23
1317,-0.17,-0.98,0.09,8.24,-6.1,-1.95,440,373,231,314,314,23
1318,-0.15,-0.98,0.13,0.92,-4.03,-1.65,438,370,232,316,320,23
1319,-0.16,-0.98,0.12,0.37,-3.36,-2.08,457,373,227,319,315,23
1320,-0.17,-0.98,0.12,0.49,-2.14,-2.01,439,373,228,314,314,23
1321,-0.17,-0.97,0.14,1.1,-3.11,-1.71,437,366,228,321,315,23
1322,-0.16,-0.97,0.13,1.83,-2.14,-3.05,440,376,229,316,317,23
1323,-0.17,-0.97,0.12,-1.22,-2.44,-2.87,436,376,227,311,316,23
1324,-0.2,-0.98,0.17,-0.98,-1.71,-0.92,440,377,219,315,314,23
1325,-0.19,-0.97,0.16,0.73,-2.56,-2.26,438,375,226,328,319,23
1326,-0.17,-0.97,0.18,-0.37,-2.38,-1.95,437,372,226,312,312,23
1327,-0.17,-0.97,0.15,0.31,-2.38,-2.5,442,376,223,313,318,23
1328,-0.18,-0.96,0.16,1.28,-3.36,-1.77,439,373,225,314,313,23
1329,-0.18,-0.97,0.15,0.0,-2.38,-3.05,442,376,227,318,315,23
1330,-0.19,-0.97,0.16,0.18,-0.43,-2.08,440,371,230,315,312,23
1331,-0.17,-0.97,0.16,0.24,-3.36,-2.14,440,375,230,314,312,23
1332,-0.17,-0.97,0.15,0.12,-2.01,-2.2,439,374,226,322,313,23
1333,-0.18,-0.97,0.14,0.61,-4.46,-2.26,439,373,226,320,314,23
1334,-0.18,-0.97,0.14,1.22,-3.78,-1.77,438,375,225,317,316,23
1335,-0.19,-0.96,0.15,-1.46,-2.2,-3.17,443,373,226,317,309,23
1336,-0.18,-0.97,0.15,-0.55,-1.59,-2.99,438,373,227,312,317,23
1337,-0.18,-0.97,0.14,0.18,-4.33,-2.81,439,370,228,320,314,23
1338,-0.17,-0.96,0.16,0.06,-1.04,-3.23,448,372,228,321,311,23
1339,-0.17,-0.97,0.15,-0.24,-4.46,-0.55,442,372,230,322,313,23
1340,-0.19,-0.97,0.17,0.67,-3.17,-2.08,438,377,214,319,315,23
1341,-0.17,-0.97,0.14,-0.92,-3.72,-2.26,442,373,226,323,316,23
1342,-0.17,-0.97,0.15,0.0,-3.11,-2.44,436,372,229,317,314,23
1343,-0.18,-0.97,0.15,-0.06,-4.46,-3.05,437,374,223,321,314,23
1344,-0.18,-0.98,0.14,-1.28,-2.14,-3.85,441,370,228,315,315,23
1345,-0.2,-0.97,0.14,-1.4,-3.36,-2.62,428,375,231,327,315,23
1346,-0.17,-0.97,0.15,-0.67,-1.65,-4.09,439,374,225,314,313,23
1347,-0.17,-0.97,0.15,1.22,-3.3,-2.26,458,375,226,318,315,23
1348,-0.18,-0.97,0.15,1.04,-1.95,-3.72,438,374,227,317,316,23
1349,-0.18,-0.97,0.13,0.49,-2.32,-2.69,439,373,222,316,318,23
1350,-0.18,-0.97,0.15,1.28,-3.36,-2.32,437,374,222,317,309,23
1351,-0.18,-0.97,0.15,-0.43,-3.05,-2.44,437,374,230,322,316,23
1352,-0.18,-0.97,0.14,1.04,-1.83,-2.56,438,373,230,322,316,23
1353,-0.18,-0.96,0.17,0.55,-1.71,-4.21,440,370,232,319,323,23
1354,-0.16,-0.97,0.14,-0.06,-4.21,-3.17,449,374,232,321,315,23
1355,-0.17,-0.97,0.16,1.4,-3.05,-2.01,435,376,230,315,315,23
1356,-0.18,-0.97,0.19,-0.31,-2.01,-3.17,439,374,226,318,311,23
1357,-0.18,-0.96,0.14,-1.4,-5.0,-3.3,441,375,226,314,314,23
1358,-0.17,-0.97,0.13,-1.04,-5.55,-1.22,435,372,227,317,314,23
1359,-0.18,-0.97,0.15,0.98,-2.87,-2.56,435,375,229,314,318,23
1360,-0.16,-0.97,0.13,-0.37,-4.52,-1.95,438,373,226,322,314,23
1361,-0.16,-0.97,0.13,1.4,2.56,-2.14,438,374,225,316,313,23
1362,-0.21,-0.97,0.15,2.81,1.28,-1.22,439,375,228,321,311,23
1363,-0.2,-0.96,0.18,5.0,-1.53,-3.97,439,374,214,324,317,23
1364,-0.24,-0.95,0.23,2.87,-5.13,-4.03,434,376,224,315,318,23
1365,-0.2,-0.95,0.21,-4.64,-1.4,-5.68,434,373,230,314,310,23
1366,-0.24,-0.96,0.21,-0.43,-10.25,-3.05,438,373,229,323,316,23
1367,-0.2,-0.96,0.15,-8.97,1.16,-4.82,439,377,228,316,312,23
1368,-0.17,-0.96,0.15,-2.2,-5.49,-1.1,437,373,226,324,317,23
1369,-0.18,-0.97,0.18,0.85,-4.64,-3.97,440,378,230,320,314,23
1370,-0.2,-0.97,0.25,-3.6,-4.09,-8.85,436,372,214,318,313,23
1371,-0.12,-0.96,-0.0,-4.7,-10.86,-13.79,437,365,229,319,315,23
1372,-0.08,-0.99,0.06,1.04,6.9,5.68,437,377,228,314,315,23
1373,-0.07,-0.99,0.09,-4.09,5.37,3.85,435,372,221,315,315,23
1374,-0.16,-0.98,0.09,9.7,1.77,7.51,437,374,225,321,314,23
1375,-0.19,-0.98,0.2,16.91,18.43,-0.79,439,373,232,321,323,23
1376,-0.23,-0.93,0.29,4.94,25.94,1.83,432,371,227,321,317,23
1377,-0.29,-0.89,0.19,6.65,5.13,29.54,437,374,228,321,314,23
1378,-0.36,-0.92,0.16,-6.65,-12.51,-10.74,439,374,227,323,318,23
1379,-0.27,-0.93,0.12,-9.4,-14.1,-5.74,437,375,228,315,317,23
1380,-0.24,-0.95,0.1,-3.72,5.86,-3.54,431,372,227,318,317,23
1381,-0.3,-0.95,0.15,-2.14,-9.22,0.06,438,372,229,321,317,23
1382,-0.31,-0.96,0.18,-9.83,-14.71,2.44,440,376,229,318,311,23
1383,-0.31,-0.95,0.09,2.44,9.4,-1.65,439,371,233,319,317,23
1384,-0.31,-0.95,0.16,0.67,7.02,-11.35,437,372,225,320,321,23
1385,-0.17,-0.94,0.09,18.25,7.93,-13.12,439,375,226,314,313,23
1386,-0.23,-0.96,0.13,7.87,12.27,2.38,438,374,228,319,317,23
1387,-0.37,-0.96,0.2,-2.44,-0.24,-4.58,438,376,230,319,320,23
1388,-0.27,-0.98,0.1,8.42,14.16,14.16,436,371,232,325,319,23
1389,-0.26,-0.97,0.12,-1.65,7.39,-20.87,439,376,229,322,317,23
1390,-0.24,-0.97,0.12,-1.46,2.87,-0.49,439,372,225,320,313,23
1391,-0.24,-0.95,0.15,-3.85,-17.4,0.43,439,373,228,320,317,23
1392,-0.14,-0.95,0.05,0.73,-6.04,1.83,437,386,229,325,318,23
1393,-0.26,-0.96,0.13,-7.63,4.94,-8.73,435,372,243,319,316,23
1394,-0.23,-0.96,-0.03,-1.71,-0.92,-0.55,440,369,219,323,320,23
1395,-0.28,-0.95,0.07,0.92,-6.1,-0.18,441,373,234,333,319,23
1396,-0.17,-0.94,0.06,0.67,-0.79,6.04,440,376,229,316,320,23
1397,-0.27,-0.94,0.09,2.08,-2.44,0.98,435,372,230,316,318,23
1398,-0.28,-0.96,0.02,-1.59,-4.88,-0.43,433,373,229,321,318,23
1399,-0.29,-0.95,0.03,1.04,-1.83,-3.3,437,374,226,322,320,23
1400,-0.29,-0.95,0.03,1.1,-6.1,-1.46,438,378,232,317,318,23
1401,-0.27,-0.96,0.03,-0.92,-3.11,-2.26,437,377,229,316,321,23
1402,-0.29,-0.95,0.01,2.87,-0.92,-1.71,439,369,226,322,318,23
1403,-0.3,-0.96,0.05,-2.32,-4.7,-1.53,438,376,227,316,321,23
1404,-0.27,-0.97,0.01,2.44,-6.47,-2.62,434,374,230,321,319,23
1405,-0.28,-0.95,0.0,-1.04,-1.59,-2.26,435,372,231,321,318,23
1406,-0.28,-0.97,0.02,-1.22,-0.98,-2.69,436,373,229,318,320,23
1407,-0.26,-0.95,0.02,0.18,-1.59,-4.03,436,374,228,321,327,23
1408,-0.29,-0.94,0.01,2.5,-2.62,-2.87,442,371,223,326,321,23
1409,-0.28,-0.95,-0.02,1.53,-6.41,-4.09,434,374,227,327,315,23
1410,-0.29,-0.96,0.01,0.98,0.12,-2.44,434,375,226,321,320,23
1411,-0.27,-0.95,0.05,0.12,-3.05,-1.34,435,374,227,322,322,23
1412,-0.28,-0.94,-0.06,-2.26,-4.03,-2.62,436,373,227,321,314,23
1413,-0.34,-0.94,-0.07,-0.67,-0.31,-0.55,435,375,226,321,319,23
1414,-0.3,-0.93,0.06,6.96,2.69,0.55,433,375,227,326,316,23
1415,-0.23,-0.95,0.04,1.22,1.83,1.1,435,375,224,319,315,23
1416,-0.27,-0.95,0.03,-0.49,-3.6,-3.85,435,373,228,320,319,23
1417,-0.27,-0.96,0.03,-1.22,-2.99,-3.72,438,373,226,325,317,23
1418,-0.25,-0.95,-0.02,-0.18,2.01,-1.83,442,372,227,328,317,23
1419,-0.28,-0.98,-0.03,-1.89,-5.74,1.83,434,372,229,326,319,23
1420,-0.25,-0.96,0.07,5.49,6.04,-2.56,428,370,226,317,312,23
1421,-0.34,-0.94,0.01,-1.22,-3.05,-3.23,465,372,228,326,316,23
1422,-0.27,-0.94,-0.03,-2.01,-9.95,-4.88,439,367,228,325,315,23
1423,-0.31,-0.96,0.06,1.83,-3.66,-1.46,438,371,230,320,312,23
1424,-0.32,-0.93,0.01,-2.69,2.62,-5.37,436,372,229,318,315,23
1425,-0.3,-0.95,0.04,0.12,-3.17,-2.99,434,374,234,323,313,23
1426,-0.3,-0.95,0.01,0.61,-4.46,-2.44,438,369,229,323,317,23
1427,-0.31,-0.94,0.01,-0.49,-2.26,-2.99,437,373,228,325,313,23
1428,-0.31,-0.94,0.01,-1.16,-2.2,-1.95,434,362,221,324,315,23
1429,-0.31,-0.94,0.04,-1.1,-1.16,-4.94,437,371,228,323,310,23
1430,-0.31,-0.95,0.04,0.98,-3.72,-2.38,437,366,227,327,316,23
1431,-0.32,-0.95,0.04,0.18,-3.42,-2.14,442,371,232,329,310,23
1432,-0.31,-0.94,0.03,-0.49,-2.14,-2.26,432,371,228,324,314,23
1433,-0.28,-0.95,-0.02,0.79,-2.5,-3.42,434,367,216,320,314,23
1434,-0.3,-0.95,0.03,1.1,-3.54,-1.71,428,368,229,318,316,23
1435,-0.31,-0.94,0.02,0.85,-2.38,-2.62,432,371,230,326,317,23
1436,-0.3,-0.95,0.02,0.98,-4.76,-2.69,433,376,227,325,316,23
1437,-0.31,-0.95,0.03,1.1,-3.66,-2.56,430,371,231,325,316,23
1438,-0.3,-0.95,0.02,0.98,-2.75,-1.95,432,366,221,323,318,23
1439,-0.31,-0.95,0.04,-0.73,-1.95,-2.14,430,366,225,323,326,23
1440,-0.31,-0.93,0.01,1.59,-3.72,-2.62,433,373,230,324,315,23
1441,-0.3,-0.94,0.02,-0.43,-1.89,-3.54,432,370,229,323,316,23
1442,-0.29,-0.95,0.03,4.15,-6.84,-1.04,432,372,228,328,316,23
1443,-0.3,-0.94,-0.03,1.34,-4.21,-2.01,432,370,222,326,319,23
1444,-0.3,-0.95,0.03,-1.77,-1.95,-2.99,430,372,224,327,316,23
1445,-0.29,-0.95,0.03,0.31,-1.34,-2.38,431,370,227,327,313,23
1446,-0.33,-0.96,0.04,3.36,-3.72,2.93,433,367,229,329,317,23
1447,-0.36,-0.91,0.02,-1.53,-4.64,-3.3,427,372,227,329,316,23
1448,-0.34,-0.92,0.04,0.79,-7.57,-1.89,434,368,227,325,316,23
1449,-0.34,-0.93,0.03,-0.61,-3.78,-2.56,433,366,229,325,316,23
1450,-0.32,-0.92,0.03,-1.83,-2.93,-3.6,431,367,230,330,317,23
1451,-0.3,-0.94,0.02,-1.22,-0.12,-4.52,430,366,218,328,317,23
1452,-0.32,-0.94,0.03,-1.46,-3.17,-2.38,433,370,229,326,316,23
1453,-0.34,-0.94,0.04,-0.31,-3.97,-3.17,432,371,225,321,319,23
1454,-0.33,-0.94,0.03,1.28,-5.37,-1.59,431,371,232,323,311,23
1455,-0.33,-0.94,0.01,-0.67,-2.2,-1.04,443,372,227,330,315,23
1456,-0.32,-0.94,0.0,3.11,-2.08,-2.56,429,368,214,317,315,23
1457,-0.32,-0.94,0.0,0.18,-2.44,-3.17,431,366,229,330,319,23
1458,-0.32,-0.94,0.03,-1.34,-3.6,-2.75,430,372,231,331,317,23
1459,-0.32,-0.93,0.02,-2.2,-1.77,-3.48,429,370,228,319,314,23
1460,-0.3,-0.94,0.03,1.28,-2.75,-2.75,429,371,227,326,316,23
1461,-0.32,-0.96,0.01,-1.83,-2.5,-4.46,430,366,227,329,315,23
1462,-0.32,-0.95,0.02,0.0,-2.62,-2.5,426,366,230,329,317,23
1463,-0.31,-0.94,0.01,1.71,-4.39,-1.16,429,367,223,333,318,23
1464,-0.32,-0.93,0.02,-0.12,-2.99,-2.5,427,365,223,327,317,23
1465,-0.32,-0.93,0.01,2.2,-2.14,-2.08,429,366,219,332,318,23
1466,-0.32,-0.94,0.02,1.77,-4.09,-1.89,427,368,226,329,316,23
1467,-0.31,-0.94,0.04,1.71,-4.33,-2.44,425,370,227,325,319,23
1468,-0.32,-0.91,0.02,-2.26,-1.83,-4.39,428,365,225,321,321,23
1469,-0.3,-0.95,0.01,-12.7,-0.79,3.3,429,366,221,323,317,23
1470,-0.33,-0.94,-0.01,-0.18,-10.62,9.34,428,368,223,326,313,23
1471,-0.34,-0.93,-0.0,1.53,-4.15,-4.27,426,365,228,321,304,23
1472,-0.35,-0.92,-0.02,0.37,-4.64,-2.99,428,359,230,339,315,23
1473,-0.35,-0.93,0.02,-0.18,-4.64,-1.77,426,353,225,322,317,23
1474,-0.38,-0.94,-0.03,-5.92,-1.4,-2.87,429,354,224,324,317,23
1475,-0.32,-0.92,-0.07,3.78,0.31,-4.09,433,355,217,318,317,23
1476,-0.33,-0.94,0.01,-2.01,-4.76,0.31,432,357,229,324,314,23
1477,-0.36,-0.93,0.03,-2.32,-2.81,-5.55,431,355,229,327,318,23
1478,-0.34,-0.92,0.02,5.55,-6.29,-5.19,432,360,219,321,316,23
1479,-0.34,-0.94,0.06,2.62,-8.24,-3.6,434,358,228,321,318,23
1480,-0.35,-0.93,0.04,1.16,-5.92,-1.59,427,354,224,323,317,23
1481,-0.34,-0.93,0.03,0.98,-4.21,-2.5,429,362,229,323,316,23
1482,-0.33,-0.94,0.02,0.79,-3.05,-2.14,431,358,230,325,319,23
1483,-0.34,-0.92,0.0,-1.59,-0.06,-2.99,425,358,227,320,320,23
1484,-0.34,-0.93,0.02,-2.44,-3.23,-2.26,427,357,227,324,320,23
1485,-0.34,-0.93,-0.0,-1.89,-1.16,-2.38,428,358,222,324,318,23
1486,-0.34,-0.93,-0.02,1.1,-3.05,-2.56,429,362,225,322,317,23
1487,-0.34,-0.93,-0.01,0.85,-2.81,-2.69,433,357,219,324,317,23
1488,-0.34,-0.93,-0.0,-0.12,-4.03,-2.81,429,362,228,319,319,23
1489,-0.34,-0.94,-0.0,-1.16,-1.53,-2.99,427,359,224,325,322,23
1490,-0.34,-0.94,-0.0,0.73,-3.3,-2.81,433,361,230,327,315,23
1491,-0.33,-0.95,-0.01,15.38,-2.81,-2.2,430,361,223,326,320,23
1492,-0.34,-0.93,-0.01,-0.37,-2.62,-2.62,423,356,227,329,320,23
1493,-0.34,-0.92,-0.02,0.24,-0.98,-2.62,427,362,229,322,319,23
1494,-0.34,-0.93,-0.01,-0.67,-3.6,-1.65,426,357,226,320,319,23
1495,-0.34,-0.94,-0.0,-1.1,-2.32,-2.75,429,360,228,324,314,23
1496,-0.35,-0.93,-0.01,0.49,-2.14,-2.69,426,356,232,326,317,23
1497,-0.34,-0.93,-0.02,0.98,-3.11,-2.5,428,360,222,326,320,23
1498,-0.36,-0.93,0.01,0.67,1.65,-4.03,427,359,230,328,317,23
1499,-0.34,-0.93,-0.01,0.85,-3.17,-2.99,427,358,227,329,320,23
1500,-0.34,-0.93,-0.01,-0.24,-2.32,-2.44,429,363,228,331,316,23
1501,-0.35,-0.93,-0.01,-0.73,-2.32,-2.38,420,360,230,328,320,23
1502,-0.34,-0.93,-0.01,0.79,-3.11,-2.38,423,357,219,327,314,23
1503,-0.34,-0.93,-0.0,0.79,-2.08,-2.69,428,360,224,324,320,23
1504,-0.35,-0.93,0.01,0.06,-1.16,-2.62,422,378,223,325,322,23
1505,-0.35,-0.92,0.03,1.04,-3.3,-2.38,429,363,230,325,320,23
1506,-0.36,-0.92,0.02,2.5,-0.49,-0.24,426,356,219,325,317,23
1507,-0.36,-0.93,0.03,3.23,-3.78,-2.62,429,357,229,329,320,23
1508,-0.34,-0.94,0.03,1.4,-0.49,-2.99,428,358,230,321,321,23
1509,-0.34,-0.92,0.01,1.22,-4.33,-2.87,434,356,225,326,320,23
1510,-0.3,-0.93,-0.0,1.04,-3.3,-3.48,426,359,226,322,318,23
1511,-0.34,-0.93,0.02,-1.53,-2.08,-3.36,427,359,229,327,318,23
1512,-0.34,-0.93,0.02,-0.67,-2.08,-1.89,429,361,228,323,320,23
1513,-0.34,-0.93,0.02,-1.4,-2.38,-3.23,425,359,229,325,325,23
1514,-0.35,-0.93,0.02,-1.4,-3.3,-3.23,428,358,228,324,321,23
1515,-0.36,-0.92,0.02,-2.75,-2.93,-1.34,425,358,224,322,321,23
1516,-0.34,-0.94,0.03,0.0,-3.36,-1.95,427,359,228,322,322,23
1517,-0.35,-0.93,0.01,-1.46,-2.56,-3.17,428,355,227,328,322,23
1518,-0.35,-0.93,0.03,2.44,-2.5,-1.89,425,361,228,328,322,23
1519,-0.36,-0.93,-0.0,-0.43,-3.48,-2.81,426,360,223,323,330,23
1520,-0.35,-0.93,0.01,0.98,-2.93,-2.01,426,359,218,328,319,23
1521,-0.36,-0.93,0.01,0.55,-2.62,-2.5,427,359,228,327,322,23
1522,-0.36,-0.93,0.02,-0.73,-2.5,-2.01,427,359,226,327,320,23
1523,-0.36,-0.93,0.01,-0.18,-3.72,-2.08,426,356,224,324,321,23
1524,-0.35,-0.93,0.01,1.71,-3.36,-1.71,426,362,228,330,322,23
1525,-0.33,-0.93,-0.02,1.16,-4.09,-1.34,425,363,224,325,321,23
1526,-0.34,-0.93,0.0,-0.49,-2.01,-2.56,429,361,229,325,319,23
1527,-0.36,-0.93,0.01,0.24,-2.44,-2.32,425,361,226,327,320,23
1528,-0.35,-0.93,0.01,1.04,-4.09,-2.38,427,364,227,329,320,23
1529,-0.36,-0.93,0.02,0.06,-3.11,-2.26,426,364,232,330,323,23
1530,-0.35,-0.93,0.01,1.1,-1.95,-3.05,427,357,227,325,321,23
1531,-0.36,-0.92,0.02,-0.24,-3.72,-2.38,425,362,226,327,321,23
1532,-0.36,-0.91,0.02,-1.65,-2.08,-2.69,425,359,224,324,320,23
1533,-0.35,-0.92,0.0,0.92,-3.23,-2.81,426,357,227,329,324,23
1534,-0.35,-0.92,0.0,2.26,-4.46,-3.85,427,358,226,324,323,23
1535,-0.34,-0.94,0.03,1.04,-2.99,-2.69,426,358,226,329,320,23
1536,-0.35,-0.93,0.0,0.79,-3.17,-3.6,427,359,228,329,319,23
1537,-0.34,-0.93,0.03,0.55,-1.89,-1.46,423,356,224,328,321,23
1538,-0.36,-0.92,0.05,-0.06,-2.56,-2.08,424,361,226,330,322,23
1539,-0.35,-0.92,0.04,-0.61,-0.79,-2.08,425,360,235,326,317,23
1540,-0.36,-0.93,0.03,0.43,-1.34,-1.83,425,361,225,324,322,23
1541,-0.35,-0.92,0.03,1.04,-3.54,-2.87,422,358,227,326,321,23
1542,-0.35,-0.93,0.01,2.26,-2.69,-3.23,420,357,228,328,321,23
1543,-0.35,-0.93,0.03,-0.79,-2.62,-2.44,424,362,227,326,321,23
1544,-0.35,-0.93,0.02,-0.61,-2.75,-2.01,425,360,216,324,322,23
1545,-0.37,-0.92,0.01,1.46,-3.36,-2.75,427,359,231,326,324,23
1546,-0.35,-0.93,0.01,0.12,-2.32,-2.56,425,362,228,329,322,23
1547,-0.35,-0.92,0.01,1.34,-1.59,-4.15,431,363,227,327,319,23
1548,-0.36,-0.93,0.04,-0.18,-0.61,-2.44,428,363,223,322,323,23
1549,-0.34,-0.92,0.03,3.91,-0.12,-4.64,426,361,227,319,323,23
1550,-0.36,-0.93,0.0,0.24,-5.13,-0.98,422,361,226,331,323,23
1551,-0.34,-0.92,-0.01,2.38,-1.95,-3.23,424,362,226,333,323,23
1552,-0.36,-0.93,0.02,-2.14,-0.37,-4.03,424,359,228,324,321,23
1553,-0.35,-0.92,0.0,2.26,-4.76,-1.46,424,357,225,325,329,23
1554,-0.36,-0.93,0.01,-1.95,-1.71,-3.72,422,361,225,329,318,23
1555,-0.36,-0.92,-0.01,-1.71,-4.7,-1.53,423,360,226,331,323,23
1556,-0.36,-0.93,0.02,1.65,-5.98,-0.73,427,360,227,324,317,23
1557,-0.36,-0.92,0.04,-0.61,-2.32,-2.69,423,358,229,330,322,23
1558,-0.37,-0.93,0.01,2.01,-4.21,-1.04,426,362,229,327,321,23
1559,-0.36,-0.93,-0.01,0.0,-3.91,-1.77,422,362,230,325,318,23
1560,-0.36,-0.92,-0.03,0.43,-3.36,-3.36,426,364,220,324,321,23
1561,-0.35,-0.94,0.03,0.61,-2.38,-3.36,426,360,228,330,321,23
1562,-0.36,-0.92,-0.0,0.06,-2.69,-2.81,426,361,224,325,322,23
1563,-0.36,-0.92,-0.0,0.06,-2.87,-2.56,426,360,224,326,322,23
1564,-0.35,-0.92,-0.01,-0.92,-2.99,-2.08,426,364,222,328,322,23
1565,-0.36,-0.93,0.0,0.61,-3.6,-2.93,424,363,232,320,322,23
1566,-0.36,-0.93,-0.02,-0.61,-2.81,-2.56,427,358,226,322,322,23
1567,-0.35,-0.93,-0.02,-0.06,-3.17,-2.75,424,362,224,321,323,23
1568,-0.36,-0.93,-0.02,0.06,-1.89,-2.81,428,361,227,322,322,23
1569,-0.35,-0.93,-0.02,0.79,-2.2,-3.23,425,361,232,325,322,23
1570,-0.37,-0.93,-0.03,0.43,-3.11,-2.14,427,361,231,328,322,23
1571,-0.36,-0.93,-0.04,1.71,-3.78,-1.59,428,361,228,325,322,23
1572,-0.34,-0.93,-0.02,-0.85,-2.32,-3.6,425,359,228,321,324,23
1573,-0.34,-0.94,-0.01,1.16,-2.08,-3.91,424,363,228,324,318,23
1574,-0.34,-0.92,-0.02,0.18,-3.11,-2.93,421,362,229,326,322,23
1575,-0.34,-0.93,-0.03,0.73,-1.16,-3.48,422,363,226,321,320,23
1576,-0.34,-0.93,-0.04,1.4,-4.09,-2.56,425,360,227,340,323,23
1577,-0.36,-0.92,-0.03,-0.85,-2.14,-3.48,424,357,229,325,316,23
1578,-0.33,-0.94,-0.03,2.08,-5.62,-0.31,426,360,229,326,321,23
1579,-0.35,-0.92,-0.0,-0.31,-4.03,-3.54,427,363,233,322,323,23
1580,-0.36,-0.92,-0.0,-1.65,-2.99,-2.01,424,363,224,324,323,23
1581,-0.35,-0.92,-0.0,2.01,-2.14,-2.14,424,361,230,323,319,23
1582,-0.36,-0.93,-0.01,0.49,-3.42,-2.81,425,361,235,324,325,23
1583,-0.36,-0.93,-0.02,1.16,-4.39,-2.44,424,358,227,328,327,23
1584,-0.34,-0.92,-0.03,2.08,-3.54,-3.36,426,361,229,324,324,23
1585,-0.35,-0.92,-0.01,-0.98,-2.44,-2.75,425,361,222,323,326,23
1586,-0.35,-0.93,-0.03,-0.55,-2.32,-2.99,423,361,223,325,325,23
1587,-0.36,-0.92,-0.01,-2.2,-1.95,-2.5,426,359,225,328,323,23
1588,-0.33,-0.92,0.02,2.2,-5.0,-2.56,424,361,225,330,325,23
1589,-0.36,-0.93,-0.0,0.12,-3.48,-2.01,425,360,224,330,326,23
1590,-0.36,-0.93,-0.01,1.4,-1.77,-2.32,422,363,228,325,337,23
1591,-0.35,-0.92,-0.01,0.37,-1.16,-3.05,452,362,222,325,325,23
1592,-0.36,-0.92,-0.01,0.06,-0.85,-2.81,425,363,225,328,324,23
1593,-0.36,-0.92,-0.01,0.0,-2.2,-2.56,423,360,225,324,324,23
1594,-0.35,-0.93,-0.01,0.06,-3.11,-2.2,422,361,225,316,323,23
1595,-0.36,-0.93,-0.0,-1.16,-1.65,-2.93,421,362,223,322,324,23
1596,-0.35,-0.93,-0.01,-1.71,-0.55,-2.93,421,360,222,329,321,23
1597,-0.34,-0.92,-0.03,0.24,-2.99,-2.56,428,366,225,317,317,23
1598,-0.34,-0.93,-0.0,1.59,-2.44,-2.56,429,362,228,325,325,23
1599,-0.35,-0.92,-0.04,-0.12,-6.16,-1.22,433,360,225,325,323,23
1600,-0.35,-0.93,-0.02,0.0,-2.56,-2.81,432,368,223,328,322,23
1601,-0.35,-0.92,-0.02,0.06,-3.3,-3.17,430,362,220,324,321,23
1602,-0.35,-0.93,-0.02,1.04,-2.99,-2.5,427,366,227,320,322,23
1603,-0.35,-0.93,-0.01,0.31,-2.69,-1.71,429,364,228,327,328,23
1604,-0.35,-0.93,-0.02,-0.55,-3.17,-2.62,430,368,228,330,322,23
1605,-0.35,-0.93,-0.01,1.1,-3.05,-3.3,428,369,225,325,321,23
1606,-0.34,-0.93,-0.03,-0.12,-1.71,-2.62,424,367,224,328,314,23
1607,-0.35,-0.93,-0.01,0.79,-2.5,-2.5,427,365,226,327,319,23
1608,-0.34,-0.93,-0.02,-0.18,-3.11,-2.62,428,361,230,324,324,23
1609,-0.35,-0.93,-0.01,0.67,-3.05,-2.44,430,367,223,322,321,23
1610,-0.35,-0.93,-0.01,0.67,-3.97,-1.59,430,365,224,329,322,23
1611,-0.35,-0.93,-0.02,2.2,-4.21,-2.01,431,368,228,327,323,23
1612,-0.35,-0.93,-0.03,0.55,-3.36,-1.22,428,365,229,323,322,23
1613,-0.35,-0.93,-0.02,0.67,-2.87,-2.32,428,364,226,328,323,23
1614,-0.35,-0.93,-0.01,1.22,-2.99,-2.5,432,368,224,329,320,23
1615,-0.35,-0.92,-0.01,0.43,-2.87,-2.81,429,366,226,325,322,23
1616,-0.35,-0.93,-0.01,0.92,-2.99,-2.32,430,365,229,328,321,23
1617,-0.35,-0.93,-0.0,-1.59,-2.56,-3.42,428,367,224,326,319,23
1618,-0.25,-0.9,0.06,10.86,5.86,-0.12,413,350,278,369,357,23
1619,-0.24,-0.95,0.24,9.28,2.44,-8.24,416,346,278,365,356,23
1620,-0.2,-0.97,0.3,1.22,-15.32,2.14,417,348,279,370,362,23
1621,-0.23,-0.95,0.24,-14.1,-9.64,1.89,412,352,274,363,357,23
1622,-0.16,-0.94,0.2,-13.43,55.73,-15.26,406,346,278,365,354,23
1623,-0.32,-0.92,-0.01,3.6,-15.69,-3.36,412,342,275,365,340,23
1624,-0.3,-0.95,0.05,17.88,9.46,-10.25,413,336,270,365,330,23
1625,-0.3,-0.96,0.1,7.26,7.93,-3.17,411,344,273,364,340,23
1626,-0.17,-0.95,0.15,3.36,-9.64,-0.85,412,346,270,363,345,23
1627,-0.19,-0.97,0.12,9.83,1.95,-8.54,411,345,271,366,348,23
1628,-0.21,-0.99,0.34,-21.79,-25.57,-6.9,411,346,274,365,346,23
1629,-0.2,-0.91,0.15,-17.82,-37.29,-0.49,414,341,270,365,346,23
1630,-0.19,-0.94,0.01,-25.09,5.43,-25.88,406,318,253,353,309,23
1631,0.02,-1.12,0.12,25.57,4.39,-16.11,411,322,260,331,394,23
1632,-0.07,-0.99,0.14,-17.82,15.99,5.07,416,294,233,332,334,23
1633,-0.14,-1.04,0.12,34.42,7.14,15.5,409,292,250,325,308,23
1634,-0.17,-0.92,0.17,0.67,-12.39,8.3,411,306,253,337,325,23
1635,-0.19,-0.95,0.16,-14.22,-10.86,2.32,413,310,254,342,328,23
1636,-0.18,-0.96,0.15,5.62,-5.25,2.01,413,309,265,347,336,23
1637,-0.21,-0.97,0.14,-14.22,10.99,-12.7,413,310,258,345,332,23
1638,-0.21,-0.98,0.17,-3.05,-8.18,-2.69,440,311,258,346,330,23
1639,-0.22,-0.95,0.18,1.83,-9.03,-4.33,414,314,257,351,335,23
1640,-0.21,-0.97,0.16,-6.53,-5.86,-1.34,417,314,259,351,338,23
1641,-0.22,-0.97,0.14,-0.67,-7.08,-1.04,427,319,257,352,339,23
1642,-0.21,-0.96,0.15,1.4,-3.72,-1.46,417,316,256,360,340,23
1643,-0.17,-0.97,0.14,4.27,1.83,-1.83,419,314,256,354,343,23
1644,-0.23,-0.99,0.16,3.78,-7.45,-3.05,418,313,258,352,344,23
1645,-0.2,-0.96,0.2,-0.37,-0.85,-3.17,417,316,257,356,338,23
1646,-0.19,-0.97,0.16,-4.46,-2.38,-0.73,418,316,257,354,340,23
1647,-0.22,-0.97,0.17,-2.56,-5.92,1.04,418,319,256,352,340,23
1648,-0.2,-0.98,0.14,-7.69,-2.26,-3.85,418,316,254,355,344,23
1649,-0.21,-0.96,0.15,2.87,-5.0,-3.48,415,318,256,354,343,23
1650,-0.21,-0.98,0.16,3.42,-1.71,-1.59,418,317,259,354,338,23
1651,-0.22,-0.95,0.17,-1.1,-6.47,-2.56,418,314,253,356,342,23
1652,-0.21,-0.95,0.15,0.85,-2.44,-4.03,420,318,257,354,341,23
1653,-0.22,-0.96,0.19,-1.65,-4.03,-2.01,419,316,256,358,344,23
1654,-0.19,-0.96,0.17,-1.59,-3.85,-2.14,417,317,258,355,343,23
1655,-0.2,-0.96,0.15,1.59,-1.04,-3.3,421,317,258,350,344,23
1656,-0.21,-0.97,0.15,-2.2,-3.05,-2.38,423,321,253,354,345,23
1657,-0.19,-0.96,0.16,-0.43,-4.88,-2.2,416,318,254,353,346,23
1658,-0.2,-0.97,0.14,-0.85,-4.27,-2.69,419,315,256,357,345,23
1659,-0.2,-0.95,0.12,-3.17,-1.83,-1.16,419,322,258,357,347,23
1660,-0.19,-0.96,0.12,-1.1,-3.17,-3.66,418,324,257,369,348,23
1661,-0.19,-0.98,0.1,-2.99,-2.69,-2.56,401,320,259,357,348,23
1662,-0.2,-0.98,0.1,0.92,-1.53,-3.23,393,320,260,362,346,23
1663,-0.21,-0.96,0.07,0.31,-5.74,-2.14,405,325,255,358,346,23
1664,-0.24,-1.0,0.14,-5.37,20.51,8.42,418,325,262,359,337,23
1665,-0.38,-0.85,0.18,22.4,-4.03,37.05,410,343,272,365,347,23
1666,-0.51,-0.81,0.17,-21.97,-6.29,-8.3,417,337,270,360,352,23
1667,-0.43,-0.9,0.14,7.75,2.75,-16.6,423,331,266,368,351,23
1668,-0.4,-0.89,0.12,-12.76,-15.44,5.86,426,330,266,361,351,23
1669,-0.39,-0.92,0.21,4.39,-7.32,-3.54,426,333,278,362,352,23
1670,-0.41,-0.89,0.23,4.76,-9.64,-0.43,424,334,265,368,354,23
1671,-0.39,-0.92,0.2,-3.11,1.89,-20.26,424,334,266,362,350,23
1672,-0.37,-0.89,0.18,1.83,-6.47,-1.22,422,335,270,368,348,23
1673,-0.36,-0.94,0.25,-3.42,-4.52,-1.77,422,333,266,369,349,23
1674,-0.36,-0.91,0.23,0.12,-5.07,-5.98,424,336,264,367,354,23
1675,-0.32,-0.93,0.21,-1.53,-4.94,-4.76,421,337,267,361,352,23
1676,-0.33,-0.91,0.21,1.4,-3.42,-2.93,420,336,266,368,354,23
1677,-0.3,-0.89,0.19,-1.1,-6.29,-7.02,422,350,266,370,354,23
1678,-0.3,-0.98,0.17,1.65,-8.0,3.54,426,332,268,367,353,23
1679,-0.32,-0.95,0.2,9.52,0.49,-3.36,424,336,267,366,353,23
1680,-0.36,-0.89,0.2,-4.64,-4.33,-4.52,417,329,263,360,346,23
1681,-0.3,-0.94,0.14,4.21,-5.13,-1.34,424,331,261,365,346,23
1682,-0.28,-0.93,0.14,4.94,-3.3,-0.55,422,329,265,370,349,23
1683,-0.32,-0.91,0.15,2.56,-1.77,-5.13,424,333,262,364,353,23
1684,-0.27,-0.97,0.13,5.13,-4.76,-0.12,416,331,262,367,352,23
1685,-0.26,-0.94,0.18,0.67,-1.95,-5.55,426,334,266,367,348,23
1686,-0.21,-0.92,0.09,-2.38,20.51,12.45,418,329,270,362,336,23
1687,-0.44,-0.92,0.07,-14.89,25.39,27.16,421,318,259,348,315,23
1688,-0.37,-0.92,0.03,-15.14,36.8,-33.81,420,306,253,343,311,23
1689,-0.29,-0.95,0.05,14.47,-19.17,-10.01,419,320,255,352,327,23
1690,-0.32,-0.98,0.09,-6.9,-11.9,-4.88,422,318,254,356,328,23
1691,-0.32,-0.95,0.16,-21.91,-35.89,2.99,430,319,254,352,331,23
1692,-0.26,-0.95,0.0,6.65,-9.52,-1.16,426,315,258,352,330,23
1693,-0.32,-0.95,0.04,3.85,-2.75,3.78,427,322,260,354,331,23
1694,-0.29,-0.95,0.03,3.3,-3.05,-7.02,428,322,258,356,334,23
1695,-0.31,-0.94,0.07,1.89,-4.46,-3.23,432,322,255,358,334,23
1696,-0.29,-0.95,0.06,1.4,-1.83,-3.97,435,325,258,356,335,23
1697,-0.31,-0.95,0.08,1.4,-4.82,-3.66,434,321,258,363,335,23
1698,-0.28,-0.96,0.07,3.17,-2.62,-5.49,437,321,256,357,335,23
1699,-0.3,-0.99,0.08,9.7,12.7,-7.51,426,322,257,360,333,23
1700,-0.22,-0.94,0.13,-19.35,-4.58,17.09,418,327,258,362,337,23
1701,-0.3,-0.95,0.13,4.52,0.18,-0.55,426,328,263,363,341,23
1702,-0.28,-0.94,0.11,0.85,-11.47,-6.9,428,327,258,363,340,23
1703,-0.28,-0.95,0.14,-1.53,-6.41,-0.31,431,329,259,366,338,23
1704,-0.29,-0.93,0.15,-0.67,-0.43,-3.05,430,329,261,367,342,23
1705,-0.28,-0.94,0.13,0.49,-1.53,-3.17,429,327,259,363,342,23
1706,-0.29,-0.96,0.14,0.92,-2.01,-1.53,430,327,258,364,342,23
1707,-0.3,-0.98,0.11,-4.15,0.06,3.85,429,328,263,364,345,23
1708,-0.26,-0.83,0.05,-0.61,-2.56,-6.23,432,327,260,364,343,23
1709,-0.32,-0.94,0.12,8.97,-7.57,-8.3,434,331,262,367,341,23
1710,-0.31,-0.97,0.17,3.3,-2.87,-10.62,431,329,261,367,341,23
1711,-0.35,-0.89,0.08,-7.51,10.8,17.4,424,330,260,367,344,23
1712,-0.43,-0.9,0.02,0.98,0.18,-9.16,422,333,262,365,346,23
1713,-0.4,-0.94,0.09,14.04,-7.39,3.3,423,337,261,367,349,23
1714,-0.38,-0.92,0.13,-6.71,-5.0,-9.28,425,335,265,367,350,23
1715,-0.27,-0.92,-0.02,6.77,2.56,-6.59,425,343,270,370,351,23
1716,-0.33,-0.93,0.06,-0.43,-6.23,-0.92,432,341,268,365,350,23
1717,-0.33,-0.93,0.06,-2.5,-5.49,-2.5,426,335,264,370,352,23
1718,-0.32,-0.94,0.08,0.31,-5.19,-4.09,425,334,266,372,349,23
1719,-0.32,-0.94,0.09,0.98,-6.77,-3.54,427,337,270,364,351,23
1720,-0.32,-0.94,0.1,0.24,-5.31,-2.75,448,336,264,372,351,23
1721,-0.3,-0.95,0.12,0.18,-2.56,-0.37,425,336,261,366,350,23
1722,-0.34,-0.96,0.14,-8.91,15.81,0.55,424,336,266,373,351,23
1723,-0.32,-0.92,0.06,1.71,-5.31,-4.03,423,336,263,370,351,23
1724,-0.33,-0.94,0.08,-0.31,8.06,-8.42,424,336,265,370,353,23
1725,-0.33,-0.95,0.06,-0.06,2.32,-6.59,427,333,265,372,352,23
1726,-0.32,-0.94,0.05,0.55,-2.75,-2.26,426,334,262,373,351,23
1727,-0.32,-0.94,0.06,0.12,-4.46,-2.38,425,333,264,372,353,23
1728,-0.31,-0.94,0.07,3.36,-6.35,-2.08,435,334,264,372,352,23
1729,-0.31,-0.95,0.07,1.65,-4.39,-3.42,423,334,279,370,357,23
1730,-0.31,-0.94,0.07,2.87,-4.21,-1.95,426,335,264,372,350,23
1731,-0.31,-0.94,0.07,0.18,-5.37,-2.75,425,335,267,372,350,23
1732,-0.3,-0.94,0.07,0.49,-2.69,-2.81,428,344,266,373,352,23
1733,-0.33,-0.95,0.05,2.75,13.61,2.14,424,338,265,365,354,23
1734,-0.34,-0.94,0.03,4.46,-0.61,-0.92,423,340,267,370,350,23
1735,-0.32,-0.94,0.04,5.92,-5.25,-7.2,421,339,266,373,351,23
1736,-0.31,-0.93,0.07,1.71,-9.52,-3.54,425,341,269,375,352,23
1737,-0.29,-0.94,0.08,0.37,-3.17,-3.05,432,338,268,370,353,23
1738,-0.3,-0.95,0.09,0.24,-5.62,-2.93,423,339,261,372,351,23
1739,-0.3,-0.95,0.09,0.37,-3.91,-2.75,427,340,269,372,348,23
1740,-0.3,-0.95,0.09,0.49,-5.68,-3.48,424,337,264,371,353,23
1741,-0.29,-0.95,0.11,0.0,-5.07,-2.5,424,337,271,368,350,23
1742,-0.32,-0.94,0.1,-2.56,-8.18,0.92,424,339,265,370,349,23
1743,-0.29,-0.94,0.06,2.08,-7.57,-4.15,427,336,266,372,350,23
1744,-0.28,-0.94,0.08,-3.6,-1.4,9.7,427,347,269,374,354,23
1745,-0.37,-0.89,0.08,-2.32,-1.4,-7.63,419,341,269,372,353,23
1746,-0.36,-0.93,0.06,0.12,-7.2,-4.27,425,343,268,376,353,23
1747,-0.39,-0.91,0.09,-0.24,-8.24,-2.56,423,338,266,376,355,23
1748,-0.38,-0.91,0.11,-1.65,-11.72,-5.37,424,343,266,375,351,23
1749,-0.33,-0.94,0.12,-0.55,-9.28,-4.15,421,340,268,376,353,23
1750,-0.34,-0.91,0.11,3.6,-3.91,-3.78,427,338,264,373,357,23
1751,-0.34,-0.91,0.08,-2.01,-3.97,-3.78,424,342,267,371,356,23
1752,-0.38,-0.92,0.14,4.88,5.74,4.03,425,341,266,372,352,23
1753,-0.36,-0.87,0.04,14.95,-3.48,1.59,422,342,268,372,347,23
1754,-0.39,-0.91,0.1,2.2,-6.96,-2.69,423,340,268,374,355,23
1755,-0.37,-0.92,0.13,3.54,-6.47,-3.72,421,341,269,377,353,23
1756,-0.35,-0.92,0.12,2.26,-6.47,-2.2,425,344,265,368,354,23
1757,-0.35,-0.92,0.15,0.31,-1.83,-1.95,422,340,270,376,348,23
1758,-0.35,-0.92,0.15,-0.73,-3.42,-2.69,427,344,268,373,353,23
1759,-0.35,-0.92,0.14,1.16,-3.54,-3.05,441,343,270,374,353,23
1760,-0.34,-0.92,0.15,1.53,-1.16,-2.93,426,342,269,375,353,23
1761,-0.37,-0.92,0.14,-0.31,-1.71,-2.93,424,343,268,373,349,23
1762,-0.36,-0.92,0.13,1.1,-1.46,-2.38,420,339,266,370,355,23
1763,-0.35,-0.92,0.13,0.06,-5.0,-2.2,417,344,277,377,354,23
1764,-0.37,-0.93,0.12,-3.48,-1.59,-0.12,420,341,269,373,353,23
1765,-0.37,-0.92,0.1,-0.43,-2.62,-0.85,423,341,269,375,356,23
1766,-0.38,-0.9,0.07,-2.69,-1.4,-2.44,426,343,272,371,350,23
1767,-0.39,-0.92,0.09,1.1,-0.24,-1.04,425,340,269,374,353,23
1768,-0.4,-0.9,0.07,-2.87,0.18,0.61,425,344,269,374,353,23
1769,-0.4,-0.91,0.08,-0.18,-3.54,-2.26,426,344,267,370,350,23
1770,-0.4,-0.91,0.07,1.65,1.04,-3.48,426,341,268,375,355,23
1771,-0.39,-0.91,0.06,2.26,-5.31,-4.52,421,341,267,368,354,23
1772,-0.41,-0.95,0.14,-1.28,1.28,0.92,423,329,263,366,346,23
1773,-0.4,-0.9,0.09,-3.17,7.81,-4.09,424,331,261,368,340,23
1774,-0.38,-0.93,0.12,2.56,-3.72,-2.56,415,331,264,372,343,23
1775,-0.37,-0.92,0.1,3.91,-9.22,-3.36,423,332,262,371,349,23
1776,-0.37,-0.91,0.1,-0.55,-4.21,-4.09,425,338,265,375,347,23
1777,-0.38,-0.92,0.09,-1.28,-1.95,-2.56,422,333,263,371,349,23
1778,-0.37,-0.92,0.09,0.12,-2.62,-2.2,423,335,263,368,346,23
1779,-0.37,-0.91,0.11,1.71,-4.09,-2.44,423,334,263,371,349,23
1780,-0.37,-0.91,0.08,2.01,-4.64,-2.26,425,333,263,372,348,23
1781,-0.38,-0.91,0.1,0.85,-3.97,-2.32,423,335,264,374,340,23
1782,-0.39,-0.92,0.12,-0.92,-1.04,-1.71,424,333,264,366,348,23
1783,-0.36,-0.91,0.11,1.77,-4.82,-3.91,426,337,263,371,347,23
1784,-0.37,-0.92,0.11,0.49,-3.23,-2.69,424,334,264,373,347,23
1785,-0.37,-0.91,0.12,-0.31,-3.23,-2.08,426,336,263,374,345,23
1786,-0.37,-0.91,0.11,2.08,-2.26,-2.32,424,334,264,372,349,23
1787,-0.37,-0.92,0.12,1.34,-3.11,-2.99,426,337,265,371,349,23
1788,-0.36,-0.91,0.09,0.24,-4.21,-3.3,420,335,266,371,347,23
1789,-0.37,-0.92,0.11,0.85,-3.54,-2.69,427,333,262,376,348,23
1790,-0.37,-0.91,0.11,-0.06,-3.23,-2.2,424,332,262,376,349,23
1791,-0.37,-0.92,0.11,0.85,-4.94,-3.11,424,334,260,375,348,23
1792,-0.35,-0.91,0.11,0.98,-4.94,-3.48,423,331,264,375,349,23
1793,-0.37,-0.91,0.11,-1.95,-2.93,-2.44,426,335,265,372,350,23
1794,-0.38,-0.92,0.11,-0.18,-3.48,-1.65,425,336,263,371,351,23
1795,-0.38,-0.91,0.11,1.4,-3.72,-2.56,430,334,265,367,345,23
1796,-0.37,-0.91,0.12,0.37,-2.32,-2.14,423,334,263,372,349,23
1797,-0.37,-0.91,0.11,1.71,-3.6,-2.87,427,338,264,372,349,23
1798,-0.37,-0.92,0.13,0.67,-3.48,-2.69,423,334,265,373,351,23
1799,-0.37,-0.91,0.12,0.18,-3.23,-3.11,426,332,263,369,349,23
1800,-0.42,-0.93,0.13,-12.33,5.07,-14.59,422,336,264,376,350,23
1801,-0.37,-0.93,0.09,-1.59,-1.1,-3.85,422,338,264,378,357,23
1802,-0.35,-0.94,0.07,0.0,-2.81,-2.99,421,334,265,373,347,23
1803,-0.33,-0.92,0.02,5.37,-8.36,-1.04,423,334,265,373,352,23
1804,-0.34,-0.91,0.05,1.22,-3.72,-1.34,422,331,262,375,349,23
1805,-0.35,-0.9,0.07,0.31,-3.66,-3.11,422,326,254,372,349,23
1806,-0.36,-0.98,0.11,1.59,-4.52,-2.32,418,334,260,373,351,23
1807,-0.34,-0.93,0.11,0.31,-1.77,-3.23,420,333,261,372,352,23
1808,-0.33,-0.95,0.1,-1.4,0.06,0.12,422,336,261,370,350,23
1809,-0.35,-0.93,0.09,-2.5,-4.64,-1.53,422,332,261,374,349,23
1810,-0.35,-0.93,0.08,-2.44,-3.78,-2.01,421,333,263,375,349,23
1811,-0.35,-0.93,0.08,1.83,-3.05,-2.44,422,334,261,374,349,23
1812,-0.35,-0.92,0.07,-0.37,-4.15,-3.23,425,333,260,377,351,23
1813,-0.36,-0.93,0.1,-0.67,-2.38,-2.38,422,337,260,373,352,23
1814,-0.35,-0.93,0.08,-0.79,-2.93,-2.62,425,332,261,372,350,23
1815,-0.35,-0.92,0.08,4.09,-0.85,-2.32,423,333,260,372,351,23
1816,-0.36,-0.92,0.08,-1.83,-3.42,-3.48,421,332,262,374,350,23
1817,-0.35,-0.93,0.09,2.01,-2.44,-2.5,424,335,256,375,351,23
1818,-0.35,-0.93,0.09,0.24,-2.62,-2.81,432,332,260,369,350,23
1819,-0.35,-0.93,0.11,1.22,-3.6,-2.87,423,338,260,374,349,23
1820,-0.36,-0.93,0.09,0.31,-2.87,-2.14,421,335,259,373,349,23
1821,-0.35,-0.93,0.09,0.61,-3.36,-2.87,425,333,262,374,351,23
1822,-0.36,-0.94,0.1,-2.08,-3.6,-1.83,424,333,262,373,352,23
1823,-0.35,-0.92,0.09,0.55,-4.88,-2.93,424,333,264,372,348,23
1824,-0.34,-0.92,0.09,-0.43,-5.25,-3.78,422,335,260,375,351,23
1825,-0.35,-0.92,0.08,0.73,-3.78,-2.2,421,338,261,372,350,23
1826,-0.35,-0.92,0.09,-0.85,-3.05,-2.99,422,337,260,379,354,23
1827,-0.36,-0.94,0.11,0.43,-2.26,-2.62,422,334,261,373,354,23
1828,-0.35,-0.92,0.1,4.39,-5.98,-0.79,424,336,263,373,352,23
1829,-0.35,-0.91,0.08,-9.83,-5.19,2.08,424,338,261,377,349,23
1830,-0.36,-0.93,0.08,1.22,-3.11,-2.87,422,335,262,371,354,23
1831,-0.36,-0.93,0.08,2.99,-3.48,-1.46,422,336,262,370,353,23
1832,-0.36,-0.93,0.1,-1.22,-4.09,-1.22,421,334,264,374,348,23
1833,-0.36,-0.93,0.1,0.12,1.04,-2.38,421,333,264,373,345,23
1834,-0.36,-0.92,0.09,0.31,-3.72,-2.93,421,336,265,376,350,23
1835,-0.36,-0.92,0.09,-0.55,-2.99,-2.56,418,336,265,371,351,23
1836,-0.36,-0.92,0.08,-0.37,-2.81,-3.42,424,332,263,373,353,23
1837,-0.36,-0.92,0.07,-0.79,-2.87,-3.97,422,335,261,375,351,23
1838,-0.36,-0.93,0.09,0.61,-1.83,-2.69,422,335,265,369,353,23
1839,-0.36,-0.93,0.09,0.49,-2.99,-3.23,425,339,262,375,353,23
1840,-0.36,-0.92,0.08,1.77,-3.17,-2.26,422,342,264,373,352,23
1841,-0.36,-0.92,0.09,0.85,-4.27,-2.62,423,336,263,373,353,23
1842,-0.36,-0.93,0.09,-0.24,-2.75,-2.5,432,335,260,373,353,23
1843,-0.36,-0.92,0.1,1.22,-3.17,-2.2,424,336,261,368,353,23
1844,-0.36,-0.92,0.08,-1.16,-2.75,-3.11,424,334,265,377,352,23
1845,-0.36,-0.92,0.09,1.16,-1.83,-1.04,424,334,263,378,351,23
1846,-0.35,-0.94,0.07,-1.4,-2.26,-2.38,419,339,261,370,352,23
1847,-0.34,-0.93,0.07,2.5,-3.23,-1.77,420,336,263,377,351,23
1848,-0.33,-0.93,0.07,0.92,-6.65,-2.69,422,347,262,375,352,23
1849,-0.34,-0.93,0.08,0.92,-1.4,-2.14,422,337,265,376,355,23
1850,-0.36,-0.93,0.08,-1.89,-4.52,-0.73,429,334,262,375,353,23
1851,-0.36,-0.92,0.08,0.73,-3.23,-3.05,425,336,263,376,349,23
1852,-0.35,-0.92,0.09,1.1,-3.6,-2.38,421,335,263,376,354,23
1853,-0.36,-0.92,0.08,0.43,-1.95,-2.14,422,341,262,375,355,23
1854,-0.35,-0.92,0.09,0.18,-2.38,-2.14,422,338,264,375,356,23
1855,-0.35,-0.93,0.1,0.55,-2.2,-2.69,419,337,259,376,352,23
1856,-0.35,-0.92,0.1,0.85,-4.46,-3.3,424,338,261,374,353,23
1857,-0.35,-0.92,0.1,0.12,-2.81,-1.95,419,336,264,372,356,23
1858,-0.36,-0.92,0.09,-0.37,-2.2,-2.26,417,336,266,378,355,23
1859,-0.35,-0.93,0.08,0.79,-3.05,-2.2,424,339,261,375,352,23
1860,-0.35,-0.93,0.09,-0.73,-2.81,-2.2,424,335,262,377,353,23
1861,-0.36,-0.93,0.09,0.92,-2.26,-2.5,423,333,264,375,353,23
1862,-0.36,-0.92,0.08,-0.24,-2.44,-2.26,424,340,263,376,354,23
1863,-0.34,-0.92,0.07,-0.06,-2.81,-2.69,423,338,262,374,353,23
1864,-0.36,-0.92,0.08,0.31,-2.44,-2.62,425,339,264,380,355,23
1865,-0.35,-0.92,0.08,-0.31,-3.11,-2.38,425,336,265,378,353,23
1866,-0.35,-0.92,0.08,-0.55,-2.5,-3.23,425,337,264,374,355,23
1867,-0.35,-0.93,0.09,0.73,-3.05,-2.81,423,335,264,374,355,23
1868,-0.35,-0.93,0.09,0.31,-2.38,-2.87,424,335,264,374,353,23
1869,-0.35,-0.93,0.09,-0.18,-2.2,-2.62,422,334,262,376,353,23
1870,-0.36,-0.93,0.07,-1.22,-2.75,-2.56,421,341,265,375,352,23
1871,-0.35,-0.92,0.07,1.34,-2.99,-3.3,421,336,262,374,355,23
1872,-0.35,-0.93,0.08,0.43,-0.85,-2.5,422,339,265,374,353,23
1873,-0.35,-0.93,0.07,-1.04,-3.72,-3.54,424,338,264,376,353,23
1874,-0.34,-0.94,0.09,-1.83,-2.75,-2.38,422,340,263,379,355,23
1875,-0.35,-0.92,0.08,-0.85,-2.69,-2.14,423,337,264,378,349,23
1876,-0.35,-0.93,0.06,0.24,-3.3,-1.89,423,337,266,371,353,23
1877,-0.36,-0.93,0.07,0.67,-1.83,-2.62,422,339,264,375,353,23
1878,-0.35,-0.92,0.06,1.65,-3.72,-3.11,425,337,262,377,353,23
1879,-0.35,-0.93,0.07,0.06,-3.3,-2.01,423,338,263,378,352,23
1880,-0.35,-0.93,0.08,0.43,-2.81,-2.69,423,337,263,373,354,23
1881,-0.36,-0.93,0.08,0.61,-3.17,-2.08,422,338,261,374,353,23
1882,-0.35,-0.92,0.08,0.24,-2.26,-2.38,421,336,263,375,352,23
1883,-0.35,-0.93,0.08,0.12,-2.62,-2.99,421,336,263,376,356,23
1884,-0.35,-0.93,0.07,0.31,-3.23,-2.75,422,339,265,373,354,23
1885,-0.36,-0.92,0.07,-0.55,-2.44,-2.81,424,336,264,375,354,23
1886,-0.35,-0.92,0.07,1.22,-3.78,-2.08,421,338,261,378,353,23
1887,-0.34,-0.92,0.06,1.04,-3.17,-2.75,424,338,264,378,354,23
1888,-0.35,-0.94,0.06,-2.93,-2.44,-2.08,419,337,267,378,353,23
1889,-0.37,-0.93,0.05,0.67,-2.08,-3.36,422,338,275,379,354,23
1890,-0.36,-0.94,0.05,-0.92,-2.5,-2.99,418,337,262,377,353,23
1891,-0.36,-0.92,0.04,1.53,-3.23,-2.44,419,339,266,377,354,23
1892,-0.36,-0.93,0.05,0.0,-1.65,-1.95,420,336,261,375,356,23
1893,-0.35,-0.93,0.05,0.73,-2.99,-2.56,420,335,264,376,350,23
1894,-0.35,-0.93,0.05,1.28,-3.42,-2.69,420,339,260,378,355,23
1895,-0.35,-0.92,0.04,0.67,-2.81,-2.56,421,338,267,377,356,23
1896,-0.34,-0.93,0.04,1.46,-2.99,-3.17,421,344,264,378,354,23
1897,-0.35,-0.93,0.07,15.5,-0.37,-3.72,420,337,266,376,354,23
1898,-0.36,-0.93,0.04,0.24,-1.4,-5.25,419,335,262,385,353,23
1899,-0.35,-0.92,0.03,0.92,-4.58,-1.77,420,342,264,372,356,23
1900,-0.34,-0.92,0.04,1.59,-3.85,-3.17,420,339,265,377,352,23
1901,-0.34,-0.94,0.04,1.04,-3.23,-2.62,420,338,263,375,355,23
1902,-0.34,-0.94,0.04,0.0,-1.59,-3.11,424,338,266,371,355,23
1903,-0.34,-0.93,0.04,0.79,-2.99,-3.17,421,337,267,379,353,23
1904,-0.34,-0.93,0.05,-0.18,-3.72,-3.3,424,337,264,372,352,23
1905,-0.34,-0.93,0.04,0.49,-2.75,-3.11,420,336,264,372,354,23
1906,-0.34,-0.93,0.05,0.0,-1.89,-1.89,418,341,263,374,356,23
1907,-0.34,-0.93,0.04,1.59,-3.3,-2.62,423,338,264,380,357,23
1908,-0.34,-0.92,0.04,-0.85,-2.75,-1.95,441,340,265,371,356,23
1909,-0.34,-0.92,0.04,0.67,-3.54,-2.32,422,337,265,376,354,23
1910,-0.34,-0.93,0.04,-0.18,-4.27,-2.99,418,337,265,378,357,23
1911,-0.35,-0.94,0.04,-0.98,-2.38,-1.95,422,341,264,376,355,23
1912,-0.35,-0.94,0.06,-0.43,-2.87,-2.56,429,339,264,377,350,23
1913,-0.34,-0.93,0.04,1.34,-3.17,-3.11,420,341,263,376,355,23
1914,-0.34,-0.93,0.04,-1.04,-3.85,-2.81,423,340,262,371,354,23
1915,-0.34,-0.93,0.05,0.06,-3.72,-2.5,420,339,265,372,354,23
1916,-0.34,-0.93,0.04,1.71,-3.11,-2.32,421,340,266,376,354,23
1917,-0.34,-0.94,0.06,-0.73,-3.3,-3.11,421,339,267,381,355,23
1918,-0.33,-0.93,0.05,1.83,-2.44,-2.99,421,337,263,375,355,23
1919,-0.33,-0.93,0.05,-0.18,-3.11,-2.26,421,336,264,378,353,23
1920,-0.33,-0.94,0.05,0.79,-2.69,-1.95,422,340,261,375,356,23
1921,-0.34,-0.94,0.06,-1.04,-3.54,-3.54,417,339,264,385,357,23
1922,-0.34,-0.93,0.05,1.16,-3.17,-2.75,420,338,264,375,363,23
1923,-0.34,-0.93,0.04,2.87,-3.85,-2.81,421,338,261,377,356,23
1924,-0.34,-0.94,0.06,0.55,-2.2,-2.38,420,335,267,380,355,23
1925,-0.34,-0.94,0.06,1.16,-2.75,-2.32,427,340,263,377,355,23
1926,-0.33,-0.94,0.05,1.1,-2.75,-2.62,435,340,263,380,351,23
1927,-0.34,-0.94,0.05,0.31,-2.75,-3.23,421,338,264,373,358,23
1928,-0.33,-0.94,0.06,-0.06,-2.69,-2.75,422,334,261,376,355,23
1929,-0.32,-0.93,0.03,0.43,-3.42,-2.87,419,340,262,371,352,23
1930,-0.34,-0.93,0.03,1.1,-5.98,-1.46,413,340,264,378,356,23
1931,-0.33,-0.93,0.02,2.01,-4.82,-3.05,417,339,265,379,356,23
1932,-0.33,-0.93,0.04,0.85,-4.03,-2.56,421,339,265,379,359,23
1933,-0.34,-0.94,0.04,1.77,-2.62,-2.26,419,340,265,379,355,23
1934,-0.34,-0.93,0.05,1.04,-3.3,-3.11,419,341,264,378,356,23
1935,-0.33,-0.94,0.03,0.61,-2.69,-3.3,418,339,266,373,358,23
1936,-0.33,-0.94,0.05,0.85,-3.11,-2.38,420,340,266,382,356,23
1937,-0.33,-0.94,0.04,0.31,-2.93,-2.62,419,340,264,374,357,23
1938,-0.32,-0.94,0.05,0.06,-2.69,-1.77,420,339,266,390,356,23
1939,-0.33,-0.94,0.05,-0.06,-2.14,-1.53,422,341,264,381,357,23
1940,-0.33,-0.94,0.05,-0.85,-2.2,-1.83,423,344,266,378,357,23
1941,-0.34,-0.93,0.04,-0.06,-2.2,-2.56,419,342,266,380,358,23
1942,-0.33,-0.94,0.04,1.04,-2.2,-2.75,422,336,267,380,359,23
1943,-0.33,-0.93,0.04,1.83,-3.66,-2.62,455,341,265,374,353,23
1944,-0.33,-0.94,0.05,0.49,-2.38,-2.14,420,336,262,382,358,23
1945,-0.33,-0.94,0.06,0.92,-2.81,-2.38,417,340,265,377,357,23
1946,-0.33,-0.94,0.06,0.18,-3.36,-2.75,420,338,264,377,359,23
1947,-0.33,-0.93,0.06,0.92,-2.44,-1.95,422,342,263,381,356,23
