,aX,aY,aZ,gX,gY,gZ,little,ring,middle,index,thumb
0,0.58,0.74,0.41,1.77,-2.26,-6.71,413,468,236,310,219
1,0.58,0.74,0.39,2.93,1.77,-8.3,413,464,236,309,220
2,0.53,0.73,0.41,-5.25,-5.68,-4.82,412,467,235,310,223
3,0.57,0.75,0.39,2.44,-6.41,-1.83,412,459,238,312,228
4,0.57,0.76,0.39,-1.59,-3.17,-4.39,416,465,238,309,220
5,0.51,0.74,0.41,-1.16,-5.0,-1.1,413,464,238,310,219
6,0.55,0.74,0.42,-4.21,-2.14,3.91,413,467,236,311,223
7,0.59,0.76,0.39,7.45,-3.23,-2.81,413,465,236,309,223
8,0.55,0.71,0.42,-4.15,-3.42,-0.98,414,465,238,312,226
9,0.58,0.75,0.4,2.26,-2.93,-3.11,413,465,246,311,223
10,0.52,0.69,0.44,-2.14,-0.61,-3.17,412,464,239,308,222
11,0.5,0.77,0.46,7.81,1.71,-7.39,413,461,240,311,224
12,0.5,0.71,0.44,2.08,-2.5,-1.28,417,459,240,309,225
13,0.45,0.83,0.47,2.32,2.08,-2.87,414,471,237,305,224
14,0.45,0.82,0.43,-3.48,-3.85,4.39,415,463,235,307,224
15,0.46,0.83,0.42,4.52,-1.16,-3.05,414,460,239,312,224
16,0.44,0.8,0.43,3.48,0.49,-2.62,414,465,240,308,228
17,0.45,0.79,0.42,1.04,-6.35,1.16,413,469,241,311,226
18,0.46,0.81,0.44,-0.61,-3.3,-2.08,412,466,242,315,228
19,0.46,0.77,0.42,1.04,-3.42,-0.98,414,466,242,310,226
20,0.46,0.79,0.42,-0.73,-1.95,-1.28,411,468,237,313,227
21,0.46,0.77,0.42,-1.53,-2.81,-3.17,412,467,241,314,228
22,0.48,0.77,0.41,1.16,-3.97,-2.01,415,466,240,315,229
23,0.48,0.79,0.41,0.24,-1.4,-2.44,410,467,239,311,227
24,0.47,0.79,0.42,-2.32,-2.69,-3.85,416,468,242,309,227
25,0.47,0.8,0.43,-2.32,-2.08,-2.14,415,466,241,313,228
26,0.46,0.77,0.42,1.71,-0.24,-4.09,415,467,243,310,227
27,0.47,0.79,0.42,0.12,-2.2,-2.5,410,474,241,311,268
28,0.46,0.79,0.43,1.34,-2.81,-3.17,415,473,239,314,226
29,0.46,0.8,0.42,0.73,-2.5,-3.48,415,471,242,317,229
30,0.48,0.79,0.42,1.65,-2.56,-3.42,416,468,241,310,229
31,0.46,0.78,0.43,1.04,-1.4,-1.95,413,463,240,311,231
32,0.47,0.79,0.43,-0.37,-3.36,-2.32,409,470,237,311,227
33,0.45,0.78,0.42,2.14,-1.04,-2.81,412,467,247,312,229
34,0.46,0.79,0.43,-1.04,-2.44,-4.21,413,465,240,312,231
35,0.47,0.8,0.4,5.19,-2.75,-2.56,413,471,236,308,228
36,0.47,0.77,0.4,2.14,-2.14,-2.32,414,464,237,309,234
37,0.48,0.79,0.39,-0.12,-3.17,-1.22,414,465,240,309,226
38,0.47,0.79,0.39,1.77,-3.17,-2.2,412,468,239,309,266
39,0.48,0.79,0.39,2.44,-5.62,0.24,414,464,237,312,229
40,0.48,0.78,0.39,-0.18,-5.0,1.71,417,467,237,308,226
41,0.49,0.79,0.38,2.14,-5.19,-1.77,410,468,240,310,229
42,0.48,0.79,0.39,0.61,-3.11,-1.89,414,467,239,311,228
43,0.49,0.79,0.38,2.26,-2.62,-2.93,415,469,242,308,226
44,0.49,0.8,0.39,0.43,-2.87,-2.32,416,468,238,312,229
45,0.49,0.8,0.38,1.22,-2.26,-0.43,411,471,237,311,228
46,0.49,0.8,0.39,0.31,-2.99,-4.46,417,471,238,311,227
47,0.48,0.79,0.39,2.81,-3.42,-3.54,413,472,239,309,231
48,0.47,0.8,0.38,4.03,-4.76,-2.01,412,470,237,310,228
49,0.48,0.8,0.38,0.79,-4.09,-3.3,414,467,236,309,232
50,0.49,0.79,0.37,1.28,-2.5,-1.22,416,466,237,312,231
51,0.49,0.79,0.37,2.2,-2.56,-0.55,415,481,238,311,227
52,0.49,0.78,0.38,1.28,-2.69,-2.99,414,462,238,310,229
53,0.48,0.8,0.4,1.34,-2.01,-4.82,415,463,239,319,229
54,0.49,0.8,0.38,0.31,-2.75,-1.71,412,470,241,308,225
55,0.48,0.78,0.38,0.61,-2.81,-0.24,412,472,237,313,232
56,0.49,0.8,0.38,2.75,-2.44,-2.81,414,469,238,312,231
57,0.49,0.79,0.37,-0.31,-3.48,-3.11,411,467,238,311,229
58,0.47,0.81,0.38,-1.65,-3.23,-4.58,416,470,240,312,233
59,0.49,0.79,0.36,0.92,-4.09,-1.83,415,471,241,315,225
60,0.5,0.81,0.36,-1.53,-4.03,-0.67,414,471,240,313,223
61,0.5,0.8,0.37,3.66,-3.91,-2.32,411,468,244,315,228
62,0.5,0.78,0.36,1.28,-2.44,-1.04,413,467,243,313,244
63,0.5,0.78,0.37,2.26,-4.39,-1.4,415,466,243,313,231
64,0.49,0.79,0.36,-2.08,-2.99,-2.93,412,471,239,313,231
65,0.49,0.79,0.36,-1.22,-2.93,-3.66,415,470,240,317,227
66,0.48,0.8,0.38,0.37,-2.2,-3.42,417,465,244,313,232
67,0.49,0.77,0.37,-1.71,-2.44,-2.08,415,473,241,313,231
68,0.46,0.79,0.36,-3.36,-4.82,-4.82,410,468,238,314,231
69,0.49,0.79,0.36,-0.43,-3.05,-1.34,415,470,240,313,232
70,0.49,0.8,0.37,0.61,-2.81,-2.81,415,468,245,317,229
71,0.48,0.8,0.37,1.4,-1.28,-4.27,415,481,239,312,232
72,0.49,0.8,0.37,1.89,-2.69,-3.11,411,473,246,317,231
73,0.48,0.79,0.38,-0.12,-1.65,-3.23,415,468,243,314,230
74,0.49,0.79,0.36,0.0,-2.44,-3.05,415,482,244,311,230
75,0.5,0.8,0.37,-0.49,-3.6,-0.24,416,462,240,315,229
76,0.49,0.78,0.36,-0.18,-2.81,-2.44,416,464,241,314,228
77,0.5,0.79,0.38,-0.06,-3.23,-2.93,415,470,241,314,231
78,0.46,0.79,0.37,-0.61,-2.38,-3.23,416,468,242,322,231
79,0.49,0.79,0.39,2.26,-1.71,-4.33,414,469,241,314,226
80,0.48,0.8,0.38,-0.79,-2.93,-2.44,412,463,241,312,234
81,0.49,0.78,0.39,-0.06,-3.54,-2.01,414,473,242,312,234
82,0.48,0.8,0.37,0.49,-4.21,-2.93,415,461,240,318,233
83,0.48,0.79,0.38,-0.49,-1.71,-2.38,414,467,242,310,231
84,0.48,0.79,0.37,-1.83,-2.44,-2.38,416,467,239,316,231
85,0.49,0.81,0.38,-0.67,-2.69,-3.72,415,466,242,316,231
86,0.46,0.8,0.39,-1.4,-0.67,-4.46,418,470,241,316,233
87,0.44,0.84,0.37,-3.3,-16.24,-9.58,416,471,239,316,232
88,0.46,0.8,0.4,-1.22,-11.84,-10.38,415,466,240,313,231
89,0.45,0.77,0.38,-4.21,-1.71,5.19,417,467,245,315,231
90,0.49,0.78,0.36,-0.12,3.66,5.98,417,464,244,317,234
91,0.48,0.75,0.36,2.32,3.66,10.99,416,468,240,318,232
92,0.47,0.82,0.42,-0.06,6.1,-2.75,412,468,242,316,230
93,0.49,0.8,0.39,2.5,-4.27,-1.53,415,471,242,318,234
94,0.44,0.78,0.42,1.4,-0.18,1.53,419,469,238,315,233
95,0.49,0.77,0.4,-0.06,-4.82,-2.26,414,467,242,316,233
96,0.48,0.78,0.4,0.79,-4.03,-2.62,416,468,241,316,233
97,0.5,0.8,0.4,0.49,-1.53,-3.17,414,478,246,316,233
98,0.5,0.8,0.41,2.32,-1.28,-2.81,419,467,243,318,251
99,0.49,0.77,0.39,0.31,-2.08,-0.79,414,468,244,317,227
100,0.5,0.78,0.39,0.24,-3.42,-2.14,417,468,244,316,232
101,0.5,0.78,0.4,0.24,-3.6,-2.01,417,471,247,316,272
102,0.51,0.78,0.39,-0.73,-3.23,-1.53,415,466,243,316,231
103,0.5,0.78,0.39,1.28,-2.5,-3.91,416,469,240,319,241
104,0.51,0.77,0.39,-1.16,-2.62,-2.56,416,467,243,316,235
105,0.5,0.77,0.39,-0.18,-4.39,-3.72,417,463,243,317,233
106,0.51,0.76,0.39,-0.31,-4.27,-0.37,418,463,241,317,233
107,0.5,0.77,0.39,-1.04,-2.56,-1.89,416,464,241,318,231
108,0.51,0.78,0.39,0.37,-4.03,-2.08,417,470,242,317,228
109,0.52,0.78,0.39,-1.34,-3.97,-0.98,417,468,243,317,235
110,0.52,0.78,0.39,-1.04,-3.91,-2.93,416,465,241,318,233
111,0.49,0.78,0.4,-1.59,-0.98,-4.76,417,470,241,317,231
112,0.49,0.78,0.39,0.06,-4.46,-2.93,417,466,245,320,231
113,0.48,0.77,0.38,-0.31,-5.49,0.12,417,475,243,320,232
114,0.51,0.78,0.4,-5.86,-10.68,-1.46,418,468,246,321,234
115,0.47,0.71,0.4,-4.64,-2.26,14.34,416,467,245,320,234
116,0.56,0.73,0.39,-3.72,-3.6,-1.53,416,467,249,317,237
117,0.53,0.73,0.41,-3.05,-3.72,0.43,417,470,244,317,244
118,0.55,0.77,0.43,0.43,-2.62,-3.72,417,471,246,317,234
119,0.53,0.76,0.41,0.73,-3.11,1.1,419,474,243,317,233
120,0.53,0.75,0.41,0.73,-4.58,-3.91,415,468,245,319,231
121,0.52,0.73,0.4,-0.18,-3.36,-1.71,417,471,245,318,236
122,0.53,0.77,0.4,2.2,0.73,-7.87,418,471,244,318,233
123,0.54,0.77,0.42,3.23,-3.97,-2.32,416,478,243,322,236
124,0.53,0.75,0.41,0.92,-2.26,-2.99,417,462,243,319,236
125,0.54,0.75,0.4,1.1,-3.36,-1.83,418,466,245,321,234
126,0.53,0.74,0.41,-2.2,-3.3,-2.44,417,473,245,318,237
127,0.54,0.76,0.41,-2.26,-2.75,-1.34,413,471,245,319,234
128,0.52,0.74,0.41,1.04,-3.78,-3.42,412,467,245,316,231
129,0.52,0.76,0.41,-0.73,-2.44,-2.69,417,469,246,320,236
130,0.53,0.74,0.41,-0.06,-4.46,-2.26,416,472,249,316,236
131,0.52,0.76,0.41,-0.85,-1.28,-1.89,417,468,241,321,236
132,0.51,0.76,0.42,1.83,-2.75,-4.46,418,467,244,319,235
133,0.5,0.76,0.42,0.98,-1.22,-2.75,414,467,244,321,246
134,0.53,0.76,0.41,2.56,-4.03,-1.95,417,462,246,324,237
135,0.51,0.75,0.41,0.49,-2.81,-2.44,418,470,243,317,231
136,0.51,0.75,0.41,0.55,-3.05,-1.77,419,471,244,327,234
137,0.51,0.74,0.41,-1.22,-3.36,-2.44,417,467,244,322,230
138,0.51,0.76,0.4,0.67,-2.93,-2.81,418,467,242,317,237
139,0.52,0.74,0.4,0.0,-3.23,-2.32,413,468,245,325,233
140,0.52,0.76,0.42,0.55,-1.83,-2.93,419,471,244,321,234
141,0.51,0.76,0.42,0.49,-2.38,-3.05,418,469,246,319,233
142,0.51,0.77,0.41,3.97,-1.46,-3.72,418,472,242,319,233
143,0.5,0.74,0.4,0.85,-2.81,-2.93,419,467,245,319,230
144,0.51,0.75,0.41,2.32,-2.87,-0.67,417,470,242,318,235
145,0.51,0.77,0.42,0.55,-3.91,3.17,413,470,249,321,234
146,0.53,0.75,0.39,0.49,-4.64,-1.95,416,467,243,320,234
147,0.55,0.74,0.42,-1.83,0.12,1.16,416,470,243,318,235
148,0.52,0.73,0.43,2.99,0.55,1.28,415,468,243,319,235
149,0.54,0.73,0.42,1.4,-1.22,-2.93,420,463,260,322,234
150,0.52,0.72,0.42,2.08,-1.95,-5.86,418,468,247,322,238
151,0.53,0.78,0.41,0.24,-3.3,-0.85,414,464,244,320,235
152,0.55,0.75,0.42,4.27,-4.46,0.06,419,463,246,319,235
153,0.57,0.71,0.4,-2.5,-2.93,-0.85,419,468,247,320,237
154,0.56,0.71,0.44,0.55,-5.0,-4.09,420,462,244,317,234
155,0.55,0.73,0.43,0.49,-3.91,-4.39,418,464,244,317,230
156,0.57,0.69,0.39,-0.79,-3.36,-0.18,418,462,246,323,237
157,0.57,0.73,0.43,-2.75,-3.6,-5.37,417,468,250,323,235
158,0.55,0.69,0.41,-1.16,-3.85,-2.32,418,464,243,322,245
159,0.57,0.7,0.42,0.12,-2.5,-0.85,419,470,242,323,239
160,0.59,0.68,0.43,4.39,-8.97,-8.61,416,463,247,326,238
161,0.58,0.68,0.41,1.4,1.22,-4.46,416,474,245,323,236
162,0.56,0.74,0.44,0.98,0.31,-4.58,417,466,245,320,237
163,0.56,0.72,0.44,2.93,-0.37,-4.03,416,471,248,320,266
164,0.55,0.74,0.45,1.59,-3.11,-2.99,418,468,248,321,236
165,0.54,0.71,0.46,-1.04,-2.75,0.73,419,471,245,318,237
166,0.55,0.71,0.45,-1.95,-2.87,-2.69,419,471,249,322,239
167,0.58,0.71,0.44,0.43,-3.54,-2.87,418,467,249,326,236
168,0.56,0.71,0.44,-0.73,1.04,-5.62,418,465,243,322,240
169,0.57,0.7,0.47,-0.49,-4.58,-3.11,418,467,245,323,235
170,0.55,0.7,0.46,3.23,-3.48,-2.38,418,471,248,323,242
171,0.56,0.71,0.47,0.0,-3.48,-2.81,416,466,246,325,236
172,0.54,0.71,0.44,-0.92,-0.61,-4.94,418,471,245,323,242
173,0.52,0.71,0.47,-1.22,-2.87,-3.78,418,471,243,326,236
174,0.55,0.72,0.47,0.85,-3.54,-2.5,420,470,261,324,239
175,0.53,0.71,0.46,1.16,-2.14,-3.66,416,466,248,324,238
176,0.53,0.72,0.46,0.12,-2.56,-2.38,419,461,246,325,236
177,0.52,0.72,0.45,0.92,-4.21,-1.65,416,462,248,324,253
178,0.56,0.73,0.45,4.64,-0.37,-3.23,418,482,248,323,233
179,0.51,0.75,0.45,1.28,-3.72,-0.73,428,469,247,326,260
180,0.51,0.71,0.44,-0.92,-3.05,-1.34,418,463,249,325,236
181,0.53,0.75,0.45,2.62,-3.6,-6.04,415,467,247,320,236
182,0.5,0.73,0.43,1.22,-2.93,-6.35,418,471,245,322,236
183,0.5,0.75,0.45,0.31,-2.69,-2.44,417,471,246,326,236
184,0.51,0.77,0.44,1.65,-1.83,-2.08,419,467,244,323,236
185,0.5,0.76,0.42,1.77,-3.36,-3.11,418,466,246,329,237
186,0.5,0.74,0.43,-1.22,-3.05,-1.28,419,470,256,324,237
187,0.52,0.75,0.42,3.85,-4.21,-1.1,418,471,250,325,239
188,0.51,0.75,0.41,3.17,-2.75,-3.48,420,471,251,323,237
189,0.52,0.75,0.41,2.62,-2.26,-2.87,419,470,246,322,234
190,0.5,0.77,0.41,1.22,-3.6,-4.7,418,467,247,323,238
191,0.5,0.78,0.42,2.01,-2.69,-2.81,417,465,245,326,240
192,0.5,0.77,0.42,0.67,-3.11,-2.81,418,471,256,324,239
193,0.49,0.76,0.42,0.43,-4.46,-0.49,420,466,245,322,237
194,0.51,0.77,0.41,0.43,-3.3,-1.16,416,468,247,326,237
195,0.5,0.75,0.41,1.16,-4.52,-1.22,414,461,245,325,239
196,0.51,0.77,0.4,2.5,-2.81,-2.93,413,470,246,323,237
197,0.5,0.77,0.41,1.65,-2.32,-2.5,419,465,249,324,240
198,0.5,0.78,0.41,0.24,-2.75,-2.56,418,466,249,320,239
199,0.52,0.76,0.39,1.65,-3.66,-4.39,418,467,249,324,238
200,0.5,0.78,0.41,0.18,-3.91,-3.05,417,470,247,324,238
201,0.5,0.77,0.4,-1.77,-2.5,-1.95,419,466,257,326,240
202,0.51,0.78,0.39,1.34,-1.71,-2.32,419,468,250,321,236
203,0.5,0.78,0.41,-0.79,-2.38,-4.09,415,466,250,320,237
204,0.49,0.75,0.41,0.61,-1.83,-2.81,418,469,247,323,237
205,0.49,0.76,0.42,-1.28,-2.75,-2.99,418,465,248,326,239
206,0.5,0.77,0.41,1.4,-1.95,-1.28,416,462,250,325,238
207,0.5,0.78,0.42,0.85,-3.17,-1.95,419,472,248,323,237
208,0.51,0.76,0.4,0.98,-3.97,-1.77,417,467,250,324,237
209,0.51,0.76,0.4,0.24,-2.99,-2.08,418,465,250,324,237
210,0.5,0.76,0.41,0.73,-4.39,-1.46,419,469,248,324,234
211,0.51,0.76,0.41,1.46,-3.05,-2.44,414,465,245,324,237
212,0.51,0.76,0.41,-0.37,-3.54,-2.56,418,469,245,326,240
213,0.51,0.76,0.41,1.22,-4.03,-0.79,421,466,249,321,237
214,0.51,0.75,0.42,-1.22,-3.3,-0.49,419,466,248,323,240
215,0.51,0.77,0.43,2.93,-3.17,-2.87,417,463,247,326,240
216,0.51,0.76,0.41,1.89,-3.48,-2.26,416,462,246,326,237
217,0.49,0.77,0.41,1.22,-2.14,-2.2,418,462,247,324,239
218,0.49,0.76,0.42,-0.67,-2.81,-2.99,418,465,247,324,240
219,0.5,0.76,0.41,-0.24,-2.87,-4.27,418,470,248,324,233
220,0.5,0.76,0.41,-2.26,-3.85,-1.71,418,467,247,324,237
221,0.49,0.77,0.42,-0.73,-0.61,-4.33,413,466,243,324,238
222,0.5,0.77,0.42,-0.18,-2.26,-2.81,420,463,247,324,237
223,0.51,0.78,0.42,0.37,-2.93,-2.75,416,466,249,325,240
224,0.51,0.76,0.41,-0.49,-2.44,-2.69,414,466,249,321,237
225,0.5,0.76,0.41,-0.18,-3.05,-2.99,420,465,250,327,240
226,0.5,0.76,0.41,-1.46,-2.75,-3.54,417,467,244,325,239
227,0.51,0.75,0.42,-0.24,-2.08,-2.99,413,467,245,324,236
228,0.52,0.76,0.41,1.28,-2.75,-4.46,414,465,246,324,240
229,0.5,0.76,0.42,-0.24,-2.32,-2.87,418,467,250,325,242
230,0.5,0.76,0.42,-0.31,-3.91,-3.36,418,470,246,324,238
231,0.5,0.77,0.42,0.06,-2.01,-4.52,418,465,246,330,238
232,0.5,0.78,0.42,1.4,-1.71,-2.81,421,461,246,324,239
233,0.51,0.76,0.39,-0.67,-3.23,-3.05,415,470,245,324,238
234,0.51,0.75,0.4,-6.47,-9.09,-4.88,418,470,248,326,239
235,0.5,0.76,0.4,-1.89,-2.26,-1.65,419,470,247,324,239
236,0.48,0.76,0.42,2.01,-5.19,-4.46,420,467,245,327,238
237,0.51,0.76,0.41,4.21,-1.77,-5.13,417,464,247,324,237
238,0.48,0.8,0.4,3.97,-2.56,-5.25,418,467,247,324,236
239,0.47,0.8,0.4,0.79,-1.65,-3.78,418,469,244,326,236
240,0.46,0.8,0.4,1.46,-4.09,-2.62,417,472,249,326,240
241,0.46,0.79,0.38,1.22,-3.05,-2.26,418,470,253,326,239
242,0.46,0.82,0.41,0.24,-0.49,-3.17,417,466,248,325,240
243,0.47,0.78,0.39,0.73,-1.28,-4.21,419,466,249,325,238
244,0.46,0.79,0.4,-1.89,-2.32,-2.01,416,465,246,327,250
245,0.5,0.81,0.43,-0.98,-0.24,-1.65,419,461,246,324,237
246,0.5,0.79,0.41,-0.06,-0.55,-0.92,416,466,250,325,237
247,0.48,0.8,0.44,-0.67,-1.4,-3.05,417,469,245,324,241
248,0.5,0.8,0.44,0.79,-4.7,-2.2,417,466,250,324,237
249,0.46,0.75,0.42,1.04,-2.93,-3.85,417,467,249,324,237
250,0.47,0.78,0.43,3.42,-1.89,-1.22,417,469,250,341,241
251,0.46,0.8,0.42,0.79,-3.97,-2.93,417,466,249,327,238
252,0.49,0.77,0.42,-0.06,-3.66,-2.08,414,464,249,326,239
253,0.48,0.79,0.42,1.89,-2.56,-2.62,420,464,247,326,237
254,0.48,0.77,0.42,-0.06,-2.69,-2.62,417,467,248,323,240
255,0.48,0.79,0.42,0.61,-3.17,-2.81,419,465,248,327,239
256,0.48,0.77,0.41,0.12,-3.05,-2.01,420,467,249,332,253
257,0.5,0.76,0.41,1.46,-3.48,-2.44,419,465,253,325,242
258,0.49,0.77,0.41,0.31,-3.05,-2.32,418,470,249,325,237
259,0.49,0.77,0.42,1.28,-2.32,-4.33,417,466,248,325,238
260,0.49,0.77,0.42,-0.43,-2.01,-3.17,418,467,248,324,238
261,0.49,0.77,0.41,-0.98,-2.69,-2.32,417,470,244,326,238
262,0.49,0.78,0.42,0.06,-2.44,-3.17,417,466,251,324,229
263,0.49,0.76,0.41,0.43,-2.26,-2.81,425,464,247,329,238
264,0.49,0.78,0.4,-1.65,-3.05,-2.08,418,470,250,325,237
265,0.48,0.79,0.41,-3.17,-3.54,-3.23,417,464,246,321,241
266,0.48,0.78,0.42,0.12,-3.54,-1.83,418,462,246,327,235
267,0.48,0.77,0.42,-0.55,-1.71,-0.92,418,467,247,328,251
268,0.49,0.78,0.42,0.37,-3.17,-2.32,417,465,248,325,239
269,0.48,0.77,0.41,0.92,-2.08,-1.83,418,465,251,322,240
270,0.49,0.76,0.42,0.67,-2.5,-2.5,414,470,250,326,237
271,0.48,0.77,0.42,0.06,-3.36,-2.38,419,461,251,326,238
272,0.48,0.75,0.4,3.23,-0.31,-5.92,418,470,247,329,238
273,0.49,0.78,0.42,0.73,-3.11,-2.87,418,465,249,328,237
274,0.47,0.76,0.42,-0.98,-0.37,0.24,418,461,249,328,238
275,0.5,0.72,0.4,1.59,-3.17,-4.03,421,463,249,324,240
276,0.51,0.79,0.43,0.55,-2.14,-2.38,417,460,251,326,246
277,0.49,0.75,0.41,1.89,-2.08,-4.03,418,475,245,327,237
278,0.5,0.76,0.42,-0.43,-3.05,-1.71,415,466,247,328,238
279,0.51,0.75,0.42,-1.28,-3.3,-1.28,418,461,248,324,237
280,0.49,0.75,0.42,-0.67,-2.01,-3.36,418,470,251,326,233
281,0.48,0.76,0.43,0.67,-3.85,-2.5,417,470,246,328,239
282,0.5,0.74,0.42,-0.43,-4.21,-2.32,415,460,248,322,240
283,0.5,0.75,0.41,-1.77,-2.75,-3.72,417,462,244,326,237
284,0.5,0.76,0.42,-6.29,-3.85,-1.1,418,468,246,325,239
285,0.51,0.75,0.44,-2.38,-3.3,-1.46,420,470,251,331,235
286,0.49,0.76,0.43,-0.55,-4.64,-1.59,419,466,249,325,240
287,0.5,0.78,0.44,1.89,-4.27,-1.53,418,466,247,327,233
288,0.49,0.77,0.45,1.71,-1.59,-4.94,418,464,252,325,238
289,0.5,0.78,0.45,1.28,-3.66,-2.38,417,460,249,327,238
290,0.48,0.76,0.42,3.97,-6.71,0.55,418,461,249,327,238
291,0.59,0.73,0.42,-13.49,-0.92,-14.71,420,465,248,328,238
292,0.46,0.79,0.49,8.97,6.53,-22.71,418,469,249,327,240
293,0.45,0.81,0.42,8.48,4.64,-9.03,418,468,251,330,241
294,0.47,0.8,0.36,12.15,-0.18,-2.38,416,461,253,328,241
295,0.43,0.81,0.39,2.56,-2.5,2.2,415,467,253,327,236
296,0.45,0.8,0.38,-2.01,1.34,0.0,413,465,252,330,240
297,0.44,0.84,0.4,5.25,-1.89,-10.31,417,469,252,328,238
298,0.46,0.81,0.4,4.82,-3.48,-1.89,418,473,246,329,238
299,0.42,0.81,0.4,-1.22,2.93,-4.27,418,469,253,328,240
300,0.44,0.79,0.43,-1.77,6.41,0.49,417,461,250,330,241
301,0.45,0.78,0.4,1.71,-1.04,-1.53,418,466,252,326,238
302,0.43,0.8,0.41,2.01,-3.42,-4.39,417,464,252,329,241
303,0.45,0.76,0.41,-1.1,-4.88,-1.1,415,466,251,330,239
304,0.46,0.84,0.45,3.17,0.31,-3.11,415,467,251,331,240
305,0.45,0.79,0.44,0.92,-1.95,-4.33,416,461,250,325,239
306,0.47,0.79,0.4,4.09,-4.27,-1.59,417,471,249,327,238
307,0.48,0.81,0.42,2.81,-4.82,-5.55,417,469,256,328,238
308,0.46,0.8,0.42,0.12,-3.36,-2.26,420,464,252,327,238
309,0.44,0.8,0.41,5.92,-1.1,-3.78,416,467,251,328,241
310,0.43,0.8,0.43,0.85,-2.32,-4.09,417,476,249,328,238
311,0.44,0.81,0.41,3.72,-2.81,-2.26,413,465,251,338,241
312,0.47,0.81,0.4,4.82,-8.54,4.58,417,472,250,331,238
313,0.44,0.81,0.42,-1.4,-3.6,-4.64,417,462,259,328,238
314,0.45,0.79,0.41,1.65,-5.07,-3.36,417,464,255,333,238
315,0.44,0.8,0.41,2.87,-2.99,-4.52,418,467,252,342,238
316,0.41,0.81,0.4,-1.95,-10.68,-8.67,417,470,250,331,239
317,0.45,0.79,0.4,-1.65,-2.93,-2.14,417,466,253,330,241
318,0.45,0.8,0.41,0.92,-3.17,-0.55,418,464,251,327,240
319,0.43,0.79,0.41,-0.49,-4.58,-0.85,417,468,256,325,239
320,0.44,0.8,0.41,0.67,-2.75,-2.69,417,466,250,333,252
321,0.44,0.8,0.41,-0.18,-2.99,-3.97,417,467,248,328,241
322,0.44,0.82,0.42,1.16,-2.93,-2.26,417,465,253,331,236
323,0.42,0.81,0.41,0.0,-3.97,-1.89,418,460,253,327,239
324,0.42,0.81,0.41,-0.79,-2.62,-2.14,418,460,251,330,239
325,0.43,0.82,0.41,-0.43,-2.08,-2.32,419,464,248,328,239
326,0.42,0.82,0.43,-1.4,-4.03,-1.53,417,463,252,329,240
327,0.44,0.79,0.4,-0.12,-4.21,-0.18,416,463,251,329,247
328,0.43,0.81,0.41,1.4,-2.38,-3.72,418,466,264,332,243
329,0.44,0.82,0.42,2.14,-2.5,-3.48,415,468,253,327,241
330,0.43,0.81,0.41,0.37,-2.5,-2.69,417,465,249,324,238
331,0.42,0.83,0.41,-1.22,-2.99,-2.32,418,468,247,329,238
332,0.43,0.82,0.4,0.43,-4.33,-1.16,417,468,248,322,238
333,0.43,0.81,0.39,0.55,-3.23,-2.62,413,469,248,327,236
334,0.44,0.8,0.39,2.26,-1.71,-3.3,418,469,243,322,238
335,0.45,0.81,0.4,3.54,-3.17,-2.2,417,465,249,325,236
336,0.43,0.83,0.4,-0.85,-2.87,-2.75,417,468,248,329,234
337,0.42,0.81,0.4,-0.31,-1.77,-3.66,416,467,246,324,240
338,0.42,0.82,0.4,-0.12,-2.08,-2.75,419,466,246,324,239
339,0.44,0.81,0.41,0.55,-3.48,-2.2,407,469,248,331,239
340,0.43,0.81,0.4,0.43,-1.53,-3.91,412,461,243,327,241
341,0.42,0.82,0.42,-2.2,-0.98,-1.89,417,465,251,324,241
342,0.42,0.81,0.4,3.3,-5.98,-0.73,419,466,244,328,252
343,0.44,0.78,0.38,-1.89,-3.42,1.77,415,461,250,326,240
344,0.43,0.8,0.41,-0.92,-2.69,-3.66,415,465,245,325,240
345,0.42,0.83,0.43,0.43,-1.1,-0.98,419,468,247,327,242
346,0.46,0.84,0.39,1.22,-4.88,-4.09,417,470,246,325,238
347,0.42,0.8,0.39,1.71,-3.17,-1.71,415,468,250,322,239
348,0.44,0.81,0.39,0.79,-2.32,-1.65,415,466,248,324,239
349,0.44,0.81,0.41,0.49,-3.11,-2.56,415,466,248,325,240
350,0.44,0.8,0.39,1.34,-2.38,-1.16,417,460,250,325,238
351,0.45,0.83,0.41,-2.01,-4.94,2.93,419,473,245,328,241
352,0.45,0.79,0.4,-0.49,-4.21,-2.38,420,465,251,326,240
353,0.44,0.8,0.41,-3.3,-5.74,-0.49,417,466,250,325,244
354,0.45,0.79,0.41,2.2,-3.66,-1.04,418,463,249,334,241
355,0.43,0.79,0.43,0.92,-2.14,-3.23,416,465,250,325,239
356,0.45,0.79,0.4,-0.12,-4.64,-0.18,419,466,251,326,240
357,0.46,0.81,0.42,1.04,-3.6,-3.05,419,468,251,327,240
358,0.44,0.79,0.41,1.16,-2.32,-3.17,418,460,248,331,241
359,0.45,0.8,0.42,1.4,-1.65,-3.72,417,468,251,329,239
360,0.46,0.81,0.42,1.1,-3.3,-2.56,417,464,251,326,241
361,0.44,0.79,0.41,0.55,-2.69,-1.34,417,470,249,324,240
362,0.44,0.8,0.42,-0.55,-2.2,-3.05,416,470,249,324,239
363,0.44,0.79,0.43,0.06,-1.28,-2.56,420,470,256,335,241
364,0.45,0.8,0.42,0.98,-2.14,-2.44,418,467,250,326,238
365,0.44,0.79,0.41,2.26,-3.17,-2.26,418,465,247,327,237
366,0.44,0.79,0.43,-0.92,-3.48,-1.46,420,468,251,324,239
367,0.46,0.81,0.43,0.49,-3.05,-2.99,412,467,245,330,240
368,0.44,0.79,0.43,0.79,-1.77,-2.56,420,464,255,329,240
369,0.41,0.78,0.41,0.37,-0.18,-5.49,416,465,250,328,242
370,0.45,0.79,0.41,0.31,-2.5,-2.75,417,469,249,327,245
371,0.44,0.79,0.42,-1.89,-3.23,-2.26,417,468,252,329,241
372,0.44,0.78,0.42,0.06,-2.93,-2.14,415,466,252,328,240
373,0.44,0.8,0.42,-0.31,-2.32,-2.56,418,466,261,328,242
374,0.45,0.8,0.42,1.28,-3.11,-2.14,417,469,249,331,238
375,0.44,0.81,0.43,0.31,-2.87,-2.69,416,464,257,327,242
376,0.45,0.79,0.42,-0.31,-3.17,-2.14,417,466,253,329,240
377,0.45,0.81,0.42,1.34,-2.62,-2.75,417,470,252,327,240
378,0.45,0.8,0.41,-1.34,-4.52,-1.89,420,463,253,325,239
379,0.44,0.78,0.42,-0.24,-3.48,-1.83,419,465,252,328,244
380,0.46,0.77,0.42,-0.37,-2.38,-3.97,414,467,251,328,242
381,0.45,0.79,0.43,0.98,-2.93,-1.83,418,460,252,328,244
382,0.47,0.78,0.43,0.06,-3.66,-2.99,416,462,252,324,237
383,0.45,0.79,0.43,2.38,-3.23,-2.81,417,472,251,329,240
384,0.45,0.79,0.42,1.22,-1.95,-2.69,414,466,253,325,242
385,0.46,0.82,0.43,1.95,-1.71,-1.65,417,464,250,328,241
386,0.44,0.79,0.42,-2.75,-2.81,-1.89,420,466,252,327,241
387,0.45,0.78,0.42,-0.24,-3.23,-0.67,415,466,253,327,240
388,0.47,0.79,0.42,-0.79,-4.21,-0.43,419,481,251,331,240
389,0.47,0.79,0.43,0.85,-3.36,-2.2,418,460,251,328,240
390,0.46,0.78,0.42,-0.18,-2.62,-2.75,413,464,249,329,241
391,0.47,0.79,0.43,1.22,-3.6,-2.2,416,464,253,325,239
392,0.46,0.77,0.42,-0.73,-1.34,-3.36,420,469,251,326,252
393,0.45,0.78,0.42,2.5,-1.95,-3.23,413,470,252,327,239
394,0.47,0.79,0.43,-2.26,-3.66,-0.67,417,465,249,327,240
395,0.47,0.8,0.43,1.83,-2.99,-2.56,417,466,253,332,239
396,0.45,0.79,0.43,0.49,-2.26,-2.38,418,463,251,329,240
397,0.46,0.78,0.42,2.14,-2.14,-3.36,417,466,251,329,241
398,0.47,0.79,0.42,-0.61,-3.6,-1.89,418,469,248,329,240
399,0.47,0.81,0.43,0.73,-3.54,-3.05,414,469,251,331,237
400,0.45,0.78,0.41,4.64,-2.38,-3.17,425,465,248,325,242
401,0.45,0.78,0.41,-0.73,-1.83,-2.75,417,467,250,331,242
402,0.46,0.8,0.42,1.04,-3.23,-3.11,418,464,251,327,237
403,0.47,0.8,0.43,0.92,-2.69,-2.26,419,467,250,330,243
404,0.46,0.79,0.42,0.24,-3.48,-2.38,415,465,253,326,240
405,0.47,0.8,0.42,0.24,-2.44,-3.72,417,464,250,331,241
406,0.47,0.78,0.43,0.43,-2.69,-3.6,418,474,249,326,240
407,0.45,0.77,0.41,0.37,-1.89,-2.87,417,462,253,329,238
408,0.45,0.78,0.42,0.79,-4.03,-1.34,417,464,252,326,242
409,0.45,0.79,0.43,-1.53,-2.87,-2.62,413,465,253,329,242
410,0.46,0.77,0.41,0.49,-2.38,-3.6,414,466,254,329,238
411,0.45,0.79,0.42,-1.04,-2.44,-2.01,417,464,254,329,243
412,0.45,0.79,0.42,-2.26,-2.62,-1.59,418,468,254,333,241
413,0.46,0.8,0.44,-0.73,-2.26,-3.42,414,464,251,330,241
414,0.44,0.8,0.43,1.95,-1.77,-4.39,418,466,251,332,240
415,0.44,0.8,0.42,2.99,-5.98,-0.24,417,466,254,327,241
416,0.41,0.78,0.45,-0.85,2.69,-2.08,415,466,249,333,240
417,0.44,0.79,0.42,0.92,-1.53,-3.42,416,466,251,327,241
418,0.44,0.81,0.41,1.95,-3.6,-4.82,419,466,252,329,242
419,0.42,0.81,0.42,-1.28,-1.16,-3.36,415,464,254,332,241
420,0.41,0.79,0.41,-1.59,-0.61,-6.04,423,464,251,328,240
421,0.36,0.79,0.36,25.57,-4.88,-8.67,415,461,252,328,241
422,0.39,0.92,0.22,-7.69,-1.77,2.87,414,468,252,329,237
423,0.44,0.88,0.2,-2.62,-0.55,-1.77,415,470,253,331,241
424,0.45,0.9,0.21,3.85,2.44,-6.41,412,465,252,328,243
425,0.43,0.89,0.21,0.18,-0.73,-5.43,415,463,249,328,241
426,0.45,0.87,0.19,2.69,-4.94,0.12,415,464,249,328,241
427,0.44,0.89,0.22,-0.85,-3.3,-1.95,413,468,253,332,242
428,0.44,0.88,0.21,2.62,-3.72,-1.65,417,461,250,329,251
429,0.43,0.86,0.22,1.4,-1.77,-3.78,415,470,251,333,245
430,0.43,0.88,0.22,-0.06,-1.89,-3.05,417,464,256,333,245
431,0.43,0.87,0.22,-2.26,-2.56,-3.48,415,464,256,334,245
432,0.42,0.87,0.23,-0.06,-3.66,-0.98,417,465,253,335,245
433,0.44,0.86,0.22,0.0,-2.2,-2.08,414,466,251,331,244
434,0.44,0.87,0.23,-1.71,-3.91,-2.26,413,470,254,332,245
435,0.44,0.88,0.23,-0.18,-3.66,-0.18,410,466,250,333,245
436,0.44,0.88,0.23,1.59,-3.11,-3.17,422,464,255,333,245
437,0.44,0.87,0.23,-1.4,-2.81,-2.69,414,465,255,335,247
438,0.43,0.86,0.23,-0.43,-2.62,-1.95,414,465,253,333,247
439,0.42,0.87,0.24,0.0,-1.1,-3.36,417,465,255,342,244
440,0.45,0.86,0.23,0.98,-2.93,-1.89,413,465,256,337,248
441,0.45,0.87,0.23,0.31,-2.75,-2.81,415,459,269,336,249
442,0.44,0.87,0.23,-0.73,-2.81,-2.62,415,468,253,337,248
443,0.45,0.87,0.22,-0.49,-2.99,-1.83,414,467,254,339,248
444,0.44,0.87,0.23,0.49,-1.34,-3.72,415,467,256,336,248
445,0.44,0.86,0.22,0.85,-3.78,-0.67,416,465,252,333,245
446,0.44,0.86,0.22,-0.79,-3.66,-1.71,415,465,255,333,247
447,0.43,0.87,0.23,-1.53,-2.99,-2.32,418,459,256,334,241
448,0.46,0.87,0.22,0.0,-5.92,-2.5,419,461,254,337,244
449,0.44,0.87,0.24,-1.16,-1.34,-3.72,415,460,256,333,245
450,0.44,0.81,0.26,-34.91,20.94,-12.27,419,464,255,336,247
451,0.39,0.79,0.38,-4.09,-0.79,0.37,415,463,254,336,247
452,0.41,0.84,0.39,-0.85,-1.95,-2.26,415,465,255,336,245
453,0.42,0.81,0.37,-3.78,-4.09,-1.95,414,469,256,333,242
454,0.41,0.85,0.37,0.49,-4.03,-2.32,414,464,254,334,245
455,0.4,0.84,0.37,-2.2,-1.65,-3.6,419,467,256,337,245
456,0.43,0.85,0.37,1.04,-3.23,-1.16,415,465,257,334,246
457,0.41,0.84,0.36,0.31,-2.87,-3.72,416,469,254,336,245
458,0.42,0.83,0.35,0.73,-3.05,-1.83,419,467,255,336,245
459,0.42,0.82,0.35,1.16,-3.11,-1.71,415,465,252,338,245
460,0.42,0.82,0.33,-2.56,-1.89,-1.46,416,469,256,334,245
461,0.43,0.82,0.35,0.55,-3.23,-1.89,421,460,257,328,247
462,0.43,0.83,0.35,0.67,-3.6,-2.62,417,469,252,334,248
463,0.43,0.83,0.35,-1.04,-4.21,-2.2,418,462,254,334,245
464,0.43,0.84,0.35,4.39,-2.5,-0.67,415,470,254,333,247
465,0.43,0.84,0.36,-0.37,-2.81,-2.08,417,465,256,334,248
466,0.44,0.83,0.37,-0.79,-1.46,-4.7,416,465,256,330,245
467,0.43,0.82,0.36,-1.53,-2.38,-3.3,416,465,258,335,246
468,0.44,0.83,0.36,0.79,-3.42,-2.32,413,462,254,336,248
469,0.44,0.83,0.35,0.85,-2.44,-2.5,417,466,253,335,245
470,0.45,0.84,0.35,0.61,-4.09,-1.16,416,465,254,334,244
471,0.44,0.83,0.35,1.4,-4.46,-1.59,415,464,257,334,246
472,0.45,0.83,0.36,-0.92,-1.65,-2.56,416,465,249,336,246
473,0.43,0.81,0.35,0.61,-3.91,-2.81,415,464,255,333,248
474,0.46,0.84,0.36,-1.34,-4.39,2.14,414,468,255,336,249
475,0.44,0.82,0.35,-0.43,-3.91,-2.99,418,465,255,334,246
476,0.46,0.82,0.35,2.2,-2.75,-0.61,414,469,252,334,248
477,0.45,0.84,0.35,0.49,-3.36,-2.32,418,476,257,336,245
478,0.45,0.82,0.35,-0.06,-3.23,-2.5,420,465,256,335,249
479,0.44,0.82,0.36,0.31,-3.11,-1.71,412,466,260,334,246
480,0.45,0.82,0.36,-0.49,-2.26,-3.66,416,465,255,338,245
481,0.44,0.82,0.36,0.31,-1.89,-2.08,415,469,254,335,249
482,0.44,0.82,0.36,-0.73,-3.11,-1.95,416,460,256,337,248
483,0.44,0.83,0.36,0.98,-0.92,-3.05,416,469,257,334,246
484,0.45,0.81,0.36,-1.46,-3.72,-2.08,416,468,254,334,245
485,0.46,0.83,0.36,0.37,-2.93,-2.99,419,464,252,334,246
486,0.44,0.79,0.34,-4.09,-4.46,-1.04,415,465,253,333,248
487,0.45,0.84,0.37,0.61,-2.08,-2.38,418,464,254,338,246
488,0.48,0.82,0.37,-0.79,-3.72,-1.04,412,468,256,337,243
489,0.45,0.82,0.37,1.16,-3.66,-2.01,414,465,254,335,245
490,0.46,0.82,0.35,1.22,-4.88,-1.28,417,466,259,335,245
491,0.44,0.81,0.36,-1.22,-2.38,-1.95,415,465,252,338,248
492,0.47,0.83,0.36,1.04,-1.71,-0.79,414,465,257,335,247
493,0.44,0.83,0.36,-3.3,-1.95,-2.87,416,468,255,335,244
494,0.45,0.82,0.36,0.55,-2.99,-3.11,416,463,257,341,244
495,0.45,0.82,0.34,-2.93,-2.75,-2.08,416,467,255,337,248
496,0.44,0.84,0.36,0.31,-2.5,-2.69,411,468,266,335,245
497,0.45,0.87,0.36,2.26,-3.6,-2.93,419,467,255,347,236
498,0.46,0.83,0.34,-0.92,-3.42,-1.59,416,462,259,336,247
499,0.46,0.81,0.32,0.55,-4.21,-1.59,420,465,257,336,247
500,0.46,0.83,0.33,0.37,-3.91,-1.28,416,465,255,331,249
501,0.46,0.82,0.33,2.14,-3.85,-1.28,418,466,256,338,246
502,0.47,0.82,0.34,-0.37,-4.09,-0.61,412,461,254,336,245
503,0.58,0.74,0.41,1.77,-2.26,-6.71,413,468,236,310,219
504,0.58,0.74,0.39,2.93,1.77,-8.3,413,464,236,309,220
505,0.53,0.73,0.41,-5.25,-5.68,-4.82,412,467,235,310,223
506,0.57,0.75,0.39,2.44,-6.41,-1.83,412,459,238,312,228
507,0.57,0.76,0.39,-1.59,-3.17,-4.39,416,465,238,309,220
508,0.51,0.74,0.41,-1.16,-5.0,-1.1,413,464,238,310,219
509,0.55,0.74,0.42,-4.21,-2.14,3.91,413,467,236,311,223
510,0.59,0.76,0.39,7.45,-3.23,-2.81,413,465,236,309,223
511,0.55,0.71,0.42,-4.15,-3.42,-0.98,414,465,238,312,226
512,0.58,0.75,0.4,2.26,-2.93,-3.11,413,465,246,311,223
513,0.52,0.69,0.44,-2.14,-0.61,-3.17,412,464,239,308,222
514,0.5,0.77,0.46,7.81,1.71,-7.39,413,461,240,311,224
515,0.5,0.71,0.44,2.08,-2.5,-1.28,417,459,240,309,225
516,0.45,0.83,0.47,2.32,2.08,-2.87,414,471,237,305,224
517,0.45,0.82,0.43,-3.48,-3.85,4.39,415,463,235,307,224
518,0.46,0.83,0.42,4.52,-1.16,-3.05,414,460,239,312,224
519,0.44,0.8,0.43,3.48,0.49,-2.62,414,465,240,308,228
520,0.45,0.79,0.42,1.04,-6.35,1.16,413,469,241,311,226
521,0.46,0.81,0.44,-0.61,-3.3,-2.08,412,466,242,315,228
522,0.46,0.77,0.42,1.04,-3.42,-0.98,414,466,242,310,226
523,0.46,0.79,0.42,-0.73,-1.95,-1.28,411,468,237,313,227
524,0.46,0.77,0.42,-1.53,-2.81,-3.17,412,467,241,314,228
525,0.48,0.77,0.41,1.16,-3.97,-2.01,415,466,240,315,229
526,0.48,0.79,0.41,0.24,-1.4,-2.44,410,467,239,311,227
527,0.47,0.79,0.42,-2.32,-2.69,-3.85,416,468,242,309,227
528,0.47,0.8,0.43,-2.32,-2.08,-2.14,415,466,241,313,228
529,0.46,0.77,0.42,1.71,-0.24,-4.09,415,467,243,310,227
530,0.47,0.79,0.42,0.12,-2.2,-2.5,410,474,241,311,268
531,0.46,0.79,0.43,1.34,-2.81,-3.17,415,473,239,314,226
532,0.46,0.8,0.42,0.73,-2.5,-3.48,415,471,242,317,229
533,0.48,0.79,0.42,1.65,-2.56,-3.42,416,468,241,310,229
534,0.46,0.78,0.43,1.04,-1.4,-1.95,413,463,240,311,231
535,0.47,0.79,0.43,-0.37,-3.36,-2.32,409,470,237,311,227
536,0.45,0.78,0.42,2.14,-1.04,-2.81,412,467,247,312,229
537,0.46,0.79,0.43,-1.04,-2.44,-4.21,413,465,240,312,231
538,0.47,0.8,0.4,5.19,-2.75,-2.56,413,471,236,308,228
539,0.47,0.77,0.4,2.14,-2.14,-2.32,414,464,237,309,234
540,0.48,0.79,0.39,-0.12,-3.17,-1.22,414,465,240,309,226
541,0.47,0.79,0.39,1.77,-3.17,-2.2,412,468,239,309,266
542,0.48,0.79,0.39,2.44,-5.62,0.24,414,464,237,312,229
543,0.48,0.78,0.39,-0.18,-5.0,1.71,417,467,237,308,226
544,0.49,0.79,0.38,2.14,-5.19,-1.77,410,468,240,310,229
545,0.48,0.79,0.39,0.61,-3.11,-1.89,414,467,239,311,228
546,0.49,0.79,0.38,2.26,-2.62,-2.93,415,469,242,308,226
547,0.49,0.8,0.39,0.43,-2.87,-2.32,416,468,238,312,229
548,0.49,0.8,0.38,1.22,-2.26,-0.43,411,471,237,311,228
549,0.49,0.8,0.39,0.31,-2.99,-4.46,417,471,238,311,227
550,0.48,0.79,0.39,2.81,-3.42,-3.54,413,472,239,309,231
551,0.47,0.8,0.38,4.03,-4.76,-2.01,412,470,237,310,228
552,0.48,0.8,0.38,0.79,-4.09,-3.3,414,467,236,309,232
553,0.49,0.79,0.37,1.28,-2.5,-1.22,416,466,237,312,231
554,0.49,0.79,0.37,2.2,-2.56,-0.55,415,481,238,311,227
555,0.49,0.78,0.38,1.28,-2.69,-2.99,414,462,238,310,229
556,0.48,0.8,0.4,1.34,-2.01,-4.82,415,463,239,319,229
557,0.49,0.8,0.38,0.31,-2.75,-1.71,412,470,241,308,225
558,0.48,0.78,0.38,0.61,-2.81,-0.24,412,472,237,313,232
559,0.49,0.8,0.38,2.75,-2.44,-2.81,414,469,238,312,231
560,0.49,0.79,0.37,-0.31,-3.48,-3.11,411,467,238,311,229
561,0.47,0.81,0.38,-1.65,-3.23,-4.58,416,470,240,312,233
562,0.49,0.79,0.36,0.92,-4.09,-1.83,415,471,241,315,225
563,0.5,0.81,0.36,-1.53,-4.03,-0.67,414,471,240,313,223
564,0.5,0.8,0.37,3.66,-3.91,-2.32,411,468,244,315,228
565,0.5,0.78,0.36,1.28,-2.44,-1.04,413,467,243,313,244
566,0.5,0.78,0.37,2.26,-4.39,-1.4,415,466,243,313,231
567,0.49,0.79,0.36,-2.08,-2.99,-2.93,412,471,239,313,231
568,0.49,0.79,0.36,-1.22,-2.93,-3.66,415,470,240,317,227
569,0.48,0.8,0.38,0.37,-2.2,-3.42,417,465,244,313,232
570,0.49,0.77,0.37,-1.71,-2.44,-2.08,415,473,241,313,231
571,0.46,0.79,0.36,-3.36,-4.82,-4.82,410,468,238,314,231
572,0.49,0.79,0.36,-0.43,-3.05,-1.34,415,470,240,313,232
573,0.49,0.8,0.37,0.61,-2.81,-2.81,415,468,245,317,229
574,0.48,0.8,0.37,1.4,-1.28,-4.27,415,481,239,312,232
575,0.49,0.8,0.37,1.89,-2.69,-3.11,411,473,246,317,231
576,0.48,0.79,0.38,-0.12,-1.65,-3.23,415,468,243,314,230
577,0.49,0.79,0.36,0.0,-2.44,-3.05,415,482,244,311,230
578,0.5,0.8,0.37,-0.49,-3.6,-0.24,416,462,240,315,229
579,0.49,0.78,0.36,-0.18,-2.81,-2.44,416,464,241,314,228
580,0.5,0.79,0.38,-0.06,-3.23,-2.93,415,470,241,314,231
581,0.46,0.79,0.37,-0.61,-2.38,-3.23,416,468,242,322,231
582,0.49,0.79,0.39,2.26,-1.71,-4.33,414,469,241,314,226
583,0.48,0.8,0.38,-0.79,-2.93,-2.44,412,463,241,312,234
584,0.49,0.78,0.39,-0.06,-3.54,-2.01,414,473,242,312,234
585,0.48,0.8,0.37,0.49,-4.21,-2.93,415,461,240,318,233
586,0.48,0.79,0.38,-0.49,-1.71,-2.38,414,467,242,310,231
587,0.48,0.79,0.37,-1.83,-2.44,-2.38,416,467,239,316,231
588,0.49,0.81,0.38,-0.67,-2.69,-3.72,415,466,242,316,231
589,0.46,0.8,0.39,-1.4,-0.67,-4.46,418,470,241,316,233
590,0.44,0.84,0.37,-3.3,-16.24,-9.58,416,471,239,316,232
591,0.46,0.8,0.4,-1.22,-11.84,-10.38,415,466,240,313,231
592,0.45,0.77,0.38,-4.21,-1.71,5.19,417,467,245,315,231
593,0.49,0.78,0.36,-0.12,3.66,5.98,417,464,244,317,234
594,0.48,0.75,0.36,2.32,3.66,10.99,416,468,240,318,232
595,0.47,0.82,0.42,-0.06,6.1,-2.75,412,468,242,316,230
596,0.49,0.8,0.39,2.5,-4.27,-1.53,415,471,242,318,234
597,0.44,0.78,0.42,1.4,-0.18,1.53,419,469,238,315,233
598,0.49,0.77,0.4,-0.06,-4.82,-2.26,414,467,242,316,233
599,0.48,0.78,0.4,0.79,-4.03,-2.62,416,468,241,316,233
600,0.5,0.8,0.4,0.49,-1.53,-3.17,414,478,246,316,233
601,0.5,0.8,0.41,2.32,-1.28,-2.81,419,467,243,318,251
602,0.49,0.77,0.39,0.31,-2.08,-0.79,414,468,244,317,227
603,0.5,0.78,0.39,0.24,-3.42,-2.14,417,468,244,316,232
604,0.5,0.78,0.4,0.24,-3.6,-2.01,417,471,247,316,272
605,0.51,0.78,0.39,-0.73,-3.23,-1.53,415,466,243,316,231
606,0.5,0.78,0.39,1.28,-2.5,-3.91,416,469,240,319,241
607,0.51,0.77,0.39,-1.16,-2.62,-2.56,416,467,243,316,235
608,0.5,0.77,0.39,-0.18,-4.39,-3.72,417,463,243,317,233
609,0.51,0.76,0.39,-0.31,-4.27,-0.37,418,463,241,317,233
610,0.5,0.77,0.39,-1.04,-2.56,-1.89,416,464,241,318,231
611,0.51,0.78,0.39,0.37,-4.03,-2.08,417,470,242,317,228
612,0.52,0.78,0.39,-1.34,-3.97,-0.98,417,468,243,317,235
613,0.52,0.78,0.39,-1.04,-3.91,-2.93,416,465,241,318,233
614,0.49,0.78,0.4,-1.59,-0.98,-4.76,417,470,241,317,231
615,0.49,0.78,0.39,0.06,-4.46,-2.93,417,466,245,320,231
616,0.48,0.77,0.38,-0.31,-5.49,0.12,417,475,243,320,232
617,0.51,0.78,0.4,-5.86,-10.68,-1.46,418,468,246,321,234
618,0.47,0.71,0.4,-4.64,-2.26,14.34,416,467,245,320,234
619,0.56,0.73,0.39,-3.72,-3.6,-1.53,416,467,249,317,237
620,0.53,0.73,0.41,-3.05,-3.72,0.43,417,470,244,317,244
621,0.55,0.77,0.43,0.43,-2.62,-3.72,417,471,246,317,234
622,0.53,0.76,0.41,0.73,-3.11,1.1,419,474,243,317,233
623,0.53,0.75,0.41,0.73,-4.58,-3.91,415,468,245,319,231
624,0.52,0.73,0.4,-0.18,-3.36,-1.71,417,471,245,318,236
625,0.53,0.77,0.4,2.2,0.73,-7.87,418,471,244,318,233
626,0.54,0.77,0.42,3.23,-3.97,-2.32,416,478,243,322,236
627,0.53,0.75,0.41,0.92,-2.26,-2.99,417,462,243,319,236
628,0.54,0.75,0.4,1.1,-3.36,-1.83,418,466,245,321,234
629,0.53,0.74,0.41,-2.2,-3.3,-2.44,417,473,245,318,237
630,0.54,0.76,0.41,-2.26,-2.75,-1.34,413,471,245,319,234
631,0.52,0.74,0.41,1.04,-3.78,-3.42,412,467,245,316,231
632,0.52,0.76,0.41,-0.73,-2.44,-2.69,417,469,246,320,236
633,0.53,0.74,0.41,-0.06,-4.46,-2.26,416,472,249,316,236
634,0.52,0.76,0.41,-0.85,-1.28,-1.89,417,468,241,321,236
635,0.51,0.76,0.42,1.83,-2.75,-4.46,418,467,244,319,235
636,0.5,0.76,0.42,0.98,-1.22,-2.75,414,467,244,321,246
637,0.53,0.76,0.41,2.56,-4.03,-1.95,417,462,246,324,237
638,0.51,0.75,0.41,0.49,-2.81,-2.44,418,470,243,317,231
639,0.51,0.75,0.41,0.55,-3.05,-1.77,419,471,244,327,234
640,0.51,0.74,0.41,-1.22,-3.36,-2.44,417,467,244,322,230
641,0.51,0.76,0.4,0.67,-2.93,-2.81,418,467,242,317,237
642,0.52,0.74,0.4,0.0,-3.23,-2.32,413,468,245,325,233
643,0.52,0.76,0.42,0.55,-1.83,-2.93,419,471,244,321,234
644,0.51,0.76,0.42,0.49,-2.38,-3.05,418,469,246,319,233
645,0.51,0.77,0.41,3.97,-1.46,-3.72,418,472,242,319,233
646,0.5,0.74,0.4,0.85,-2.81,-2.93,419,467,245,319,230
647,0.51,0.75,0.41,2.32,-2.87,-0.67,417,470,242,318,235
648,0.51,0.77,0.42,0.55,-3.91,3.17,413,470,249,321,234
649,0.53,0.75,0.39,0.49,-4.64,-1.95,416,467,243,320,234
650,0.55,0.74,0.42,-1.83,0.12,1.16,416,470,243,318,235
651,0.52,0.73,0.43,2.99,0.55,1.28,415,468,243,319,235
652,0.54,0.73,0.42,1.4,-1.22,-2.93,420,463,260,322,234
653,0.52,0.72,0.42,2.08,-1.95,-5.86,418,468,247,322,238
654,0.53,0.78,0.41,0.24,-3.3,-0.85,414,464,244,320,235
655,0.55,0.75,0.42,4.27,-4.46,0.06,419,463,246,319,235
656,0.57,0.71,0.4,-2.5,-2.93,-0.85,419,468,247,320,237
657,0.56,0.71,0.44,0.55,-5.0,-4.09,420,462,244,317,234
658,0.55,0.73,0.43,0.49,-3.91,-4.39,418,464,244,317,230
659,0.57,0.69,0.39,-0.79,-3.36,-0.18,418,462,246,323,237
660,0.57,0.73,0.43,-2.75,-3.6,-5.37,417,468,250,323,235
661,0.55,0.69,0.41,-1.16,-3.85,-2.32,418,464,243,322,245
662,0.57,0.7,0.42,0.12,-2.5,-0.85,419,470,242,323,239
663,0.59,0.68,0.43,4.39,-8.97,-8.61,416,463,247,326,238
664,0.58,0.68,0.41,1.4,1.22,-4.46,416,474,245,323,236
665,0.56,0.74,0.44,0.98,0.31,-4.58,417,466,245,320,237
666,0.56,0.72,0.44,2.93,-0.37,-4.03,416,471,248,320,266
667,0.55,0.74,0.45,1.59,-3.11,-2.99,418,468,248,321,236
668,0.54,0.71,0.46,-1.04,-2.75,0.73,419,471,245,318,237
669,0.55,0.71,0.45,-1.95,-2.87,-2.69,419,471,249,322,239
670,0.58,0.71,0.44,0.43,-3.54,-2.87,418,467,249,326,236
671,0.56,0.71,0.44,-0.73,1.04,-5.62,418,465,243,322,240
672,0.57,0.7,0.47,-0.49,-4.58,-3.11,418,467,245,323,235
673,0.55,0.7,0.46,3.23,-3.48,-2.38,418,471,248,323,242
674,0.56,0.71,0.47,0.0,-3.48,-2.81,416,466,246,325,236
675,0.54,0.71,0.44,-0.92,-0.61,-4.94,418,471,245,323,242
676,0.52,0.71,0.47,-1.22,-2.87,-3.78,418,471,243,326,236
677,0.55,0.72,0.47,0.85,-3.54,-2.5,420,470,261,324,239
678,0.53,0.71,0.46,1.16,-2.14,-3.66,416,466,248,324,238
679,0.53,0.72,0.46,0.12,-2.56,-2.38,419,461,246,325,236
680,0.52,0.72,0.45,0.92,-4.21,-1.65,416,462,248,324,253
681,0.56,0.73,0.45,4.64,-0.37,-3.23,418,482,248,323,233
682,0.51,0.75,0.45,1.28,-3.72,-0.73,428,469,247,326,260
683,0.51,0.71,0.44,-0.92,-3.05,-1.34,418,463,249,325,236
684,0.53,0.75,0.45,2.62,-3.6,-6.04,415,467,247,320,236
685,0.5,0.73,0.43,1.22,-2.93,-6.35,418,471,245,322,236
686,0.5,0.75,0.45,0.31,-2.69,-2.44,417,471,246,326,236
687,0.51,0.77,0.44,1.65,-1.83,-2.08,419,467,244,323,236
688,0.5,0.76,0.42,1.77,-3.36,-3.11,418,466,246,329,237
689,0.5,0.74,0.43,-1.22,-3.05,-1.28,419,470,256,324,237
690,0.52,0.75,0.42,3.85,-4.21,-1.1,418,471,250,325,239
691,0.51,0.75,0.41,3.17,-2.75,-3.48,420,471,251,323,237
692,0.52,0.75,0.41,2.62,-2.26,-2.87,419,470,246,322,234
693,0.5,0.77,0.41,1.22,-3.6,-4.7,418,467,247,323,238
694,0.5,0.78,0.42,2.01,-2.69,-2.81,417,465,245,326,240
695,0.5,0.77,0.42,0.67,-3.11,-2.81,418,471,256,324,239
696,0.49,0.76,0.42,0.43,-4.46,-0.49,420,466,245,322,237
697,0.51,0.77,0.41,0.43,-3.3,-1.16,416,468,247,326,237
698,0.5,0.75,0.41,1.16,-4.52,-1.22,414,461,245,325,239
699,0.51,0.77,0.4,2.5,-2.81,-2.93,413,470,246,323,237
700,0.5,0.77,0.41,1.65,-2.32,-2.5,419,465,249,324,240
701,0.5,0.78,0.41,0.24,-2.75,-2.56,418,466,249,320,239
702,0.52,0.76,0.39,1.65,-3.66,-4.39,418,467,249,324,238
703,0.5,0.78,0.41,0.18,-3.91,-3.05,417,470,247,324,238
704,0.5,0.77,0.4,-1.77,-2.5,-1.95,419,466,257,326,240
705,0.51,0.78,0.39,1.34,-1.71,-2.32,419,468,250,321,236
706,0.5,0.78,0.41,-0.79,-2.38,-4.09,415,466,250,320,237
707,0.49,0.75,0.41,0.61,-1.83,-2.81,418,469,247,323,237
708,0.49,0.76,0.42,-1.28,-2.75,-2.99,418,465,248,326,239
709,0.5,0.77,0.41,1.4,-1.95,-1.28,416,462,250,325,238
710,0.5,0.78,0.42,0.85,-3.17,-1.95,419,472,248,323,237
711,0.51,0.76,0.4,0.98,-3.97,-1.77,417,467,250,324,237
712,0.51,0.76,0.4,0.24,-2.99,-2.08,418,465,250,324,237
713,0.5,0.76,0.41,0.73,-4.39,-1.46,419,469,248,324,234
714,0.51,0.76,0.41,1.46,-3.05,-2.44,414,465,245,324,237
715,0.51,0.76,0.41,-0.37,-3.54,-2.56,418,469,245,326,240
716,0.51,0.76,0.41,1.22,-4.03,-0.79,421,466,249,321,237
717,0.51,0.75,0.42,-1.22,-3.3,-0.49,419,466,248,323,240
718,0.51,0.77,0.43,2.93,-3.17,-2.87,417,463,247,326,240
719,0.51,0.76,0.41,1.89,-3.48,-2.26,416,462,246,326,237
720,0.49,0.77,0.41,1.22,-2.14,-2.2,418,462,247,324,239
721,0.49,0.76,0.42,-0.67,-2.81,-2.99,418,465,247,324,240
722,0.5,0.76,0.41,-0.24,-2.87,-4.27,418,470,248,324,233
723,0.5,0.76,0.41,-2.26,-3.85,-1.71,418,467,247,324,237
724,0.49,0.77,0.42,-0.73,-0.61,-4.33,413,466,243,324,238
725,0.5,0.77,0.42,-0.18,-2.26,-2.81,420,463,247,324,237
726,0.51,0.78,0.42,0.37,-2.93,-2.75,416,466,249,325,240
727,0.51,0.76,0.41,-0.49,-2.44,-2.69,414,466,249,321,237
728,0.5,0.76,0.41,-0.18,-3.05,-2.99,420,465,250,327,240
729,0.5,0.76,0.41,-1.46,-2.75,-3.54,417,467,244,325,239
730,0.51,0.75,0.42,-0.24,-2.08,-2.99,413,467,245,324,236
731,0.52,0.76,0.41,1.28,-2.75,-4.46,414,465,246,324,240
732,0.5,0.76,0.42,-0.24,-2.32,-2.87,418,467,250,325,242
733,0.5,0.76,0.42,-0.31,-3.91,-3.36,418,470,246,324,238
734,0.5,0.77,0.42,0.06,-2.01,-4.52,418,465,246,330,238
735,0.5,0.78,0.42,1.4,-1.71,-2.81,421,461,246,324,239
736,0.51,0.76,0.39,-0.67,-3.23,-3.05,415,470,245,324,238
737,0.51,0.75,0.4,-6.47,-9.09,-4.88,418,470,248,326,239
738,0.5,0.76,0.4,-1.89,-2.26,-1.65,419,470,247,324,239
739,0.48,0.76,0.42,2.01,-5.19,-4.46,420,467,245,327,238
740,0.51,0.76,0.41,4.21,-1.77,-5.13,417,464,247,324,237
741,0.48,0.8,0.4,3.97,-2.56,-5.25,418,467,247,324,236
742,0.47,0.8,0.4,0.79,-1.65,-3.78,418,469,244,326,236
743,0.46,0.8,0.4,1.46,-4.09,-2.62,417,472,249,326,240
744,0.46,0.79,0.38,1.22,-3.05,-2.26,418,470,253,326,239
745,0.46,0.82,0.41,0.24,-0.49,-3.17,417,466,248,325,240
746,0.47,0.78,0.39,0.73,-1.28,-4.21,419,466,249,325,238
747,0.46,0.79,0.4,-1.89,-2.32,-2.01,416,465,246,327,250
748,0.5,0.81,0.43,-0.98,-0.24,-1.65,419,461,246,324,237
749,0.5,0.79,0.41,-0.06,-0.55,-0.92,416,466,250,325,237
750,0.48,0.8,0.44,-0.67,-1.4,-3.05,417,469,245,324,241
751,0.5,0.8,0.44,0.79,-4.7,-2.2,417,466,250,324,237
752,0.46,0.75,0.42,1.04,-2.93,-3.85,417,467,249,324,237
753,0.47,0.78,0.43,3.42,-1.89,-1.22,417,469,250,341,241
754,0.46,0.8,0.42,0.79,-3.97,-2.93,417,466,249,327,238
755,0.49,0.77,0.42,-0.06,-3.66,-2.08,414,464,249,326,239
756,0.48,0.79,0.42,1.89,-2.56,-2.62,420,464,247,326,237
757,0.48,0.77,0.42,-0.06,-2.69,-2.62,417,467,248,323,240
758,0.48,0.79,0.42,0.61,-3.17,-2.81,419,465,248,327,239
759,0.48,0.77,0.41,0.12,-3.05,-2.01,420,467,249,332,253
760,0.5,0.76,0.41,1.46,-3.48,-2.44,419,465,253,325,242
761,0.49,0.77,0.41,0.31,-3.05,-2.32,418,470,249,325,237
762,0.49,0.77,0.42,1.28,-2.32,-4.33,417,466,248,325,238
763,0.49,0.77,0.42,-0.43,-2.01,-3.17,418,467,248,324,238
764,0.49,0.77,0.41,-0.98,-2.69,-2.32,417,470,244,326,238
765,0.49,0.78,0.42,0.06,-2.44,-3.17,417,466,251,324,229
766,0.49,0.76,0.41,0.43,-2.26,-2.81,425,464,247,329,238
767,0.49,0.78,0.4,-1.65,-3.05,-2.08,418,470,250,325,237
768,0.48,0.79,0.41,-3.17,-3.54,-3.23,417,464,246,321,241
769,0.48,0.78,0.42,0.12,-3.54,-1.83,418,462,246,327,235
770,0.48,0.77,0.42,-0.55,-1.71,-0.92,418,467,247,328,251
771,0.49,0.78,0.42,0.37,-3.17,-2.32,417,465,248,325,239
772,0.48,0.77,0.41,0.92,-2.08,-1.83,418,465,251,322,240
773,0.49,0.76,0.42,0.67,-2.5,-2.5,414,470,250,326,237
774,0.48,0.77,0.42,0.06,-3.36,-2.38,419,461,251,326,238
775,0.48,0.75,0.4,3.23,-0.31,-5.92,418,470,247,329,238
776,0.49,0.78,0.42,0.73,-3.11,-2.87,418,465,249,328,237
777,0.47,0.76,0.42,-0.98,-0.37,0.24,418,461,249,328,238
778,0.5,0.72,0.4,1.59,-3.17,-4.03,421,463,249,324,240
779,0.51,0.79,0.43,0.55,-2.14,-2.38,417,460,251,326,246
780,0.49,0.75,0.41,1.89,-2.08,-4.03,418,475,245,327,237
781,0.5,0.76,0.42,-0.43,-3.05,-1.71,415,466,247,328,238
782,0.51,0.75,0.42,-1.28,-3.3,-1.28,418,461,248,324,237
783,0.49,0.75,0.42,-0.67,-2.01,-3.36,418,470,251,326,233
784,0.48,0.76,0.43,0.67,-3.85,-2.5,417,470,246,328,239
785,0.5,0.74,0.42,-0.43,-4.21,-2.32,415,460,248,322,240
786,0.5,0.75,0.41,-1.77,-2.75,-3.72,417,462,244,326,237
787,0.5,0.76,0.42,-6.29,-3.85,-1.1,418,468,246,325,239
788,0.51,0.75,0.44,-2.38,-3.3,-1.46,420,470,251,331,235
789,0.49,0.76,0.43,-0.55,-4.64,-1.59,419,466,249,325,240
790,0.5,0.78,0.44,1.89,-4.27,-1.53,418,466,247,327,233
791,0.49,0.77,0.45,1.71,-1.59,-4.94,418,464,252,325,238
792,0.5,0.78,0.45,1.28,-3.66,-2.38,417,460,249,327,238
793,0.48,0.76,0.42,3.97,-6.71,0.55,418,461,249,327,238
794,0.59,0.73,0.42,-13.49,-0.92,-14.71,420,465,248,328,238
795,0.46,0.79,0.49,8.97,6.53,-22.71,418,469,249,327,240
796,0.45,0.81,0.42,8.48,4.64,-9.03,418,468,251,330,241
797,0.47,0.8,0.36,12.15,-0.18,-2.38,416,461,253,328,241
798,0.43,0.81,0.39,2.56,-2.5,2.2,415,467,253,327,236
799,0.45,0.8,0.38,-2.01,1.34,0.0,413,465,252,330,240
800,0.44,0.84,0.4,5.25,-1.89,-10.31,417,469,252,328,238
801,0.46,0.81,0.4,4.82,-3.48,-1.89,418,473,246,329,238
802,0.42,0.81,0.4,-1.22,2.93,-4.27,418,469,253,328,240
803,0.44,0.79,0.43,-1.77,6.41,0.49,417,461,250,330,241
804,0.45,0.78,0.4,1.71,-1.04,-1.53,418,466,252,326,238
805,0.43,0.8,0.41,2.01,-3.42,-4.39,417,464,252,329,241
806,0.45,0.76,0.41,-1.1,-4.88,-1.1,415,466,251,330,239
807,0.46,0.84,0.45,3.17,0.31,-3.11,415,467,251,331,240
808,0.45,0.79,0.44,0.92,-1.95,-4.33,416,461,250,325,239
809,0.47,0.79,0.4,4.09,-4.27,-1.59,417,471,249,327,238
810,0.48,0.81,0.42,2.81,-4.82,-5.55,417,469,256,328,238
811,0.46,0.8,0.42,0.12,-3.36,-2.26,420,464,252,327,238
812,0.44,0.8,0.41,5.92,-1.1,-3.78,416,467,251,328,241
813,0.43,0.8,0.43,0.85,-2.32,-4.09,417,476,249,328,238
814,0.44,0.81,0.41,3.72,-2.81,-2.26,413,465,251,338,241
815,0.47,0.81,0.4,4.82,-8.54,4.58,417,472,250,331,238
816,0.44,0.81,0.42,-1.4,-3.6,-4.64,417,462,259,328,238
817,0.45,0.79,0.41,1.65,-5.07,-3.36,417,464,255,333,238
818,0.44,0.8,0.41,2.87,-2.99,-4.52,418,467,252,342,238
819,0.41,0.81,0.4,-1.95,-10.68,-8.67,417,470,250,331,239
820,0.45,0.79,0.4,-1.65,-2.93,-2.14,417,466,253,330,241
821,0.45,0.8,0.41,0.92,-3.17,-0.55,418,464,251,327,240
822,0.43,0.79,0.41,-0.49,-4.58,-0.85,417,468,256,325,239
823,0.44,0.8,0.41,0.67,-2.75,-2.69,417,466,250,333,252
824,0.44,0.8,0.41,-0.18,-2.99,-3.97,417,467,248,328,241
825,0.44,0.82,0.42,1.16,-2.93,-2.26,417,465,253,331,236
826,0.42,0.81,0.41,0.0,-3.97,-1.89,418,460,253,327,239
827,0.42,0.81,0.41,-0.79,-2.62,-2.14,418,460,251,330,239
828,0.43,0.82,0.41,-0.43,-2.08,-2.32,419,464,248,328,239
829,0.42,0.82,0.43,-1.4,-4.03,-1.53,417,463,252,329,240
830,0.44,0.79,0.4,-0.12,-4.21,-0.18,416,463,251,329,247
831,0.43,0.81,0.41,1.4,-2.38,-3.72,418,466,264,332,243
832,0.44,0.82,0.42,2.14,-2.5,-3.48,415,468,253,327,241
833,0.43,0.81,0.41,0.37,-2.5,-2.69,417,465,249,324,238
834,0.42,0.83,0.41,-1.22,-2.99,-2.32,418,468,247,329,238
835,0.43,0.82,0.4,0.43,-4.33,-1.16,417,468,248,322,238
836,0.43,0.81,0.39,0.55,-3.23,-2.62,413,469,248,327,236
837,0.44,0.8,0.39,2.26,-1.71,-3.3,418,469,243,322,238
838,0.45,0.81,0.4,3.54,-3.17,-2.2,417,465,249,325,236
839,0.43,0.83,0.4,-0.85,-2.87,-2.75,417,468,248,329,234
840,0.42,0.81,0.4,-0.31,-1.77,-3.66,416,467,246,324,240
841,0.42,0.82,0.4,-0.12,-2.08,-2.75,419,466,246,324,239
842,0.44,0.81,0.41,0.55,-3.48,-2.2,407,469,248,331,239
843,0.43,0.81,0.4,0.43,-1.53,-3.91,412,461,243,327,241
844,0.42,0.82,0.42,-2.2,-0.98,-1.89,417,465,251,324,241
845,0.42,0.81,0.4,3.3,-5.98,-0.73,419,466,244,328,252
846,0.44,0.78,0.38,-1.89,-3.42,1.77,415,461,250,326,240
847,0.43,0.8,0.41,-0.92,-2.69,-3.66,415,465,245,325,240
848,0.42,0.83,0.43,0.43,-1.1,-0.98,419,468,247,327,242
849,0.46,0.84,0.39,1.22,-4.88,-4.09,417,470,246,325,238
850,0.42,0.8,0.39,1.71,-3.17,-1.71,415,468,250,322,239
851,0.44,0.81,0.39,0.79,-2.32,-1.65,415,466,248,324,239
852,0.44,0.81,0.41,0.49,-3.11,-2.56,415,466,248,325,240
853,0.44,0.8,0.39,1.34,-2.38,-1.16,417,460,250,325,238
854,0.45,0.83,0.41,-2.01,-4.94,2.93,419,473,245,328,241
855,0.45,0.79,0.4,-0.49,-4.21,-2.38,420,465,251,326,240
856,0.44,0.8,0.41,-3.3,-5.74,-0.49,417,466,250,325,244
857,0.45,0.79,0.41,2.2,-3.66,-1.04,418,463,249,334,241
858,0.43,0.79,0.43,0.92,-2.14,-3.23,416,465,250,325,239
859,0.45,0.79,0.4,-0.12,-4.64,-0.18,419,466,251,326,240
860,0.46,0.81,0.42,1.04,-3.6,-3.05,419,468,251,327,240
861,0.44,0.79,0.41,1.16,-2.32,-3.17,418,460,248,331,241
862,0.45,0.8,0.42,1.4,-1.65,-3.72,417,468,251,329,239
863,0.46,0.81,0.42,1.1,-3.3,-2.56,417,464,251,326,241
864,0.44,0.79,0.41,0.55,-2.69,-1.34,417,470,249,324,240
865,0.44,0.8,0.42,-0.55,-2.2,-3.05,416,470,249,324,239
866,0.44,0.79,0.43,0.06,-1.28,-2.56,420,470,256,335,241
867,0.45,0.8,0.42,0.98,-2.14,-2.44,418,467,250,326,238
868,0.44,0.79,0.41,2.26,-3.17,-2.26,418,465,247,327,237
869,0.44,0.79,0.43,-0.92,-3.48,-1.46,420,468,251,324,239
870,0.46,0.81,0.43,0.49,-3.05,-2.99,412,467,245,330,240
871,0.44,0.79,0.43,0.79,-1.77,-2.56,420,464,255,329,240
872,0.41,0.78,0.41,0.37,-0.18,-5.49,416,465,250,328,242
873,0.45,0.79,0.41,0.31,-2.5,-2.75,417,469,249,327,245
874,0.44,0.79,0.42,-1.89,-3.23,-2.26,417,468,252,329,241
875,0.44,0.78,0.42,0.06,-2.93,-2.14,415,466,252,328,240
876,0.44,0.8,0.42,-0.31,-2.32,-2.56,418,466,261,328,242
877,0.45,0.8,0.42,1.28,-3.11,-2.14,417,469,249,331,238
878,0.44,0.81,0.43,0.31,-2.87,-2.69,416,464,257,327,242
879,0.45,0.79,0.42,-0.31,-3.17,-2.14,417,466,253,329,240
880,0.45,0.81,0.42,1.34,-2.62,-2.75,417,470,252,327,240
881,0.45,0.8,0.41,-1.34,-4.52,-1.89,420,463,253,325,239
882,0.44,0.78,0.42,-0.24,-3.48,-1.83,419,465,252,328,244
883,0.46,0.77,0.42,-0.37,-2.38,-3.97,414,467,251,328,242
884,0.45,0.79,0.43,0.98,-2.93,-1.83,418,460,252,328,244
885,0.47,0.78,0.43,0.06,-3.66,-2.99,416,462,252,324,237
886,0.45,0.79,0.43,2.38,-3.23,-2.81,417,472,251,329,240
887,0.45,0.79,0.42,1.22,-1.95,-2.69,414,466,253,325,242
888,0.46,0.82,0.43,1.95,-1.71,-1.65,417,464,250,328,241
889,0.44,0.79,0.42,-2.75,-2.81,-1.89,420,466,252,327,241
890,0.45,0.78,0.42,-0.24,-3.23,-0.67,415,466,253,327,240
891,0.47,0.79,0.42,-0.79,-4.21,-0.43,419,481,251,331,240
892,0.47,0.79,0.43,0.85,-3.36,-2.2,418,460,251,328,240
893,0.46,0.78,0.42,-0.18,-2.62,-2.75,413,464,249,329,241
894,0.47,0.79,0.43,1.22,-3.6,-2.2,416,464,253,325,239
895,0.46,0.77,0.42,-0.73,-1.34,-3.36,420,469,251,326,252
896,0.45,0.78,0.42,2.5,-1.95,-3.23,413,470,252,327,239
897,0.47,0.79,0.43,-2.26,-3.66,-0.67,417,465,249,327,240
898,0.47,0.8,0.43,1.83,-2.99,-2.56,417,466,253,332,239
899,0.45,0.79,0.43,0.49,-2.26,-2.38,418,463,251,329,240
900,0.46,0.78,0.42,2.14,-2.14,-3.36,417,466,251,329,241
901,0.47,0.79,0.42,-0.61,-3.6,-1.89,418,469,248,329,240
902,0.47,0.81,0.43,0.73,-3.54,-3.05,414,469,251,331,237
903,0.45,0.78,0.41,4.64,-2.38,-3.17,425,465,248,325,242
904,0.45,0.78,0.41,-0.73,-1.83,-2.75,417,467,250,331,242
905,0.46,0.8,0.42,1.04,-3.23,-3.11,418,464,251,327,237
906,0.47,0.8,0.43,0.92,-2.69,-2.26,419,467,250,330,243
907,0.46,0.79,0.42,0.24,-3.48,-2.38,415,465,253,326,240
908,0.47,0.8,0.42,0.24,-2.44,-3.72,417,464,250,331,241
909,0.47,0.78,0.43,0.43,-2.69,-3.6,418,474,249,326,240
910,0.45,0.77,0.41,0.37,-1.89,-2.87,417,462,253,329,238
911,0.45,0.78,0.42,0.79,-4.03,-1.34,417,464,252,326,242
912,0.45,0.79,0.43,-1.53,-2.87,-2.62,413,465,253,329,242
913,0.46,0.77,0.41,0.49,-2.38,-3.6,414,466,254,329,238
914,0.45,0.79,0.42,-1.04,-2.44,-2.01,417,464,254,329,243
915,0.45,0.79,0.42,-2.26,-2.62,-1.59,418,468,254,333,241
916,0.46,0.8,0.44,-0.73,-2.26,-3.42,414,464,251,330,241
917,0.44,0.8,0.43,1.95,-1.77,-4.39,418,466,251,332,240
918,0.44,0.8,0.42,2.99,-5.98,-0.24,417,466,254,327,241
919,0.41,0.78,0.45,-0.85,2.69,-2.08,415,466,249,333,240
920,0.44,0.79,0.42,0.92,-1.53,-3.42,416,466,251,327,241
921,0.44,0.81,0.41,1.95,-3.6,-4.82,419,466,252,329,242
922,0.42,0.81,0.42,-1.28,-1.16,-3.36,415,464,254,332,241
923,0.41,0.79,0.41,-1.59,-0.61,-6.04,423,464,251,328,240
924,0.36,0.79,0.36,25.57,-4.88,-8.67,415,461,252,328,241
925,0.39,0.92,0.22,-7.69,-1.77,2.87,414,468,252,329,237
926,0.44,0.88,0.2,-2.62,-0.55,-1.77,415,470,253,331,241
927,0.45,0.9,0.21,3.85,2.44,-6.41,412,465,252,328,243
928,0.43,0.89,0.21,0.18,-0.73,-5.43,415,463,249,328,241
929,0.45,0.87,0.19,2.69,-4.94,0.12,415,464,249,328,241
930,0.44,0.89,0.22,-0.85,-3.3,-1.95,413,468,253,332,242
931,0.44,0.88,0.21,2.62,-3.72,-1.65,417,461,250,329,251
932,0.43,0.86,0.22,1.4,-1.77,-3.78,415,470,251,333,245
933,0.43,0.88,0.22,-0.06,-1.89,-3.05,417,464,256,333,245
934,0.43,0.87,0.22,-2.26,-2.56,-3.48,415,464,256,334,245
935,0.42,0.87,0.23,-0.06,-3.66,-0.98,417,465,253,335,245
936,0.44,0.86,0.22,0.0,-2.2,-2.08,414,466,251,331,244
937,0.44,0.87,0.23,-1.71,-3.91,-2.26,413,470,254,332,245
938,0.44,0.88,0.23,-0.18,-3.66,-0.18,410,466,250,333,245
939,0.44,0.88,0.23,1.59,-3.11,-3.17,422,464,255,333,245
940,0.44,0.87,0.23,-1.4,-2.81,-2.69,414,465,255,335,247
941,0.43,0.86,0.23,-0.43,-2.62,-1.95,414,465,253,333,247
942,0.42,0.87,0.24,0.0,-1.1,-3.36,417,465,255,342,244
943,0.45,0.86,0.23,0.98,-2.93,-1.89,413,465,256,337,248
944,0.45,0.87,0.23,0.31,-2.75,-2.81,415,459,269,336,249
945,0.44,0.87,0.23,-0.73,-2.81,-2.62,415,468,253,337,248
946,0.45,0.87,0.22,-0.49,-2.99,-1.83,414,467,254,339,248
947,0.44,0.87,0.23,0.49,-1.34,-3.72,415,467,256,336,248
948,0.44,0.86,0.22,0.85,-3.78,-0.67,416,465,252,333,245
949,0.44,0.86,0.22,-0.79,-3.66,-1.71,415,465,255,333,247
950,0.43,0.87,0.23,-1.53,-2.99,-2.32,418,459,256,334,241
951,0.46,0.87,0.22,0.0,-5.92,-2.5,419,461,254,337,244
952,0.44,0.87,0.24,-1.16,-1.34,-3.72,415,460,256,333,245
953,0.44,0.81,0.26,-34.91,20.94,-12.27,419,464,255,336,247
954,0.39,0.79,0.38,-4.09,-0.79,0.37,415,463,254,336,247
955,0.41,0.84,0.39,-0.85,-1.95,-2.26,415,465,255,336,245
956,0.42,0.81,0.37,-3.78,-4.09,-1.95,414,469,256,333,242
957,0.41,0.85,0.37,0.49,-4.03,-2.32,414,464,254,334,245
958,0.4,0.84,0.37,-2.2,-1.65,-3.6,419,467,256,337,245
959,0.43,0.85,0.37,1.04,-3.23,-1.16,415,465,257,334,246
960,0.41,0.84,0.36,0.31,-2.87,-3.72,416,469,254,336,245
961,0.42,0.83,0.35,0.73,-3.05,-1.83,419,467,255,336,245
962,0.42,0.82,0.35,1.16,-3.11,-1.71,415,465,252,338,245
963,0.42,0.82,0.33,-2.56,-1.89,-1.46,416,469,256,334,245
964,0.43,0.82,0.35,0.55,-3.23,-1.89,421,460,257,328,247
965,0.43,0.83,0.35,0.67,-3.6,-2.62,417,469,252,334,248
966,0.43,0.83,0.35,-1.04,-4.21,-2.2,418,462,254,334,245
967,0.43,0.84,0.35,4.39,-2.5,-0.67,415,470,254,333,247
968,0.43,0.84,0.36,-0.37,-2.81,-2.08,417,465,256,334,248
969,0.44,0.83,0.37,-0.79,-1.46,-4.7,416,465,256,330,245
970,0.43,0.82,0.36,-1.53,-2.38,-3.3,416,465,258,335,246
971,0.44,0.83,0.36,0.79,-3.42,-2.32,413,462,254,336,248
972,0.44,0.83,0.35,0.85,-2.44,-2.5,417,466,253,335,245
973,0.45,0.84,0.35,0.61,-4.09,-1.16,416,465,254,334,244
974,0.44,0.83,0.35,1.4,-4.46,-1.59,415,464,257,334,246
975,0.45,0.83,0.36,-0.92,-1.65,-2.56,416,465,249,336,246
976,0.43,0.81,0.35,0.61,-3.91,-2.81,415,464,255,333,248
977,0.46,0.84,0.36,-1.34,-4.39,2.14,414,468,255,336,249
978,0.44,0.82,0.35,-0.43,-3.91,-2.99,418,465,255,334,246
979,0.46,0.82,0.35,2.2,-2.75,-0.61,414,469,252,334,248
980,0.45,0.84,0.35,0.49,-3.36,-2.32,418,476,257,336,245
981,0.45,0.82,0.35,-0.06,-3.23,-2.5,420,465,256,335,249
982,0.44,0.82,0.36,0.31,-3.11,-1.71,412,466,260,334,246
983,0.45,0.82,0.36,-0.49,-2.26,-3.66,416,465,255,338,245
984,0.44,0.82,0.36,0.31,-1.89,-2.08,415,469,254,335,249
985,0.44,0.82,0.36,-0.73,-3.11,-1.95,416,460,256,337,248
986,0.44,0.83,0.36,0.98,-0.92,-3.05,416,469,257,334,246
987,0.45,0.81,0.36,-1.46,-3.72,-2.08,416,468,254,334,245
988,0.46,0.83,0.36,0.37,-2.93,-2.99,419,464,252,334,246
989,0.44,0.79,0.34,-4.09,-4.46,-1.04,415,465,253,333,248
990,0.45,0.84,0.37,0.61,-2.08,-2.38,418,464,254,338,246
991,0.48,0.82,0.37,-0.79,-3.72,-1.04,412,468,256,337,243
992,0.45,0.82,0.37,1.16,-3.66,-2.01,414,465,254,335,245
993,0.46,0.82,0.35,1.22,-4.88,-1.28,417,466,259,335,245
994,0.44,0.81,0.36,-1.22,-2.38,-1.95,415,465,252,338,248
995,0.47,0.83,0.36,1.04,-1.71,-0.79,414,465,257,335,247
996,0.44,0.83,0.36,-3.3,-1.95,-2.87,416,468,255,335,244
997,0.45,0.82,0.36,0.55,-2.99,-3.11,416,463,257,341,244
998,0.45,0.82,0.34,-2.93,-2.75,-2.08,416,467,255,337,248
999,0.44,0.84,0.36,0.31,-2.5,-2.69,411,468,266,335,245
1000,0.45,0.87,0.36,2.26,-3.6,-2.93,419,467,255,347,236
1001,0.46,0.83,0.34,-0.92,-3.42,-1.59,416,462,259,336,247
1002,0.46,0.81,0.32,0.55,-4.21,-1.59,420,465,257,336,247
1003,0.46,0.83,0.33,0.37,-3.91,-1.28,416,465,255,331,249
1004,0.46,0.82,0.33,2.14,-3.85,-1.28,418,466,256,338,246
1005,0.47,0.82,0.34,-0.37,-4.09,-0.61,412,461,254,336,245
1006,0.58,0.74,0.41,1.77,-2.26,-6.71,413,468,236,310,219
1007,0.58,0.74,0.39,2.93,1.77,-8.3,413,464,236,309,220
1008,0.53,0.73,0.41,-5.25,-5.68,-4.82,412,467,235,310,223
1009,0.57,0.75,0.39,2.44,-6.41,-1.83,412,459,238,312,228
1010,0.57,0.76,0.39,-1.59,-3.17,-4.39,416,465,238,309,220
1011,0.51,0.74,0.41,-1.16,-5.0,-1.1,413,464,238,310,219
1012,0.55,0.74,0.42,-4.21,-2.14,3.91,413,467,236,311,223
1013,0.59,0.76,0.39,7.45,-3.23,-2.81,413,465,236,309,223
1014,0.55,0.71,0.42,-4.15,-3.42,-0.98,414,465,238,312,226
1015,0.58,0.75,0.4,2.26,-2.93,-3.11,413,465,246,311,223
1016,0.52,0.69,0.44,-2.14,-0.61,-3.17,412,464,239,308,222
1017,0.5,0.77,0.46,7.81,1.71,-7.39,413,461,240,311,224
1018,0.5,0.71,0.44,2.08,-2.5,-1.28,417,459,240,309,225
1019,0.45,0.83,0.47,2.32,2.08,-2.87,414,471,237,305,224
1020,0.45,0.82,0.43,-3.48,-3.85,4.39,415,463,235,307,224
1021,0.46,0.83,0.42,4.52,-1.16,-3.05,414,460,239,312,224
1022,0.44,0.8,0.43,3.48,0.49,-2.62,414,465,240,308,228
1023,0.45,0.79,0.42,1.04,-6.35,1.16,413,469,241,311,226
1024,0.46,0.81,0.44,-0.61,-3.3,-2.08,412,466,242,315,228
1025,0.46,0.77,0.42,1.04,-3.42,-0.98,414,466,242,310,226
1026,0.46,0.79,0.42,-0.73,-1.95,-1.28,411,468,237,313,227
1027,0.46,0.77,0.42,-1.53,-2.81,-3.17,412,467,241,314,228
1028,0.48,0.77,0.41,1.16,-3.97,-2.01,415,466,240,315,229
1029,0.48,0.79,0.41,0.24,-1.4,-2.44,410,467,239,311,227
1030,0.47,0.79,0.42,-2.32,-2.69,-3.85,416,468,242,309,227
1031,0.47,0.8,0.43,-2.32,-2.08,-2.14,415,466,241,313,228
1032,0.46,0.77,0.42,1.71,-0.24,-4.09,415,467,243,310,227
1033,0.47,0.79,0.42,0.12,-2.2,-2.5,410,474,241,311,268
1034,0.46,0.79,0.43,1.34,-2.81,-3.17,415,473,239,314,226
1035,0.46,0.8,0.42,0.73,-2.5,-3.48,415,471,242,317,229
1036,0.48,0.79,0.42,1.65,-2.56,-3.42,416,468,241,310,229
1037,0.46,0.78,0.43,1.04,-1.4,-1.95,413,463,240,311,231
1038,0.47,0.79,0.43,-0.37,-3.36,-2.32,409,470,237,311,227
1039,0.45,0.78,0.42,2.14,-1.04,-2.81,412,467,247,312,229
1040,0.46,0.79,0.43,-1.04,-2.44,-4.21,413,465,240,312,231
1041,0.47,0.8,0.4,5.19,-2.75,-2.56,413,471,236,308,228
1042,0.47,0.77,0.4,2.14,-2.14,-2.32,414,464,237,309,234
1043,0.48,0.79,0.39,-0.12,-3.17,-1.22,414,465,240,309,226
1044,0.47,0.79,0.39,1.77,-3.17,-2.2,412,468,239,309,266
1045,0.48,0.79,0.39,2.44,-5.62,0.24,414,464,237,312,229
1046,0.48,0.78,0.39,-0.18,-5.0,1.71,417,467,237,308,226
1047,0.49,0.79,0.38,2.14,-5.19,-1.77,410,468,240,310,229
1048,0.48,0.79,0.39,0.61,-3.11,-1.89,414,467,239,311,228
1049,0.49,0.79,0.38,2.26,-2.62,-2.93,415,469,242,308,226
1050,0.49,0.8,0.39,0.43,-2.87,-2.32,416,468,238,312,229
1051,0.49,0.8,0.38,1.22,-2.26,-0.43,411,471,237,311,228
1052,0.49,0.8,0.39,0.31,-2.99,-4.46,417,471,238,311,227
1053,0.48,0.79,0.39,2.81,-3.42,-3.54,413,472,239,309,231
1054,0.47,0.8,0.38,4.03,-4.76,-2.01,412,470,237,310,228
1055,0.48,0.8,0.38,0.79,-4.09,-3.3,414,467,236,309,232
1056,0.49,0.79,0.37,1.28,-2.5,-1.22,416,466,237,312,231
1057,0.49,0.79,0.37,2.2,-2.56,-0.55,415,481,238,311,227
1058,0.49,0.78,0.38,1.28,-2.69,-2.99,414,462,238,310,229
1059,0.48,0.8,0.4,1.34,-2.01,-4.82,415,463,239,319,229
1060,0.49,0.8,0.38,0.31,-2.75,-1.71,412,470,241,308,225
1061,0.48,0.78,0.38,0.61,-2.81,-0.24,412,472,237,313,232
1062,0.49,0.8,0.38,2.75,-2.44,-2.81,414,469,238,312,231
1063,0.49,0.79,0.37,-0.31,-3.48,-3.11,411,467,238,311,229
1064,0.47,0.81,0.38,-1.65,-3.23,-4.58,416,470,240,312,233
1065,0.49,0.79,0.36,0.92,-4.09,-1.83,415,471,241,315,225
1066,0.5,0.81,0.36,-1.53,-4.03,-0.67,414,471,240,313,223
1067,0.5,0.8,0.37,3.66,-3.91,-2.32,411,468,244,315,228
1068,0.5,0.78,0.36,1.28,-2.44,-1.04,413,467,243,313,244
1069,0.5,0.78,0.37,2.26,-4.39,-1.4,415,466,243,313,231
1070,0.49,0.79,0.36,-2.08,-2.99,-2.93,412,471,239,313,231
1071,0.49,0.79,0.36,-1.22,-2.93,-3.66,415,470,240,317,227
1072,0.48,0.8,0.38,0.37,-2.2,-3.42,417,465,244,313,232
1073,0.49,0.77,0.37,-1.71,-2.44,-2.08,415,473,241,313,231
1074,0.46,0.79,0.36,-3.36,-4.82,-4.82,410,468,238,314,231
1075,0.49,0.79,0.36,-0.43,-3.05,-1.34,415,470,240,313,232
1076,0.49,0.8,0.37,0.61,-2.81,-2.81,415,468,245,317,229
1077,0.48,0.8,0.37,1.4,-1.28,-4.27,415,481,239,312,232
1078,0.49,0.8,0.37,1.89,-2.69,-3.11,411,473,246,317,231
1079,0.48,0.79,0.38,-0.12,-1.65,-3.23,415,468,243,314,230
1080,0.49,0.79,0.36,0.0,-2.44,-3.05,415,482,244,311,230
1081,0.5,0.8,0.37,-0.49,-3.6,-0.24,416,462,240,315,229
1082,0.49,0.78,0.36,-0.18,-2.81,-2.44,416,464,241,314,228
1083,0.5,0.79,0.38,-0.06,-3.23,-2.93,415,470,241,314,231
1084,0.46,0.79,0.37,-0.61,-2.38,-3.23,416,468,242,322,231
1085,0.49,0.79,0.39,2.26,-1.71,-4.33,414,469,241,314,226
1086,0.48,0.8,0.38,-0.79,-2.93,-2.44,412,463,241,312,234
1087,0.49,0.78,0.39,-0.06,-3.54,-2.01,414,473,242,312,234
1088,0.48,0.8,0.37,0.49,-4.21,-2.93,415,461,240,318,233
1089,0.48,0.79,0.38,-0.49,-1.71,-2.38,414,467,242,310,231
1090,0.48,0.79,0.37,-1.83,-2.44,-2.38,416,467,239,316,231
1091,0.49,0.81,0.38,-0.67,-2.69,-3.72,415,466,242,316,231
1092,0.46,0.8,0.39,-1.4,-0.67,-4.46,418,470,241,316,233
1093,0.44,0.84,0.37,-3.3,-16.24,-9.58,416,471,239,316,232
1094,0.46,0.8,0.4,-1.22,-11.84,-10.38,415,466,240,313,231
1095,0.45,0.77,0.38,-4.21,-1.71,5.19,417,467,245,315,231
1096,0.49,0.78,0.36,-0.12,3.66,5.98,417,464,244,317,234
1097,0.48,0.75,0.36,2.32,3.66,10.99,416,468,240,318,232
1098,0.47,0.82,0.42,-0.06,6.1,-2.75,412,468,242,316,230
1099,0.49,0.8,0.39,2.5,-4.27,-1.53,415,471,242,318,234
1100,0.44,0.78,0.42,1.4,-0.18,1.53,419,469,238,315,233
1101,0.49,0.77,0.4,-0.06,-4.82,-2.26,414,467,242,316,233
1102,0.48,0.78,0.4,0.79,-4.03,-2.62,416,468,241,316,233
1103,0.5,0.8,0.4,0.49,-1.53,-3.17,414,478,246,316,233
1104,0.5,0.8,0.41,2.32,-1.28,-2.81,419,467,243,318,251
1105,0.49,0.77,0.39,0.31,-2.08,-0.79,414,468,244,317,227
1106,0.5,0.78,0.39,0.24,-3.42,-2.14,417,468,244,316,232
1107,0.5,0.78,0.4,0.24,-3.6,-2.01,417,471,247,316,272
1108,0.51,0.78,0.39,-0.73,-3.23,-1.53,415,466,243,316,231
1109,0.5,0.78,0.39,1.28,-2.5,-3.91,416,469,240,319,241
1110,0.51,0.77,0.39,-1.16,-2.62,-2.56,416,467,243,316,235
1111,0.5,0.77,0.39,-0.18,-4.39,-3.72,417,463,243,317,233
1112,0.51,0.76,0.39,-0.31,-4.27,-0.37,418,463,241,317,233
1113,0.5,0.77,0.39,-1.04,-2.56,-1.89,416,464,241,318,231
1114,0.51,0.78,0.39,0.37,-4.03,-2.08,417,470,242,317,228
1115,0.52,0.78,0.39,-1.34,-3.97,-0.98,417,468,243,317,235
1116,0.52,0.78,0.39,-1.04,-3.91,-2.93,416,465,241,318,233
1117,0.49,0.78,0.4,-1.59,-0.98,-4.76,417,470,241,317,231
1118,0.49,0.78,0.39,0.06,-4.46,-2.93,417,466,245,320,231
1119,0.48,0.77,0.38,-0.31,-5.49,0.12,417,475,243,320,232
1120,0.51,0.78,0.4,-5.86,-10.68,-1.46,418,468,246,321,234
1121,0.47,0.71,0.4,-4.64,-2.26,14.34,416,467,245,320,234
1122,0.56,0.73,0.39,-3.72,-3.6,-1.53,416,467,249,317,237
1123,0.53,0.73,0.41,-3.05,-3.72,0.43,417,470,244,317,244
1124,0.55,0.77,0.43,0.43,-2.62,-3.72,417,471,246,317,234
1125,0.53,0.76,0.41,0.73,-3.11,1.1,419,474,243,317,233
1126,0.53,0.75,0.41,0.73,-4.58,-3.91,415,468,245,319,231
1127,0.52,0.73,0.4,-0.18,-3.36,-1.71,417,471,245,318,236
1128,0.53,0.77,0.4,2.2,0.73,-7.87,418,471,244,318,233
1129,0.54,0.77,0.42,3.23,-3.97,-2.32,416,478,243,322,236
1130,0.53,0.75,0.41,0.92,-2.26,-2.99,417,462,243,319,236
1131,0.54,0.75,0.4,1.1,-3.36,-1.83,418,466,245,321,234
1132,0.53,0.74,0.41,-2.2,-3.3,-2.44,417,473,245,318,237
1133,0.54,0.76,0.41,-2.26,-2.75,-1.34,413,471,245,319,234
1134,0.52,0.74,0.41,1.04,-3.78,-3.42,412,467,245,316,231
1135,0.52,0.76,0.41,-0.73,-2.44,-2.69,417,469,246,320,236
1136,0.53,0.74,0.41,-0.06,-4.46,-2.26,416,472,249,316,236
1137,0.52,0.76,0.41,-0.85,-1.28,-1.89,417,468,241,321,236
1138,0.51,0.76,0.42,1.83,-2.75,-4.46,418,467,244,319,235
1139,0.5,0.76,0.42,0.98,-1.22,-2.75,414,467,244,321,246
1140,0.53,0.76,0.41,2.56,-4.03,-1.95,417,462,246,324,237
1141,0.51,0.75,0.41,0.49,-2.81,-2.44,418,470,243,317,231
1142,0.51,0.75,0.41,0.55,-3.05,-1.77,419,471,244,327,234
1143,0.51,0.74,0.41,-1.22,-3.36,-2.44,417,467,244,322,230
1144,0.51,0.76,0.4,0.67,-2.93,-2.81,418,467,242,317,237
1145,0.52,0.74,0.4,0.0,-3.23,-2.32,413,468,245,325,233
1146,0.52,0.76,0.42,0.55,-1.83,-2.93,419,471,244,321,234
1147,0.51,0.76,0.42,0.49,-2.38,-3.05,418,469,246,319,233
1148,0.51,0.77,0.41,3.97,-1.46,-3.72,418,472,242,319,233
1149,0.5,0.74,0.4,0.85,-2.81,-2.93,419,467,245,319,230
1150,0.51,0.75,0.41,2.32,-2.87,-0.67,417,470,242,318,235
1151,0.51,0.77,0.42,0.55,-3.91,3.17,413,470,249,321,234
1152,0.53,0.75,0.39,0.49,-4.64,-1.95,416,467,243,320,234
1153,0.55,0.74,0.42,-1.83,0.12,1.16,416,470,243,318,235
1154,0.52,0.73,0.43,2.99,0.55,1.28,415,468,243,319,235
1155,0.54,0.73,0.42,1.4,-1.22,-2.93,420,463,260,322,234
1156,0.52,0.72,0.42,2.08,-1.95,-5.86,418,468,247,322,238
1157,0.53,0.78,0.41,0.24,-3.3,-0.85,414,464,244,320,235
1158,0.55,0.75,0.42,4.27,-4.46,0.06,419,463,246,319,235
1159,0.57,0.71,0.4,-2.5,-2.93,-0.85,419,468,247,320,237
1160,0.56,0.71,0.44,0.55,-5.0,-4.09,420,462,244,317,234
1161,0.55,0.73,0.43,0.49,-3.91,-4.39,418,464,244,317,230
1162,0.57,0.69,0.39,-0.79,-3.36,-0.18,418,462,246,323,237
1163,0.57,0.73,0.43,-2.75,-3.6,-5.37,417,468,250,323,235
1164,0.55,0.69,0.41,-1.16,-3.85,-2.32,418,464,243,322,245
1165,0.57,0.7,0.42,0.12,-2.5,-0.85,419,470,242,323,239
1166,0.59,0.68,0.43,4.39,-8.97,-8.61,416,463,247,326,238
1167,0.58,0.68,0.41,1.4,1.22,-4.46,416,474,245,323,236
1168,0.56,0.74,0.44,0.98,0.31,-4.58,417,466,245,320,237
1169,0.56,0.72,0.44,2.93,-0.37,-4.03,416,471,248,320,266
1170,0.55,0.74,0.45,1.59,-3.11,-2.99,418,468,248,321,236
1171,0.54,0.71,0.46,-1.04,-2.75,0.73,419,471,245,318,237
1172,0.55,0.71,0.45,-1.95,-2.87,-2.69,419,471,249,322,239
1173,0.58,0.71,0.44,0.43,-3.54,-2.87,418,467,249,326,236
1174,0.56,0.71,0.44,-0.73,1.04,-5.62,418,465,243,322,240
1175,0.57,0.7,0.47,-0.49,-4.58,-3.11,418,467,245,323,235
1176,0.55,0.7,0.46,3.23,-3.48,-2.38,418,471,248,323,242
1177,0.56,0.71,0.47,0.0,-3.48,-2.81,416,466,246,325,236
1178,0.54,0.71,0.44,-0.92,-0.61,-4.94,418,471,245,323,242
1179,0.52,0.71,0.47,-1.22,-2.87,-3.78,418,471,243,326,236
1180,0.55,0.72,0.47,0.85,-3.54,-2.5,420,470,261,324,239
1181,0.53,0.71,0.46,1.16,-2.14,-3.66,416,466,248,324,238
1182,0.53,0.72,0.46,0.12,-2.56,-2.38,419,461,246,325,236
1183,0.52,0.72,0.45,0.92,-4.21,-1.65,416,462,248,324,253
1184,0.56,0.73,0.45,4.64,-0.37,-3.23,418,482,248,323,233
1185,0.51,0.75,0.45,1.28,-3.72,-0.73,428,469,247,326,260
1186,0.51,0.71,0.44,-0.92,-3.05,-1.34,418,463,249,325,236
1187,0.53,0.75,0.45,2.62,-3.6,-6.04,415,467,247,320,236
1188,0.5,0.73,0.43,1.22,-2.93,-6.35,418,471,245,322,236
1189,0.5,0.75,0.45,0.31,-2.69,-2.44,417,471,246,326,236
1190,0.51,0.77,0.44,1.65,-1.83,-2.08,419,467,244,323,236
1191,0.5,0.76,0.42,1.77,-3.36,-3.11,418,466,246,329,237
1192,0.5,0.74,0.43,-1.22,-3.05,-1.28,419,470,256,324,237
1193,0.52,0.75,0.42,3.85,-4.21,-1.1,418,471,250,325,239
1194,0.51,0.75,0.41,3.17,-2.75,-3.48,420,471,251,323,237
1195,0.52,0.75,0.41,2.62,-2.26,-2.87,419,470,246,322,234
1196,0.5,0.77,0.41,1.22,-3.6,-4.7,418,467,247,323,238
1197,0.5,0.78,0.42,2.01,-2.69,-2.81,417,465,245,326,240
1198,0.5,0.77,0.42,0.67,-3.11,-2.81,418,471,256,324,239
1199,0.49,0.76,0.42,0.43,-4.46,-0.49,420,466,245,322,237
1200,0.51,0.77,0.41,0.43,-3.3,-1.16,416,468,247,326,237
1201,0.5,0.75,0.41,1.16,-4.52,-1.22,414,461,245,325,239
1202,0.51,0.77,0.4,2.5,-2.81,-2.93,413,470,246,323,237
1203,0.5,0.77,0.41,1.65,-2.32,-2.5,419,465,249,324,240
1204,0.5,0.78,0.41,0.24,-2.75,-2.56,418,466,249,320,239
1205,0.52,0.76,0.39,1.65,-3.66,-4.39,418,467,249,324,238
1206,0.5,0.78,0.41,0.18,-3.91,-3.05,417,470,247,324,238
1207,0.5,0.77,0.4,-1.77,-2.5,-1.95,419,466,257,326,240
1208,0.51,0.78,0.39,1.34,-1.71,-2.32,419,468,250,321,236
1209,0.5,0.78,0.41,-0.79,-2.38,-4.09,415,466,250,320,237
1210,0.49,0.75,0.41,0.61,-1.83,-2.81,418,469,247,323,237
1211,0.49,0.76,0.42,-1.28,-2.75,-2.99,418,465,248,326,239
1212,0.5,0.77,0.41,1.4,-1.95,-1.28,416,462,250,325,238
1213,0.5,0.78,0.42,0.85,-3.17,-1.95,419,472,248,323,237
1214,0.51,0.76,0.4,0.98,-3.97,-1.77,417,467,250,324,237
1215,0.51,0.76,0.4,0.24,-2.99,-2.08,418,465,250,324,237
1216,0.5,0.76,0.41,0.73,-4.39,-1.46,419,469,248,324,234
1217,0.51,0.76,0.41,1.46,-3.05,-2.44,414,465,245,324,237
1218,0.51,0.76,0.41,-0.37,-3.54,-2.56,418,469,245,326,240
1219,0.51,0.76,0.41,1.22,-4.03,-0.79,421,466,249,321,237
1220,0.51,0.75,0.42,-1.22,-3.3,-0.49,419,466,248,323,240
1221,0.51,0.77,0.43,2.93,-3.17,-2.87,417,463,247,326,240
1222,0.51,0.76,0.41,1.89,-3.48,-2.26,416,462,246,326,237
1223,0.49,0.77,0.41,1.22,-2.14,-2.2,418,462,247,324,239
1224,0.49,0.76,0.42,-0.67,-2.81,-2.99,418,465,247,324,240
1225,0.5,0.76,0.41,-0.24,-2.87,-4.27,418,470,248,324,233
1226,0.5,0.76,0.41,-2.26,-3.85,-1.71,418,467,247,324,237
1227,0.49,0.77,0.42,-0.73,-0.61,-4.33,413,466,243,324,238
1228,0.5,0.77,0.42,-0.18,-2.26,-2.81,420,463,247,324,237
1229,0.51,0.78,0.42,0.37,-2.93,-2.75,416,466,249,325,240
1230,0.51,0.76,0.41,-0.49,-2.44,-2.69,414,466,249,321,237
1231,0.5,0.76,0.41,-0.18,-3.05,-2.99,420,465,250,327,240
1232,0.5,0.76,0.41,-1.46,-2.75,-3.54,417,467,244,325,239
1233,0.51,0.75,0.42,-0.24,-2.08,-2.99,413,467,245,324,236
1234,0.52,0.76,0.41,1.28,-2.75,-4.46,414,465,246,324,240
1235,0.5,0.76,0.42,-0.24,-2.32,-2.87,418,467,250,325,242
1236,0.5,0.76,0.42,-0.31,-3.91,-3.36,418,470,246,324,238
1237,0.5,0.77,0.42,0.06,-2.01,-4.52,418,465,246,330,238
1238,0.5,0.78,0.42,1.4,-1.71,-2.81,421,461,246,324,239
1239,0.51,0.76,0.39,-0.67,-3.23,-3.05,415,470,245,324,238
1240,0.51,0.75,0.4,-6.47,-9.09,-4.88,418,470,248,326,239
1241,0.5,0.76,0.4,-1.89,-2.26,-1.65,419,470,247,324,239
1242,0.48,0.76,0.42,2.01,-5.19,-4.46,420,467,245,327,238
1243,0.51,0.76,0.41,4.21,-1.77,-5.13,417,464,247,324,237
1244,0.48,0.8,0.4,3.97,-2.56,-5.25,418,467,247,324,236
1245,0.47,0.8,0.4,0.79,-1.65,-3.78,418,469,244,326,236
1246,0.46,0.8,0.4,1.46,-4.09,-2.62,417,472,249,326,240
1247,0.46,0.79,0.38,1.22,-3.05,-2.26,418,470,253,326,239
1248,0.46,0.82,0.41,0.24,-0.49,-3.17,417,466,248,325,240
1249,0.47,0.78,0.39,0.73,-1.28,-4.21,419,466,249,325,238
1250,0.46,0.79,0.4,-1.89,-2.32,-2.01,416,465,246,327,250
1251,0.5,0.81,0.43,-0.98,-0.24,-1.65,419,461,246,324,237
1252,0.5,0.79,0.41,-0.06,-0.55,-0.92,416,466,250,325,237
1253,0.48,0.8,0.44,-0.67,-1.4,-3.05,417,469,245,324,241
1254,0.5,0.8,0.44,0.79,-4.7,-2.2,417,466,250,324,237
1255,0.46,0.75,0.42,1.04,-2.93,-3.85,417,467,249,324,237
1256,0.47,0.78,0.43,3.42,-1.89,-1.22,417,469,250,341,241
1257,0.46,0.8,0.42,0.79,-3.97,-2.93,417,466,249,327,238
1258,0.49,0.77,0.42,-0.06,-3.66,-2.08,414,464,249,326,239
1259,0.48,0.79,0.42,1.89,-2.56,-2.62,420,464,247,326,237
1260,0.48,0.77,0.42,-0.06,-2.69,-2.62,417,467,248,323,240
1261,0.48,0.79,0.42,0.61,-3.17,-2.81,419,465,248,327,239
1262,0.48,0.77,0.41,0.12,-3.05,-2.01,420,467,249,332,253
1263,0.5,0.76,0.41,1.46,-3.48,-2.44,419,465,253,325,242
1264,0.49,0.77,0.41,0.31,-3.05,-2.32,418,470,249,325,237
1265,0.49,0.77,0.42,1.28,-2.32,-4.33,417,466,248,325,238
1266,0.49,0.77,0.42,-0.43,-2.01,-3.17,418,467,248,324,238
1267,0.49,0.77,0.41,-0.98,-2.69,-2.32,417,470,244,326,238
1268,0.49,0.78,0.42,0.06,-2.44,-3.17,417,466,251,324,229
1269,0.49,0.76,0.41,0.43,-2.26,-2.81,425,464,247,329,238
1270,0.49,0.78,0.4,-1.65,-3.05,-2.08,418,470,250,325,237
1271,0.48,0.79,0.41,-3.17,-3.54,-3.23,417,464,246,321,241
1272,0.48,0.78,0.42,0.12,-3.54,-1.83,418,462,246,327,235
1273,0.48,0.77,0.42,-0.55,-1.71,-0.92,418,467,247,328,251
1274,0.49,0.78,0.42,0.37,-3.17,-2.32,417,465,248,325,239
1275,0.48,0.77,0.41,0.92,-2.08,-1.83,418,465,251,322,240
1276,0.49,0.76,0.42,0.67,-2.5,-2.5,414,470,250,326,237
1277,0.48,0.77,0.42,0.06,-3.36,-2.38,419,461,251,326,238
1278,0.48,0.75,0.4,3.23,-0.31,-5.92,418,470,247,329,238
1279,0.49,0.78,0.42,0.73,-3.11,-2.87,418,465,249,328,237
1280,0.47,0.76,0.42,-0.98,-0.37,0.24,418,461,249,328,238
1281,0.5,0.72,0.4,1.59,-3.17,-4.03,421,463,249,324,240
1282,0.51,0.79,0.43,0.55,-2.14,-2.38,417,460,251,326,246
1283,0.49,0.75,0.41,1.89,-2.08,-4.03,418,475,245,327,237
1284,0.5,0.76,0.42,-0.43,-3.05,-1.71,415,466,247,328,238
1285,0.51,0.75,0.42,-1.28,-3.3,-1.28,418,461,248,324,237
1286,0.49,0.75,0.42,-0.67,-2.01,-3.36,418,470,251,326,233
1287,0.48,0.76,0.43,0.67,-3.85,-2.5,417,470,246,328,239
1288,0.5,0.74,0.42,-0.43,-4.21,-2.32,415,460,248,322,240
1289,0.5,0.75,0.41,-1.77,-2.75,-3.72,417,462,244,326,237
1290,0.5,0.76,0.42,-6.29,-3.85,-1.1,418,468,246,325,239
1291,0.51,0.75,0.44,-2.38,-3.3,-1.46,420,470,251,331,235
1292,0.49,0.76,0.43,-0.55,-4.64,-1.59,419,466,249,325,240
1293,0.5,0.78,0.44,1.89,-4.27,-1.53,418,466,247,327,233
1294,0.49,0.77,0.45,1.71,-1.59,-4.94,418,464,252,325,238
1295,0.5,0.78,0.45,1.28,-3.66,-2.38,417,460,249,327,238
1296,0.48,0.76,0.42,3.97,-6.71,0.55,418,461,249,327,238
1297,0.59,0.73,0.42,-13.49,-0.92,-14.71,420,465,248,328,238
1298,0.46,0.79,0.49,8.97,6.53,-22.71,418,469,249,327,240
1299,0.45,0.81,0.42,8.48,4.64,-9.03,418,468,251,330,241
1300,0.47,0.8,0.36,12.15,-0.18,-2.38,416,461,253,328,241
1301,0.43,0.81,0.39,2.56,-2.5,2.2,415,467,253,327,236
1302,0.45,0.8,0.38,-2.01,1.34,0.0,413,465,252,330,240
1303,0.44,0.84,0.4,5.25,-1.89,-10.31,417,469,252,328,238
1304,0.46,0.81,0.4,4.82,-3.48,-1.89,418,473,246,329,238
1305,0.42,0.81,0.4,-1.22,2.93,-4.27,418,469,253,328,240
1306,0.44,0.79,0.43,-1.77,6.41,0.49,417,461,250,330,241
1307,0.45,0.78,0.4,1.71,-1.04,-1.53,418,466,252,326,238
1308,0.43,0.8,0.41,2.01,-3.42,-4.39,417,464,252,329,241
1309,0.45,0.76,0.41,-1.1,-4.88,-1.1,415,466,251,330,239
1310,0.46,0.84,0.45,3.17,0.31,-3.11,415,467,251,331,240
1311,0.45,0.79,0.44,0.92,-1.95,-4.33,416,461,250,325,239
1312,0.47,0.79,0.4,4.09,-4.27,-1.59,417,471,249,327,238
1313,0.48,0.81,0.42,2.81,-4.82,-5.55,417,469,256,328,238
1314,0.46,0.8,0.42,0.12,-3.36,-2.26,420,464,252,327,238
1315,0.44,0.8,0.41,5.92,-1.1,-3.78,416,467,251,328,241
1316,0.43,0.8,0.43,0.85,-2.32,-4.09,417,476,249,328,238
1317,0.44,0.81,0.41,3.72,-2.81,-2.26,413,465,251,338,241
1318,0.47,0.81,0.4,4.82,-8.54,4.58,417,472,250,331,238
1319,0.44,0.81,0.42,-1.4,-3.6,-4.64,417,462,259,328,238
1320,0.45,0.79,0.41,1.65,-5.07,-3.36,417,464,255,333,238
1321,0.44,0.8,0.41,2.87,-2.99,-4.52,418,467,252,342,238
1322,0.41,0.81,0.4,-1.95,-10.68,-8.67,417,470,250,331,239
1323,0.45,0.79,0.4,-1.65,-2.93,-2.14,417,466,253,330,241
1324,0.45,0.8,0.41,0.92,-3.17,-0.55,418,464,251,327,240
1325,0.43,0.79,0.41,-0.49,-4.58,-0.85,417,468,256,325,239
1326,0.44,0.8,0.41,0.67,-2.75,-2.69,417,466,250,333,252
1327,0.44,0.8,0.41,-0.18,-2.99,-3.97,417,467,248,328,241
1328,0.44,0.82,0.42,1.16,-2.93,-2.26,417,465,253,331,236
1329,0.42,0.81,0.41,0.0,-3.97,-1.89,418,460,253,327,239
1330,0.42,0.81,0.41,-0.79,-2.62,-2.14,418,460,251,330,239
1331,0.43,0.82,0.41,-0.43,-2.08,-2.32,419,464,248,328,239
1332,0.42,0.82,0.43,-1.4,-4.03,-1.53,417,463,252,329,240
1333,0.44,0.79,0.4,-0.12,-4.21,-0.18,416,463,251,329,247
1334,0.43,0.81,0.41,1.4,-2.38,-3.72,418,466,264,332,243
1335,0.44,0.82,0.42,2.14,-2.5,-3.48,415,468,253,327,241
1336,0.43,0.81,0.41,0.37,-2.5,-2.69,417,465,249,324,238
1337,0.42,0.83,0.41,-1.22,-2.99,-2.32,418,468,247,329,238
1338,0.43,0.82,0.4,0.43,-4.33,-1.16,417,468,248,322,238
1339,0.43,0.81,0.39,0.55,-3.23,-2.62,413,469,248,327,236
1340,0.44,0.8,0.39,2.26,-1.71,-3.3,418,469,243,322,238
1341,0.45,0.81,0.4,3.54,-3.17,-2.2,417,465,249,325,236
1342,0.43,0.83,0.4,-0.85,-2.87,-2.75,417,468,248,329,234
1343,0.42,0.81,0.4,-0.31,-1.77,-3.66,416,467,246,324,240
1344,0.42,0.82,0.4,-0.12,-2.08,-2.75,419,466,246,324,239
1345,0.44,0.81,0.41,0.55,-3.48,-2.2,407,469,248,331,239
1346,0.43,0.81,0.4,0.43,-1.53,-3.91,412,461,243,327,241
1347,0.42,0.82,0.42,-2.2,-0.98,-1.89,417,465,251,324,241
1348,0.42,0.81,0.4,3.3,-5.98,-0.73,419,466,244,328,252
1349,0.44,0.78,0.38,-1.89,-3.42,1.77,415,461,250,326,240
1350,0.43,0.8,0.41,-0.92,-2.69,-3.66,415,465,245,325,240
1351,0.42,0.83,0.43,0.43,-1.1,-0.98,419,468,247,327,242
1352,0.46,0.84,0.39,1.22,-4.88,-4.09,417,470,246,325,238
1353,0.42,0.8,0.39,1.71,-3.17,-1.71,415,468,250,322,239
1354,0.44,0.81,0.39,0.79,-2.32,-1.65,415,466,248,324,239
1355,0.44,0.81,0.41,0.49,-3.11,-2.56,415,466,248,325,240
1356,0.44,0.8,0.39,1.34,-2.38,-1.16,417,460,250,325,238
1357,0.45,0.83,0.41,-2.01,-4.94,2.93,419,473,245,328,241
1358,0.45,0.79,0.4,-0.49,-4.21,-2.38,420,465,251,326,240
1359,0.44,0.8,0.41,-3.3,-5.74,-0.49,417,466,250,325,244
1360,0.45,0.79,0.41,2.2,-3.66,-1.04,418,463,249,334,241
1361,0.43,0.79,0.43,0.92,-2.14,-3.23,416,465,250,325,239
1362,0.45,0.79,0.4,-0.12,-4.64,-0.18,419,466,251,326,240
1363,0.46,0.81,0.42,1.04,-3.6,-3.05,419,468,251,327,240
1364,0.44,0.79,0.41,1.16,-2.32,-3.17,418,460,248,331,241
1365,0.45,0.8,0.42,1.4,-1.65,-3.72,417,468,251,329,239
1366,0.46,0.81,0.42,1.1,-3.3,-2.56,417,464,251,326,241
1367,0.44,0.79,0.41,0.55,-2.69,-1.34,417,470,249,324,240
1368,0.44,0.8,0.42,-0.55,-2.2,-3.05,416,470,249,324,239
1369,0.44,0.79,0.43,0.06,-1.28,-2.56,420,470,256,335,241
1370,0.45,0.8,0.42,0.98,-2.14,-2.44,418,467,250,326,238
1371,0.44,0.79,0.41,2.26,-3.17,-2.26,418,465,247,327,237
1372,0.44,0.79,0.43,-0.92,-3.48,-1.46,420,468,251,324,239
1373,0.46,0.81,0.43,0.49,-3.05,-2.99,412,467,245,330,240
1374,0.44,0.79,0.43,0.79,-1.77,-2.56,420,464,255,329,240
1375,0.41,0.78,0.41,0.37,-0.18,-5.49,416,465,250,328,242
1376,0.45,0.79,0.41,0.31,-2.5,-2.75,417,469,249,327,245
1377,0.44,0.79,0.42,-1.89,-3.23,-2.26,417,468,252,329,241
1378,0.44,0.78,0.42,0.06,-2.93,-2.14,415,466,252,328,240
1379,0.44,0.8,0.42,-0.31,-2.32,-2.56,418,466,261,328,242
1380,0.45,0.8,0.42,1.28,-3.11,-2.14,417,469,249,331,238
1381,0.44,0.81,0.43,0.31,-2.87,-2.69,416,464,257,327,242
1382,0.45,0.79,0.42,-0.31,-3.17,-2.14,417,466,253,329,240
1383,0.45,0.81,0.42,1.34,-2.62,-2.75,417,470,252,327,240
1384,0.45,0.8,0.41,-1.34,-4.52,-1.89,420,463,253,325,239
1385,0.44,0.78,0.42,-0.24,-3.48,-1.83,419,465,252,328,244
1386,0.46,0.77,0.42,-0.37,-2.38,-3.97,414,467,251,328,242
1387,0.45,0.79,0.43,0.98,-2.93,-1.83,418,460,252,328,244
1388,0.47,0.78,0.43,0.06,-3.66,-2.99,416,462,252,324,237
1389,0.45,0.79,0.43,2.38,-3.23,-2.81,417,472,251,329,240
1390,0.45,0.79,0.42,1.22,-1.95,-2.69,414,466,253,325,242
1391,0.46,0.82,0.43,1.95,-1.71,-1.65,417,464,250,328,241
1392,0.44,0.79,0.42,-2.75,-2.81,-1.89,420,466,252,327,241
1393,0.45,0.78,0.42,-0.24,-3.23,-0.67,415,466,253,327,240
1394,0.47,0.79,0.42,-0.79,-4.21,-0.43,419,481,251,331,240
1395,0.47,0.79,0.43,0.85,-3.36,-2.2,418,460,251,328,240
1396,0.46,0.78,0.42,-0.18,-2.62,-2.75,413,464,249,329,241
1397,0.47,0.79,0.43,1.22,-3.6,-2.2,416,464,253,325,239
1398,0.46,0.77,0.42,-0.73,-1.34,-3.36,420,469,251,326,252
1399,0.45,0.78,0.42,2.5,-1.95,-3.23,413,470,252,327,239
1400,0.47,0.79,0.43,-2.26,-3.66,-0.67,417,465,249,327,240
1401,0.47,0.8,0.43,1.83,-2.99,-2.56,417,466,253,332,239
1402,0.45,0.79,0.43,0.49,-2.26,-2.38,418,463,251,329,240
1403,0.46,0.78,0.42,2.14,-2.14,-3.36,417,466,251,329,241
1404,0.47,0.79,0.42,-0.61,-3.6,-1.89,418,469,248,329,240
1405,0.47,0.81,0.43,0.73,-3.54,-3.05,414,469,251,331,237
1406,0.45,0.78,0.41,4.64,-2.38,-3.17,425,465,248,325,242
1407,0.45,0.78,0.41,-0.73,-1.83,-2.75,417,467,250,331,242
1408,0.46,0.8,0.42,1.04,-3.23,-3.11,418,464,251,327,237
1409,0.47,0.8,0.43,0.92,-2.69,-2.26,419,467,250,330,243
1410,0.46,0.79,0.42,0.24,-3.48,-2.38,415,465,253,326,240
1411,0.47,0.8,0.42,0.24,-2.44,-3.72,417,464,250,331,241
1412,0.47,0.78,0.43,0.43,-2.69,-3.6,418,474,249,326,240
1413,0.45,0.77,0.41,0.37,-1.89,-2.87,417,462,253,329,238
1414,0.45,0.78,0.42,0.79,-4.03,-1.34,417,464,252,326,242
1415,0.45,0.79,0.43,-1.53,-2.87,-2.62,413,465,253,329,242
1416,0.46,0.77,0.41,0.49,-2.38,-3.6,414,466,254,329,238
1417,0.45,0.79,0.42,-1.04,-2.44,-2.01,417,464,254,329,243
1418,0.45,0.79,0.42,-2.26,-2.62,-1.59,418,468,254,333,241
1419,0.46,0.8,0.44,-0.73,-2.26,-3.42,414,464,251,330,241
1420,0.44,0.8,0.43,1.95,-1.77,-4.39,418,466,251,332,240
1421,0.44,0.8,0.42,2.99,-5.98,-0.24,417,466,254,327,241
1422,0.41,0.78,0.45,-0.85,2.69,-2.08,415,466,249,333,240
1423,0.44,0.79,0.42,0.92,-1.53,-3.42,416,466,251,327,241
1424,0.44,0.81,0.41,1.95,-3.6,-4.82,419,466,252,329,242
1425,0.42,0.81,0.42,-1.28,-1.16,-3.36,415,464,254,332,241
1426,0.41,0.79,0.41,-1.59,-0.61,-6.04,423,464,251,328,240
1427,0.36,0.79,0.36,25.57,-4.88,-8.67,415,461,252,328,241
1428,0.39,0.92,0.22,-7.69,-1.77,2.87,414,468,252,329,237
1429,0.44,0.88,0.2,-2.62,-0.55,-1.77,415,470,253,331,241
1430,0.45,0.9,0.21,3.85,2.44,-6.41,412,465,252,328,243
1431,0.43,0.89,0.21,0.18,-0.73,-5.43,415,463,249,328,241
1432,0.45,0.87,0.19,2.69,-4.94,0.12,415,464,249,328,241
1433,0.44,0.89,0.22,-0.85,-3.3,-1.95,413,468,253,332,242
1434,0.44,0.88,0.21,2.62,-3.72,-1.65,417,461,250,329,251
1435,0.43,0.86,0.22,1.4,-1.77,-3.78,415,470,251,333,245
1436,0.43,0.88,0.22,-0.06,-1.89,-3.05,417,464,256,333,245
1437,0.43,0.87,0.22,-2.26,-2.56,-3.48,415,464,256,334,245
1438,0.42,0.87,0.23,-0.06,-3.66,-0.98,417,465,253,335,245
1439,0.44,0.86,0.22,0.0,-2.2,-2.08,414,466,251,331,244
1440,0.44,0.87,0.23,-1.71,-3.91,-2.26,413,470,254,332,245
1441,0.44,0.88,0.23,-0.18,-3.66,-0.18,410,466,250,333,245
1442,0.44,0.88,0.23,1.59,-3.11,-3.17,422,464,255,333,245
1443,0.44,0.87,0.23,-1.4,-2.81,-2.69,414,465,255,335,247
1444,0.43,0.86,0.23,-0.43,-2.62,-1.95,414,465,253,333,247
1445,0.42,0.87,0.24,0.0,-1.1,-3.36,417,465,255,342,244
1446,0.45,0.86,0.23,0.98,-2.93,-1.89,413,465,256,337,248
1447,0.45,0.87,0.23,0.31,-2.75,-2.81,415,459,269,336,249
1448,0.44,0.87,0.23,-0.73,-2.81,-2.62,415,468,253,337,248
1449,0.45,0.87,0.22,-0.49,-2.99,-1.83,414,467,254,339,248
1450,0.44,0.87,0.23,0.49,-1.34,-3.72,415,467,256,336,248
1451,0.44,0.86,0.22,0.85,-3.78,-0.67,416,465,252,333,245
1452,0.44,0.86,0.22,-0.79,-3.66,-1.71,415,465,255,333,247
1453,0.43,0.87,0.23,-1.53,-2.99,-2.32,418,459,256,334,241
1454,0.46,0.87,0.22,0.0,-5.92,-2.5,419,461,254,337,244
1455,0.44,0.87,0.24,-1.16,-1.34,-3.72,415,460,256,333,245
1456,0.44,0.81,0.26,-34.91,20.94,-12.27,419,464,255,336,247
1457,0.39,0.79,0.38,-4.09,-0.79,0.37,415,463,254,336,247
1458,0.41,0.84,0.39,-0.85,-1.95,-2.26,415,465,255,336,245
1459,0.42,0.81,0.37,-3.78,-4.09,-1.95,414,469,256,333,242
1460,0.41,0.85,0.37,0.49,-4.03,-2.32,414,464,254,334,245
1461,0.4,0.84,0.37,-2.2,-1.65,-3.6,419,467,256,337,245
1462,0.43,0.85,0.37,1.04,-3.23,-1.16,415,465,257,334,246
1463,0.41,0.84,0.36,0.31,-2.87,-3.72,416,469,254,336,245
1464,0.42,0.83,0.35,0.73,-3.05,-1.83,419,467,255,336,245
1465,0.42,0.82,0.35,1.16,-3.11,-1.71,415,465,252,338,245
1466,0.42,0.82,0.33,-2.56,-1.89,-1.46,416,469,256,334,245
1467,0.43,0.82,0.35,0.55,-3.23,-1.89,421,460,257,328,247
1468,0.43,0.83,0.35,0.67,-3.6,-2.62,417,469,252,334,248
1469,0.43,0.83,0.35,-1.04,-4.21,-2.2,418,462,254,334,245
1470,0.43,0.84,0.35,4.39,-2.5,-0.67,415,470,254,333,247
1471,0.43,0.84,0.36,-0.37,-2.81,-2.08,417,465,256,334,248
1472,0.44,0.83,0.37,-0.79,-1.46,-4.7,416,465,256,330,245
1473,0.43,0.82,0.36,-1.53,-2.38,-3.3,416,465,258,335,246
1474,0.44,0.83,0.36,0.79,-3.42,-2.32,413,462,254,336,248
1475,0.44,0.83,0.35,0.85,-2.44,-2.5,417,466,253,335,245
1476,0.45,0.84,0.35,0.61,-4.09,-1.16,416,465,254,334,244
1477,0.44,0.83,0.35,1.4,-4.46,-1.59,415,464,257,334,246
1478,0.45,0.83,0.36,-0.92,-1.65,-2.56,416,465,249,336,246
1479,0.43,0.81,0.35,0.61,-3.91,-2.81,415,464,255,333,248
1480,0.46,0.84,0.36,-1.34,-4.39,2.14,414,468,255,336,249
1481,0.44,0.82,0.35,-0.43,-3.91,-2.99,418,465,255,334,246
1482,0.46,0.82,0.35,2.2,-2.75,-0.61,414,469,252,334,248
1483,0.45,0.84,0.35,0.49,-3.36,-2.32,418,476,257,336,245
1484,0.45,0.82,0.35,-0.06,-3.23,-2.5,420,465,256,335,249
1485,0.44,0.82,0.36,0.31,-3.11,-1.71,412,466,260,334,246
1486,0.45,0.82,0.36,-0.49,-2.26,-3.66,416,465,255,338,245
1487,0.44,0.82,0.36,0.31,-1.89,-2.08,415,469,254,335,249
1488,0.44,0.82,0.36,-0.73,-3.11,-1.95,416,460,256,337,248
1489,0.44,0.83,0.36,0.98,-0.92,-3.05,416,469,257,334,246
1490,0.45,0.81,0.36,-1.46,-3.72,-2.08,416,468,254,334,245
1491,0.46,0.83,0.36,0.37,-2.93,-2.99,419,464,252,334,246
1492,0.44,0.79,0.34,-4.09,-4.46,-1.04,415,465,253,333,248
1493,0.45,0.84,0.37,0.61,-2.08,-2.38,418,464,254,338,246
1494,0.48,0.82,0.37,-0.79,-3.72,-1.04,412,468,256,337,243
1495,0.45,0.82,0.37,1.16,-3.66,-2.01,414,465,254,335,245
1496,0.46,0.82,0.35,1.22,-4.88,-1.28,417,466,259,335,245
1497,0.44,0.81,0.36,-1.22,-2.38,-1.95,415,465,252,338,248
1498,0.47,0.83,0.36,1.04,-1.71,-0.79,414,465,257,335,247
1499,0.44,0.83,0.36,-3.3,-1.95,-2.87,416,468,255,335,244
1500,0.45,0.82,0.36,0.55,-2.99,-3.11,416,463,257,341,244
1501,0.45,0.82,0.34,-2.93,-2.75,-2.08,416,467,255,337,248
1502,0.44,0.84,0.36,0.31,-2.5,-2.69,411,468,266,335,245
1503,0.45,0.87,0.36,2.26,-3.6,-2.93,419,467,255,347,236
1504,0.46,0.83,0.34,-0.92,-3.42,-1.59,416,462,259,336,247
1505,0.46,0.81,0.32,0.55,-4.21,-1.59,420,465,257,336,247
1506,0.46,0.83,0.33,0.37,-3.91,-1.28,416,465,255,331,249
1507,0.46,0.82,0.33,2.14,-3.85,-1.28,418,466,256,338,246
1508,0.47,0.82,0.34,-0.37,-4.09,-0.61,412,461,254,336,245
1509,0.58,0.74,0.41,1.77,-2.26,-6.71,413,468,236,310,219
1510,0.58,0.74,0.39,2.93,1.77,-8.3,413,464,236,309,220
1511,0.53,0.73,0.41,-5.25,-5.68,-4.82,412,467,235,310,223
1512,0.57,0.75,0.39,2.44,-6.41,-1.83,412,459,238,312,228
1513,0.57,0.76,0.39,-1.59,-3.17,-4.39,416,465,238,309,220
1514,0.51,0.74,0.41,-1.16,-5.0,-1.1,413,464,238,310,219
1515,0.55,0.74,0.42,-4.21,-2.14,3.91,413,467,236,311,223
1516,0.59,0.76,0.39,7.45,-3.23,-2.81,413,465,236,309,223
1517,0.55,0.71,0.42,-4.15,-3.42,-0.98,414,465,238,312,226
1518,0.58,0.75,0.4,2.26,-2.93,-3.11,413,465,246,311,223
1519,0.52,0.69,0.44,-2.14,-0.61,-3.17,412,464,239,308,222
1520,0.5,0.77,0.46,7.81,1.71,-7.39,413,461,240,311,224
1521,0.5,0.71,0.44,2.08,-2.5,-1.28,417,459,240,309,225
1522,0.45,0.83,0.47,2.32,2.08,-2.87,414,471,237,305,224
1523,0.45,0.82,0.43,-3.48,-3.85,4.39,415,463,235,307,224
1524,0.46,0.83,0.42,4.52,-1.16,-3.05,414,460,239,312,224
1525,0.44,0.8,0.43,3.48,0.49,-2.62,414,465,240,308,228
1526,0.45,0.79,0.42,1.04,-6.35,1.16,413,469,241,311,226
1527,0.46,0.81,0.44,-0.61,-3.3,-2.08,412,466,242,315,228
1528,0.46,0.77,0.42,1.04,-3.42,-0.98,414,466,242,310,226
1529,0.46,0.79,0.42,-0.73,-1.95,-1.28,411,468,237,313,227
1530,0.46,0.77,0.42,-1.53,-2.81,-3.17,412,467,241,314,228
1531,0.48,0.77,0.41,1.16,-3.97,-2.01,415,466,240,315,229
1532,0.48,0.79,0.41,0.24,-1.4,-2.44,410,467,239,311,227
1533,0.47,0.79,0.42,-2.32,-2.69,-3.85,416,468,242,309,227
1534,0.47,0.8,0.43,-2.32,-2.08,-2.14,415,466,241,313,228
1535,0.46,0.77,0.42,1.71,-0.24,-4.09,415,467,243,310,227
1536,0.47,0.79,0.42,0.12,-2.2,-2.5,410,474,241,311,268
1537,0.46,0.79,0.43,1.34,-2.81,-3.17,415,473,239,314,226
1538,0.46,0.8,0.42,0.73,-2.5,-3.48,415,471,242,317,229
1539,0.48,0.79,0.42,1.65,-2.56,-3.42,416,468,241,310,229
1540,0.46,0.78,0.43,1.04,-1.4,-1.95,413,463,240,311,231
1541,0.47,0.79,0.43,-0.37,-3.36,-2.32,409,470,237,311,227
1542,0.45,0.78,0.42,2.14,-1.04,-2.81,412,467,247,312,229
1543,0.46,0.79,0.43,-1.04,-2.44,-4.21,413,465,240,312,231
1544,0.47,0.8,0.4,5.19,-2.75,-2.56,413,471,236,308,228
1545,0.47,0.77,0.4,2.14,-2.14,-2.32,414,464,237,309,234
1546,0.48,0.79,0.39,-0.12,-3.17,-1.22,414,465,240,309,226
1547,0.47,0.79,0.39,1.77,-3.17,-2.2,412,468,239,309,266
1548,0.48,0.79,0.39,2.44,-5.62,0.24,414,464,237,312,229
1549,0.48,0.78,0.39,-0.18,-5.0,1.71,417,467,237,308,226
1550,0.49,0.79,0.38,2.14,-5.19,-1.77,410,468,240,310,229
1551,0.48,0.79,0.39,0.61,-3.11,-1.89,414,467,239,311,228
1552,0.49,0.79,0.38,2.26,-2.62,-2.93,415,469,242,308,226
1553,0.49,0.8,0.39,0.43,-2.87,-2.32,416,468,238,312,229
1554,0.49,0.8,0.38,1.22,-2.26,-0.43,411,471,237,311,228
1555,0.49,0.8,0.39,0.31,-2.99,-4.46,417,471,238,311,227
1556,0.48,0.79,0.39,2.81,-3.42,-3.54,413,472,239,309,231
1557,0.47,0.8,0.38,4.03,-4.76,-2.01,412,470,237,310,228
1558,0.48,0.8,0.38,0.79,-4.09,-3.3,414,467,236,309,232
1559,0.49,0.79,0.37,1.28,-2.5,-1.22,416,466,237,312,231
1560,0.49,0.79,0.37,2.2,-2.56,-0.55,415,481,238,311,227
1561,0.49,0.78,0.38,1.28,-2.69,-2.99,414,462,238,310,229
1562,0.48,0.8,0.4,1.34,-2.01,-4.82,415,463,239,319,229
1563,0.49,0.8,0.38,0.31,-2.75,-1.71,412,470,241,308,225
1564,0.48,0.78,0.38,0.61,-2.81,-0.24,412,472,237,313,232
1565,0.49,0.8,0.38,2.75,-2.44,-2.81,414,469,238,312,231
1566,0.49,0.79,0.37,-0.31,-3.48,-3.11,411,467,238,311,229
1567,0.47,0.81,0.38,-1.65,-3.23,-4.58,416,470,240,312,233
1568,0.49,0.79,0.36,0.92,-4.09,-1.83,415,471,241,315,225
1569,0.5,0.81,0.36,-1.53,-4.03,-0.67,414,471,240,313,223
1570,0.5,0.8,0.37,3.66,-3.91,-2.32,411,468,244,315,228
1571,0.5,0.78,0.36,1.28,-2.44,-1.04,413,467,243,313,244
1572,0.5,0.78,0.37,2.26,-4.39,-1.4,415,466,243,313,231
1573,0.49,0.79,0.36,-2.08,-2.99,-2.93,412,471,239,313,231
1574,0.49,0.79,0.36,-1.22,-2.93,-3.66,415,470,240,317,227
1575,0.48,0.8,0.38,0.37,-2.2,-3.42,417,465,244,313,232
1576,0.49,0.77,0.37,-1.71,-2.44,-2.08,415,473,241,313,231
1577,0.46,0.79,0.36,-3.36,-4.82,-4.82,410,468,238,314,231
1578,0.49,0.79,0.36,-0.43,-3.05,-1.34,415,470,240,313,232
1579,0.49,0.8,0.37,0.61,-2.81,-2.81,415,468,245,317,229
1580,0.48,0.8,0.37,1.4,-1.28,-4.27,415,481,239,312,232
1581,0.49,0.8,0.37,1.89,-2.69,-3.11,411,473,246,317,231
1582,0.48,0.79,0.38,-0.12,-1.65,-3.23,415,468,243,314,230
1583,0.49,0.79,0.36,0.0,-2.44,-3.05,415,482,244,311,230
1584,0.5,0.8,0.37,-0.49,-3.6,-0.24,416,462,240,315,229
1585,0.49,0.78,0.36,-0.18,-2.81,-2.44,416,464,241,314,228
1586,0.5,0.79,0.38,-0.06,-3.23,-2.93,415,470,241,314,231
1587,0.46,0.79,0.37,-0.61,-2.38,-3.23,416,468,242,322,231
1588,0.49,0.79,0.39,2.26,-1.71,-4.33,414,469,241,314,226
1589,0.48,0.8,0.38,-0.79,-2.93,-2.44,412,463,241,312,234
1590,0.49,0.78,0.39,-0.06,-3.54,-2.01,414,473,242,312,234
1591,0.48,0.8,0.37,0.49,-4.21,-2.93,415,461,240,318,233
1592,0.48,0.79,0.38,-0.49,-1.71,-2.38,414,467,242,310,231
1593,0.48,0.79,0.37,-1.83,-2.44,-2.38,416,467,239,316,231
1594,0.49,0.81,0.38,-0.67,-2.69,-3.72,415,466,242,316,231
1595,0.46,0.8,0.39,-1.4,-0.67,-4.46,418,470,241,316,233
1596,0.44,0.84,0.37,-3.3,-16.24,-9.58,416,471,239,316,232
1597,0.46,0.8,0.4,-1.22,-11.84,-10.38,415,466,240,313,231
1598,0.45,0.77,0.38,-4.21,-1.71,5.19,417,467,245,315,231
1599,0.49,0.78,0.36,-0.12,3.66,5.98,417,464,244,317,234
1600,0.48,0.75,0.36,2.32,3.66,10.99,416,468,240,318,232
1601,0.47,0.82,0.42,-0.06,6.1,-2.75,412,468,242,316,230
1602,0.49,0.8,0.39,2.5,-4.27,-1.53,415,471,242,318,234
1603,0.44,0.78,0.42,1.4,-0.18,1.53,419,469,238,315,233
1604,0.49,0.77,0.4,-0.06,-4.82,-2.26,414,467,242,316,233
1605,0.48,0.78,0.4,0.79,-4.03,-2.62,416,468,241,316,233
1606,0.5,0.8,0.4,0.49,-1.53,-3.17,414,478,246,316,233
1607,0.5,0.8,0.41,2.32,-1.28,-2.81,419,467,243,318,251
1608,0.49,0.77,0.39,0.31,-2.08,-0.79,414,468,244,317,227
1609,0.5,0.78,0.39,0.24,-3.42,-2.14,417,468,244,316,232
1610,0.5,0.78,0.4,0.24,-3.6,-2.01,417,471,247,316,272
1611,0.51,0.78,0.39,-0.73,-3.23,-1.53,415,466,243,316,231
1612,0.5,0.78,0.39,1.28,-2.5,-3.91,416,469,240,319,241
1613,0.51,0.77,0.39,-1.16,-2.62,-2.56,416,467,243,316,235
1614,0.5,0.77,0.39,-0.18,-4.39,-3.72,417,463,243,317,233
1615,0.51,0.76,0.39,-0.31,-4.27,-0.37,418,463,241,317,233
1616,0.5,0.77,0.39,-1.04,-2.56,-1.89,416,464,241,318,231
1617,0.51,0.78,0.39,0.37,-4.03,-2.08,417,470,242,317,228
1618,0.52,0.78,0.39,-1.34,-3.97,-0.98,417,468,243,317,235
1619,0.52,0.78,0.39,-1.04,-3.91,-2.93,416,465,241,318,233
1620,0.49,0.78,0.4,-1.59,-0.98,-4.76,417,470,241,317,231
1621,0.49,0.78,0.39,0.06,-4.46,-2.93,417,466,245,320,231
1622,0.48,0.77,0.38,-0.31,-5.49,0.12,417,475,243,320,232
1623,0.51,0.78,0.4,-5.86,-10.68,-1.46,418,468,246,321,234
1624,0.47,0.71,0.4,-4.64,-2.26,14.34,416,467,245,320,234
1625,0.56,0.73,0.39,-3.72,-3.6,-1.53,416,467,249,317,237
1626,0.53,0.73,0.41,-3.05,-3.72,0.43,417,470,244,317,244
1627,0.55,0.77,0.43,0.43,-2.62,-3.72,417,471,246,317,234
1628,0.53,0.76,0.41,0.73,-3.11,1.1,419,474,243,317,233
1629,0.53,0.75,0.41,0.73,-4.58,-3.91,415,468,245,319,231
1630,0.52,0.73,0.4,-0.18,-3.36,-1.71,417,471,245,318,236
1631,0.53,0.77,0.4,2.2,0.73,-7.87,418,471,244,318,233
1632,0.54,0.77,0.42,3.23,-3.97,-2.32,416,478,243,322,236
1633,0.53,0.75,0.41,0.92,-2.26,-2.99,417,462,243,319,236
1634,0.54,0.75,0.4,1.1,-3.36,-1.83,418,466,245,321,234
1635,0.53,0.74,0.41,-2.2,-3.3,-2.44,417,473,245,318,237
1636,0.54,0.76,0.41,-2.26,-2.75,-1.34,413,471,245,319,234
1637,0.52,0.74,0.41,1.04,-3.78,-3.42,412,467,245,316,231
1638,0.52,0.76,0.41,-0.73,-2.44,-2.69,417,469,246,320,236
1639,0.53,0.74,0.41,-0.06,-4.46,-2.26,416,472,249,316,236
1640,0.52,0.76,0.41,-0.85,-1.28,-1.89,417,468,241,321,236
1641,0.51,0.76,0.42,1.83,-2.75,-4.46,418,467,244,319,235
1642,0.5,0.76,0.42,0.98,-1.22,-2.75,414,467,244,321,246
1643,0.53,0.76,0.41,2.56,-4.03,-1.95,417,462,246,324,237
1644,0.51,0.75,0.41,0.49,-2.81,-2.44,418,470,243,317,231
1645,0.51,0.75,0.41,0.55,-3.05,-1.77,419,471,244,327,234
1646,0.51,0.74,0.41,-1.22,-3.36,-2.44,417,467,244,322,230
1647,0.51,0.76,0.4,0.67,-2.93,-2.81,418,467,242,317,237
1648,0.52,0.74,0.4,0.0,-3.23,-2.32,413,468,245,325,233
1649,0.52,0.76,0.42,0.55,-1.83,-2.93,419,471,244,321,234
1650,0.51,0.76,0.42,0.49,-2.38,-3.05,418,469,246,319,233
1651,0.51,0.77,0.41,3.97,-1.46,-3.72,418,472,242,319,233
1652,0.5,0.74,0.4,0.85,-2.81,-2.93,419,467,245,319,230
1653,0.51,0.75,0.41,2.32,-2.87,-0.67,417,470,242,318,235
1654,0.51,0.77,0.42,0.55,-3.91,3.17,413,470,249,321,234
1655,0.53,0.75,0.39,0.49,-4.64,-1.95,416,467,243,320,234
1656,0.55,0.74,0.42,-1.83,0.12,1.16,416,470,243,318,235
1657,0.52,0.73,0.43,2.99,0.55,1.28,415,468,243,319,235
1658,0.54,0.73,0.42,1.4,-1.22,-2.93,420,463,260,322,234
1659,0.52,0.72,0.42,2.08,-1.95,-5.86,418,468,247,322,238
1660,0.53,0.78,0.41,0.24,-3.3,-0.85,414,464,244,320,235
1661,0.55,0.75,0.42,4.27,-4.46,0.06,419,463,246,319,235
1662,0.57,0.71,0.4,-2.5,-2.93,-0.85,419,468,247,320,237
1663,0.56,0.71,0.44,0.55,-5.0,-4.09,420,462,244,317,234
1664,0.55,0.73,0.43,0.49,-3.91,-4.39,418,464,244,317,230
1665,0.57,0.69,0.39,-0.79,-3.36,-0.18,418,462,246,323,237
1666,0.57,0.73,0.43,-2.75,-3.6,-5.37,417,468,250,323,235
1667,0.55,0.69,0.41,-1.16,-3.85,-2.32,418,464,243,322,245
1668,0.57,0.7,0.42,0.12,-2.5,-0.85,419,470,242,323,239
1669,0.59,0.68,0.43,4.39,-8.97,-8.61,416,463,247,326,238
1670,0.58,0.68,0.41,1.4,1.22,-4.46,416,474,245,323,236
1671,0.56,0.74,0.44,0.98,0.31,-4.58,417,466,245,320,237
1672,0.56,0.72,0.44,2.93,-0.37,-4.03,416,471,248,320,266
1673,0.55,0.74,0.45,1.59,-3.11,-2.99,418,468,248,321,236
1674,0.54,0.71,0.46,-1.04,-2.75,0.73,419,471,245,318,237
1675,0.55,0.71,0.45,-1.95,-2.87,-2.69,419,471,249,322,239
1676,0.58,0.71,0.44,0.43,-3.54,-2.87,418,467,249,326,236
1677,0.56,0.71,0.44,-0.73,1.04,-5.62,418,465,243,322,240
1678,0.57,0.7,0.47,-0.49,-4.58,-3.11,418,467,245,323,235
1679,0.55,0.7,0.46,3.23,-3.48,-2.38,418,471,248,323,242
1680,0.56,0.71,0.47,0.0,-3.48,-2.81,416,466,246,325,236
1681,0.54,0.71,0.44,-0.92,-0.61,-4.94,418,471,245,323,242
1682,0.52,0.71,0.47,-1.22,-2.87,-3.78,418,471,243,326,236
1683,0.55,0.72,0.47,0.85,-3.54,-2.5,420,470,261,324,239
1684,0.53,0.71,0.46,1.16,-2.14,-3.66,416,466,248,324,238
1685,0.53,0.72,0.46,0.12,-2.56,-2.38,419,461,246,325,236
1686,0.52,0.72,0.45,0.92,-4.21,-1.65,416,462,248,324,253
1687,0.56,0.73,0.45,4.64,-0.37,-3.23,418,482,248,323,233
1688,0.51,0.75,0.45,1.28,-3.72,-0.73,428,469,247,326,260
1689,0.51,0.71,0.44,-0.92,-3.05,-1.34,418,463,249,325,236
1690,0.53,0.75,0.45,2.62,-3.6,-6.04,415,467,247,320,236
1691,0.5,0.73,0.43,1.22,-2.93,-6.35,418,471,245,322,236
1692,0.5,0.75,0.45,0.31,-2.69,-2.44,417,471,246,326,236
1693,0.51,0.77,0.44,1.65,-1.83,-2.08,419,467,244,323,236
1694,0.5,0.76,0.42,1.77,-3.36,-3.11,418,466,246,329,237
1695,0.5,0.74,0.43,-1.22,-3.05,-1.28,419,470,256,324,237
1696,0.52,0.75,0.42,3.85,-4.21,-1.1,418,471,250,325,239
1697,0.51,0.75,0.41,3.17,-2.75,-3.48,420,471,251,323,237
1698,0.52,0.75,0.41,2.62,-2.26,-2.87,419,470,246,322,234
1699,0.5,0.77,0.41,1.22,-3.6,-4.7,418,467,247,323,238
1700,0.5,0.78,0.42,2.01,-2.69,-2.81,417,465,245,326,240
1701,0.5,0.77,0.42,0.67,-3.11,-2.81,418,471,256,324,239
1702,0.49,0.76,0.42,0.43,-4.46,-0.49,420,466,245,322,237
1703,0.51,0.77,0.41,0.43,-3.3,-1.16,416,468,247,326,237
1704,0.5,0.75,0.41,1.16,-4.52,-1.22,414,461,245,325,239
1705,0.51,0.77,0.4,2.5,-2.81,-2.93,413,470,246,323,237
1706,0.5,0.77,0.41,1.65,-2.32,-2.5,419,465,249,324,240
1707,0.5,0.78,0.41,0.24,-2.75,-2.56,418,466,249,320,239
1708,0.52,0.76,0.39,1.65,-3.66,-4.39,418,467,249,324,238
1709,0.5,0.78,0.41,0.18,-3.91,-3.05,417,470,247,324,238
1710,0.5,0.77,0.4,-1.77,-2.5,-1.95,419,466,257,326,240
1711,0.51,0.78,0.39,1.34,-1.71,-2.32,419,468,250,321,236
1712,0.5,0.78,0.41,-0.79,-2.38,-4.09,415,466,250,320,237
1713,0.49,0.75,0.41,0.61,-1.83,-2.81,418,469,247,323,237
1714,0.49,0.76,0.42,-1.28,-2.75,-2.99,418,465,248,326,239
1715,0.5,0.77,0.41,1.4,-1.95,-1.28,416,462,250,325,238
1716,0.5,0.78,0.42,0.85,-3.17,-1.95,419,472,248,323,237
1717,0.51,0.76,0.4,0.98,-3.97,-1.77,417,467,250,324,237
1718,0.51,0.76,0.4,0.24,-2.99,-2.08,418,465,250,324,237
1719,0.5,0.76,0.41,0.73,-4.39,-1.46,419,469,248,324,234
1720,0.51,0.76,0.41,1.46,-3.05,-2.44,414,465,245,324,237
1721,0.51,0.76,0.41,-0.37,-3.54,-2.56,418,469,245,326,240
1722,0.51,0.76,0.41,1.22,-4.03,-0.79,421,466,249,321,237
1723,0.51,0.75,0.42,-1.22,-3.3,-0.49,419,466,248,323,240
1724,0.51,0.77,0.43,2.93,-3.17,-2.87,417,463,247,326,240
1725,0.51,0.76,0.41,1.89,-3.48,-2.26,416,462,246,326,237
1726,0.49,0.77,0.41,1.22,-2.14,-2.2,418,462,247,324,239
1727,0.49,0.76,0.42,-0.67,-2.81,-2.99,418,465,247,324,240
1728,0.5,0.76,0.41,-0.24,-2.87,-4.27,418,470,248,324,233
1729,0.5,0.76,0.41,-2.26,-3.85,-1.71,418,467,247,324,237
1730,0.49,0.77,0.42,-0.73,-0.61,-4.33,413,466,243,324,238
1731,0.5,0.77,0.42,-0.18,-2.26,-2.81,420,463,247,324,237
1732,0.51,0.78,0.42,0.37,-2.93,-2.75,416,466,249,325,240
1733,0.51,0.76,0.41,-0.49,-2.44,-2.69,414,466,249,321,237
1734,0.5,0.76,0.41,-0.18,-3.05,-2.99,420,465,250,327,240
1735,0.5,0.76,0.41,-1.46,-2.75,-3.54,417,467,244,325,239
1736,0.51,0.75,0.42,-0.24,-2.08,-2.99,413,467,245,324,236
1737,0.52,0.76,0.41,1.28,-2.75,-4.46,414,465,246,324,240
1738,0.5,0.76,0.42,-0.24,-2.32,-2.87,418,467,250,325,242
1739,0.5,0.76,0.42,-0.31,-3.91,-3.36,418,470,246,324,238
1740,0.5,0.77,0.42,0.06,-2.01,-4.52,418,465,246,330,238
1741,0.5,0.78,0.42,1.4,-1.71,-2.81,421,461,246,324,239
1742,0.51,0.76,0.39,-0.67,-3.23,-3.05,415,470,245,324,238
1743,0.51,0.75,0.4,-6.47,-9.09,-4.88,418,470,248,326,239
1744,0.5,0.76,0.4,-1.89,-2.26,-1.65,419,470,247,324,239
1745,0.48,0.76,0.42,2.01,-5.19,-4.46,420,467,245,327,238
1746,0.51,0.76,0.41,4.21,-1.77,-5.13,417,464,247,324,237
1747,0.48,0.8,0.4,3.97,-2.56,-5.25,418,467,247,324,236
1748,0.47,0.8,0.4,0.79,-1.65,-3.78,418,469,244,326,236
1749,0.46,0.8,0.4,1.46,-4.09,-2.62,417,472,249,326,240
1750,0.46,0.79,0.38,1.22,-3.05,-2.26,418,470,253,326,239
1751,0.46,0.82,0.41,0.24,-0.49,-3.17,417,466,248,325,240
1752,0.47,0.78,0.39,0.73,-1.28,-4.21,419,466,249,325,238
1753,0.46,0.79,0.4,-1.89,-2.32,-2.01,416,465,246,327,250
1754,0.5,0.81,0.43,-0.98,-0.24,-1.65,419,461,246,324,237
1755,0.5,0.79,0.41,-0.06,-0.55,-0.92,416,466,250,325,237
1756,0.48,0.8,0.44,-0.67,-1.4,-3.05,417,469,245,324,241
1757,0.5,0.8,0.44,0.79,-4.7,-2.2,417,466,250,324,237
1758,0.46,0.75,0.42,1.04,-2.93,-3.85,417,467,249,324,237
1759,0.47,0.78,0.43,3.42,-1.89,-1.22,417,469,250,341,241
1760,0.46,0.8,0.42,0.79,-3.97,-2.93,417,466,249,327,238
1761,0.49,0.77,0.42,-0.06,-3.66,-2.08,414,464,249,326,239
1762,0.48,0.79,0.42,1.89,-2.56,-2.62,420,464,247,326,237
1763,0.48,0.77,0.42,-0.06,-2.69,-2.62,417,467,248,323,240
1764,0.48,0.79,0.42,0.61,-3.17,-2.81,419,465,248,327,239
1765,0.48,0.77,0.41,0.12,-3.05,-2.01,420,467,249,332,253
1766,0.5,0.76,0.41,1.46,-3.48,-2.44,419,465,253,325,242
1767,0.49,0.77,0.41,0.31,-3.05,-2.32,418,470,249,325,237
1768,0.49,0.77,0.42,1.28,-2.32,-4.33,417,466,248,325,238
1769,0.49,0.77,0.42,-0.43,-2.01,-3.17,418,467,248,324,238
1770,0.49,0.77,0.41,-0.98,-2.69,-2.32,417,470,244,326,238
1771,0.49,0.78,0.42,0.06,-2.44,-3.17,417,466,251,324,229
1772,0.49,0.76,0.41,0.43,-2.26,-2.81,425,464,247,329,238
1773,0.49,0.78,0.4,-1.65,-3.05,-2.08,418,470,250,325,237
1774,0.48,0.79,0.41,-3.17,-3.54,-3.23,417,464,246,321,241
1775,0.48,0.78,0.42,0.12,-3.54,-1.83,418,462,246,327,235
1776,0.48,0.77,0.42,-0.55,-1.71,-0.92,418,467,247,328,251
1777,0.49,0.78,0.42,0.37,-3.17,-2.32,417,465,248,325,239
1778,0.48,0.77,0.41,0.92,-2.08,-1.83,418,465,251,322,240
1779,0.49,0.76,0.42,0.67,-2.5,-2.5,414,470,250,326,237
1780,0.48,0.77,0.42,0.06,-3.36,-2.38,419,461,251,326,238
1781,0.48,0.75,0.4,3.23,-0.31,-5.92,418,470,247,329,238
1782,0.49,0.78,0.42,0.73,-3.11,-2.87,418,465,249,328,237
1783,0.47,0.76,0.42,-0.98,-0.37,0.24,418,461,249,328,238
1784,0.5,0.72,0.4,1.59,-3.17,-4.03,421,463,249,324,240
1785,0.51,0.79,0.43,0.55,-2.14,-2.38,417,460,251,326,246
1786,0.49,0.75,0.41,1.89,-2.08,-4.03,418,475,245,327,237
1787,0.5,0.76,0.42,-0.43,-3.05,-1.71,415,466,247,328,238
1788,0.51,0.75,0.42,-1.28,-3.3,-1.28,418,461,248,324,237
1789,0.49,0.75,0.42,-0.67,-2.01,-3.36,418,470,251,326,233
1790,0.48,0.76,0.43,0.67,-3.85,-2.5,417,470,246,328,239
1791,0.5,0.74,0.42,-0.43,-4.21,-2.32,415,460,248,322,240
1792,0.5,0.75,0.41,-1.77,-2.75,-3.72,417,462,244,326,237
1793,0.5,0.76,0.42,-6.29,-3.85,-1.1,418,468,246,325,239
1794,0.51,0.75,0.44,-2.38,-3.3,-1.46,420,470,251,331,235
1795,0.49,0.76,0.43,-0.55,-4.64,-1.59,419,466,249,325,240
1796,0.5,0.78,0.44,1.89,-4.27,-1.53,418,466,247,327,233
1797,0.49,0.77,0.45,1.71,-1.59,-4.94,418,464,252,325,238
1798,0.5,0.78,0.45,1.28,-3.66,-2.38,417,460,249,327,238
1799,0.48,0.76,0.42,3.97,-6.71,0.55,418,461,249,327,238
1800,0.59,0.73,0.42,-13.49,-0.92,-14.71,420,465,248,328,238
1801,0.46,0.79,0.49,8.97,6.53,-22.71,418,469,249,327,240
1802,0.45,0.81,0.42,8.48,4.64,-9.03,418,468,251,330,241
1803,0.47,0.8,0.36,12.15,-0.18,-2.38,416,461,253,328,241
1804,0.43,0.81,0.39,2.56,-2.5,2.2,415,467,253,327,236
1805,0.45,0.8,0.38,-2.01,1.34,0.0,413,465,252,330,240
1806,0.44,0.84,0.4,5.25,-1.89,-10.31,417,469,252,328,238
1807,0.46,0.81,0.4,4.82,-3.48,-1.89,418,473,246,329,238
1808,0.42,0.81,0.4,-1.22,2.93,-4.27,418,469,253,328,240
1809,0.44,0.79,0.43,-1.77,6.41,0.49,417,461,250,330,241
1810,0.45,0.78,0.4,1.71,-1.04,-1.53,418,466,252,326,238
1811,0.43,0.8,0.41,2.01,-3.42,-4.39,417,464,252,329,241
1812,0.45,0.76,0.41,-1.1,-4.88,-1.1,415,466,251,330,239
1813,0.46,0.84,0.45,3.17,0.31,-3.11,415,467,251,331,240
1814,0.45,0.79,0.44,0.92,-1.95,-4.33,416,461,250,325,239
1815,0.47,0.79,0.4,4.09,-4.27,-1.59,417,471,249,327,238
1816,0.48,0.81,0.42,2.81,-4.82,-5.55,417,469,256,328,238
1817,0.46,0.8,0.42,0.12,-3.36,-2.26,420,464,252,327,238
1818,0.44,0.8,0.41,5.92,-1.1,-3.78,416,467,251,328,241
1819,0.43,0.8,0.43,0.85,-2.32,-4.09,417,476,249,328,238
1820,0.44,0.81,0.41,3.72,-2.81,-2.26,413,465,251,338,241
1821,0.47,0.81,0.4,4.82,-8.54,4.58,417,472,250,331,238
1822,0.44,0.81,0.42,-1.4,-3.6,-4.64,417,462,259,328,238
1823,0.45,0.79,0.41,1.65,-5.07,-3.36,417,464,255,333,238
1824,0.44,0.8,0.41,2.87,-2.99,-4.52,418,467,252,342,238
1825,0.41,0.81,0.4,-1.95,-10.68,-8.67,417,470,250,331,239
1826,0.45,0.79,0.4,-1.65,-2.93,-2.14,417,466,253,330,241
1827,0.45,0.8,0.41,0.92,-3.17,-0.55,418,464,251,327,240
1828,0.43,0.79,0.41,-0.49,-4.58,-0.85,417,468,256,325,239
1829,0.44,0.8,0.41,0.67,-2.75,-2.69,417,466,250,333,252
1830,0.44,0.8,0.41,-0.18,-2.99,-3.97,417,467,248,328,241
1831,0.44,0.82,0.42,1.16,-2.93,-2.26,417,465,253,331,236
1832,0.42,0.81,0.41,0.0,-3.97,-1.89,418,460,253,327,239
1833,0.42,0.81,0.41,-0.79,-2.62,-2.14,418,460,251,330,239
1834,0.43,0.82,0.41,-0.43,-2.08,-2.32,419,464,248,328,239
1835,0.42,0.82,0.43,-1.4,-4.03,-1.53,417,463,252,329,240
1836,0.44,0.79,0.4,-0.12,-4.21,-0.18,416,463,251,329,247
1837,0.43,0.81,0.41,1.4,-2.38,-3.72,418,466,264,332,243
1838,0.44,0.82,0.42,2.14,-2.5,-3.48,415,468,253,327,241
1839,0.43,0.81,0.41,0.37,-2.5,-2.69,417,465,249,324,238
1840,0.42,0.83,0.41,-1.22,-2.99,-2.32,418,468,247,329,238
1841,0.43,0.82,0.4,0.43,-4.33,-1.16,417,468,248,322,238
1842,0.43,0.81,0.39,0.55,-3.23,-2.62,413,469,248,327,236
1843,0.44,0.8,0.39,2.26,-1.71,-3.3,418,469,243,322,238
1844,0.45,0.81,0.4,3.54,-3.17,-2.2,417,465,249,325,236
1845,0.43,0.83,0.4,-0.85,-2.87,-2.75,417,468,248,329,234
1846,0.42,0.81,0.4,-0.31,-1.77,-3.66,416,467,246,324,240
1847,0.42,0.82,0.4,-0.12,-2.08,-2.75,419,466,246,324,239
1848,0.44,0.81,0.41,0.55,-3.48,-2.2,407,469,248,331,239
1849,0.43,0.81,0.4,0.43,-1.53,-3.91,412,461,243,327,241
1850,0.42,0.82,0.42,-2.2,-0.98,-1.89,417,465,251,324,241
1851,0.42,0.81,0.4,3.3,-5.98,-0.73,419,466,244,328,252
1852,0.44,0.78,0.38,-1.89,-3.42,1.77,415,461,250,326,240
1853,0.43,0.8,0.41,-0.92,-2.69,-3.66,415,465,245,325,240
1854,0.42,0.83,0.43,0.43,-1.1,-0.98,419,468,247,327,242
1855,0.46,0.84,0.39,1.22,-4.88,-4.09,417,470,246,325,238
1856,0.42,0.8,0.39,1.71,-3.17,-1.71,415,468,250,322,239
1857,0.44,0.81,0.39,0.79,-2.32,-1.65,415,466,248,324,239
1858,0.44,0.81,0.41,0.49,-3.11,-2.56,415,466,248,325,240
1859,0.44,0.8,0.39,1.34,-2.38,-1.16,417,460,250,325,238
1860,0.45,0.83,0.41,-2.01,-4.94,2.93,419,473,245,328,241
1861,0.45,0.79,0.4,-0.49,-4.21,-2.38,420,465,251,326,240
1862,0.44,0.8,0.41,-3.3,-5.74,-0.49,417,466,250,325,244
1863,0.45,0.79,0.41,2.2,-3.66,-1.04,418,463,249,334,241
1864,0.43,0.79,0.43,0.92,-2.14,-3.23,416,465,250,325,239
1865,0.45,0.79,0.4,-0.12,-4.64,-0.18,419,466,251,326,240
1866,0.46,0.81,0.42,1.04,-3.6,-3.05,419,468,251,327,240
1867,0.44,0.79,0.41,1.16,-2.32,-3.17,418,460,248,331,241
1868,0.45,0.8,0.42,1.4,-1.65,-3.72,417,468,251,329,239
1869,0.46,0.81,0.42,1.1,-3.3,-2.56,417,464,251,326,241
1870,0.44,0.79,0.41,0.55,-2.69,-1.34,417,470,249,324,240
1871,0.44,0.8,0.42,-0.55,-2.2,-3.05,416,470,249,324,239
1872,0.44,0.79,0.43,0.06,-1.28,-2.56,420,470,256,335,241
1873,0.45,0.8,0.42,0.98,-2.14,-2.44,418,467,250,326,238
1874,0.44,0.79,0.41,2.26,-3.17,-2.26,418,465,247,327,237
1875,0.44,0.79,0.43,-0.92,-3.48,-1.46,420,468,251,324,239
1876,0.46,0.81,0.43,0.49,-3.05,-2.99,412,467,245,330,240
1877,0.44,0.79,0.43,0.79,-1.77,-2.56,420,464,255,329,240
1878,0.41,0.78,0.41,0.37,-0.18,-5.49,416,465,250,328,242
1879,0.45,0.79,0.41,0.31,-2.5,-2.75,417,469,249,327,245
1880,0.44,0.79,0.42,-1.89,-3.23,-2.26,417,468,252,329,241
1881,0.44,0.78,0.42,0.06,-2.93,-2.14,415,466,252,328,240
1882,0.44,0.8,0.42,-0.31,-2.32,-2.56,418,466,261,328,242
1883,0.45,0.8,0.42,1.28,-3.11,-2.14,417,469,249,331,238
1884,0.44,0.81,0.43,0.31,-2.87,-2.69,416,464,257,327,242
1885,0.45,0.79,0.42,-0.31,-3.17,-2.14,417,466,253,329,240
1886,0.45,0.81,0.42,1.34,-2.62,-2.75,417,470,252,327,240
1887,0.45,0.8,0.41,-1.34,-4.52,-1.89,420,463,253,325,239
1888,0.44,0.78,0.42,-0.24,-3.48,-1.83,419,465,252,328,244
1889,0.46,0.77,0.42,-0.37,-2.38,-3.97,414,467,251,328,242
1890,0.45,0.79,0.43,0.98,-2.93,-1.83,418,460,252,328,244
1891,0.47,0.78,0.43,0.06,-3.66,-2.99,416,462,252,324,237
1892,0.45,0.79,0.43,2.38,-3.23,-2.81,417,472,251,329,240
1893,0.45,0.79,0.42,1.22,-1.95,-2.69,414,466,253,325,242
1894,0.46,0.82,0.43,1.95,-1.71,-1.65,417,464,250,328,241
1895,0.44,0.79,0.42,-2.75,-2.81,-1.89,420,466,252,327,241
1896,0.45,0.78,0.42,-0.24,-3.23,-0.67,415,466,253,327,240
1897,0.47,0.79,0.42,-0.79,-4.21,-0.43,419,481,251,331,240
1898,0.47,0.79,0.43,0.85,-3.36,-2.2,418,460,251,328,240
1899,0.46,0.78,0.42,-0.18,-2.62,-2.75,413,464,249,329,241
1900,0.47,0.79,0.43,1.22,-3.6,-2.2,416,464,253,325,239
1901,0.46,0.77,0.42,-0.73,-1.34,-3.36,420,469,251,326,252
1902,0.45,0.78,0.42,2.5,-1.95,-3.23,413,470,252,327,239
1903,0.47,0.79,0.43,-2.26,-3.66,-0.67,417,465,249,327,240
1904,0.47,0.8,0.43,1.83,-2.99,-2.56,417,466,253,332,239
1905,0.45,0.79,0.43,0.49,-2.26,-2.38,418,463,251,329,240
1906,0.46,0.78,0.42,2.14,-2.14,-3.36,417,466,251,329,241
1907,0.47,0.79,0.42,-0.61,-3.6,-1.89,418,469,248,329,240
1908,0.47,0.81,0.43,0.73,-3.54,-3.05,414,469,251,331,237
1909,0.45,0.78,0.41,4.64,-2.38,-3.17,425,465,248,325,242
1910,0.45,0.78,0.41,-0.73,-1.83,-2.75,417,467,250,331,242
1911,0.46,0.8,0.42,1.04,-3.23,-3.11,418,464,251,327,237
1912,0.47,0.8,0.43,0.92,-2.69,-2.26,419,467,250,330,243
1913,0.46,0.79,0.42,0.24,-3.48,-2.38,415,465,253,326,240
1914,0.47,0.8,0.42,0.24,-2.44,-3.72,417,464,250,331,241
1915,0.47,0.78,0.43,0.43,-2.69,-3.6,418,474,249,326,240
1916,0.45,0.77,0.41,0.37,-1.89,-2.87,417,462,253,329,238
1917,0.45,0.78,0.42,0.79,-4.03,-1.34,417,464,252,326,242
1918,0.45,0.79,0.43,-1.53,-2.87,-2.62,413,465,253,329,242
1919,0.46,0.77,0.41,0.49,-2.38,-3.6,414,466,254,329,238
1920,0.45,0.79,0.42,-1.04,-2.44,-2.01,417,464,254,329,243
1921,0.45,0.79,0.42,-2.26,-2.62,-1.59,418,468,254,333,241
1922,0.46,0.8,0.44,-0.73,-2.26,-3.42,414,464,251,330,241
1923,0.44,0.8,0.43,1.95,-1.77,-4.39,418,466,251,332,240
1924,0.44,0.8,0.42,2.99,-5.98,-0.24,417,466,254,327,241
1925,0.41,0.78,0.45,-0.85,2.69,-2.08,415,466,249,333,240
1926,0.44,0.79,0.42,0.92,-1.53,-3.42,416,466,251,327,241
1927,0.44,0.81,0.41,1.95,-3.6,-4.82,419,466,252,329,242
1928,0.42,0.81,0.42,-1.28,-1.16,-3.36,415,464,254,332,241
1929,0.41,0.79,0.41,-1.59,-0.61,-6.04,423,464,251,328,240
1930,0.36,0.79,0.36,25.57,-4.88,-8.67,415,461,252,328,241
1931,0.39,0.92,0.22,-7.69,-1.77,2.87,414,468,252,329,237
1932,0.44,0.88,0.2,-2.62,-0.55,-1.77,415,470,253,331,241
1933,0.45,0.9,0.21,3.85,2.44,-6.41,412,465,252,328,243
1934,0.43,0.89,0.21,0.18,-0.73,-5.43,415,463,249,328,241
1935,0.45,0.87,0.19,2.69,-4.94,0.12,415,464,249,328,241
1936,0.44,0.89,0.22,-0.85,-3.3,-1.95,413,468,253,332,242
1937,0.44,0.88,0.21,2.62,-3.72,-1.65,417,461,250,329,251
1938,0.43,0.86,0.22,1.4,-1.77,-3.78,415,470,251,333,245
1939,0.43,0.88,0.22,-0.06,-1.89,-3.05,417,464,256,333,245
1940,0.43,0.87,0.22,-2.26,-2.56,-3.48,415,464,256,334,245
1941,0.42,0.87,0.23,-0.06,-3.66,-0.98,417,465,253,335,245
1942,0.44,0.86,0.22,0.0,-2.2,-2.08,414,466,251,331,244
1943,0.44,0.87,0.23,-1.71,-3.91,-2.26,413,470,254,332,245
1944,0.44,0.88,0.23,-0.18,-3.66,-0.18,410,466,250,333,245
1945,0.44,0.88,0.23,1.59,-3.11,-3.17,422,464,255,333,245
1946,0.44,0.87,0.23,-1.4,-2.81,-2.69,414,465,255,335,247
1947,0.43,0.86,0.23,-0.43,-2.62,-1.95,414,465,253,333,247
1948,0.42,0.87,0.24,0.0,-1.1,-3.36,417,465,255,342,244
1949,0.45,0.86,0.23,0.98,-2.93,-1.89,413,465,256,337,248
1950,0.45,0.87,0.23,0.31,-2.75,-2.81,415,459,269,336,249
1951,0.44,0.87,0.23,-0.73,-2.81,-2.62,415,468,253,337,248
1952,0.45,0.87,0.22,-0.49,-2.99,-1.83,414,467,254,339,248
1953,0.44,0.87,0.23,0.49,-1.34,-3.72,415,467,256,336,248
1954,0.44,0.86,0.22,0.85,-3.78,-0.67,416,465,252,333,245
1955,0.44,0.86,0.22,-0.79,-3.66,-1.71,415,465,255,333,247
1956,0.43,0.87,0.23,-1.53,-2.99,-2.32,418,459,256,334,241
1957,0.46,0.87,0.22,0.0,-5.92,-2.5,419,461,254,337,244
1958,0.44,0.87,0.24,-1.16,-1.34,-3.72,415,460,256,333,245
1959,0.44,0.81,0.26,-34.91,20.94,-12.27,419,464,255,336,247
1960,0.39,0.79,0.38,-4.09,-0.79,0.37,415,463,254,336,247
1961,0.41,0.84,0.39,-0.85,-1.95,-2.26,415,465,255,336,245
1962,0.42,0.81,0.37,-3.78,-4.09,-1.95,414,469,256,333,242
1963,0.41,0.85,0.37,0.49,-4.03,-2.32,414,464,254,334,245
1964,0.4,0.84,0.37,-2.2,-1.65,-3.6,419,467,256,337,245
1965,0.43,0.85,0.37,1.04,-3.23,-1.16,415,465,257,334,246
1966,0.41,0.84,0.36,0.31,-2.87,-3.72,416,469,254,336,245
1967,0.42,0.83,0.35,0.73,-3.05,-1.83,419,467,255,336,245
1968,0.42,0.82,0.35,1.16,-3.11,-1.71,415,465,252,338,245
1969,0.42,0.82,0.33,-2.56,-1.89,-1.46,416,469,256,334,245
1970,0.43,0.82,0.35,0.55,-3.23,-1.89,421,460,257,328,247
1971,0.43,0.83,0.35,0.67,-3.6,-2.62,417,469,252,334,248
1972,0.43,0.83,0.35,-1.04,-4.21,-2.2,418,462,254,334,245
1973,0.43,0.84,0.35,4.39,-2.5,-0.67,415,470,254,333,247
1974,0.43,0.84,0.36,-0.37,-2.81,-2.08,417,465,256,334,248
1975,0.44,0.83,0.37,-0.79,-1.46,-4.7,416,465,256,330,245
1976,0.43,0.82,0.36,-1.53,-2.38,-3.3,416,465,258,335,246
1977,0.44,0.83,0.36,0.79,-3.42,-2.32,413,462,254,336,248
1978,0.44,0.83,0.35,0.85,-2.44,-2.5,417,466,253,335,245
1979,0.45,0.84,0.35,0.61,-4.09,-1.16,416,465,254,334,244
1980,0.44,0.83,0.35,1.4,-4.46,-1.59,415,464,257,334,246
1981,0.45,0.83,0.36,-0.92,-1.65,-2.56,416,465,249,336,246
1982,0.43,0.81,0.35,0.61,-3.91,-2.81,415,464,255,333,248
1983,0.46,0.84,0.36,-1.34,-4.39,2.14,414,468,255,336,249
1984,0.44,0.82,0.35,-0.43,-3.91,-2.99,418,465,255,334,246
1985,0.46,0.82,0.35,2.2,-2.75,-0.61,414,469,252,334,248
1986,0.45,0.84,0.35,0.49,-3.36,-2.32,418,476,257,336,245
1987,0.45,0.82,0.35,-0.06,-3.23,-2.5,420,465,256,335,249
1988,0.44,0.82,0.36,0.31,-3.11,-1.71,412,466,260,334,246
1989,0.45,0.82,0.36,-0.49,-2.26,-3.66,416,465,255,338,245
1990,0.44,0.82,0.36,0.31,-1.89,-2.08,415,469,254,335,249
1991,0.44,0.82,0.36,-0.73,-3.11,-1.95,416,460,256,337,248
1992,0.44,0.83,0.36,0.98,-0.92,-3.05,416,469,257,334,246
1993,0.45,0.81,0.36,-1.46,-3.72,-2.08,416,468,254,334,245
1994,0.46,0.83,0.36,0.37,-2.93,-2.99,419,464,252,334,246
1995,0.44,0.79,0.34,-4.09,-4.46,-1.04,415,465,253,333,248
1996,0.45,0.84,0.37,0.61,-2.08,-2.38,418,464,254,338,246
1997,0.48,0.82,0.37,-0.79,-3.72,-1.04,412,468,256,337,243
1998,0.45,0.82,0.37,1.16,-3.66,-2.01,414,465,254,335,245
1999,0.46,0.82,0.35,1.22,-4.88,-1.28,417,466,259,335,245
2000,0.44,0.81,0.36,-1.22,-2.38,-1.95,415,465,252,338,248
2001,0.47,0.83,0.36,1.04,-1.71,-0.79,414,465,257,335,247
2002,0.44,0.83,0.36,-3.3,-1.95,-2.87,416,468,255,335,244
2003,0.45,0.82,0.36,0.55,-2.99,-3.11,416,463,257,341,244
2004,0.45,0.82,0.34,-2.93,-2.75,-2.08,416,467,255,337,248
2005,0.44,0.84,0.36,0.31,-2.5,-2.69,411,468,266,335,245
2006,0.45,0.87,0.36,2.26,-3.6,-2.93,419,467,255,347,236
2007,0.46,0.83,0.34,-0.92,-3.42,-1.59,416,462,259,336,247
2008,0.46,0.81,0.32,0.55,-4.21,-1.59,420,465,257,336,247
2009,0.46,0.83,0.33,0.37,-3.91,-1.28,416,465,255,331,249
2010,0.46,0.82,0.33,2.14,-3.85,-1.28,418,466,256,338,246
2011,0.47,0.82,0.34,-0.37,-4.09,-0.61,412,461,254,336,245
