,aX,aY,aZ,gX,gY,gZ,little,ring,middle,index,thumb
0,0.93,-0.28,0.28,0.67,-2.81,-1.95,340,454,415,493,223
1,0.93,-0.29,0.28,0.73,-2.32,-2.08,336,450,414,502,226
2,0.91,-0.3,0.28,1.28,-2.56,-2.44,350,452,414,493,223
3,0.93,-0.29,0.28,0.92,-2.69,-3.23,336,449,413,493,223
4,0.92,-0.3,0.28,0.0,-1.89,-2.99,338,448,418,491,223
5,0.92,-0.29,0.29,0.85,-3.36,-2.69,335,452,415,490,225
6,0.92,-0.28,0.29,0.06,-2.99,-2.99,341,455,416,490,224
7,0.92,-0.29,0.29,1.34,-3.97,-2.56,339,449,416,493,227
8,0.93,-0.28,0.29,1.65,-2.99,-1.71,337,447,412,493,225
9,0.92,-0.29,0.28,1.04,-2.44,-2.32,339,450,419,490,226
10,0.94,-0.28,0.28,-0.98,-2.56,0.49,338,443,414,488,226
11,0.95,-0.28,0.28,3.97,-3.6,-5.8,339,451,412,497,216
12,0.9,-0.28,0.29,1.77,-4.94,-4.88,338,448,413,492,228
13,0.91,-0.28,0.29,-4.64,-3.23,-1.71,340,457,414,492,229
14,0.93,-0.26,0.29,0.55,-2.08,-1.04,340,447,414,495,229
15,0.91,-0.28,0.29,-0.92,-3.36,-1.95,338,452,413,488,231
16,0.94,-0.27,0.28,-0.85,-5.07,-2.26,338,460,414,490,224
17,0.94,-0.25,0.29,0.79,-2.08,-0.85,341,450,413,488,229
18,0.93,-0.26,0.3,2.93,-6.16,-3.42,340,452,412,487,226
19,0.92,-0.27,0.29,-2.75,-3.66,-2.5,336,448,412,488,230
20,0.91,-0.26,0.3,-0.49,-1.46,-2.99,340,448,412,488,228
21,0.92,-0.28,0.25,3.66,1.53,-6.47,336,445,414,487,228
22,0.89,-0.29,0.27,-2.62,-1.1,2.26,340,448,409,487,230
23,0.94,-0.27,0.28,-3.54,-3.72,-4.21,338,448,412,483,226
24,0.96,-0.23,0.3,-0.24,-0.73,-0.73,341,442,415,486,233
25,0.94,-0.25,0.28,0.55,-1.71,0.0,335,447,413,483,232
26,0.92,-0.28,0.29,-1.77,-1.65,-1.53,338,444,412,494,255
27,0.92,-0.27,0.29,0.06,-2.14,-2.08,339,448,412,488,227
28,0.92,-0.27,0.3,1.46,-3.48,-2.26,341,449,414,486,233
29,0.92,-0.27,0.3,0.24,-2.87,-2.69,338,452,412,485,232
30,0.91,-0.29,0.28,-0.12,-2.75,-1.95,339,449,412,488,234
31,0.92,-0.29,0.29,2.08,-1.65,-2.99,342,448,415,489,233
32,0.93,-0.28,0.3,1.71,-2.56,-3.91,337,447,414,486,229
33,0.92,-0.29,0.3,0.24,-1.89,-2.99,340,452,409,489,239
34,0.92,-0.28,0.32,0.0,-1.22,-2.44,340,451,412,480,234
35,0.91,-0.28,0.33,0.43,-0.92,-0.79,340,457,410,486,230
36,0.89,-0.32,0.32,2.69,-2.38,-1.65,340,452,411,486,233
37,0.89,-0.32,0.32,-3.42,-2.69,1.71,340,452,411,482,235
38,0.91,-0.3,0.33,2.2,-2.62,-2.62,339,448,411,486,235
39,0.9,-0.3,0.35,-0.06,-1.53,-1.59,340,449,413,486,230
40,0.91,-0.29,0.35,5.07,-2.32,-3.6,343,448,410,487,236
41,0.9,-0.28,0.36,0.0,-3.48,-2.38,337,452,413,484,231
42,0.9,-0.28,0.36,1.28,-3.72,-3.05,340,445,410,484,230
43,0.91,-0.28,0.36,1.28,-3.05,-3.54,342,450,413,486,235
44,0.9,-0.29,0.35,1.34,-2.93,-0.79,341,450,410,482,234
45,0.89,-0.3,0.34,0.31,-3.23,-1.95,341,454,413,485,224
46,0.9,-0.3,0.35,0.73,-1.65,-1.46,336,449,415,486,237
47,0.9,-0.29,0.35,0.31,-1.65,-1.59,339,454,412,484,231
48,0.91,-0.29,0.35,-0.24,-3.23,-2.87,336,453,413,486,235
49,0.89,-0.3,0.35,1.28,-3.78,-2.81,339,448,409,483,229
50,0.9,-0.29,0.35,1.46,-3.11,-2.99,343,455,413,484,234
51,0.9,-0.29,0.35,0.18,-3.54,-2.56,336,446,412,485,236
52,0.9,-0.29,0.35,1.77,-2.5,-2.38,340,449,415,483,237
53,0.9,-0.29,0.35,3.3,-2.5,-2.75,340,446,413,483,234
54,0.89,-0.3,0.35,-1.22,-1.28,-0.24,339,451,416,482,235
55,0.89,-0.3,0.36,-0.73,-2.81,-3.11,340,450,411,482,238
56,0.89,-0.3,0.35,0.37,-3.36,-1.77,341,451,415,486,238
57,0.9,-0.3,0.36,1.77,-2.81,-1.83,341,450,411,485,239
58,0.91,-0.28,0.36,0.73,-2.5,-2.93,342,448,413,484,235
59,0.9,-0.29,0.36,0.18,-3.11,-2.32,341,449,423,490,258
60,0.89,-0.29,0.36,2.44,-4.33,-3.36,339,450,413,485,236
61,0.89,-0.31,0.35,-1.83,-2.81,-1.28,338,451,409,483,235
62,0.89,-0.3,0.36,-0.24,-2.99,-1.59,342,445,409,489,233
63,0.9,-0.3,0.36,-1.83,-2.75,-3.05,347,451,411,484,239
64,0.9,-0.29,0.36,-0.24,-2.75,-3.42,340,450,410,484,236
65,0.89,-0.29,0.36,-0.18,-2.56,-2.75,338,450,409,483,237
66,0.89,-0.3,0.36,0.49,-3.3,-2.56,341,455,411,482,236
67,0.94,-0.29,0.36,0.67,-3.42,-2.08,336,454,412,484,237
68,0.91,-0.29,0.36,-0.37,-2.87,-2.32,340,449,412,480,239
69,0.89,-0.29,0.37,1.4,-3.78,-2.14,339,453,409,485,238
70,0.88,-0.29,0.38,-0.61,-0.31,-3.17,340,446,412,492,236
71,0.88,-0.31,0.36,1.46,-2.62,-2.5,342,450,412,484,236
72,0.9,-0.3,0.36,-0.24,-2.75,-3.17,340,457,409,482,236
73,0.89,-0.3,0.36,0.43,-3.3,-2.99,340,451,410,486,240
74,0.9,-0.3,0.36,-0.31,-4.52,-1.89,344,451,411,483,238
75,0.91,-0.3,0.35,0.24,-3.17,-2.93,341,454,410,488,238
76,0.89,-0.3,0.36,0.55,-2.99,-3.11,339,450,413,481,239
77,0.88,-0.29,0.38,-0.12,-3.05,-2.99,341,452,407,483,230
78,0.89,-0.29,0.37,-2.5,-3.78,-5.19,340,454,408,486,242
79,0.89,-0.29,0.37,0.31,-2.62,-3.91,342,454,412,486,234
80,0.88,-0.29,0.36,-2.01,-2.93,-2.93,341,452,412,481,238
81,0.9,-0.28,0.38,2.87,-0.18,-2.2,342,457,410,483,274
82,0.87,-0.31,0.37,1.71,-1.46,-1.34,338,445,409,479,237
83,0.92,-0.3,0.36,2.08,-0.85,-1.59,340,445,406,480,237
84,0.91,-0.28,0.39,-0.61,-0.79,-3.85,341,446,409,484,236
85,0.9,-0.31,0.37,2.99,-1.4,-2.75,340,450,408,482,234
86,0.9,-0.31,0.37,2.62,-1.46,-2.44,341,445,407,486,234
87,0.87,-0.31,0.37,-0.37,-3.05,-1.22,340,449,410,485,231
88,0.88,-0.3,0.37,0.0,-2.87,-2.69,336,450,409,482,233
89,0.88,-0.31,0.37,0.37,-3.85,-2.99,337,451,407,484,233
90,0.89,-0.3,0.38,3.66,-2.26,-0.61,336,450,412,484,224
91,0.88,-0.31,0.38,-0.37,-3.54,-2.93,340,452,413,483,235
92,0.87,-0.31,0.37,-0.06,-2.69,-2.5,339,443,412,481,232
93,0.86,-0.32,0.38,-0.43,-2.93,-3.11,342,453,408,484,235
94,0.89,-0.31,0.37,0.06,-3.54,-3.17,341,453,411,484,234
95,0.88,-0.3,0.37,0.43,-2.01,-3.3,341,448,409,482,233
96,0.89,-0.3,0.38,1.4,-3.23,-2.2,342,449,413,486,232
97,0.89,-0.3,0.38,0.0,-2.75,-2.93,340,453,409,484,236
98,0.88,-0.31,0.37,0.92,-2.87,-2.99,341,449,411,483,239
99,0.88,-0.3,0.38,1.53,-2.38,-2.75,339,450,413,478,233
100,0.89,-0.3,0.38,0.31,-2.87,-2.5,347,445,412,484,235
101,0.89,-0.29,0.39,0.67,-3.17,-2.87,343,445,418,478,234
102,0.88,-0.29,0.38,0.67,-3.23,-1.65,342,451,405,485,240
103,0.88,-0.3,0.37,1.53,-2.5,-1.1,338,446,407,485,236
104,0.89,-0.29,0.38,-0.12,-2.75,-2.32,342,449,408,482,236
105,0.88,-0.3,0.37,0.73,-3.3,-2.14,340,450,412,480,224
106,0.9,-0.29,0.38,0.49,-2.62,-2.69,351,449,412,479,235
107,0.9,-0.28,0.38,0.98,-2.87,-3.23,341,449,409,483,234
108,0.89,-0.28,0.39,-1.53,-2.99,-3.11,342,450,421,479,234
109,0.89,-0.28,0.38,0.79,-2.87,-2.38,340,450,405,480,234
110,0.89,-0.28,0.38,1.22,-2.62,-2.26,340,444,405,476,237
111,0.89,-0.28,0.38,0.12,-3.3,-2.99,340,449,409,481,234
112,0.9,-0.27,0.38,1.59,-3.78,-2.14,340,451,410,481,234
113,0.9,-0.28,0.37,0.73,-3.42,-2.32,341,453,411,481,229
114,0.9,-0.27,0.38,1.16,-3.05,-3.23,338,450,409,478,238
115,0.9,-0.27,0.38,0.43,-2.32,-2.69,340,455,407,483,237
116,0.88,-0.27,0.38,-0.12,-3.05,-2.69,347,445,411,481,235
117,0.9,-0.27,0.38,0.98,-2.5,-2.87,341,452,409,481,238
118,0.89,-0.27,0.39,-1.4,-3.17,-2.01,341,461,409,482,235
119,0.89,-0.28,0.38,0.98,-2.69,-1.83,341,450,412,480,237
120,0.89,-0.27,0.38,-0.67,-2.81,-1.65,347,450,409,480,235
121,0.89,-0.28,0.38,-0.79,-3.11,-2.2,340,451,408,480,237
122,0.9,-0.27,0.38,0.55,-3.17,-2.75,340,456,411,480,236
123,0.9,-0.26,0.38,-1.04,-3.11,-2.56,344,444,410,483,233
124,0.9,-0.26,0.39,1.1,-3.72,-3.54,341,447,411,482,235
125,0.91,-0.26,0.38,0.43,-3.05,-2.32,342,454,412,479,235
126,0.89,-0.27,0.38,-0.43,-2.93,-1.89,341,451,410,477,233
127,0.89,-0.27,0.38,-0.24,-2.99,-1.89,341,454,413,479,238
128,0.89,-0.27,0.38,1.71,-3.48,-2.75,340,451,408,480,236
129,0.9,-0.26,0.39,0.31,-3.72,-2.62,340,450,408,482,236
130,0.89,-0.27,0.38,0.24,-2.56,-2.87,342,450,411,482,247
131,0.88,-0.28,0.38,-1.1,-3.54,-2.75,340,454,410,476,239
132,0.89,-0.26,0.38,0.55,-2.44,-3.48,341,448,407,479,236
133,0.89,-0.27,0.38,0.24,-2.14,-2.56,339,450,411,477,236
134,0.9,-0.26,0.38,0.61,-3.97,-3.6,340,444,409,480,236
135,0.9,-0.26,0.37,0.49,-5.74,-1.95,340,449,405,478,240
136,0.9,-0.26,0.37,0.61,-3.54,-2.81,339,453,404,480,234
137,0.89,-0.26,0.37,0.61,-2.81,-3.42,340,449,408,480,244
138,0.91,-0.26,0.38,-0.79,-2.2,-2.14,340,455,409,482,238
139,0.9,-0.27,0.37,1.28,-2.62,-2.87,341,455,408,480,238
140,0.91,-0.26,0.38,1.04,-1.28,-2.14,341,445,411,482,238
141,0.89,-0.28,0.37,-2.38,-2.69,-3.05,341,450,408,478,242
142,0.9,-0.26,0.37,0.12,-2.38,-2.2,338,450,411,479,234
143,0.9,-0.26,0.38,1.46,-2.69,-2.62,341,451,409,480,235
144,0.9,-0.26,0.38,0.06,-2.93,-2.14,339,450,405,477,235
145,0.9,-0.26,0.38,1.1,-3.05,-3.11,340,452,408,481,236
146,0.9,-0.26,0.38,-0.06,-2.26,-3.23,339,450,408,479,236
147,0.9,-0.25,0.39,1.22,-2.81,-2.32,337,455,409,479,238
148,0.9,-0.27,0.37,1.16,-3.66,-2.26,351,445,410,478,233
149,0.9,-0.26,0.38,-0.55,-3.66,-2.75,342,451,408,480,233
150,0.91,-0.25,0.39,0.55,-2.81,-3.17,334,453,412,478,238
151,0.9,-0.26,0.38,-0.37,-3.54,-2.75,343,450,410,477,237
152,0.91,-0.25,0.38,1.46,-2.01,-3.11,342,452,408,482,236
153,0.9,-0.26,0.39,0.55,-1.89,-1.83,341,452,408,480,238
154,0.89,-0.26,0.4,1.53,-3.91,-3.23,342,448,402,475,236
155,0.9,-0.24,0.4,0.12,-3.36,-0.73,340,452,406,478,236
156,0.88,-0.26,0.41,1.34,-3.3,-2.26,341,456,410,473,237
157,0.9,-0.27,0.38,0.61,-2.62,-2.69,338,451,407,481,234
158,0.86,-0.29,0.39,-0.55,-3.42,-3.36,341,451,409,482,240
159,0.88,-0.27,0.39,1.22,-4.33,-2.75,341,454,414,479,245
160,0.92,-0.26,0.37,2.62,-2.69,-1.28,341,451,405,478,237
161,0.89,-0.28,0.39,-0.12,-1.83,-2.38,341,447,407,476,236
162,0.88,-0.28,0.39,-1.22,-3.23,-3.78,341,453,407,478,237
163,0.88,-0.28,0.38,0.79,-2.2,-1.16,342,451,408,480,237
164,0.88,-0.29,0.39,0.0,-2.69,-2.14,343,452,409,479,234
165,0.88,-0.27,0.4,0.06,-2.14,-2.01,344,451,408,476,237
166,0.9,-0.27,0.4,1.1,-3.54,-1.1,337,452,409,476,240
167,0.9,-0.27,0.39,1.59,-4.39,-0.92,344,452,420,483,235
168,0.87,-0.29,0.39,0.18,-1.34,-2.2,340,451,408,478,236
169,0.87,-0.29,0.39,0.37,-3.17,-1.77,338,454,410,495,237
170,0.85,-0.31,0.38,2.01,-2.81,-3.54,342,451,410,477,236
171,0.86,-0.29,0.39,-0.18,-2.62,-2.2,340,452,411,474,240
172,0.9,-0.28,0.4,0.98,-2.62,-3.66,338,446,407,480,236
173,0.91,-0.27,0.38,4.09,-3.72,-5.86,342,451,407,481,241
174,0.9,-0.24,0.41,-0.06,-3.54,-1.1,341,455,411,477,238
175,0.9,-0.28,0.37,-0.79,-1.89,-1.59,339,450,407,475,237
176,0.9,-0.28,0.38,-7.32,-2.08,-0.43,342,455,409,478,241
177,0.87,-0.3,0.38,-1.4,-2.93,-2.01,342,455,408,475,239
178,0.87,-0.3,0.38,-0.31,-2.32,-3.42,339,467,406,478,260
179,0.89,-0.29,0.38,0.06,-2.81,-2.62,339,454,410,477,240
180,0.9,-0.28,0.38,-0.43,-1.95,-2.08,344,456,407,480,241
181,0.89,-0.29,0.38,0.79,-4.15,-4.15,341,454,406,476,238
182,0.86,-0.3,0.37,0.37,-3.3,-2.32,343,454,409,478,238
183,0.89,-0.3,0.37,-0.92,-2.2,-2.32,340,452,408,478,236
184,0.91,-0.26,0.41,0.73,-1.89,-2.93,342,453,407,479,238
185,0.89,-0.28,0.39,1.65,-4.09,-3.66,344,453,408,478,241
186,0.89,-0.29,0.38,0.0,-3.85,-2.69,341,450,410,478,238
187,0.9,-0.28,0.38,1.59,-2.75,-2.62,339,454,410,477,240
188,0.89,-0.29,0.38,-0.31,-2.62,-2.56,338,447,407,476,242
189,0.87,-0.3,0.38,0.55,-2.93,-1.77,342,453,407,477,242
190,0.89,-0.29,0.38,2.69,-1.89,-2.62,342,452,411,478,239
191,0.89,-0.28,0.4,4.58,-2.99,-3.6,338,453,408,479,239
192,0.89,-0.28,0.4,-1.16,-3.11,-2.99,343,457,409,479,241
193,0.87,-0.3,0.38,0.24,-2.69,-2.75,341,454,412,478,240
194,0.88,-0.28,0.39,0.79,-3.91,-1.34,343,451,403,476,243
195,0.89,-0.29,0.39,0.12,-2.93,-2.62,339,455,409,478,241
196,0.88,-0.28,0.4,-1.1,-2.08,-2.87,342,452,407,480,242
197,0.89,-0.27,0.4,-0.06,-2.56,-2.62,342,454,408,476,238
198,0.88,-0.28,0.39,1.59,-2.32,-3.17,344,451,411,478,242
199,0.88,-0.29,0.39,-0.06,-3.05,-3.6,339,453,412,477,238
200,0.88,-0.29,0.39,0.85,-2.93,-2.5,339,447,404,480,241
201,0.89,-0.28,0.39,0.98,-3.05,-2.81,342,452,408,475,245
202,0.9,-0.27,0.4,1.46,-2.81,-3.85,342,451,408,477,243
203,0.88,-0.28,0.4,0.61,-2.99,-2.56,343,452,407,480,244
204,0.89,-0.27,0.39,1.1,-2.99,-3.6,342,452,405,474,244
205,0.88,-0.27,0.4,1.28,-1.59,-2.56,343,451,406,477,240
206,0.89,-0.27,0.39,0.55,-2.93,-2.26,342,448,412,485,243
207,0.9,-0.27,0.38,1.77,-2.56,-2.87,345,452,409,477,242
208,0.89,-0.27,0.4,0.61,-3.11,-2.01,338,456,406,474,242
209,0.89,-0.27,0.39,0.73,-3.11,-2.44,343,448,411,482,242
210,0.89,-0.26,0.4,1.04,-2.32,-3.11,342,452,409,477,241
211,0.89,-0.26,0.4,1.53,-3.36,-3.3,341,456,410,475,244
212,0.89,-0.26,0.4,-0.55,-3.3,-3.05,343,453,409,477,244
213,0.89,-0.26,0.41,-0.06,-2.69,-2.2,342,452,410,475,241
214,0.89,-0.27,0.39,0.06,-2.75,-2.08,341,452,409,477,244
215,0.89,-0.26,0.4,-0.18,-2.69,-2.93,341,452,413,478,242
216,0.89,-0.28,0.39,-0.31,-2.75,-1.89,343,451,409,477,243
217,0.89,-0.28,0.38,1.59,-2.08,-4.39,341,447,407,476,242
218,0.89,-0.26,0.4,0.0,-2.87,-3.36,342,456,411,475,242
219,0.87,-0.27,0.41,0.49,-2.99,-2.38,341,447,411,476,242
220,0.87,-0.27,0.41,0.92,-3.05,-2.87,342,456,405,479,245
221,0.91,-0.26,0.4,0.73,-3.66,-1.59,343,447,411,479,254
222,0.89,-0.26,0.41,0.92,-2.81,-2.32,334,454,407,479,244
223,0.88,-0.27,0.39,1.65,-3.36,-2.56,342,464,411,473,242
224,0.87,-0.28,0.39,2.14,-2.62,-2.62,342,453,411,479,244
225,0.89,-0.26,0.41,-4.39,-1.53,2.01,342,452,406,477,243
226,0.87,-0.28,0.41,-2.01,-4.64,-0.67,338,453,408,477,243
227,0.87,-0.28,0.41,0.37,-2.93,-2.38,341,452,411,476,244
228,0.87,-0.29,0.4,-0.24,-3.23,-2.26,342,451,407,476,242
229,0.88,-0.28,0.4,-0.37,-3.48,-1.1,344,454,408,476,242
230,0.88,-0.27,0.41,1.1,-2.87,-1.83,345,457,412,480,241
231,0.88,-0.28,0.41,-0.67,-1.77,-1.59,345,453,409,475,244
232,0.87,-0.29,0.4,-0.06,-3.23,-3.36,343,449,409,475,240
233,0.89,-0.28,0.4,2.01,-3.42,-3.66,342,449,412,477,242
234,0.86,-0.29,0.42,1.53,-3.66,-1.46,339,447,411,475,246
235,0.87,-0.28,0.41,-1.28,-3.11,-1.89,342,455,408,476,242
236,0.88,-0.28,0.41,0.12,-2.62,-1.46,343,453,411,477,242
237,0.86,-0.28,0.42,0.18,-3.42,-1.28,345,453,408,475,240
238,0.87,-0.28,0.41,1.04,-2.81,-2.38,345,451,404,472,243
239,0.87,-0.29,0.41,1.22,-3.54,-2.87,341,453,410,475,243
240,0.88,-0.29,0.4,-0.18,-2.69,-2.93,341,452,407,474,244
241,0.87,-0.28,0.41,0.06,-2.99,-3.23,342,452,409,475,245
242,0.89,-0.27,0.41,2.5,-3.3,-2.56,339,454,404,476,240
243,0.89,-0.28,0.4,-4.03,-2.56,-1.04,342,447,408,472,245
244,0.88,-0.3,0.39,0.24,-4.94,-2.44,343,453,408,479,243
245,0.85,-0.29,0.42,-2.01,-2.81,-1.89,341,451,404,479,245
246,0.86,-0.29,0.4,-0.37,-3.54,-3.85,343,454,408,476,238
247,0.89,-0.26,0.42,-0.37,-3.17,-2.08,344,456,409,475,244
248,0.9,-0.27,0.41,-0.67,-3.11,-2.5,343,453,406,477,244
249,0.88,-0.28,0.41,-0.06,-3.36,-1.77,340,449,411,472,245
250,0.89,-0.28,0.4,1.16,-3.36,-2.2,340,452,411,478,242
251,0.88,-0.3,0.38,-1.28,-2.08,-3.11,342,452,407,475,244
252,0.88,-0.28,0.41,-0.61,-3.3,-1.95,340,447,410,476,244
253,0.88,-0.27,0.41,-1.95,-4.46,-4.88,342,451,407,477,242
254,0.89,-0.27,0.4,-0.31,-4.21,-4.58,344,451,404,475,244
255,0.9,-0.27,0.39,0.98,-3.97,-2.93,342,450,409,478,243
256,0.88,-0.27,0.39,0.61,-3.54,-2.99,342,453,410,477,243
257,0.9,-0.27,0.39,-0.67,-2.26,-3.72,342,455,407,475,238
258,0.89,-0.25,0.4,1.16,-3.23,-2.62,343,452,410,477,242
259,0.88,-0.27,0.39,0.79,-3.11,-3.23,344,454,409,475,242
260,0.92,-0.26,0.38,0.92,-2.81,-1.46,342,452,413,474,242
261,0.9,-0.26,0.39,0.79,-2.69,-2.5,339,448,411,477,242
262,0.9,-0.26,0.39,-0.67,-3.17,-3.97,338,458,410,477,240
263,0.9,-0.25,0.4,2.81,-3.42,-2.32,342,448,409,474,237
264,0.92,-0.23,0.41,0.61,-3.48,-3.78,344,454,408,476,243
265,0.89,-0.25,0.39,-0.85,-2.5,-2.44,342,453,413,477,241
266,0.89,-0.25,0.4,1.1,-2.93,-2.44,344,453,410,478,254
267,0.9,-0.25,0.39,0.85,-2.75,-2.5,345,454,404,476,243
268,0.89,-0.25,0.39,1.1,-2.75,-3.66,354,453,413,476,242
269,0.9,-0.25,0.4,0.92,-3.36,-3.05,344,455,411,474,239
270,0.89,-0.25,0.39,1.59,-2.81,-2.75,342,457,411,473,246
271,0.9,-0.25,0.39,-0.06,-3.6,-3.3,342,453,420,474,243
272,0.88,-0.27,0.38,-0.37,-2.56,-1.59,342,453,408,471,242
273,0.89,-0.25,0.39,0.37,-3.17,-2.62,342,449,421,476,244
274,0.89,-0.25,0.4,0.85,-3.11,-2.38,340,449,404,471,241
275,0.89,-0.25,0.39,-0.61,-3.36,-2.14,344,452,417,477,245
276,0.9,-0.25,0.4,-1.04,-2.75,-2.32,340,453,409,474,245
277,0.88,-0.25,0.39,0.0,-3.05,-2.81,342,457,411,474,244
278,0.89,-0.25,0.39,1.04,-2.99,-2.26,341,453,410,474,244
279,0.9,-0.24,0.4,1.16,-3.42,-2.75,346,448,409,475,243
280,0.91,-0.24,0.4,0.55,-2.99,-2.14,348,449,409,485,245
281,0.9,-0.24,0.39,0.18,-2.93,-2.93,343,448,409,474,246
282,0.9,-0.24,0.4,0.98,-3.36,-2.69,342,449,412,473,235
283,0.9,-0.24,0.4,0.67,-3.66,-1.83,343,453,409,475,244
284,0.9,-0.24,0.4,0.67,-3.23,-1.89,342,449,411,477,237
285,0.88,-0.25,0.4,-0.12,-2.75,-2.32,342,454,412,473,242
286,0.93,-0.23,0.41,-2.14,-1.34,-1.53,342,449,411,474,245
287,0.91,-0.25,0.4,0.98,-2.99,-2.44,340,453,409,476,244
288,0.9,-0.26,0.38,2.38,-3.05,-3.6,342,453,410,476,243
289,0.87,-0.26,0.4,-1.04,-2.87,-1.71,345,449,408,477,243
290,0.88,-0.26,0.37,-0.92,-7.45,-6.84,343,453,411,474,241
291,0.94,-0.24,0.32,7.02,-0.24,-7.32,342,449,409,474,244
292,0.92,-0.21,0.36,0.67,-2.62,-2.56,342,453,410,477,245
293,0.94,-0.22,0.34,0.67,-3.23,-4.33,338,455,407,476,240
294,0.92,-0.21,0.34,2.38,-2.32,-3.72,342,455,412,473,241
295,0.94,-0.19,0.36,-1.34,-0.31,1.04,344,452,409,474,240
296,0.91,-0.25,0.34,-4.88,-3.97,1.77,341,453,408,475,241
297,0.96,-0.23,0.35,-1.65,-10.25,-2.69,344,455,406,474,239
298,0.9,-0.32,0.27,-4.52,-7.32,-2.08,342,446,406,475,240
299,0.87,-0.32,0.26,1.1,-10.44,-1.89,341,451,404,471,237
300,0.97,-0.25,0.26,-1.4,-4.33,-4.33,339,455,406,470,253
301,0.95,-0.25,0.28,3.11,-7.2,-2.14,340,453,410,474,235
302,0.92,-0.29,0.26,1.77,-1.34,-5.62,344,452,409,491,234
303,0.96,-0.22,0.29,-4.21,-1.89,-5.49,342,449,405,472,245
304,0.95,-0.19,0.31,-0.67,-6.47,-5.37,344,447,410,477,242
305,0.96,-0.2,0.29,2.93,-4.09,-3.72,341,452,403,476,235
306,0.94,-0.23,0.27,2.2,-1.1,-2.75,345,452,408,473,236
307,0.96,-0.2,0.29,1.46,-2.5,-1.95,344,453,408,473,235
308,0.95,-0.2,0.28,-1.46,-2.01,-2.62,342,457,406,471,244
309,0.95,-0.21,0.28,2.81,-3.72,-3.17,338,453,408,475,237
310,0.94,-0.21,0.28,4.76,-4.46,-5.13,340,456,408,473,242
311,0.96,-0.19,0.29,1.34,-4.94,-3.91,345,457,405,472,236
312,0.94,-0.2,0.28,0.67,-2.99,-2.26,342,454,407,476,238
313,0.96,-0.19,0.29,1.04,-2.44,-3.17,341,453,409,471,236
314,0.96,-0.18,0.29,0.73,-3.85,-3.05,345,452,405,469,240
315,0.95,-0.19,0.29,1.89,-2.62,-1.4,346,456,409,474,247
316,0.95,-0.2,0.28,0.55,-2.99,-3.42,342,455,405,471,237
317,0.93,-0.2,0.29,0.18,-4.03,-3.66,341,447,406,473,238
318,0.95,-0.19,0.28,1.22,-2.38,-2.87,342,451,407,475,239
319,0.95,-0.18,0.28,1.71,-2.62,-3.11,343,452,407,472,239
320,0.94,-0.18,0.29,-0.55,-2.87,-1.83,339,452,402,469,234
321,0.94,-0.19,0.29,0.61,-2.99,-3.3,342,453,405,472,236
322,0.94,-0.18,0.29,1.83,-3.66,-1.95,342,451,406,472,236
323,0.93,-0.19,0.29,1.16,-2.81,-1.22,339,453,408,470,234
324,0.95,-0.19,0.29,-0.31,-3.3,-2.44,343,448,406,471,237
325,0.95,-0.18,0.29,0.31,-3.17,-3.48,343,456,404,473,235
326,0.94,-0.18,0.29,2.26,-2.44,-1.89,340,453,408,474,236
327,0.95,-0.18,0.29,2.75,-3.3,-2.44,341,456,408,471,239
328,0.94,-0.18,0.3,-0.49,-3.85,-3.11,342,456,402,474,237
329,0.95,-0.18,0.28,1.4,-3.72,-1.65,341,458,407,472,236
330,0.95,-0.18,0.29,0.31,-3.85,-3.3,342,452,409,474,237
331,0.95,-0.17,0.29,0.31,-1.95,-2.44,343,452,406,472,236
332,0.97,-0.18,0.27,3.11,-3.36,-2.56,342,452,404,472,238
333,0.94,-0.19,0.28,0.92,-3.05,-2.56,344,453,409,469,239
334,0.94,-0.19,0.29,0.85,-3.23,-1.53,342,453,408,481,239
335,0.94,-0.19,0.29,1.71,-2.69,-4.09,342,448,407,475,236
336,0.95,-0.18,0.29,2.93,-1.95,-2.81,343,455,403,475,238
337,0.95,-0.17,0.3,0.61,-3.23,-2.69,340,454,405,473,237
338,0.94,-0.18,0.29,0.12,-2.99,-2.93,343,452,408,472,240
339,0.95,-0.18,0.3,0.31,-3.54,-2.56,342,452,407,472,239
340,0.95,-0.18,0.29,0.67,-3.42,-2.32,343,450,409,472,240
341,0.94,-0.18,0.29,0.61,-3.05,-1.89,343,452,410,473,236
342,0.95,-0.18,0.29,0.06,-2.93,-1.83,344,451,409,471,241
343,0.94,-0.17,0.31,1.77,-2.2,-1.83,342,453,406,475,237
344,0.94,-0.17,0.3,-0.73,-2.14,-2.2,342,451,407,476,239
345,0.96,-0.17,0.29,0.85,-4.15,-1.83,341,455,404,470,237
346,0.95,-0.18,0.29,2.08,-3.85,-0.79,342,451,406,472,240
347,0.95,-0.18,0.29,-2.14,-2.26,-1.16,344,450,405,472,239
348,0.94,-0.18,0.29,-1.4,-2.75,-2.62,342,454,406,470,241
349,0.96,-0.16,0.3,-0.12,-4.03,-3.05,343,453,403,471,238
350,0.95,-0.17,0.29,1.65,-3.3,-2.2,345,448,407,474,239
351,0.96,-0.17,0.29,-1.34,-3.66,-1.4,343,449,409,476,238
352,0.94,-0.18,0.29,-0.18,-3.6,-1.4,346,451,408,472,238
353,0.95,-0.17,0.29,1.28,-0.31,-3.48,339,449,405,473,240
354,0.95,-0.17,0.3,1.77,-2.62,-3.3,343,449,408,471,236
355,0.95,-0.18,0.29,0.98,-1.1,-2.44,343,446,405,474,240
356,0.96,-0.17,0.29,2.08,-3.54,-3.3,340,453,406,471,239
357,0.95,-0.17,0.29,2.01,-2.01,-2.69,339,456,408,473,239
358,0.94,-0.17,0.29,-0.12,-3.11,-2.93,342,457,404,475,238
359,0.95,-0.17,0.29,0.55,-4.39,-2.5,341,447,407,472,238
360,0.96,-0.17,0.29,0.85,-2.14,-3.11,338,453,406,469,241
361,0.95,-0.17,0.29,-1.46,-1.53,-2.14,341,462,405,472,238
362,0.94,-0.17,0.29,1.28,-2.87,-2.5,342,452,409,471,241
363,0.95,-0.17,0.3,1.46,-2.87,-2.5,342,455,408,468,240
364,0.95,-0.17,0.29,0.31,-3.3,-2.93,341,453,402,471,239
365,0.95,-0.16,0.29,0.06,-2.75,-2.62,340,457,406,477,238
366,0.95,-0.17,0.29,0.43,-2.93,-1.65,341,458,404,471,240
367,0.95,-0.17,0.29,0.92,-2.32,-3.17,343,452,406,468,239
368,0.95,-0.16,0.3,0.67,-2.93,-2.2,339,451,406,472,238
369,0.95,-0.17,0.29,-0.73,-2.99,-3.48,343,453,405,470,240
370,0.95,-0.17,0.29,0.06,-2.75,-2.56,341,456,415,474,239
371,0.95,-0.16,0.29,0.24,-3.11,-1.95,335,452,408,473,238
372,0.95,-0.17,0.3,1.1,-3.78,-2.44,337,454,408,468,238
373,0.95,-0.17,0.29,-0.24,-2.56,-1.22,339,453,406,467,268
374,0.95,-0.17,0.29,0.0,-2.56,-1.77,337,453,408,473,237
375,0.95,-0.17,0.29,0.98,-1.77,-2.75,342,452,403,467,237
376,0.94,-0.17,0.29,1.71,-2.81,-3.54,339,448,422,479,236
377,0.97,-0.14,0.32,2.5,-3.05,-2.81,338,457,406,470,235
378,0.95,-0.17,0.29,0.06,-2.08,-2.08,340,452,405,474,236
379,0.94,-0.17,0.3,0.18,-2.32,-2.56,341,456,404,473,236
380,0.94,-0.17,0.3,-0.18,-3.91,-2.08,339,452,403,472,236
381,0.96,-0.17,0.29,-0.49,-2.93,-1.89,341,454,409,471,238
382,0.94,-0.17,0.29,-0.49,-3.91,-3.3,341,457,407,471,241
383,0.95,-0.17,0.29,-0.43,-2.38,-0.67,342,454,406,471,236
384,0.95,-0.19,0.26,-0.49,-1.77,-1.53,343,450,405,468,243
385,0.95,-0.19,0.29,-1.4,-1.1,-0.43,342,460,408,474,235
386,0.94,-0.21,0.29,-0.24,-3.48,-0.24,343,457,407,471,237
387,0.92,-0.23,0.28,1.77,-3.85,-1.4,340,454,406,477,236
388,0.94,-0.22,0.29,1.71,-1.77,-2.56,338,452,406,468,236
389,0.94,-0.22,0.3,-0.37,-1.59,-3.54,338,455,405,471,235
390,0.94,-0.22,0.3,-0.85,-1.95,-2.62,336,457,412,473,235
391,0.93,-0.22,0.3,0.06,-2.08,-2.69,341,454,409,468,238
392,0.92,-0.23,0.3,-0.49,-2.44,-2.87,340,449,407,468,233
393,0.93,-0.21,0.32,1.53,-4.46,-3.23,339,459,408,469,234
394,0.93,-0.21,0.31,0.24,-1.77,-3.48,340,451,406,471,235
395,0.94,-0.21,0.31,0.49,-3.6,-2.32,338,459,406,471,237
396,0.93,-0.22,0.31,-0.12,-3.66,-2.69,340,454,418,474,237
397,0.92,-0.22,0.31,-0.12,-2.75,-1.83,338,458,405,473,235
398,0.9,-0.23,0.3,-0.06,-2.81,-1.65,341,460,404,471,238
399,0.97,-0.19,0.31,2.99,-4.94,-4.33,341,454,406,469,235
400,0.93,-0.19,0.32,-14.95,-3.23,-3.97,344,457,404,468,238
401,0.94,-0.21,0.31,1.1,-3.66,-3.6,343,460,411,472,234
402,0.93,-0.2,0.32,-1.89,-3.72,-2.44,341,454,403,471,253
403,0.91,-0.22,0.3,-1.95,-4.27,-1.1,338,457,405,474,236
404,0.94,-0.2,0.32,-1.53,-5.19,-2.38,342,451,403,473,235
405,0.94,-0.21,0.31,-1.1,-3.54,-3.23,342,456,403,473,238
406,0.93,-0.2,0.31,1.28,-1.95,-1.22,341,457,409,471,237
407,0.95,-0.2,0.31,0.18,-2.81,-4.82,340,456,403,471,236
408,0.94,-0.2,0.31,-0.55,-2.87,-3.05,336,454,406,471,237
409,0.93,-0.2,0.31,-0.49,-2.69,-1.04,342,458,406,471,234
410,0.94,-0.2,0.31,2.01,-3.48,-4.46,342,456,404,469,237
411,0.92,-0.2,0.32,0.0,-2.81,-0.55,341,459,406,470,239
412,0.93,-0.2,0.32,1.22,-2.99,-2.2,338,451,409,471,236
413,0.95,-0.19,0.32,1.46,-2.87,-2.81,342,451,408,470,234
414,0.95,-0.2,0.31,-0.49,-3.6,-3.6,340,466,407,470,232
415,0.94,-0.19,0.32,1.28,-1.89,-3.11,346,458,406,471,235
416,0.96,-0.18,0.31,0.67,-3.91,-2.87,338,449,407,467,236
417,0.94,-0.19,0.31,0.18,-4.09,-2.32,336,457,408,470,264
418,0.96,-0.18,0.3,3.23,-2.62,-4.03,340,450,406,470,253
419,0.96,-0.18,0.3,0.43,-3.54,-0.85,340,454,402,469,235
420,0.96,-0.18,0.3,0.12,-2.32,-2.2,341,457,405,471,236
421,0.94,-0.18,0.3,-0.67,-2.62,-2.62,338,459,405,471,233
422,0.94,-0.18,0.3,-0.24,-2.44,-1.65,342,457,404,467,235
423,0.93,-0.18,0.31,-0.61,-2.38,-2.26,339,457,406,472,235
424,0.92,-0.2,0.29,0.12,-2.56,-2.99,338,455,406,473,235
425,0.98,-0.17,0.3,1.77,-1.77,-4.21,340,449,404,474,238
426,0.94,-0.18,0.31,-0.24,-2.14,-1.46,340,456,408,472,235
427,0.95,-0.19,0.31,1.4,-3.48,-2.01,340,454,407,479,233
428,0.94,-0.18,0.31,1.04,-1.77,-1.4,340,450,409,471,233
429,0.95,-0.18,0.31,0.06,-2.5,-2.38,342,459,404,467,238
430,0.93,-0.2,0.3,-0.37,-2.62,-2.14,340,459,407,470,235
431,0.95,-0.18,0.31,-0.79,-4.03,-2.44,339,449,408,471,242
432,0.95,-0.19,0.3,0.49,-3.17,-1.28,340,457,408,471,237
433,0.95,-0.19,0.3,-0.92,-2.75,-2.38,340,449,404,473,237
434,0.97,-0.19,0.3,0.49,-3.78,-2.99,340,454,410,473,236
435,0.95,-0.18,0.31,1.16,-2.62,-2.32,340,450,410,471,236
436,0.94,-0.19,0.3,-0.37,-1.53,0.12,341,455,406,467,235
437,0.95,-0.19,0.3,-0.67,-3.54,-0.85,338,457,406,473,235
438,0.93,-0.2,0.3,-0.85,-0.92,-1.89,337,459,408,471,236
439,0.93,-0.19,0.32,-1.65,-2.5,-2.93,338,455,406,471,236
440,0.94,-0.19,0.32,0.31,-2.5,-2.2,340,455,406,473,236
441,0.94,-0.19,0.31,0.43,-2.75,-2.2,342,459,403,469,237
442,0.93,-0.19,0.32,-0.73,-2.08,0.12,342,452,406,466,237
443,0.94,-0.2,0.31,-0.61,-2.93,-0.85,335,452,404,470,239
444,0.94,-0.2,0.3,-2.62,-6.04,-5.13,341,458,405,469,236
445,0.92,-0.19,0.32,-1.95,-0.92,1.4,341,454,408,478,236
446,0.92,-0.22,0.3,-0.61,-3.6,-5.13,337,455,406,470,236
447,0.94,-0.19,0.32,1.4,-3.36,-2.08,339,455,406,469,238
448,0.93,-0.2,0.31,1.28,-2.99,-3.54,340,458,403,471,237
449,0.93,-0.19,0.32,0.73,-2.75,-2.26,339,458,409,469,236
450,0.92,-0.19,0.32,2.01,-3.85,-1.4,340,450,405,472,237
451,0.94,-0.19,0.3,2.2,-3.78,-2.87,336,459,414,472,243
452,0.94,-0.18,0.32,0.49,-3.11,-3.54,339,457,406,471,237
453,0.95,-0.18,0.3,-0.43,-2.01,-1.89,339,450,402,470,238
454,0.95,-0.18,0.3,-0.67,-2.56,-3.23,339,452,405,469,238
455,0.93,-0.19,0.3,0.12,-1.46,-2.56,335,451,408,472,237
456,0.94,-0.18,0.31,2.26,-3.78,-2.69,341,459,405,472,237
457,0.95,-0.18,0.3,0.61,-3.78,-1.83,339,455,405,470,263
458,0.94,-0.19,0.29,-0.55,-2.93,-3.3,339,458,408,471,244
459,0.94,-0.19,0.3,-1.46,-2.99,-1.89,340,454,407,467,239
460,0.94,-0.19,0.3,-0.79,-2.26,-2.32,343,459,405,466,239
461,0.94,-0.19,0.3,0.55,-2.69,-2.62,339,453,406,466,237
462,0.96,-0.18,0.3,1.22,-4.09,-2.69,335,459,408,468,236
463,0.95,-0.18,0.3,0.55,-2.2,-2.81,339,469,413,472,240
464,0.94,-0.19,0.3,-1.1,-2.01,-1.4,340,452,403,468,237
465,0.94,-0.19,0.3,2.62,-4.09,-3.05,331,454,405,465,236
466,0.94,-0.18,0.3,1.53,-2.56,-2.38,339,449,404,472,238
467,0.94,-0.19,0.28,2.01,-4.46,-3.54,339,460,402,468,237
468,0.94,-0.17,0.3,-0.06,-2.2,-2.69,336,449,408,472,237
469,0.95,-0.17,0.28,-0.18,-2.38,-1.89,338,458,404,471,240
470,0.96,-0.16,0.28,1.83,-4.15,-2.32,337,455,405,470,238
471,0.95,-0.17,0.28,-0.31,-3.97,-1.65,338,453,405,471,234
472,0.96,-0.16,0.27,0.67,-5.0,-4.27,336,458,405,469,238
473,0.96,-0.15,0.26,-10.86,-2.93,0.61,335,459,405,469,241
474,0.95,-0.19,0.26,1.89,-3.3,-3.23,340,457,408,471,238
475,0.95,-0.19,0.27,0.55,-3.48,-2.93,336,453,404,468,238
476,0.96,-0.18,0.28,-2.32,-3.05,-3.72,337,457,404,469,238
477,0.96,-0.18,0.27,0.06,-2.44,-2.75,335,454,407,468,239
478,0.95,-0.18,0.26,-0.85,-3.66,-2.44,337,454,408,471,232
479,0.95,-0.18,0.26,-1.22,-3.05,-2.44,338,454,402,468,236
480,0.97,-0.18,0.26,0.92,-2.01,-1.95,334,455,404,465,239
481,0.95,-0.19,0.26,-0.18,-2.87,-2.81,332,458,408,465,236
482,0.96,-0.17,0.27,0.37,-1.71,-1.77,334,458,402,470,239
483,0.95,-0.17,0.28,1.16,-1.53,-2.44,342,449,404,473,234
484,0.95,-0.18,0.27,-0.24,-3.91,-2.38,338,449,412,464,239
485,0.95,-0.18,0.27,-0.67,-2.56,-2.08,337,454,404,468,236
486,0.96,-0.17,0.27,0.49,-2.81,-2.99,340,447,406,469,236
487,0.96,-0.18,0.27,0.92,-2.44,-2.44,335,454,407,466,237
488,0.95,-0.18,0.27,-0.73,-2.81,-2.14,337,459,405,468,234
489,0.95,-0.18,0.27,-0.06,-3.6,-2.62,336,453,402,468,240
490,0.96,-0.18,0.27,0.73,-3.91,-1.83,334,458,405,468,237
491,0.94,-0.18,0.28,1.89,-2.32,-2.93,338,458,405,468,236
492,0.96,-0.16,0.27,3.3,-4.15,-3.48,337,471,406,470,237
493,0.96,-0.17,0.27,0.18,-3.36,-2.32,334,451,405,465,240
494,0.95,-0.18,0.26,-0.43,-3.42,-2.14,336,455,408,468,234
495,0.96,-0.17,0.26,0.43,-3.23,-1.77,335,457,402,470,238
496,0.96,-0.17,0.27,0.73,-2.93,-2.93,337,457,407,475,235
497,0.95,-0.17,0.27,-0.24,-2.08,-2.93,338,455,404,468,238
498,0.95,-0.18,0.26,0.55,-3.36,-2.93,339,456,407,465,237
499,0.96,-0.18,0.26,-0.12,-2.99,-2.93,337,451,406,470,245
500,0.96,-0.17,0.27,-2.14,-0.55,-2.32,337,455,404,465,231
501,0.89,-0.18,0.32,-15.5,-6.71,-0.61,333,455,402,462,242
502,0.93,-0.28,0.28,0.67,-2.81,-1.95,340,454,415,493,223
503,0.93,-0.29,0.28,0.73,-2.32,-2.08,336,450,414,502,226
504,0.91,-0.3,0.28,1.28,-2.56,-2.44,350,452,414,493,223
505,0.93,-0.29,0.28,0.92,-2.69,-3.23,336,449,413,493,223
506,0.92,-0.3,0.28,0.0,-1.89,-2.99,338,448,418,491,223
507,0.92,-0.29,0.29,0.85,-3.36,-2.69,335,452,415,490,225
508,0.92,-0.28,0.29,0.06,-2.99,-2.99,341,455,416,490,224
509,0.92,-0.29,0.29,1.34,-3.97,-2.56,339,449,416,493,227
510,0.93,-0.28,0.29,1.65,-2.99,-1.71,337,447,412,493,225
511,0.92,-0.29,0.28,1.04,-2.44,-2.32,339,450,419,490,226
512,0.94,-0.28,0.28,-0.98,-2.56,0.49,338,443,414,488,226
513,0.95,-0.28,0.28,3.97,-3.6,-5.8,339,451,412,497,216
514,0.9,-0.28,0.29,1.77,-4.94,-4.88,338,448,413,492,228
515,0.91,-0.28,0.29,-4.64,-3.23,-1.71,340,457,414,492,229
516,0.93,-0.26,0.29,0.55,-2.08,-1.04,340,447,414,495,229
517,0.91,-0.28,0.29,-0.92,-3.36,-1.95,338,452,413,488,231
518,0.94,-0.27,0.28,-0.85,-5.07,-2.26,338,460,414,490,224
519,0.94,-0.25,0.29,0.79,-2.08,-0.85,341,450,413,488,229
520,0.93,-0.26,0.3,2.93,-6.16,-3.42,340,452,412,487,226
521,0.92,-0.27,0.29,-2.75,-3.66,-2.5,336,448,412,488,230
522,0.91,-0.26,0.3,-0.49,-1.46,-2.99,340,448,412,488,228
523,0.92,-0.28,0.25,3.66,1.53,-6.47,336,445,414,487,228
524,0.89,-0.29,0.27,-2.62,-1.1,2.26,340,448,409,487,230
525,0.94,-0.27,0.28,-3.54,-3.72,-4.21,338,448,412,483,226
526,0.96,-0.23,0.3,-0.24,-0.73,-0.73,341,442,415,486,233
527,0.94,-0.25,0.28,0.55,-1.71,0.0,335,447,413,483,232
528,0.92,-0.28,0.29,-1.77,-1.65,-1.53,338,444,412,494,255
529,0.92,-0.27,0.29,0.06,-2.14,-2.08,339,448,412,488,227
530,0.92,-0.27,0.3,1.46,-3.48,-2.26,341,449,414,486,233
531,0.92,-0.27,0.3,0.24,-2.87,-2.69,338,452,412,485,232
532,0.91,-0.29,0.28,-0.12,-2.75,-1.95,339,449,412,488,234
533,0.92,-0.29,0.29,2.08,-1.65,-2.99,342,448,415,489,233
534,0.93,-0.28,0.3,1.71,-2.56,-3.91,337,447,414,486,229
535,0.92,-0.29,0.3,0.24,-1.89,-2.99,340,452,409,489,239
536,0.92,-0.28,0.32,0.0,-1.22,-2.44,340,451,412,480,234
537,0.91,-0.28,0.33,0.43,-0.92,-0.79,340,457,410,486,230
538,0.89,-0.32,0.32,2.69,-2.38,-1.65,340,452,411,486,233
539,0.89,-0.32,0.32,-3.42,-2.69,1.71,340,452,411,482,235
540,0.91,-0.3,0.33,2.2,-2.62,-2.62,339,448,411,486,235
541,0.9,-0.3,0.35,-0.06,-1.53,-1.59,340,449,413,486,230
542,0.91,-0.29,0.35,5.07,-2.32,-3.6,343,448,410,487,236
543,0.9,-0.28,0.36,0.0,-3.48,-2.38,337,452,413,484,231
544,0.9,-0.28,0.36,1.28,-3.72,-3.05,340,445,410,484,230
545,0.91,-0.28,0.36,1.28,-3.05,-3.54,342,450,413,486,235
546,0.9,-0.29,0.35,1.34,-2.93,-0.79,341,450,410,482,234
547,0.89,-0.3,0.34,0.31,-3.23,-1.95,341,454,413,485,224
548,0.9,-0.3,0.35,0.73,-1.65,-1.46,336,449,415,486,237
549,0.9,-0.29,0.35,0.31,-1.65,-1.59,339,454,412,484,231
550,0.91,-0.29,0.35,-0.24,-3.23,-2.87,336,453,413,486,235
551,0.89,-0.3,0.35,1.28,-3.78,-2.81,339,448,409,483,229
552,0.9,-0.29,0.35,1.46,-3.11,-2.99,343,455,413,484,234
553,0.9,-0.29,0.35,0.18,-3.54,-2.56,336,446,412,485,236
554,0.9,-0.29,0.35,1.77,-2.5,-2.38,340,449,415,483,237
555,0.9,-0.29,0.35,3.3,-2.5,-2.75,340,446,413,483,234
556,0.89,-0.3,0.35,-1.22,-1.28,-0.24,339,451,416,482,235
557,0.89,-0.3,0.36,-0.73,-2.81,-3.11,340,450,411,482,238
558,0.89,-0.3,0.35,0.37,-3.36,-1.77,341,451,415,486,238
559,0.9,-0.3,0.36,1.77,-2.81,-1.83,341,450,411,485,239
560,0.91,-0.28,0.36,0.73,-2.5,-2.93,342,448,413,484,235
561,0.9,-0.29,0.36,0.18,-3.11,-2.32,341,449,423,490,258
562,0.89,-0.29,0.36,2.44,-4.33,-3.36,339,450,413,485,236
563,0.89,-0.31,0.35,-1.83,-2.81,-1.28,338,451,409,483,235
564,0.89,-0.3,0.36,-0.24,-2.99,-1.59,342,445,409,489,233
565,0.9,-0.3,0.36,-1.83,-2.75,-3.05,347,451,411,484,239
566,0.9,-0.29,0.36,-0.24,-2.75,-3.42,340,450,410,484,236
567,0.89,-0.29,0.36,-0.18,-2.56,-2.75,338,450,409,483,237
568,0.89,-0.3,0.36,0.49,-3.3,-2.56,341,455,411,482,236
569,0.94,-0.29,0.36,0.67,-3.42,-2.08,336,454,412,484,237
570,0.91,-0.29,0.36,-0.37,-2.87,-2.32,340,449,412,480,239
571,0.89,-0.29,0.37,1.4,-3.78,-2.14,339,453,409,485,238
572,0.88,-0.29,0.38,-0.61,-0.31,-3.17,340,446,412,492,236
573,0.88,-0.31,0.36,1.46,-2.62,-2.5,342,450,412,484,236
574,0.9,-0.3,0.36,-0.24,-2.75,-3.17,340,457,409,482,236
575,0.89,-0.3,0.36,0.43,-3.3,-2.99,340,451,410,486,240
576,0.9,-0.3,0.36,-0.31,-4.52,-1.89,344,451,411,483,238
577,0.91,-0.3,0.35,0.24,-3.17,-2.93,341,454,410,488,238
578,0.89,-0.3,0.36,0.55,-2.99,-3.11,339,450,413,481,239
579,0.88,-0.29,0.38,-0.12,-3.05,-2.99,341,452,407,483,230
580,0.89,-0.29,0.37,-2.5,-3.78,-5.19,340,454,408,486,242
581,0.89,-0.29,0.37,0.31,-2.62,-3.91,342,454,412,486,234
582,0.88,-0.29,0.36,-2.01,-2.93,-2.93,341,452,412,481,238
583,0.9,-0.28,0.38,2.87,-0.18,-2.2,342,457,410,483,274
584,0.87,-0.31,0.37,1.71,-1.46,-1.34,338,445,409,479,237
585,0.92,-0.3,0.36,2.08,-0.85,-1.59,340,445,406,480,237
586,0.91,-0.28,0.39,-0.61,-0.79,-3.85,341,446,409,484,236
587,0.9,-0.31,0.37,2.99,-1.4,-2.75,340,450,408,482,234
588,0.9,-0.31,0.37,2.62,-1.46,-2.44,341,445,407,486,234
589,0.87,-0.31,0.37,-0.37,-3.05,-1.22,340,449,410,485,231
590,0.88,-0.3,0.37,0.0,-2.87,-2.69,336,450,409,482,233
591,0.88,-0.31,0.37,0.37,-3.85,-2.99,337,451,407,484,233
592,0.89,-0.3,0.38,3.66,-2.26,-0.61,336,450,412,484,224
593,0.88,-0.31,0.38,-0.37,-3.54,-2.93,340,452,413,483,235
594,0.87,-0.31,0.37,-0.06,-2.69,-2.5,339,443,412,481,232
595,0.86,-0.32,0.38,-0.43,-2.93,-3.11,342,453,408,484,235
596,0.89,-0.31,0.37,0.06,-3.54,-3.17,341,453,411,484,234
597,0.88,-0.3,0.37,0.43,-2.01,-3.3,341,448,409,482,233
598,0.89,-0.3,0.38,1.4,-3.23,-2.2,342,449,413,486,232
599,0.89,-0.3,0.38,0.0,-2.75,-2.93,340,453,409,484,236
600,0.88,-0.31,0.37,0.92,-2.87,-2.99,341,449,411,483,239
601,0.88,-0.3,0.38,1.53,-2.38,-2.75,339,450,413,478,233
602,0.89,-0.3,0.38,0.31,-2.87,-2.5,347,445,412,484,235
603,0.89,-0.29,0.39,0.67,-3.17,-2.87,343,445,418,478,234
604,0.88,-0.29,0.38,0.67,-3.23,-1.65,342,451,405,485,240
605,0.88,-0.3,0.37,1.53,-2.5,-1.1,338,446,407,485,236
606,0.89,-0.29,0.38,-0.12,-2.75,-2.32,342,449,408,482,236
607,0.88,-0.3,0.37,0.73,-3.3,-2.14,340,450,412,480,224
608,0.9,-0.29,0.38,0.49,-2.62,-2.69,351,449,412,479,235
609,0.9,-0.28,0.38,0.98,-2.87,-3.23,341,449,409,483,234
610,0.89,-0.28,0.39,-1.53,-2.99,-3.11,342,450,421,479,234
611,0.89,-0.28,0.38,0.79,-2.87,-2.38,340,450,405,480,234
612,0.89,-0.28,0.38,1.22,-2.62,-2.26,340,444,405,476,237
613,0.89,-0.28,0.38,0.12,-3.3,-2.99,340,449,409,481,234
614,0.9,-0.27,0.38,1.59,-3.78,-2.14,340,451,410,481,234
615,0.9,-0.28,0.37,0.73,-3.42,-2.32,341,453,411,481,229
616,0.9,-0.27,0.38,1.16,-3.05,-3.23,338,450,409,478,238
617,0.9,-0.27,0.38,0.43,-2.32,-2.69,340,455,407,483,237
618,0.88,-0.27,0.38,-0.12,-3.05,-2.69,347,445,411,481,235
619,0.9,-0.27,0.38,0.98,-2.5,-2.87,341,452,409,481,238
620,0.89,-0.27,0.39,-1.4,-3.17,-2.01,341,461,409,482,235
621,0.89,-0.28,0.38,0.98,-2.69,-1.83,341,450,412,480,237
622,0.89,-0.27,0.38,-0.67,-2.81,-1.65,347,450,409,480,235
623,0.89,-0.28,0.38,-0.79,-3.11,-2.2,340,451,408,480,237
624,0.9,-0.27,0.38,0.55,-3.17,-2.75,340,456,411,480,236
625,0.9,-0.26,0.38,-1.04,-3.11,-2.56,344,444,410,483,233
626,0.9,-0.26,0.39,1.1,-3.72,-3.54,341,447,411,482,235
627,0.91,-0.26,0.38,0.43,-3.05,-2.32,342,454,412,479,235
628,0.89,-0.27,0.38,-0.43,-2.93,-1.89,341,451,410,477,233
629,0.89,-0.27,0.38,-0.24,-2.99,-1.89,341,454,413,479,238
630,0.89,-0.27,0.38,1.71,-3.48,-2.75,340,451,408,480,236
631,0.9,-0.26,0.39,0.31,-3.72,-2.62,340,450,408,482,236
632,0.89,-0.27,0.38,0.24,-2.56,-2.87,342,450,411,482,247
633,0.88,-0.28,0.38,-1.1,-3.54,-2.75,340,454,410,476,239
634,0.89,-0.26,0.38,0.55,-2.44,-3.48,341,448,407,479,236
635,0.89,-0.27,0.38,0.24,-2.14,-2.56,339,450,411,477,236
636,0.9,-0.26,0.38,0.61,-3.97,-3.6,340,444,409,480,236
637,0.9,-0.26,0.37,0.49,-5.74,-1.95,340,449,405,478,240
638,0.9,-0.26,0.37,0.61,-3.54,-2.81,339,453,404,480,234
639,0.89,-0.26,0.37,0.61,-2.81,-3.42,340,449,408,480,244
640,0.91,-0.26,0.38,-0.79,-2.2,-2.14,340,455,409,482,238
641,0.9,-0.27,0.37,1.28,-2.62,-2.87,341,455,408,480,238
642,0.91,-0.26,0.38,1.04,-1.28,-2.14,341,445,411,482,238
643,0.89,-0.28,0.37,-2.38,-2.69,-3.05,341,450,408,478,242
644,0.9,-0.26,0.37,0.12,-2.38,-2.2,338,450,411,479,234
645,0.9,-0.26,0.38,1.46,-2.69,-2.62,341,451,409,480,235
646,0.9,-0.26,0.38,0.06,-2.93,-2.14,339,450,405,477,235
647,0.9,-0.26,0.38,1.1,-3.05,-3.11,340,452,408,481,236
648,0.9,-0.26,0.38,-0.06,-2.26,-3.23,339,450,408,479,236
649,0.9,-0.25,0.39,1.22,-2.81,-2.32,337,455,409,479,238
650,0.9,-0.27,0.37,1.16,-3.66,-2.26,351,445,410,478,233
651,0.9,-0.26,0.38,-0.55,-3.66,-2.75,342,451,408,480,233
652,0.91,-0.25,0.39,0.55,-2.81,-3.17,334,453,412,478,238
653,0.9,-0.26,0.38,-0.37,-3.54,-2.75,343,450,410,477,237
654,0.91,-0.25,0.38,1.46,-2.01,-3.11,342,452,408,482,236
655,0.9,-0.26,0.39,0.55,-1.89,-1.83,341,452,408,480,238
656,0.89,-0.26,0.4,1.53,-3.91,-3.23,342,448,402,475,236
657,0.9,-0.24,0.4,0.12,-3.36,-0.73,340,452,406,478,236
658,0.88,-0.26,0.41,1.34,-3.3,-2.26,341,456,410,473,237
659,0.9,-0.27,0.38,0.61,-2.62,-2.69,338,451,407,481,234
660,0.86,-0.29,0.39,-0.55,-3.42,-3.36,341,451,409,482,240
661,0.88,-0.27,0.39,1.22,-4.33,-2.75,341,454,414,479,245
662,0.92,-0.26,0.37,2.62,-2.69,-1.28,341,451,405,478,237
663,0.89,-0.28,0.39,-0.12,-1.83,-2.38,341,447,407,476,236
664,0.88,-0.28,0.39,-1.22,-3.23,-3.78,341,453,407,478,237
665,0.88,-0.28,0.38,0.79,-2.2,-1.16,342,451,408,480,237
666,0.88,-0.29,0.39,0.0,-2.69,-2.14,343,452,409,479,234
667,0.88,-0.27,0.4,0.06,-2.14,-2.01,344,451,408,476,237
668,0.9,-0.27,0.4,1.1,-3.54,-1.1,337,452,409,476,240
669,0.9,-0.27,0.39,1.59,-4.39,-0.92,344,452,420,483,235
670,0.87,-0.29,0.39,0.18,-1.34,-2.2,340,451,408,478,236
671,0.87,-0.29,0.39,0.37,-3.17,-1.77,338,454,410,495,237
672,0.85,-0.31,0.38,2.01,-2.81,-3.54,342,451,410,477,236
673,0.86,-0.29,0.39,-0.18,-2.62,-2.2,340,452,411,474,240
674,0.9,-0.28,0.4,0.98,-2.62,-3.66,338,446,407,480,236
675,0.91,-0.27,0.38,4.09,-3.72,-5.86,342,451,407,481,241
676,0.9,-0.24,0.41,-0.06,-3.54,-1.1,341,455,411,477,238
677,0.9,-0.28,0.37,-0.79,-1.89,-1.59,339,450,407,475,237
678,0.9,-0.28,0.38,-7.32,-2.08,-0.43,342,455,409,478,241
679,0.87,-0.3,0.38,-1.4,-2.93,-2.01,342,455,408,475,239
680,0.87,-0.3,0.38,-0.31,-2.32,-3.42,339,467,406,478,260
681,0.89,-0.29,0.38,0.06,-2.81,-2.62,339,454,410,477,240
682,0.9,-0.28,0.38,-0.43,-1.95,-2.08,344,456,407,480,241
683,0.89,-0.29,0.38,0.79,-4.15,-4.15,341,454,406,476,238
684,0.86,-0.3,0.37,0.37,-3.3,-2.32,343,454,409,478,238
685,0.89,-0.3,0.37,-0.92,-2.2,-2.32,340,452,408,478,236
686,0.91,-0.26,0.41,0.73,-1.89,-2.93,342,453,407,479,238
687,0.89,-0.28,0.39,1.65,-4.09,-3.66,344,453,408,478,241
688,0.89,-0.29,0.38,0.0,-3.85,-2.69,341,450,410,478,238
689,0.9,-0.28,0.38,1.59,-2.75,-2.62,339,454,410,477,240
690,0.89,-0.29,0.38,-0.31,-2.62,-2.56,338,447,407,476,242
691,0.87,-0.3,0.38,0.55,-2.93,-1.77,342,453,407,477,242
692,0.89,-0.29,0.38,2.69,-1.89,-2.62,342,452,411,478,239
693,0.89,-0.28,0.4,4.58,-2.99,-3.6,338,453,408,479,239
694,0.89,-0.28,0.4,-1.16,-3.11,-2.99,343,457,409,479,241
695,0.87,-0.3,0.38,0.24,-2.69,-2.75,341,454,412,478,240
696,0.88,-0.28,0.39,0.79,-3.91,-1.34,343,451,403,476,243
697,0.89,-0.29,0.39,0.12,-2.93,-2.62,339,455,409,478,241
698,0.88,-0.28,0.4,-1.1,-2.08,-2.87,342,452,407,480,242
699,0.89,-0.27,0.4,-0.06,-2.56,-2.62,342,454,408,476,238
700,0.88,-0.28,0.39,1.59,-2.32,-3.17,344,451,411,478,242
701,0.88,-0.29,0.39,-0.06,-3.05,-3.6,339,453,412,477,238
702,0.88,-0.29,0.39,0.85,-2.93,-2.5,339,447,404,480,241
703,0.89,-0.28,0.39,0.98,-3.05,-2.81,342,452,408,475,245
704,0.9,-0.27,0.4,1.46,-2.81,-3.85,342,451,408,477,243
705,0.88,-0.28,0.4,0.61,-2.99,-2.56,343,452,407,480,244
706,0.89,-0.27,0.39,1.1,-2.99,-3.6,342,452,405,474,244
707,0.88,-0.27,0.4,1.28,-1.59,-2.56,343,451,406,477,240
708,0.89,-0.27,0.39,0.55,-2.93,-2.26,342,448,412,485,243
709,0.9,-0.27,0.38,1.77,-2.56,-2.87,345,452,409,477,242
710,0.89,-0.27,0.4,0.61,-3.11,-2.01,338,456,406,474,242
711,0.89,-0.27,0.39,0.73,-3.11,-2.44,343,448,411,482,242
712,0.89,-0.26,0.4,1.04,-2.32,-3.11,342,452,409,477,241
713,0.89,-0.26,0.4,1.53,-3.36,-3.3,341,456,410,475,244
714,0.89,-0.26,0.4,-0.55,-3.3,-3.05,343,453,409,477,244
715,0.89,-0.26,0.41,-0.06,-2.69,-2.2,342,452,410,475,241
716,0.89,-0.27,0.39,0.06,-2.75,-2.08,341,452,409,477,244
717,0.89,-0.26,0.4,-0.18,-2.69,-2.93,341,452,413,478,242
718,0.89,-0.28,0.39,-0.31,-2.75,-1.89,343,451,409,477,243
719,0.89,-0.28,0.38,1.59,-2.08,-4.39,341,447,407,476,242
720,0.89,-0.26,0.4,0.0,-2.87,-3.36,342,456,411,475,242
721,0.87,-0.27,0.41,0.49,-2.99,-2.38,341,447,411,476,242
722,0.87,-0.27,0.41,0.92,-3.05,-2.87,342,456,405,479,245
723,0.91,-0.26,0.4,0.73,-3.66,-1.59,343,447,411,479,254
724,0.89,-0.26,0.41,0.92,-2.81,-2.32,334,454,407,479,244
725,0.88,-0.27,0.39,1.65,-3.36,-2.56,342,464,411,473,242
726,0.87,-0.28,0.39,2.14,-2.62,-2.62,342,453,411,479,244
727,0.89,-0.26,0.41,-4.39,-1.53,2.01,342,452,406,477,243
728,0.87,-0.28,0.41,-2.01,-4.64,-0.67,338,453,408,477,243
729,0.87,-0.28,0.41,0.37,-2.93,-2.38,341,452,411,476,244
730,0.87,-0.29,0.4,-0.24,-3.23,-2.26,342,451,407,476,242
731,0.88,-0.28,0.4,-0.37,-3.48,-1.1,344,454,408,476,242
732,0.88,-0.27,0.41,1.1,-2.87,-1.83,345,457,412,480,241
733,0.88,-0.28,0.41,-0.67,-1.77,-1.59,345,453,409,475,244
734,0.87,-0.29,0.4,-0.06,-3.23,-3.36,343,449,409,475,240
735,0.89,-0.28,0.4,2.01,-3.42,-3.66,342,449,412,477,242
736,0.86,-0.29,0.42,1.53,-3.66,-1.46,339,447,411,475,246
737,0.87,-0.28,0.41,-1.28,-3.11,-1.89,342,455,408,476,242
738,0.88,-0.28,0.41,0.12,-2.62,-1.46,343,453,411,477,242
739,0.86,-0.28,0.42,0.18,-3.42,-1.28,345,453,408,475,240
740,0.87,-0.28,0.41,1.04,-2.81,-2.38,345,451,404,472,243
741,0.87,-0.29,0.41,1.22,-3.54,-2.87,341,453,410,475,243
742,0.88,-0.29,0.4,-0.18,-2.69,-2.93,341,452,407,474,244
743,0.87,-0.28,0.41,0.06,-2.99,-3.23,342,452,409,475,245
744,0.89,-0.27,0.41,2.5,-3.3,-2.56,339,454,404,476,240
745,0.89,-0.28,0.4,-4.03,-2.56,-1.04,342,447,408,472,245
746,0.88,-0.3,0.39,0.24,-4.94,-2.44,343,453,408,479,243
747,0.85,-0.29,0.42,-2.01,-2.81,-1.89,341,451,404,479,245
748,0.86,-0.29,0.4,-0.37,-3.54,-3.85,343,454,408,476,238
749,0.89,-0.26,0.42,-0.37,-3.17,-2.08,344,456,409,475,244
750,0.9,-0.27,0.41,-0.67,-3.11,-2.5,343,453,406,477,244
751,0.88,-0.28,0.41,-0.06,-3.36,-1.77,340,449,411,472,245
752,0.89,-0.28,0.4,1.16,-3.36,-2.2,340,452,411,478,242
753,0.88,-0.3,0.38,-1.28,-2.08,-3.11,342,452,407,475,244
754,0.88,-0.28,0.41,-0.61,-3.3,-1.95,340,447,410,476,244
755,0.88,-0.27,0.41,-1.95,-4.46,-4.88,342,451,407,477,242
756,0.89,-0.27,0.4,-0.31,-4.21,-4.58,344,451,404,475,244
757,0.9,-0.27,0.39,0.98,-3.97,-2.93,342,450,409,478,243
758,0.88,-0.27,0.39,0.61,-3.54,-2.99,342,453,410,477,243
759,0.9,-0.27,0.39,-0.67,-2.26,-3.72,342,455,407,475,238
760,0.89,-0.25,0.4,1.16,-3.23,-2.62,343,452,410,477,242
761,0.88,-0.27,0.39,0.79,-3.11,-3.23,344,454,409,475,242
762,0.92,-0.26,0.38,0.92,-2.81,-1.46,342,452,413,474,242
763,0.9,-0.26,0.39,0.79,-2.69,-2.5,339,448,411,477,242
764,0.9,-0.26,0.39,-0.67,-3.17,-3.97,338,458,410,477,240
765,0.9,-0.25,0.4,2.81,-3.42,-2.32,342,448,409,474,237
766,0.92,-0.23,0.41,0.61,-3.48,-3.78,344,454,408,476,243
767,0.89,-0.25,0.39,-0.85,-2.5,-2.44,342,453,413,477,241
768,0.89,-0.25,0.4,1.1,-2.93,-2.44,344,453,410,478,254
769,0.9,-0.25,0.39,0.85,-2.75,-2.5,345,454,404,476,243
770,0.89,-0.25,0.39,1.1,-2.75,-3.66,354,453,413,476,242
771,0.9,-0.25,0.4,0.92,-3.36,-3.05,344,455,411,474,239
772,0.89,-0.25,0.39,1.59,-2.81,-2.75,342,457,411,473,246
773,0.9,-0.25,0.39,-0.06,-3.6,-3.3,342,453,420,474,243
774,0.88,-0.27,0.38,-0.37,-2.56,-1.59,342,453,408,471,242
775,0.89,-0.25,0.39,0.37,-3.17,-2.62,342,449,421,476,244
776,0.89,-0.25,0.4,0.85,-3.11,-2.38,340,449,404,471,241
777,0.89,-0.25,0.39,-0.61,-3.36,-2.14,344,452,417,477,245
778,0.9,-0.25,0.4,-1.04,-2.75,-2.32,340,453,409,474,245
779,0.88,-0.25,0.39,0.0,-3.05,-2.81,342,457,411,474,244
780,0.89,-0.25,0.39,1.04,-2.99,-2.26,341,453,410,474,244
781,0.9,-0.24,0.4,1.16,-3.42,-2.75,346,448,409,475,243
782,0.91,-0.24,0.4,0.55,-2.99,-2.14,348,449,409,485,245
783,0.9,-0.24,0.39,0.18,-2.93,-2.93,343,448,409,474,246
784,0.9,-0.24,0.4,0.98,-3.36,-2.69,342,449,412,473,235
785,0.9,-0.24,0.4,0.67,-3.66,-1.83,343,453,409,475,244
786,0.9,-0.24,0.4,0.67,-3.23,-1.89,342,449,411,477,237
787,0.88,-0.25,0.4,-0.12,-2.75,-2.32,342,454,412,473,242
788,0.93,-0.23,0.41,-2.14,-1.34,-1.53,342,449,411,474,245
789,0.91,-0.25,0.4,0.98,-2.99,-2.44,340,453,409,476,244
790,0.9,-0.26,0.38,2.38,-3.05,-3.6,342,453,410,476,243
791,0.87,-0.26,0.4,-1.04,-2.87,-1.71,345,449,408,477,243
792,0.88,-0.26,0.37,-0.92,-7.45,-6.84,343,453,411,474,241
793,0.94,-0.24,0.32,7.02,-0.24,-7.32,342,449,409,474,244
794,0.92,-0.21,0.36,0.67,-2.62,-2.56,342,453,410,477,245
795,0.94,-0.22,0.34,0.67,-3.23,-4.33,338,455,407,476,240
796,0.92,-0.21,0.34,2.38,-2.32,-3.72,342,455,412,473,241
797,0.94,-0.19,0.36,-1.34,-0.31,1.04,344,452,409,474,240
798,0.91,-0.25,0.34,-4.88,-3.97,1.77,341,453,408,475,241
799,0.96,-0.23,0.35,-1.65,-10.25,-2.69,344,455,406,474,239
800,0.9,-0.32,0.27,-4.52,-7.32,-2.08,342,446,406,475,240
801,0.87,-0.32,0.26,1.1,-10.44,-1.89,341,451,404,471,237
802,0.97,-0.25,0.26,-1.4,-4.33,-4.33,339,455,406,470,253
803,0.95,-0.25,0.28,3.11,-7.2,-2.14,340,453,410,474,235
804,0.92,-0.29,0.26,1.77,-1.34,-5.62,344,452,409,491,234
805,0.96,-0.22,0.29,-4.21,-1.89,-5.49,342,449,405,472,245
806,0.95,-0.19,0.31,-0.67,-6.47,-5.37,344,447,410,477,242
807,0.96,-0.2,0.29,2.93,-4.09,-3.72,341,452,403,476,235
808,0.94,-0.23,0.27,2.2,-1.1,-2.75,345,452,408,473,236
809,0.96,-0.2,0.29,1.46,-2.5,-1.95,344,453,408,473,235
810,0.95,-0.2,0.28,-1.46,-2.01,-2.62,342,457,406,471,244
811,0.95,-0.21,0.28,2.81,-3.72,-3.17,338,453,408,475,237
812,0.94,-0.21,0.28,4.76,-4.46,-5.13,340,456,408,473,242
813,0.96,-0.19,0.29,1.34,-4.94,-3.91,345,457,405,472,236
814,0.94,-0.2,0.28,0.67,-2.99,-2.26,342,454,407,476,238
815,0.96,-0.19,0.29,1.04,-2.44,-3.17,341,453,409,471,236
816,0.96,-0.18,0.29,0.73,-3.85,-3.05,345,452,405,469,240
817,0.95,-0.19,0.29,1.89,-2.62,-1.4,346,456,409,474,247
818,0.95,-0.2,0.28,0.55,-2.99,-3.42,342,455,405,471,237
819,0.93,-0.2,0.29,0.18,-4.03,-3.66,341,447,406,473,238
820,0.95,-0.19,0.28,1.22,-2.38,-2.87,342,451,407,475,239
821,0.95,-0.18,0.28,1.71,-2.62,-3.11,343,452,407,472,239
822,0.94,-0.18,0.29,-0.55,-2.87,-1.83,339,452,402,469,234
823,0.94,-0.19,0.29,0.61,-2.99,-3.3,342,453,405,472,236
824,0.94,-0.18,0.29,1.83,-3.66,-1.95,342,451,406,472,236
825,0.93,-0.19,0.29,1.16,-2.81,-1.22,339,453,408,470,234
826,0.95,-0.19,0.29,-0.31,-3.3,-2.44,343,448,406,471,237
827,0.95,-0.18,0.29,0.31,-3.17,-3.48,343,456,404,473,235
828,0.94,-0.18,0.29,2.26,-2.44,-1.89,340,453,408,474,236
829,0.95,-0.18,0.29,2.75,-3.3,-2.44,341,456,408,471,239
830,0.94,-0.18,0.3,-0.49,-3.85,-3.11,342,456,402,474,237
831,0.95,-0.18,0.28,1.4,-3.72,-1.65,341,458,407,472,236
832,0.95,-0.18,0.29,0.31,-3.85,-3.3,342,452,409,474,237
833,0.95,-0.17,0.29,0.31,-1.95,-2.44,343,452,406,472,236
834,0.97,-0.18,0.27,3.11,-3.36,-2.56,342,452,404,472,238
835,0.94,-0.19,0.28,0.92,-3.05,-2.56,344,453,409,469,239
836,0.94,-0.19,0.29,0.85,-3.23,-1.53,342,453,408,481,239
837,0.94,-0.19,0.29,1.71,-2.69,-4.09,342,448,407,475,236
838,0.95,-0.18,0.29,2.93,-1.95,-2.81,343,455,403,475,238
839,0.95,-0.17,0.3,0.61,-3.23,-2.69,340,454,405,473,237
840,0.94,-0.18,0.29,0.12,-2.99,-2.93,343,452,408,472,240
841,0.95,-0.18,0.3,0.31,-3.54,-2.56,342,452,407,472,239
842,0.95,-0.18,0.29,0.67,-3.42,-2.32,343,450,409,472,240
843,0.94,-0.18,0.29,0.61,-3.05,-1.89,343,452,410,473,236
844,0.95,-0.18,0.29,0.06,-2.93,-1.83,344,451,409,471,241
845,0.94,-0.17,0.31,1.77,-2.2,-1.83,342,453,406,475,237
846,0.94,-0.17,0.3,-0.73,-2.14,-2.2,342,451,407,476,239
847,0.96,-0.17,0.29,0.85,-4.15,-1.83,341,455,404,470,237
848,0.95,-0.18,0.29,2.08,-3.85,-0.79,342,451,406,472,240
849,0.95,-0.18,0.29,-2.14,-2.26,-1.16,344,450,405,472,239
850,0.94,-0.18,0.29,-1.4,-2.75,-2.62,342,454,406,470,241
851,0.96,-0.16,0.3,-0.12,-4.03,-3.05,343,453,403,471,238
852,0.95,-0.17,0.29,1.65,-3.3,-2.2,345,448,407,474,239
853,0.96,-0.17,0.29,-1.34,-3.66,-1.4,343,449,409,476,238
854,0.94,-0.18,0.29,-0.18,-3.6,-1.4,346,451,408,472,238
855,0.95,-0.17,0.29,1.28,-0.31,-3.48,339,449,405,473,240
856,0.95,-0.17,0.3,1.77,-2.62,-3.3,343,449,408,471,236
857,0.95,-0.18,0.29,0.98,-1.1,-2.44,343,446,405,474,240
858,0.96,-0.17,0.29,2.08,-3.54,-3.3,340,453,406,471,239
859,0.95,-0.17,0.29,2.01,-2.01,-2.69,339,456,408,473,239
860,0.94,-0.17,0.29,-0.12,-3.11,-2.93,342,457,404,475,238
861,0.95,-0.17,0.29,0.55,-4.39,-2.5,341,447,407,472,238
862,0.96,-0.17,0.29,0.85,-2.14,-3.11,338,453,406,469,241
863,0.95,-0.17,0.29,-1.46,-1.53,-2.14,341,462,405,472,238
864,0.94,-0.17,0.29,1.28,-2.87,-2.5,342,452,409,471,241
865,0.95,-0.17,0.3,1.46,-2.87,-2.5,342,455,408,468,240
866,0.95,-0.17,0.29,0.31,-3.3,-2.93,341,453,402,471,239
867,0.95,-0.16,0.29,0.06,-2.75,-2.62,340,457,406,477,238
868,0.95,-0.17,0.29,0.43,-2.93,-1.65,341,458,404,471,240
869,0.95,-0.17,0.29,0.92,-2.32,-3.17,343,452,406,468,239
870,0.95,-0.16,0.3,0.67,-2.93,-2.2,339,451,406,472,238
871,0.95,-0.17,0.29,-0.73,-2.99,-3.48,343,453,405,470,240
872,0.95,-0.17,0.29,0.06,-2.75,-2.56,341,456,415,474,239
873,0.95,-0.16,0.29,0.24,-3.11,-1.95,335,452,408,473,238
874,0.95,-0.17,0.3,1.1,-3.78,-2.44,337,454,408,468,238
875,0.95,-0.17,0.29,-0.24,-2.56,-1.22,339,453,406,467,268
876,0.95,-0.17,0.29,0.0,-2.56,-1.77,337,453,408,473,237
877,0.95,-0.17,0.29,0.98,-1.77,-2.75,342,452,403,467,237
878,0.94,-0.17,0.29,1.71,-2.81,-3.54,339,448,422,479,236
879,0.97,-0.14,0.32,2.5,-3.05,-2.81,338,457,406,470,235
880,0.95,-0.17,0.29,0.06,-2.08,-2.08,340,452,405,474,236
881,0.94,-0.17,0.3,0.18,-2.32,-2.56,341,456,404,473,236
882,0.94,-0.17,0.3,-0.18,-3.91,-2.08,339,452,403,472,236
883,0.96,-0.17,0.29,-0.49,-2.93,-1.89,341,454,409,471,238
884,0.94,-0.17,0.29,-0.49,-3.91,-3.3,341,457,407,471,241
885,0.95,-0.17,0.29,-0.43,-2.38,-0.67,342,454,406,471,236
886,0.95,-0.19,0.26,-0.49,-1.77,-1.53,343,450,405,468,243
887,0.95,-0.19,0.29,-1.4,-1.1,-0.43,342,460,408,474,235
888,0.94,-0.21,0.29,-0.24,-3.48,-0.24,343,457,407,471,237
889,0.92,-0.23,0.28,1.77,-3.85,-1.4,340,454,406,477,236
890,0.94,-0.22,0.29,1.71,-1.77,-2.56,338,452,406,468,236
891,0.94,-0.22,0.3,-0.37,-1.59,-3.54,338,455,405,471,235
892,0.94,-0.22,0.3,-0.85,-1.95,-2.62,336,457,412,473,235
893,0.93,-0.22,0.3,0.06,-2.08,-2.69,341,454,409,468,238
894,0.92,-0.23,0.3,-0.49,-2.44,-2.87,340,449,407,468,233
895,0.93,-0.21,0.32,1.53,-4.46,-3.23,339,459,408,469,234
896,0.93,-0.21,0.31,0.24,-1.77,-3.48,340,451,406,471,235
897,0.94,-0.21,0.31,0.49,-3.6,-2.32,338,459,406,471,237
898,0.93,-0.22,0.31,-0.12,-3.66,-2.69,340,454,418,474,237
899,0.92,-0.22,0.31,-0.12,-2.75,-1.83,338,458,405,473,235
900,0.9,-0.23,0.3,-0.06,-2.81,-1.65,341,460,404,471,238
901,0.97,-0.19,0.31,2.99,-4.94,-4.33,341,454,406,469,235
902,0.93,-0.19,0.32,-14.95,-3.23,-3.97,344,457,404,468,238
903,0.94,-0.21,0.31,1.1,-3.66,-3.6,343,460,411,472,234
904,0.93,-0.2,0.32,-1.89,-3.72,-2.44,341,454,403,471,253
905,0.91,-0.22,0.3,-1.95,-4.27,-1.1,338,457,405,474,236
906,0.94,-0.2,0.32,-1.53,-5.19,-2.38,342,451,403,473,235
907,0.94,-0.21,0.31,-1.1,-3.54,-3.23,342,456,403,473,238
908,0.93,-0.2,0.31,1.28,-1.95,-1.22,341,457,409,471,237
909,0.95,-0.2,0.31,0.18,-2.81,-4.82,340,456,403,471,236
910,0.94,-0.2,0.31,-0.55,-2.87,-3.05,336,454,406,471,237
911,0.93,-0.2,0.31,-0.49,-2.69,-1.04,342,458,406,471,234
912,0.94,-0.2,0.31,2.01,-3.48,-4.46,342,456,404,469,237
913,0.92,-0.2,0.32,0.0,-2.81,-0.55,341,459,406,470,239
914,0.93,-0.2,0.32,1.22,-2.99,-2.2,338,451,409,471,236
915,0.95,-0.19,0.32,1.46,-2.87,-2.81,342,451,408,470,234
916,0.95,-0.2,0.31,-0.49,-3.6,-3.6,340,466,407,470,232
917,0.94,-0.19,0.32,1.28,-1.89,-3.11,346,458,406,471,235
918,0.96,-0.18,0.31,0.67,-3.91,-2.87,338,449,407,467,236
919,0.94,-0.19,0.31,0.18,-4.09,-2.32,336,457,408,470,264
920,0.96,-0.18,0.3,3.23,-2.62,-4.03,340,450,406,470,253
921,0.96,-0.18,0.3,0.43,-3.54,-0.85,340,454,402,469,235
922,0.96,-0.18,0.3,0.12,-2.32,-2.2,341,457,405,471,236
923,0.94,-0.18,0.3,-0.67,-2.62,-2.62,338,459,405,471,233
924,0.94,-0.18,0.3,-0.24,-2.44,-1.65,342,457,404,467,235
925,0.93,-0.18,0.31,-0.61,-2.38,-2.26,339,457,406,472,235
926,0.92,-0.2,0.29,0.12,-2.56,-2.99,338,455,406,473,235
927,0.98,-0.17,0.3,1.77,-1.77,-4.21,340,449,404,474,238
928,0.94,-0.18,0.31,-0.24,-2.14,-1.46,340,456,408,472,235
929,0.95,-0.19,0.31,1.4,-3.48,-2.01,340,454,407,479,233
930,0.94,-0.18,0.31,1.04,-1.77,-1.4,340,450,409,471,233
931,0.95,-0.18,0.31,0.06,-2.5,-2.38,342,459,404,467,238
932,0.93,-0.2,0.3,-0.37,-2.62,-2.14,340,459,407,470,235
933,0.95,-0.18,0.31,-0.79,-4.03,-2.44,339,449,408,471,242
934,0.95,-0.19,0.3,0.49,-3.17,-1.28,340,457,408,471,237
935,0.95,-0.19,0.3,-0.92,-2.75,-2.38,340,449,404,473,237
936,0.97,-0.19,0.3,0.49,-3.78,-2.99,340,454,410,473,236
937,0.95,-0.18,0.31,1.16,-2.62,-2.32,340,450,410,471,236
938,0.94,-0.19,0.3,-0.37,-1.53,0.12,341,455,406,467,235
939,0.95,-0.19,0.3,-0.67,-3.54,-0.85,338,457,406,473,235
940,0.93,-0.2,0.3,-0.85,-0.92,-1.89,337,459,408,471,236
941,0.93,-0.19,0.32,-1.65,-2.5,-2.93,338,455,406,471,236
942,0.94,-0.19,0.32,0.31,-2.5,-2.2,340,455,406,473,236
943,0.94,-0.19,0.31,0.43,-2.75,-2.2,342,459,403,469,237
944,0.93,-0.19,0.32,-0.73,-2.08,0.12,342,452,406,466,237
945,0.94,-0.2,0.31,-0.61,-2.93,-0.85,335,452,404,470,239
946,0.94,-0.2,0.3,-2.62,-6.04,-5.13,341,458,405,469,236
947,0.92,-0.19,0.32,-1.95,-0.92,1.4,341,454,408,478,236
948,0.92,-0.22,0.3,-0.61,-3.6,-5.13,337,455,406,470,236
949,0.94,-0.19,0.32,1.4,-3.36,-2.08,339,455,406,469,238
950,0.93,-0.2,0.31,1.28,-2.99,-3.54,340,458,403,471,237
951,0.93,-0.19,0.32,0.73,-2.75,-2.26,339,458,409,469,236
952,0.92,-0.19,0.32,2.01,-3.85,-1.4,340,450,405,472,237
953,0.94,-0.19,0.3,2.2,-3.78,-2.87,336,459,414,472,243
954,0.94,-0.18,0.32,0.49,-3.11,-3.54,339,457,406,471,237
955,0.95,-0.18,0.3,-0.43,-2.01,-1.89,339,450,402,470,238
956,0.95,-0.18,0.3,-0.67,-2.56,-3.23,339,452,405,469,238
957,0.93,-0.19,0.3,0.12,-1.46,-2.56,335,451,408,472,237
958,0.94,-0.18,0.31,2.26,-3.78,-2.69,341,459,405,472,237
959,0.95,-0.18,0.3,0.61,-3.78,-1.83,339,455,405,470,263
960,0.94,-0.19,0.29,-0.55,-2.93,-3.3,339,458,408,471,244
961,0.94,-0.19,0.3,-1.46,-2.99,-1.89,340,454,407,467,239
962,0.94,-0.19,0.3,-0.79,-2.26,-2.32,343,459,405,466,239
963,0.94,-0.19,0.3,0.55,-2.69,-2.62,339,453,406,466,237
964,0.96,-0.18,0.3,1.22,-4.09,-2.69,335,459,408,468,236
965,0.95,-0.18,0.3,0.55,-2.2,-2.81,339,469,413,472,240
966,0.94,-0.19,0.3,-1.1,-2.01,-1.4,340,452,403,468,237
967,0.94,-0.19,0.3,2.62,-4.09,-3.05,331,454,405,465,236
968,0.94,-0.18,0.3,1.53,-2.56,-2.38,339,449,404,472,238
969,0.94,-0.19,0.28,2.01,-4.46,-3.54,339,460,402,468,237
970,0.94,-0.17,0.3,-0.06,-2.2,-2.69,336,449,408,472,237
971,0.95,-0.17,0.28,-0.18,-2.38,-1.89,338,458,404,471,240
972,0.96,-0.16,0.28,1.83,-4.15,-2.32,337,455,405,470,238
973,0.95,-0.17,0.28,-0.31,-3.97,-1.65,338,453,405,471,234
974,0.96,-0.16,0.27,0.67,-5.0,-4.27,336,458,405,469,238
975,0.96,-0.15,0.26,-10.86,-2.93,0.61,335,459,405,469,241
976,0.95,-0.19,0.26,1.89,-3.3,-3.23,340,457,408,471,238
977,0.95,-0.19,0.27,0.55,-3.48,-2.93,336,453,404,468,238
978,0.96,-0.18,0.28,-2.32,-3.05,-3.72,337,457,404,469,238
979,0.96,-0.18,0.27,0.06,-2.44,-2.75,335,454,407,468,239
980,0.95,-0.18,0.26,-0.85,-3.66,-2.44,337,454,408,471,232
981,0.95,-0.18,0.26,-1.22,-3.05,-2.44,338,454,402,468,236
982,0.97,-0.18,0.26,0.92,-2.01,-1.95,334,455,404,465,239
983,0.95,-0.19,0.26,-0.18,-2.87,-2.81,332,458,408,465,236
984,0.96,-0.17,0.27,0.37,-1.71,-1.77,334,458,402,470,239
985,0.95,-0.17,0.28,1.16,-1.53,-2.44,342,449,404,473,234
986,0.95,-0.18,0.27,-0.24,-3.91,-2.38,338,449,412,464,239
987,0.95,-0.18,0.27,-0.67,-2.56,-2.08,337,454,404,468,236
988,0.96,-0.17,0.27,0.49,-2.81,-2.99,340,447,406,469,236
989,0.96,-0.18,0.27,0.92,-2.44,-2.44,335,454,407,466,237
990,0.95,-0.18,0.27,-0.73,-2.81,-2.14,337,459,405,468,234
991,0.95,-0.18,0.27,-0.06,-3.6,-2.62,336,453,402,468,240
992,0.96,-0.18,0.27,0.73,-3.91,-1.83,334,458,405,468,237
993,0.94,-0.18,0.28,1.89,-2.32,-2.93,338,458,405,468,236
994,0.96,-0.16,0.27,3.3,-4.15,-3.48,337,471,406,470,237
995,0.96,-0.17,0.27,0.18,-3.36,-2.32,334,451,405,465,240
996,0.95,-0.18,0.26,-0.43,-3.42,-2.14,336,455,408,468,234
997,0.96,-0.17,0.26,0.43,-3.23,-1.77,335,457,402,470,238
998,0.96,-0.17,0.27,0.73,-2.93,-2.93,337,457,407,475,235
999,0.95,-0.17,0.27,-0.24,-2.08,-2.93,338,455,404,468,238
1000,0.95,-0.18,0.26,0.55,-3.36,-2.93,339,456,407,465,237
1001,0.96,-0.18,0.26,-0.12,-2.99,-2.93,337,451,406,470,245
1002,0.96,-0.17,0.27,-2.14,-0.55,-2.32,337,455,404,465,231
1003,0.89,-0.18,0.32,-15.5,-6.71,-0.61,333,455,402,462,242
1004,0.93,-0.28,0.28,0.67,-2.81,-1.95,340,454,415,493,223
1005,0.93,-0.29,0.28,0.73,-2.32,-2.08,336,450,414,502,226
1006,0.91,-0.3,0.28,1.28,-2.56,-2.44,350,452,414,493,223
1007,0.93,-0.29,0.28,0.92,-2.69,-3.23,336,449,413,493,223
1008,0.92,-0.3,0.28,0.0,-1.89,-2.99,338,448,418,491,223
1009,0.92,-0.29,0.29,0.85,-3.36,-2.69,335,452,415,490,225
1010,0.92,-0.28,0.29,0.06,-2.99,-2.99,341,455,416,490,224
1011,0.92,-0.29,0.29,1.34,-3.97,-2.56,339,449,416,493,227
1012,0.93,-0.28,0.29,1.65,-2.99,-1.71,337,447,412,493,225
1013,0.92,-0.29,0.28,1.04,-2.44,-2.32,339,450,419,490,226
1014,0.94,-0.28,0.28,-0.98,-2.56,0.49,338,443,414,488,226
1015,0.95,-0.28,0.28,3.97,-3.6,-5.8,339,451,412,497,216
1016,0.9,-0.28,0.29,1.77,-4.94,-4.88,338,448,413,492,228
1017,0.91,-0.28,0.29,-4.64,-3.23,-1.71,340,457,414,492,229
1018,0.93,-0.26,0.29,0.55,-2.08,-1.04,340,447,414,495,229
1019,0.91,-0.28,0.29,-0.92,-3.36,-1.95,338,452,413,488,231
1020,0.94,-0.27,0.28,-0.85,-5.07,-2.26,338,460,414,490,224
1021,0.94,-0.25,0.29,0.79,-2.08,-0.85,341,450,413,488,229
1022,0.93,-0.26,0.3,2.93,-6.16,-3.42,340,452,412,487,226
1023,0.92,-0.27,0.29,-2.75,-3.66,-2.5,336,448,412,488,230
1024,0.91,-0.26,0.3,-0.49,-1.46,-2.99,340,448,412,488,228
1025,0.92,-0.28,0.25,3.66,1.53,-6.47,336,445,414,487,228
1026,0.89,-0.29,0.27,-2.62,-1.1,2.26,340,448,409,487,230
1027,0.94,-0.27,0.28,-3.54,-3.72,-4.21,338,448,412,483,226
1028,0.96,-0.23,0.3,-0.24,-0.73,-0.73,341,442,415,486,233
1029,0.94,-0.25,0.28,0.55,-1.71,0.0,335,447,413,483,232
1030,0.92,-0.28,0.29,-1.77,-1.65,-1.53,338,444,412,494,255
1031,0.92,-0.27,0.29,0.06,-2.14,-2.08,339,448,412,488,227
1032,0.92,-0.27,0.3,1.46,-3.48,-2.26,341,449,414,486,233
1033,0.92,-0.27,0.3,0.24,-2.87,-2.69,338,452,412,485,232
1034,0.91,-0.29,0.28,-0.12,-2.75,-1.95,339,449,412,488,234
1035,0.92,-0.29,0.29,2.08,-1.65,-2.99,342,448,415,489,233
1036,0.93,-0.28,0.3,1.71,-2.56,-3.91,337,447,414,486,229
1037,0.92,-0.29,0.3,0.24,-1.89,-2.99,340,452,409,489,239
1038,0.92,-0.28,0.32,0.0,-1.22,-2.44,340,451,412,480,234
1039,0.91,-0.28,0.33,0.43,-0.92,-0.79,340,457,410,486,230
1040,0.89,-0.32,0.32,2.69,-2.38,-1.65,340,452,411,486,233
1041,0.89,-0.32,0.32,-3.42,-2.69,1.71,340,452,411,482,235
1042,0.91,-0.3,0.33,2.2,-2.62,-2.62,339,448,411,486,235
1043,0.9,-0.3,0.35,-0.06,-1.53,-1.59,340,449,413,486,230
1044,0.91,-0.29,0.35,5.07,-2.32,-3.6,343,448,410,487,236
1045,0.9,-0.28,0.36,0.0,-3.48,-2.38,337,452,413,484,231
1046,0.9,-0.28,0.36,1.28,-3.72,-3.05,340,445,410,484,230
1047,0.91,-0.28,0.36,1.28,-3.05,-3.54,342,450,413,486,235
1048,0.9,-0.29,0.35,1.34,-2.93,-0.79,341,450,410,482,234
1049,0.89,-0.3,0.34,0.31,-3.23,-1.95,341,454,413,485,224
1050,0.9,-0.3,0.35,0.73,-1.65,-1.46,336,449,415,486,237
1051,0.9,-0.29,0.35,0.31,-1.65,-1.59,339,454,412,484,231
1052,0.91,-0.29,0.35,-0.24,-3.23,-2.87,336,453,413,486,235
1053,0.89,-0.3,0.35,1.28,-3.78,-2.81,339,448,409,483,229
1054,0.9,-0.29,0.35,1.46,-3.11,-2.99,343,455,413,484,234
1055,0.9,-0.29,0.35,0.18,-3.54,-2.56,336,446,412,485,236
1056,0.9,-0.29,0.35,1.77,-2.5,-2.38,340,449,415,483,237
1057,0.9,-0.29,0.35,3.3,-2.5,-2.75,340,446,413,483,234
1058,0.89,-0.3,0.35,-1.22,-1.28,-0.24,339,451,416,482,235
1059,0.89,-0.3,0.36,-0.73,-2.81,-3.11,340,450,411,482,238
1060,0.89,-0.3,0.35,0.37,-3.36,-1.77,341,451,415,486,238
1061,0.9,-0.3,0.36,1.77,-2.81,-1.83,341,450,411,485,239
1062,0.91,-0.28,0.36,0.73,-2.5,-2.93,342,448,413,484,235
1063,0.9,-0.29,0.36,0.18,-3.11,-2.32,341,449,423,490,258
1064,0.89,-0.29,0.36,2.44,-4.33,-3.36,339,450,413,485,236
1065,0.89,-0.31,0.35,-1.83,-2.81,-1.28,338,451,409,483,235
1066,0.89,-0.3,0.36,-0.24,-2.99,-1.59,342,445,409,489,233
1067,0.9,-0.3,0.36,-1.83,-2.75,-3.05,347,451,411,484,239
1068,0.9,-0.29,0.36,-0.24,-2.75,-3.42,340,450,410,484,236
1069,0.89,-0.29,0.36,-0.18,-2.56,-2.75,338,450,409,483,237
1070,0.89,-0.3,0.36,0.49,-3.3,-2.56,341,455,411,482,236
1071,0.94,-0.29,0.36,0.67,-3.42,-2.08,336,454,412,484,237
1072,0.91,-0.29,0.36,-0.37,-2.87,-2.32,340,449,412,480,239
1073,0.89,-0.29,0.37,1.4,-3.78,-2.14,339,453,409,485,238
1074,0.88,-0.29,0.38,-0.61,-0.31,-3.17,340,446,412,492,236
1075,0.88,-0.31,0.36,1.46,-2.62,-2.5,342,450,412,484,236
1076,0.9,-0.3,0.36,-0.24,-2.75,-3.17,340,457,409,482,236
1077,0.89,-0.3,0.36,0.43,-3.3,-2.99,340,451,410,486,240
1078,0.9,-0.3,0.36,-0.31,-4.52,-1.89,344,451,411,483,238
1079,0.91,-0.3,0.35,0.24,-3.17,-2.93,341,454,410,488,238
1080,0.89,-0.3,0.36,0.55,-2.99,-3.11,339,450,413,481,239
1081,0.88,-0.29,0.38,-0.12,-3.05,-2.99,341,452,407,483,230
1082,0.89,-0.29,0.37,-2.5,-3.78,-5.19,340,454,408,486,242
1083,0.89,-0.29,0.37,0.31,-2.62,-3.91,342,454,412,486,234
1084,0.88,-0.29,0.36,-2.01,-2.93,-2.93,341,452,412,481,238
1085,0.9,-0.28,0.38,2.87,-0.18,-2.2,342,457,410,483,274
1086,0.87,-0.31,0.37,1.71,-1.46,-1.34,338,445,409,479,237
1087,0.92,-0.3,0.36,2.08,-0.85,-1.59,340,445,406,480,237
1088,0.91,-0.28,0.39,-0.61,-0.79,-3.85,341,446,409,484,236
1089,0.9,-0.31,0.37,2.99,-1.4,-2.75,340,450,408,482,234
1090,0.9,-0.31,0.37,2.62,-1.46,-2.44,341,445,407,486,234
1091,0.87,-0.31,0.37,-0.37,-3.05,-1.22,340,449,410,485,231
1092,0.88,-0.3,0.37,0.0,-2.87,-2.69,336,450,409,482,233
1093,0.88,-0.31,0.37,0.37,-3.85,-2.99,337,451,407,484,233
1094,0.89,-0.3,0.38,3.66,-2.26,-0.61,336,450,412,484,224
1095,0.88,-0.31,0.38,-0.37,-3.54,-2.93,340,452,413,483,235
1096,0.87,-0.31,0.37,-0.06,-2.69,-2.5,339,443,412,481,232
1097,0.86,-0.32,0.38,-0.43,-2.93,-3.11,342,453,408,484,235
1098,0.89,-0.31,0.37,0.06,-3.54,-3.17,341,453,411,484,234
1099,0.88,-0.3,0.37,0.43,-2.01,-3.3,341,448,409,482,233
1100,0.89,-0.3,0.38,1.4,-3.23,-2.2,342,449,413,486,232
1101,0.89,-0.3,0.38,0.0,-2.75,-2.93,340,453,409,484,236
1102,0.88,-0.31,0.37,0.92,-2.87,-2.99,341,449,411,483,239
1103,0.88,-0.3,0.38,1.53,-2.38,-2.75,339,450,413,478,233
1104,0.89,-0.3,0.38,0.31,-2.87,-2.5,347,445,412,484,235
1105,0.89,-0.29,0.39,0.67,-3.17,-2.87,343,445,418,478,234
1106,0.88,-0.29,0.38,0.67,-3.23,-1.65,342,451,405,485,240
1107,0.88,-0.3,0.37,1.53,-2.5,-1.1,338,446,407,485,236
1108,0.89,-0.29,0.38,-0.12,-2.75,-2.32,342,449,408,482,236
1109,0.88,-0.3,0.37,0.73,-3.3,-2.14,340,450,412,480,224
1110,0.9,-0.29,0.38,0.49,-2.62,-2.69,351,449,412,479,235
1111,0.9,-0.28,0.38,0.98,-2.87,-3.23,341,449,409,483,234
1112,0.89,-0.28,0.39,-1.53,-2.99,-3.11,342,450,421,479,234
1113,0.89,-0.28,0.38,0.79,-2.87,-2.38,340,450,405,480,234
1114,0.89,-0.28,0.38,1.22,-2.62,-2.26,340,444,405,476,237
1115,0.89,-0.28,0.38,0.12,-3.3,-2.99,340,449,409,481,234
1116,0.9,-0.27,0.38,1.59,-3.78,-2.14,340,451,410,481,234
1117,0.9,-0.28,0.37,0.73,-3.42,-2.32,341,453,411,481,229
1118,0.9,-0.27,0.38,1.16,-3.05,-3.23,338,450,409,478,238
1119,0.9,-0.27,0.38,0.43,-2.32,-2.69,340,455,407,483,237
1120,0.88,-0.27,0.38,-0.12,-3.05,-2.69,347,445,411,481,235
1121,0.9,-0.27,0.38,0.98,-2.5,-2.87,341,452,409,481,238
1122,0.89,-0.27,0.39,-1.4,-3.17,-2.01,341,461,409,482,235
1123,0.89,-0.28,0.38,0.98,-2.69,-1.83,341,450,412,480,237
1124,0.89,-0.27,0.38,-0.67,-2.81,-1.65,347,450,409,480,235
1125,0.89,-0.28,0.38,-0.79,-3.11,-2.2,340,451,408,480,237
1126,0.9,-0.27,0.38,0.55,-3.17,-2.75,340,456,411,480,236
1127,0.9,-0.26,0.38,-1.04,-3.11,-2.56,344,444,410,483,233
1128,0.9,-0.26,0.39,1.1,-3.72,-3.54,341,447,411,482,235
1129,0.91,-0.26,0.38,0.43,-3.05,-2.32,342,454,412,479,235
1130,0.89,-0.27,0.38,-0.43,-2.93,-1.89,341,451,410,477,233
1131,0.89,-0.27,0.38,-0.24,-2.99,-1.89,341,454,413,479,238
1132,0.89,-0.27,0.38,1.71,-3.48,-2.75,340,451,408,480,236
1133,0.9,-0.26,0.39,0.31,-3.72,-2.62,340,450,408,482,236
1134,0.89,-0.27,0.38,0.24,-2.56,-2.87,342,450,411,482,247
1135,0.88,-0.28,0.38,-1.1,-3.54,-2.75,340,454,410,476,239
1136,0.89,-0.26,0.38,0.55,-2.44,-3.48,341,448,407,479,236
1137,0.89,-0.27,0.38,0.24,-2.14,-2.56,339,450,411,477,236
1138,0.9,-0.26,0.38,0.61,-3.97,-3.6,340,444,409,480,236
1139,0.9,-0.26,0.37,0.49,-5.74,-1.95,340,449,405,478,240
1140,0.9,-0.26,0.37,0.61,-3.54,-2.81,339,453,404,480,234
1141,0.89,-0.26,0.37,0.61,-2.81,-3.42,340,449,408,480,244
1142,0.91,-0.26,0.38,-0.79,-2.2,-2.14,340,455,409,482,238
1143,0.9,-0.27,0.37,1.28,-2.62,-2.87,341,455,408,480,238
1144,0.91,-0.26,0.38,1.04,-1.28,-2.14,341,445,411,482,238
1145,0.89,-0.28,0.37,-2.38,-2.69,-3.05,341,450,408,478,242
1146,0.9,-0.26,0.37,0.12,-2.38,-2.2,338,450,411,479,234
1147,0.9,-0.26,0.38,1.46,-2.69,-2.62,341,451,409,480,235
1148,0.9,-0.26,0.38,0.06,-2.93,-2.14,339,450,405,477,235
1149,0.9,-0.26,0.38,1.1,-3.05,-3.11,340,452,408,481,236
1150,0.9,-0.26,0.38,-0.06,-2.26,-3.23,339,450,408,479,236
1151,0.9,-0.25,0.39,1.22,-2.81,-2.32,337,455,409,479,238
1152,0.9,-0.27,0.37,1.16,-3.66,-2.26,351,445,410,478,233
1153,0.9,-0.26,0.38,-0.55,-3.66,-2.75,342,451,408,480,233
1154,0.91,-0.25,0.39,0.55,-2.81,-3.17,334,453,412,478,238
1155,0.9,-0.26,0.38,-0.37,-3.54,-2.75,343,450,410,477,237
1156,0.91,-0.25,0.38,1.46,-2.01,-3.11,342,452,408,482,236
1157,0.9,-0.26,0.39,0.55,-1.89,-1.83,341,452,408,480,238
1158,0.89,-0.26,0.4,1.53,-3.91,-3.23,342,448,402,475,236
1159,0.9,-0.24,0.4,0.12,-3.36,-0.73,340,452,406,478,236
1160,0.88,-0.26,0.41,1.34,-3.3,-2.26,341,456,410,473,237
1161,0.9,-0.27,0.38,0.61,-2.62,-2.69,338,451,407,481,234
1162,0.86,-0.29,0.39,-0.55,-3.42,-3.36,341,451,409,482,240
1163,0.88,-0.27,0.39,1.22,-4.33,-2.75,341,454,414,479,245
1164,0.92,-0.26,0.37,2.62,-2.69,-1.28,341,451,405,478,237
1165,0.89,-0.28,0.39,-0.12,-1.83,-2.38,341,447,407,476,236
1166,0.88,-0.28,0.39,-1.22,-3.23,-3.78,341,453,407,478,237
1167,0.88,-0.28,0.38,0.79,-2.2,-1.16,342,451,408,480,237
1168,0.88,-0.29,0.39,0.0,-2.69,-2.14,343,452,409,479,234
1169,0.88,-0.27,0.4,0.06,-2.14,-2.01,344,451,408,476,237
1170,0.9,-0.27,0.4,1.1,-3.54,-1.1,337,452,409,476,240
1171,0.9,-0.27,0.39,1.59,-4.39,-0.92,344,452,420,483,235
1172,0.87,-0.29,0.39,0.18,-1.34,-2.2,340,451,408,478,236
1173,0.87,-0.29,0.39,0.37,-3.17,-1.77,338,454,410,495,237
1174,0.85,-0.31,0.38,2.01,-2.81,-3.54,342,451,410,477,236
1175,0.86,-0.29,0.39,-0.18,-2.62,-2.2,340,452,411,474,240
1176,0.9,-0.28,0.4,0.98,-2.62,-3.66,338,446,407,480,236
1177,0.91,-0.27,0.38,4.09,-3.72,-5.86,342,451,407,481,241
1178,0.9,-0.24,0.41,-0.06,-3.54,-1.1,341,455,411,477,238
1179,0.9,-0.28,0.37,-0.79,-1.89,-1.59,339,450,407,475,237
1180,0.9,-0.28,0.38,-7.32,-2.08,-0.43,342,455,409,478,241
1181,0.87,-0.3,0.38,-1.4,-2.93,-2.01,342,455,408,475,239
1182,0.87,-0.3,0.38,-0.31,-2.32,-3.42,339,467,406,478,260
1183,0.89,-0.29,0.38,0.06,-2.81,-2.62,339,454,410,477,240
1184,0.9,-0.28,0.38,-0.43,-1.95,-2.08,344,456,407,480,241
1185,0.89,-0.29,0.38,0.79,-4.15,-4.15,341,454,406,476,238
1186,0.86,-0.3,0.37,0.37,-3.3,-2.32,343,454,409,478,238
1187,0.89,-0.3,0.37,-0.92,-2.2,-2.32,340,452,408,478,236
1188,0.91,-0.26,0.41,0.73,-1.89,-2.93,342,453,407,479,238
1189,0.89,-0.28,0.39,1.65,-4.09,-3.66,344,453,408,478,241
1190,0.89,-0.29,0.38,0.0,-3.85,-2.69,341,450,410,478,238
1191,0.9,-0.28,0.38,1.59,-2.75,-2.62,339,454,410,477,240
1192,0.89,-0.29,0.38,-0.31,-2.62,-2.56,338,447,407,476,242
1193,0.87,-0.3,0.38,0.55,-2.93,-1.77,342,453,407,477,242
1194,0.89,-0.29,0.38,2.69,-1.89,-2.62,342,452,411,478,239
1195,0.89,-0.28,0.4,4.58,-2.99,-3.6,338,453,408,479,239
1196,0.89,-0.28,0.4,-1.16,-3.11,-2.99,343,457,409,479,241
1197,0.87,-0.3,0.38,0.24,-2.69,-2.75,341,454,412,478,240
1198,0.88,-0.28,0.39,0.79,-3.91,-1.34,343,451,403,476,243
1199,0.89,-0.29,0.39,0.12,-2.93,-2.62,339,455,409,478,241
1200,0.88,-0.28,0.4,-1.1,-2.08,-2.87,342,452,407,480,242
1201,0.89,-0.27,0.4,-0.06,-2.56,-2.62,342,454,408,476,238
1202,0.88,-0.28,0.39,1.59,-2.32,-3.17,344,451,411,478,242
1203,0.88,-0.29,0.39,-0.06,-3.05,-3.6,339,453,412,477,238
1204,0.88,-0.29,0.39,0.85,-2.93,-2.5,339,447,404,480,241
1205,0.89,-0.28,0.39,0.98,-3.05,-2.81,342,452,408,475,245
1206,0.9,-0.27,0.4,1.46,-2.81,-3.85,342,451,408,477,243
1207,0.88,-0.28,0.4,0.61,-2.99,-2.56,343,452,407,480,244
1208,0.89,-0.27,0.39,1.1,-2.99,-3.6,342,452,405,474,244
1209,0.88,-0.27,0.4,1.28,-1.59,-2.56,343,451,406,477,240
1210,0.89,-0.27,0.39,0.55,-2.93,-2.26,342,448,412,485,243
1211,0.9,-0.27,0.38,1.77,-2.56,-2.87,345,452,409,477,242
1212,0.89,-0.27,0.4,0.61,-3.11,-2.01,338,456,406,474,242
1213,0.89,-0.27,0.39,0.73,-3.11,-2.44,343,448,411,482,242
1214,0.89,-0.26,0.4,1.04,-2.32,-3.11,342,452,409,477,241
1215,0.89,-0.26,0.4,1.53,-3.36,-3.3,341,456,410,475,244
1216,0.89,-0.26,0.4,-0.55,-3.3,-3.05,343,453,409,477,244
1217,0.89,-0.26,0.41,-0.06,-2.69,-2.2,342,452,410,475,241
1218,0.89,-0.27,0.39,0.06,-2.75,-2.08,341,452,409,477,244
1219,0.89,-0.26,0.4,-0.18,-2.69,-2.93,341,452,413,478,242
1220,0.89,-0.28,0.39,-0.31,-2.75,-1.89,343,451,409,477,243
1221,0.89,-0.28,0.38,1.59,-2.08,-4.39,341,447,407,476,242
1222,0.89,-0.26,0.4,0.0,-2.87,-3.36,342,456,411,475,242
1223,0.87,-0.27,0.41,0.49,-2.99,-2.38,341,447,411,476,242
1224,0.87,-0.27,0.41,0.92,-3.05,-2.87,342,456,405,479,245
1225,0.91,-0.26,0.4,0.73,-3.66,-1.59,343,447,411,479,254
1226,0.89,-0.26,0.41,0.92,-2.81,-2.32,334,454,407,479,244
1227,0.88,-0.27,0.39,1.65,-3.36,-2.56,342,464,411,473,242
1228,0.87,-0.28,0.39,2.14,-2.62,-2.62,342,453,411,479,244
1229,0.89,-0.26,0.41,-4.39,-1.53,2.01,342,452,406,477,243
1230,0.87,-0.28,0.41,-2.01,-4.64,-0.67,338,453,408,477,243
1231,0.87,-0.28,0.41,0.37,-2.93,-2.38,341,452,411,476,244
1232,0.87,-0.29,0.4,-0.24,-3.23,-2.26,342,451,407,476,242
1233,0.88,-0.28,0.4,-0.37,-3.48,-1.1,344,454,408,476,242
1234,0.88,-0.27,0.41,1.1,-2.87,-1.83,345,457,412,480,241
1235,0.88,-0.28,0.41,-0.67,-1.77,-1.59,345,453,409,475,244
1236,0.87,-0.29,0.4,-0.06,-3.23,-3.36,343,449,409,475,240
1237,0.89,-0.28,0.4,2.01,-3.42,-3.66,342,449,412,477,242
1238,0.86,-0.29,0.42,1.53,-3.66,-1.46,339,447,411,475,246
1239,0.87,-0.28,0.41,-1.28,-3.11,-1.89,342,455,408,476,242
1240,0.88,-0.28,0.41,0.12,-2.62,-1.46,343,453,411,477,242
1241,0.86,-0.28,0.42,0.18,-3.42,-1.28,345,453,408,475,240
1242,0.87,-0.28,0.41,1.04,-2.81,-2.38,345,451,404,472,243
1243,0.87,-0.29,0.41,1.22,-3.54,-2.87,341,453,410,475,243
1244,0.88,-0.29,0.4,-0.18,-2.69,-2.93,341,452,407,474,244
1245,0.87,-0.28,0.41,0.06,-2.99,-3.23,342,452,409,475,245
1246,0.89,-0.27,0.41,2.5,-3.3,-2.56,339,454,404,476,240
1247,0.89,-0.28,0.4,-4.03,-2.56,-1.04,342,447,408,472,245
1248,0.88,-0.3,0.39,0.24,-4.94,-2.44,343,453,408,479,243
1249,0.85,-0.29,0.42,-2.01,-2.81,-1.89,341,451,404,479,245
1250,0.86,-0.29,0.4,-0.37,-3.54,-3.85,343,454,408,476,238
1251,0.89,-0.26,0.42,-0.37,-3.17,-2.08,344,456,409,475,244
1252,0.9,-0.27,0.41,-0.67,-3.11,-2.5,343,453,406,477,244
1253,0.88,-0.28,0.41,-0.06,-3.36,-1.77,340,449,411,472,245
1254,0.89,-0.28,0.4,1.16,-3.36,-2.2,340,452,411,478,242
1255,0.88,-0.3,0.38,-1.28,-2.08,-3.11,342,452,407,475,244
1256,0.88,-0.28,0.41,-0.61,-3.3,-1.95,340,447,410,476,244
1257,0.88,-0.27,0.41,-1.95,-4.46,-4.88,342,451,407,477,242
1258,0.89,-0.27,0.4,-0.31,-4.21,-4.58,344,451,404,475,244
1259,0.9,-0.27,0.39,0.98,-3.97,-2.93,342,450,409,478,243
1260,0.88,-0.27,0.39,0.61,-3.54,-2.99,342,453,410,477,243
1261,0.9,-0.27,0.39,-0.67,-2.26,-3.72,342,455,407,475,238
1262,0.89,-0.25,0.4,1.16,-3.23,-2.62,343,452,410,477,242
1263,0.88,-0.27,0.39,0.79,-3.11,-3.23,344,454,409,475,242
1264,0.92,-0.26,0.38,0.92,-2.81,-1.46,342,452,413,474,242
1265,0.9,-0.26,0.39,0.79,-2.69,-2.5,339,448,411,477,242
1266,0.9,-0.26,0.39,-0.67,-3.17,-3.97,338,458,410,477,240
1267,0.9,-0.25,0.4,2.81,-3.42,-2.32,342,448,409,474,237
1268,0.92,-0.23,0.41,0.61,-3.48,-3.78,344,454,408,476,243
1269,0.89,-0.25,0.39,-0.85,-2.5,-2.44,342,453,413,477,241
1270,0.89,-0.25,0.4,1.1,-2.93,-2.44,344,453,410,478,254
1271,0.9,-0.25,0.39,0.85,-2.75,-2.5,345,454,404,476,243
1272,0.89,-0.25,0.39,1.1,-2.75,-3.66,354,453,413,476,242
1273,0.9,-0.25,0.4,0.92,-3.36,-3.05,344,455,411,474,239
1274,0.89,-0.25,0.39,1.59,-2.81,-2.75,342,457,411,473,246
1275,0.9,-0.25,0.39,-0.06,-3.6,-3.3,342,453,420,474,243
1276,0.88,-0.27,0.38,-0.37,-2.56,-1.59,342,453,408,471,242
1277,0.89,-0.25,0.39,0.37,-3.17,-2.62,342,449,421,476,244
1278,0.89,-0.25,0.4,0.85,-3.11,-2.38,340,449,404,471,241
1279,0.89,-0.25,0.39,-0.61,-3.36,-2.14,344,452,417,477,245
1280,0.9,-0.25,0.4,-1.04,-2.75,-2.32,340,453,409,474,245
1281,0.88,-0.25,0.39,0.0,-3.05,-2.81,342,457,411,474,244
1282,0.89,-0.25,0.39,1.04,-2.99,-2.26,341,453,410,474,244
1283,0.9,-0.24,0.4,1.16,-3.42,-2.75,346,448,409,475,243
1284,0.91,-0.24,0.4,0.55,-2.99,-2.14,348,449,409,485,245
1285,0.9,-0.24,0.39,0.18,-2.93,-2.93,343,448,409,474,246
1286,0.9,-0.24,0.4,0.98,-3.36,-2.69,342,449,412,473,235
1287,0.9,-0.24,0.4,0.67,-3.66,-1.83,343,453,409,475,244
1288,0.9,-0.24,0.4,0.67,-3.23,-1.89,342,449,411,477,237
1289,0.88,-0.25,0.4,-0.12,-2.75,-2.32,342,454,412,473,242
1290,0.93,-0.23,0.41,-2.14,-1.34,-1.53,342,449,411,474,245
1291,0.91,-0.25,0.4,0.98,-2.99,-2.44,340,453,409,476,244
1292,0.9,-0.26,0.38,2.38,-3.05,-3.6,342,453,410,476,243
1293,0.87,-0.26,0.4,-1.04,-2.87,-1.71,345,449,408,477,243
1294,0.88,-0.26,0.37,-0.92,-7.45,-6.84,343,453,411,474,241
1295,0.94,-0.24,0.32,7.02,-0.24,-7.32,342,449,409,474,244
1296,0.92,-0.21,0.36,0.67,-2.62,-2.56,342,453,410,477,245
1297,0.94,-0.22,0.34,0.67,-3.23,-4.33,338,455,407,476,240
1298,0.92,-0.21,0.34,2.38,-2.32,-3.72,342,455,412,473,241
1299,0.94,-0.19,0.36,-1.34,-0.31,1.04,344,452,409,474,240
1300,0.91,-0.25,0.34,-4.88,-3.97,1.77,341,453,408,475,241
1301,0.96,-0.23,0.35,-1.65,-10.25,-2.69,344,455,406,474,239
1302,0.9,-0.32,0.27,-4.52,-7.32,-2.08,342,446,406,475,240
1303,0.87,-0.32,0.26,1.1,-10.44,-1.89,341,451,404,471,237
1304,0.97,-0.25,0.26,-1.4,-4.33,-4.33,339,455,406,470,253
1305,0.95,-0.25,0.28,3.11,-7.2,-2.14,340,453,410,474,235
1306,0.92,-0.29,0.26,1.77,-1.34,-5.62,344,452,409,491,234
1307,0.96,-0.22,0.29,-4.21,-1.89,-5.49,342,449,405,472,245
1308,0.95,-0.19,0.31,-0.67,-6.47,-5.37,344,447,410,477,242
1309,0.96,-0.2,0.29,2.93,-4.09,-3.72,341,452,403,476,235
1310,0.94,-0.23,0.27,2.2,-1.1,-2.75,345,452,408,473,236
1311,0.96,-0.2,0.29,1.46,-2.5,-1.95,344,453,408,473,235
1312,0.95,-0.2,0.28,-1.46,-2.01,-2.62,342,457,406,471,244
1313,0.95,-0.21,0.28,2.81,-3.72,-3.17,338,453,408,475,237
1314,0.94,-0.21,0.28,4.76,-4.46,-5.13,340,456,408,473,242
1315,0.96,-0.19,0.29,1.34,-4.94,-3.91,345,457,405,472,236
1316,0.94,-0.2,0.28,0.67,-2.99,-2.26,342,454,407,476,238
1317,0.96,-0.19,0.29,1.04,-2.44,-3.17,341,453,409,471,236
1318,0.96,-0.18,0.29,0.73,-3.85,-3.05,345,452,405,469,240
1319,0.95,-0.19,0.29,1.89,-2.62,-1.4,346,456,409,474,247
1320,0.95,-0.2,0.28,0.55,-2.99,-3.42,342,455,405,471,237
1321,0.93,-0.2,0.29,0.18,-4.03,-3.66,341,447,406,473,238
1322,0.95,-0.19,0.28,1.22,-2.38,-2.87,342,451,407,475,239
1323,0.95,-0.18,0.28,1.71,-2.62,-3.11,343,452,407,472,239
1324,0.94,-0.18,0.29,-0.55,-2.87,-1.83,339,452,402,469,234
1325,0.94,-0.19,0.29,0.61,-2.99,-3.3,342,453,405,472,236
1326,0.94,-0.18,0.29,1.83,-3.66,-1.95,342,451,406,472,236
1327,0.93,-0.19,0.29,1.16,-2.81,-1.22,339,453,408,470,234
1328,0.95,-0.19,0.29,-0.31,-3.3,-2.44,343,448,406,471,237
1329,0.95,-0.18,0.29,0.31,-3.17,-3.48,343,456,404,473,235
1330,0.94,-0.18,0.29,2.26,-2.44,-1.89,340,453,408,474,236
1331,0.95,-0.18,0.29,2.75,-3.3,-2.44,341,456,408,471,239
1332,0.94,-0.18,0.3,-0.49,-3.85,-3.11,342,456,402,474,237
1333,0.95,-0.18,0.28,1.4,-3.72,-1.65,341,458,407,472,236
1334,0.95,-0.18,0.29,0.31,-3.85,-3.3,342,452,409,474,237
1335,0.95,-0.17,0.29,0.31,-1.95,-2.44,343,452,406,472,236
1336,0.97,-0.18,0.27,3.11,-3.36,-2.56,342,452,404,472,238
1337,0.94,-0.19,0.28,0.92,-3.05,-2.56,344,453,409,469,239
1338,0.94,-0.19,0.29,0.85,-3.23,-1.53,342,453,408,481,239
1339,0.94,-0.19,0.29,1.71,-2.69,-4.09,342,448,407,475,236
1340,0.95,-0.18,0.29,2.93,-1.95,-2.81,343,455,403,475,238
1341,0.95,-0.17,0.3,0.61,-3.23,-2.69,340,454,405,473,237
1342,0.94,-0.18,0.29,0.12,-2.99,-2.93,343,452,408,472,240
1343,0.95,-0.18,0.3,0.31,-3.54,-2.56,342,452,407,472,239
1344,0.95,-0.18,0.29,0.67,-3.42,-2.32,343,450,409,472,240
1345,0.94,-0.18,0.29,0.61,-3.05,-1.89,343,452,410,473,236
1346,0.95,-0.18,0.29,0.06,-2.93,-1.83,344,451,409,471,241
1347,0.94,-0.17,0.31,1.77,-2.2,-1.83,342,453,406,475,237
1348,0.94,-0.17,0.3,-0.73,-2.14,-2.2,342,451,407,476,239
1349,0.96,-0.17,0.29,0.85,-4.15,-1.83,341,455,404,470,237
1350,0.95,-0.18,0.29,2.08,-3.85,-0.79,342,451,406,472,240
1351,0.95,-0.18,0.29,-2.14,-2.26,-1.16,344,450,405,472,239
1352,0.94,-0.18,0.29,-1.4,-2.75,-2.62,342,454,406,470,241
1353,0.96,-0.16,0.3,-0.12,-4.03,-3.05,343,453,403,471,238
1354,0.95,-0.17,0.29,1.65,-3.3,-2.2,345,448,407,474,239
1355,0.96,-0.17,0.29,-1.34,-3.66,-1.4,343,449,409,476,238
1356,0.94,-0.18,0.29,-0.18,-3.6,-1.4,346,451,408,472,238
1357,0.95,-0.17,0.29,1.28,-0.31,-3.48,339,449,405,473,240
1358,0.95,-0.17,0.3,1.77,-2.62,-3.3,343,449,408,471,236
1359,0.95,-0.18,0.29,0.98,-1.1,-2.44,343,446,405,474,240
1360,0.96,-0.17,0.29,2.08,-3.54,-3.3,340,453,406,471,239
1361,0.95,-0.17,0.29,2.01,-2.01,-2.69,339,456,408,473,239
1362,0.94,-0.17,0.29,-0.12,-3.11,-2.93,342,457,404,475,238
1363,0.95,-0.17,0.29,0.55,-4.39,-2.5,341,447,407,472,238
1364,0.96,-0.17,0.29,0.85,-2.14,-3.11,338,453,406,469,241
1365,0.95,-0.17,0.29,-1.46,-1.53,-2.14,341,462,405,472,238
1366,0.94,-0.17,0.29,1.28,-2.87,-2.5,342,452,409,471,241
1367,0.95,-0.17,0.3,1.46,-2.87,-2.5,342,455,408,468,240
1368,0.95,-0.17,0.29,0.31,-3.3,-2.93,341,453,402,471,239
1369,0.95,-0.16,0.29,0.06,-2.75,-2.62,340,457,406,477,238
1370,0.95,-0.17,0.29,0.43,-2.93,-1.65,341,458,404,471,240
1371,0.95,-0.17,0.29,0.92,-2.32,-3.17,343,452,406,468,239
1372,0.95,-0.16,0.3,0.67,-2.93,-2.2,339,451,406,472,238
1373,0.95,-0.17,0.29,-0.73,-2.99,-3.48,343,453,405,470,240
1374,0.95,-0.17,0.29,0.06,-2.75,-2.56,341,456,415,474,239
1375,0.95,-0.16,0.29,0.24,-3.11,-1.95,335,452,408,473,238
1376,0.95,-0.17,0.3,1.1,-3.78,-2.44,337,454,408,468,238
1377,0.95,-0.17,0.29,-0.24,-2.56,-1.22,339,453,406,467,268
1378,0.95,-0.17,0.29,0.0,-2.56,-1.77,337,453,408,473,237
1379,0.95,-0.17,0.29,0.98,-1.77,-2.75,342,452,403,467,237
1380,0.94,-0.17,0.29,1.71,-2.81,-3.54,339,448,422,479,236
1381,0.97,-0.14,0.32,2.5,-3.05,-2.81,338,457,406,470,235
1382,0.95,-0.17,0.29,0.06,-2.08,-2.08,340,452,405,474,236
1383,0.94,-0.17,0.3,0.18,-2.32,-2.56,341,456,404,473,236
1384,0.94,-0.17,0.3,-0.18,-3.91,-2.08,339,452,403,472,236
1385,0.96,-0.17,0.29,-0.49,-2.93,-1.89,341,454,409,471,238
1386,0.94,-0.17,0.29,-0.49,-3.91,-3.3,341,457,407,471,241
1387,0.95,-0.17,0.29,-0.43,-2.38,-0.67,342,454,406,471,236
1388,0.95,-0.19,0.26,-0.49,-1.77,-1.53,343,450,405,468,243
1389,0.95,-0.19,0.29,-1.4,-1.1,-0.43,342,460,408,474,235
1390,0.94,-0.21,0.29,-0.24,-3.48,-0.24,343,457,407,471,237
1391,0.92,-0.23,0.28,1.77,-3.85,-1.4,340,454,406,477,236
1392,0.94,-0.22,0.29,1.71,-1.77,-2.56,338,452,406,468,236
1393,0.94,-0.22,0.3,-0.37,-1.59,-3.54,338,455,405,471,235
1394,0.94,-0.22,0.3,-0.85,-1.95,-2.62,336,457,412,473,235
1395,0.93,-0.22,0.3,0.06,-2.08,-2.69,341,454,409,468,238
1396,0.92,-0.23,0.3,-0.49,-2.44,-2.87,340,449,407,468,233
1397,0.93,-0.21,0.32,1.53,-4.46,-3.23,339,459,408,469,234
1398,0.93,-0.21,0.31,0.24,-1.77,-3.48,340,451,406,471,235
1399,0.94,-0.21,0.31,0.49,-3.6,-2.32,338,459,406,471,237
1400,0.93,-0.22,0.31,-0.12,-3.66,-2.69,340,454,418,474,237
1401,0.92,-0.22,0.31,-0.12,-2.75,-1.83,338,458,405,473,235
1402,0.9,-0.23,0.3,-0.06,-2.81,-1.65,341,460,404,471,238
1403,0.97,-0.19,0.31,2.99,-4.94,-4.33,341,454,406,469,235
1404,0.93,-0.19,0.32,-14.95,-3.23,-3.97,344,457,404,468,238
1405,0.94,-0.21,0.31,1.1,-3.66,-3.6,343,460,411,472,234
1406,0.93,-0.2,0.32,-1.89,-3.72,-2.44,341,454,403,471,253
1407,0.91,-0.22,0.3,-1.95,-4.27,-1.1,338,457,405,474,236
1408,0.94,-0.2,0.32,-1.53,-5.19,-2.38,342,451,403,473,235
1409,0.94,-0.21,0.31,-1.1,-3.54,-3.23,342,456,403,473,238
1410,0.93,-0.2,0.31,1.28,-1.95,-1.22,341,457,409,471,237
1411,0.95,-0.2,0.31,0.18,-2.81,-4.82,340,456,403,471,236
1412,0.94,-0.2,0.31,-0.55,-2.87,-3.05,336,454,406,471,237
1413,0.93,-0.2,0.31,-0.49,-2.69,-1.04,342,458,406,471,234
1414,0.94,-0.2,0.31,2.01,-3.48,-4.46,342,456,404,469,237
1415,0.92,-0.2,0.32,0.0,-2.81,-0.55,341,459,406,470,239
1416,0.93,-0.2,0.32,1.22,-2.99,-2.2,338,451,409,471,236
1417,0.95,-0.19,0.32,1.46,-2.87,-2.81,342,451,408,470,234
1418,0.95,-0.2,0.31,-0.49,-3.6,-3.6,340,466,407,470,232
1419,0.94,-0.19,0.32,1.28,-1.89,-3.11,346,458,406,471,235
1420,0.96,-0.18,0.31,0.67,-3.91,-2.87,338,449,407,467,236
1421,0.94,-0.19,0.31,0.18,-4.09,-2.32,336,457,408,470,264
1422,0.96,-0.18,0.3,3.23,-2.62,-4.03,340,450,406,470,253
1423,0.96,-0.18,0.3,0.43,-3.54,-0.85,340,454,402,469,235
1424,0.96,-0.18,0.3,0.12,-2.32,-2.2,341,457,405,471,236
1425,0.94,-0.18,0.3,-0.67,-2.62,-2.62,338,459,405,471,233
1426,0.94,-0.18,0.3,-0.24,-2.44,-1.65,342,457,404,467,235
1427,0.93,-0.18,0.31,-0.61,-2.38,-2.26,339,457,406,472,235
1428,0.92,-0.2,0.29,0.12,-2.56,-2.99,338,455,406,473,235
1429,0.98,-0.17,0.3,1.77,-1.77,-4.21,340,449,404,474,238
1430,0.94,-0.18,0.31,-0.24,-2.14,-1.46,340,456,408,472,235
1431,0.95,-0.19,0.31,1.4,-3.48,-2.01,340,454,407,479,233
1432,0.94,-0.18,0.31,1.04,-1.77,-1.4,340,450,409,471,233
1433,0.95,-0.18,0.31,0.06,-2.5,-2.38,342,459,404,467,238
1434,0.93,-0.2,0.3,-0.37,-2.62,-2.14,340,459,407,470,235
1435,0.95,-0.18,0.31,-0.79,-4.03,-2.44,339,449,408,471,242
1436,0.95,-0.19,0.3,0.49,-3.17,-1.28,340,457,408,471,237
1437,0.95,-0.19,0.3,-0.92,-2.75,-2.38,340,449,404,473,237
1438,0.97,-0.19,0.3,0.49,-3.78,-2.99,340,454,410,473,236
1439,0.95,-0.18,0.31,1.16,-2.62,-2.32,340,450,410,471,236
1440,0.94,-0.19,0.3,-0.37,-1.53,0.12,341,455,406,467,235
1441,0.95,-0.19,0.3,-0.67,-3.54,-0.85,338,457,406,473,235
1442,0.93,-0.2,0.3,-0.85,-0.92,-1.89,337,459,408,471,236
1443,0.93,-0.19,0.32,-1.65,-2.5,-2.93,338,455,406,471,236
1444,0.94,-0.19,0.32,0.31,-2.5,-2.2,340,455,406,473,236
1445,0.94,-0.19,0.31,0.43,-2.75,-2.2,342,459,403,469,237
1446,0.93,-0.19,0.32,-0.73,-2.08,0.12,342,452,406,466,237
1447,0.94,-0.2,0.31,-0.61,-2.93,-0.85,335,452,404,470,239
1448,0.94,-0.2,0.3,-2.62,-6.04,-5.13,341,458,405,469,236
1449,0.92,-0.19,0.32,-1.95,-0.92,1.4,341,454,408,478,236
1450,0.92,-0.22,0.3,-0.61,-3.6,-5.13,337,455,406,470,236
1451,0.94,-0.19,0.32,1.4,-3.36,-2.08,339,455,406,469,238
1452,0.93,-0.2,0.31,1.28,-2.99,-3.54,340,458,403,471,237
1453,0.93,-0.19,0.32,0.73,-2.75,-2.26,339,458,409,469,236
1454,0.92,-0.19,0.32,2.01,-3.85,-1.4,340,450,405,472,237
1455,0.94,-0.19,0.3,2.2,-3.78,-2.87,336,459,414,472,243
1456,0.94,-0.18,0.32,0.49,-3.11,-3.54,339,457,406,471,237
1457,0.95,-0.18,0.3,-0.43,-2.01,-1.89,339,450,402,470,238
1458,0.95,-0.18,0.3,-0.67,-2.56,-3.23,339,452,405,469,238
1459,0.93,-0.19,0.3,0.12,-1.46,-2.56,335,451,408,472,237
1460,0.94,-0.18,0.31,2.26,-3.78,-2.69,341,459,405,472,237
1461,0.95,-0.18,0.3,0.61,-3.78,-1.83,339,455,405,470,263
1462,0.94,-0.19,0.29,-0.55,-2.93,-3.3,339,458,408,471,244
1463,0.94,-0.19,0.3,-1.46,-2.99,-1.89,340,454,407,467,239
1464,0.94,-0.19,0.3,-0.79,-2.26,-2.32,343,459,405,466,239
1465,0.94,-0.19,0.3,0.55,-2.69,-2.62,339,453,406,466,237
1466,0.96,-0.18,0.3,1.22,-4.09,-2.69,335,459,408,468,236
1467,0.95,-0.18,0.3,0.55,-2.2,-2.81,339,469,413,472,240
1468,0.94,-0.19,0.3,-1.1,-2.01,-1.4,340,452,403,468,237
1469,0.94,-0.19,0.3,2.62,-4.09,-3.05,331,454,405,465,236
1470,0.94,-0.18,0.3,1.53,-2.56,-2.38,339,449,404,472,238
1471,0.94,-0.19,0.28,2.01,-4.46,-3.54,339,460,402,468,237
1472,0.94,-0.17,0.3,-0.06,-2.2,-2.69,336,449,408,472,237
1473,0.95,-0.17,0.28,-0.18,-2.38,-1.89,338,458,404,471,240
1474,0.96,-0.16,0.28,1.83,-4.15,-2.32,337,455,405,470,238
1475,0.95,-0.17,0.28,-0.31,-3.97,-1.65,338,453,405,471,234
1476,0.96,-0.16,0.27,0.67,-5.0,-4.27,336,458,405,469,238
1477,0.96,-0.15,0.26,-10.86,-2.93,0.61,335,459,405,469,241
1478,0.95,-0.19,0.26,1.89,-3.3,-3.23,340,457,408,471,238
1479,0.95,-0.19,0.27,0.55,-3.48,-2.93,336,453,404,468,238
1480,0.96,-0.18,0.28,-2.32,-3.05,-3.72,337,457,404,469,238
1481,0.96,-0.18,0.27,0.06,-2.44,-2.75,335,454,407,468,239
1482,0.95,-0.18,0.26,-0.85,-3.66,-2.44,337,454,408,471,232
1483,0.95,-0.18,0.26,-1.22,-3.05,-2.44,338,454,402,468,236
1484,0.97,-0.18,0.26,0.92,-2.01,-1.95,334,455,404,465,239
1485,0.95,-0.19,0.26,-0.18,-2.87,-2.81,332,458,408,465,236
1486,0.96,-0.17,0.27,0.37,-1.71,-1.77,334,458,402,470,239
1487,0.95,-0.17,0.28,1.16,-1.53,-2.44,342,449,404,473,234
1488,0.95,-0.18,0.27,-0.24,-3.91,-2.38,338,449,412,464,239
1489,0.95,-0.18,0.27,-0.67,-2.56,-2.08,337,454,404,468,236
1490,0.96,-0.17,0.27,0.49,-2.81,-2.99,340,447,406,469,236
1491,0.96,-0.18,0.27,0.92,-2.44,-2.44,335,454,407,466,237
1492,0.95,-0.18,0.27,-0.73,-2.81,-2.14,337,459,405,468,234
1493,0.95,-0.18,0.27,-0.06,-3.6,-2.62,336,453,402,468,240
1494,0.96,-0.18,0.27,0.73,-3.91,-1.83,334,458,405,468,237
1495,0.94,-0.18,0.28,1.89,-2.32,-2.93,338,458,405,468,236
1496,0.96,-0.16,0.27,3.3,-4.15,-3.48,337,471,406,470,237
1497,0.96,-0.17,0.27,0.18,-3.36,-2.32,334,451,405,465,240
1498,0.95,-0.18,0.26,-0.43,-3.42,-2.14,336,455,408,468,234
1499,0.96,-0.17,0.26,0.43,-3.23,-1.77,335,457,402,470,238
1500,0.96,-0.17,0.27,0.73,-2.93,-2.93,337,457,407,475,235
1501,0.95,-0.17,0.27,-0.24,-2.08,-2.93,338,455,404,468,238
1502,0.95,-0.18,0.26,0.55,-3.36,-2.93,339,456,407,465,237
1503,0.96,-0.18,0.26,-0.12,-2.99,-2.93,337,451,406,470,245
1504,0.96,-0.17,0.27,-2.14,-0.55,-2.32,337,455,404,465,231
1505,0.89,-0.18,0.32,-15.5,-6.71,-0.61,333,455,402,462,242
1506,0.93,-0.28,0.28,0.67,-2.81,-1.95,340,454,415,493,223
1507,0.93,-0.29,0.28,0.73,-2.32,-2.08,336,450,414,502,226
1508,0.91,-0.3,0.28,1.28,-2.56,-2.44,350,452,414,493,223
1509,0.93,-0.29,0.28,0.92,-2.69,-3.23,336,449,413,493,223
1510,0.92,-0.3,0.28,0.0,-1.89,-2.99,338,448,418,491,223
1511,0.92,-0.29,0.29,0.85,-3.36,-2.69,335,452,415,490,225
1512,0.92,-0.28,0.29,0.06,-2.99,-2.99,341,455,416,490,224
1513,0.92,-0.29,0.29,1.34,-3.97,-2.56,339,449,416,493,227
1514,0.93,-0.28,0.29,1.65,-2.99,-1.71,337,447,412,493,225
1515,0.92,-0.29,0.28,1.04,-2.44,-2.32,339,450,419,490,226
1516,0.94,-0.28,0.28,-0.98,-2.56,0.49,338,443,414,488,226
1517,0.95,-0.28,0.28,3.97,-3.6,-5.8,339,451,412,497,216
1518,0.9,-0.28,0.29,1.77,-4.94,-4.88,338,448,413,492,228
1519,0.91,-0.28,0.29,-4.64,-3.23,-1.71,340,457,414,492,229
1520,0.93,-0.26,0.29,0.55,-2.08,-1.04,340,447,414,495,229
1521,0.91,-0.28,0.29,-0.92,-3.36,-1.95,338,452,413,488,231
1522,0.94,-0.27,0.28,-0.85,-5.07,-2.26,338,460,414,490,224
1523,0.94,-0.25,0.29,0.79,-2.08,-0.85,341,450,413,488,229
1524,0.93,-0.26,0.3,2.93,-6.16,-3.42,340,452,412,487,226
1525,0.92,-0.27,0.29,-2.75,-3.66,-2.5,336,448,412,488,230
1526,0.91,-0.26,0.3,-0.49,-1.46,-2.99,340,448,412,488,228
1527,0.92,-0.28,0.25,3.66,1.53,-6.47,336,445,414,487,228
1528,0.89,-0.29,0.27,-2.62,-1.1,2.26,340,448,409,487,230
1529,0.94,-0.27,0.28,-3.54,-3.72,-4.21,338,448,412,483,226
1530,0.96,-0.23,0.3,-0.24,-0.73,-0.73,341,442,415,486,233
1531,0.94,-0.25,0.28,0.55,-1.71,0.0,335,447,413,483,232
1532,0.92,-0.28,0.29,-1.77,-1.65,-1.53,338,444,412,494,255
1533,0.92,-0.27,0.29,0.06,-2.14,-2.08,339,448,412,488,227
1534,0.92,-0.27,0.3,1.46,-3.48,-2.26,341,449,414,486,233
1535,0.92,-0.27,0.3,0.24,-2.87,-2.69,338,452,412,485,232
1536,0.91,-0.29,0.28,-0.12,-2.75,-1.95,339,449,412,488,234
1537,0.92,-0.29,0.29,2.08,-1.65,-2.99,342,448,415,489,233
1538,0.93,-0.28,0.3,1.71,-2.56,-3.91,337,447,414,486,229
1539,0.92,-0.29,0.3,0.24,-1.89,-2.99,340,452,409,489,239
1540,0.92,-0.28,0.32,0.0,-1.22,-2.44,340,451,412,480,234
1541,0.91,-0.28,0.33,0.43,-0.92,-0.79,340,457,410,486,230
1542,0.89,-0.32,0.32,2.69,-2.38,-1.65,340,452,411,486,233
1543,0.89,-0.32,0.32,-3.42,-2.69,1.71,340,452,411,482,235
1544,0.91,-0.3,0.33,2.2,-2.62,-2.62,339,448,411,486,235
1545,0.9,-0.3,0.35,-0.06,-1.53,-1.59,340,449,413,486,230
1546,0.91,-0.29,0.35,5.07,-2.32,-3.6,343,448,410,487,236
1547,0.9,-0.28,0.36,0.0,-3.48,-2.38,337,452,413,484,231
1548,0.9,-0.28,0.36,1.28,-3.72,-3.05,340,445,410,484,230
1549,0.91,-0.28,0.36,1.28,-3.05,-3.54,342,450,413,486,235
1550,0.9,-0.29,0.35,1.34,-2.93,-0.79,341,450,410,482,234
1551,0.89,-0.3,0.34,0.31,-3.23,-1.95,341,454,413,485,224
1552,0.9,-0.3,0.35,0.73,-1.65,-1.46,336,449,415,486,237
1553,0.9,-0.29,0.35,0.31,-1.65,-1.59,339,454,412,484,231
1554,0.91,-0.29,0.35,-0.24,-3.23,-2.87,336,453,413,486,235
1555,0.89,-0.3,0.35,1.28,-3.78,-2.81,339,448,409,483,229
1556,0.9,-0.29,0.35,1.46,-3.11,-2.99,343,455,413,484,234
1557,0.9,-0.29,0.35,0.18,-3.54,-2.56,336,446,412,485,236
1558,0.9,-0.29,0.35,1.77,-2.5,-2.38,340,449,415,483,237
1559,0.9,-0.29,0.35,3.3,-2.5,-2.75,340,446,413,483,234
1560,0.89,-0.3,0.35,-1.22,-1.28,-0.24,339,451,416,482,235
1561,0.89,-0.3,0.36,-0.73,-2.81,-3.11,340,450,411,482,238
1562,0.89,-0.3,0.35,0.37,-3.36,-1.77,341,451,415,486,238
1563,0.9,-0.3,0.36,1.77,-2.81,-1.83,341,450,411,485,239
1564,0.91,-0.28,0.36,0.73,-2.5,-2.93,342,448,413,484,235
1565,0.9,-0.29,0.36,0.18,-3.11,-2.32,341,449,423,490,258
1566,0.89,-0.29,0.36,2.44,-4.33,-3.36,339,450,413,485,236
1567,0.89,-0.31,0.35,-1.83,-2.81,-1.28,338,451,409,483,235
1568,0.89,-0.3,0.36,-0.24,-2.99,-1.59,342,445,409,489,233
1569,0.9,-0.3,0.36,-1.83,-2.75,-3.05,347,451,411,484,239
1570,0.9,-0.29,0.36,-0.24,-2.75,-3.42,340,450,410,484,236
1571,0.89,-0.29,0.36,-0.18,-2.56,-2.75,338,450,409,483,237
1572,0.89,-0.3,0.36,0.49,-3.3,-2.56,341,455,411,482,236
1573,0.94,-0.29,0.36,0.67,-3.42,-2.08,336,454,412,484,237
1574,0.91,-0.29,0.36,-0.37,-2.87,-2.32,340,449,412,480,239
1575,0.89,-0.29,0.37,1.4,-3.78,-2.14,339,453,409,485,238
1576,0.88,-0.29,0.38,-0.61,-0.31,-3.17,340,446,412,492,236
1577,0.88,-0.31,0.36,1.46,-2.62,-2.5,342,450,412,484,236
1578,0.9,-0.3,0.36,-0.24,-2.75,-3.17,340,457,409,482,236
1579,0.89,-0.3,0.36,0.43,-3.3,-2.99,340,451,410,486,240
1580,0.9,-0.3,0.36,-0.31,-4.52,-1.89,344,451,411,483,238
1581,0.91,-0.3,0.35,0.24,-3.17,-2.93,341,454,410,488,238
1582,0.89,-0.3,0.36,0.55,-2.99,-3.11,339,450,413,481,239
1583,0.88,-0.29,0.38,-0.12,-3.05,-2.99,341,452,407,483,230
1584,0.89,-0.29,0.37,-2.5,-3.78,-5.19,340,454,408,486,242
1585,0.89,-0.29,0.37,0.31,-2.62,-3.91,342,454,412,486,234
1586,0.88,-0.29,0.36,-2.01,-2.93,-2.93,341,452,412,481,238
1587,0.9,-0.28,0.38,2.87,-0.18,-2.2,342,457,410,483,274
1588,0.87,-0.31,0.37,1.71,-1.46,-1.34,338,445,409,479,237
1589,0.92,-0.3,0.36,2.08,-0.85,-1.59,340,445,406,480,237
1590,0.91,-0.28,0.39,-0.61,-0.79,-3.85,341,446,409,484,236
1591,0.9,-0.31,0.37,2.99,-1.4,-2.75,340,450,408,482,234
1592,0.9,-0.31,0.37,2.62,-1.46,-2.44,341,445,407,486,234
1593,0.87,-0.31,0.37,-0.37,-3.05,-1.22,340,449,410,485,231
1594,0.88,-0.3,0.37,0.0,-2.87,-2.69,336,450,409,482,233
1595,0.88,-0.31,0.37,0.37,-3.85,-2.99,337,451,407,484,233
1596,0.89,-0.3,0.38,3.66,-2.26,-0.61,336,450,412,484,224
1597,0.88,-0.31,0.38,-0.37,-3.54,-2.93,340,452,413,483,235
1598,0.87,-0.31,0.37,-0.06,-2.69,-2.5,339,443,412,481,232
1599,0.86,-0.32,0.38,-0.43,-2.93,-3.11,342,453,408,484,235
1600,0.89,-0.31,0.37,0.06,-3.54,-3.17,341,453,411,484,234
1601,0.88,-0.3,0.37,0.43,-2.01,-3.3,341,448,409,482,233
1602,0.89,-0.3,0.38,1.4,-3.23,-2.2,342,449,413,486,232
1603,0.89,-0.3,0.38,0.0,-2.75,-2.93,340,453,409,484,236
1604,0.88,-0.31,0.37,0.92,-2.87,-2.99,341,449,411,483,239
1605,0.88,-0.3,0.38,1.53,-2.38,-2.75,339,450,413,478,233
1606,0.89,-0.3,0.38,0.31,-2.87,-2.5,347,445,412,484,235
1607,0.89,-0.29,0.39,0.67,-3.17,-2.87,343,445,418,478,234
1608,0.88,-0.29,0.38,0.67,-3.23,-1.65,342,451,405,485,240
1609,0.88,-0.3,0.37,1.53,-2.5,-1.1,338,446,407,485,236
1610,0.89,-0.29,0.38,-0.12,-2.75,-2.32,342,449,408,482,236
1611,0.88,-0.3,0.37,0.73,-3.3,-2.14,340,450,412,480,224
1612,0.9,-0.29,0.38,0.49,-2.62,-2.69,351,449,412,479,235
1613,0.9,-0.28,0.38,0.98,-2.87,-3.23,341,449,409,483,234
1614,0.89,-0.28,0.39,-1.53,-2.99,-3.11,342,450,421,479,234
1615,0.89,-0.28,0.38,0.79,-2.87,-2.38,340,450,405,480,234
1616,0.89,-0.28,0.38,1.22,-2.62,-2.26,340,444,405,476,237
1617,0.89,-0.28,0.38,0.12,-3.3,-2.99,340,449,409,481,234
1618,0.9,-0.27,0.38,1.59,-3.78,-2.14,340,451,410,481,234
1619,0.9,-0.28,0.37,0.73,-3.42,-2.32,341,453,411,481,229
1620,0.9,-0.27,0.38,1.16,-3.05,-3.23,338,450,409,478,238
1621,0.9,-0.27,0.38,0.43,-2.32,-2.69,340,455,407,483,237
1622,0.88,-0.27,0.38,-0.12,-3.05,-2.69,347,445,411,481,235
1623,0.9,-0.27,0.38,0.98,-2.5,-2.87,341,452,409,481,238
1624,0.89,-0.27,0.39,-1.4,-3.17,-2.01,341,461,409,482,235
1625,0.89,-0.28,0.38,0.98,-2.69,-1.83,341,450,412,480,237
1626,0.89,-0.27,0.38,-0.67,-2.81,-1.65,347,450,409,480,235
1627,0.89,-0.28,0.38,-0.79,-3.11,-2.2,340,451,408,480,237
1628,0.9,-0.27,0.38,0.55,-3.17,-2.75,340,456,411,480,236
1629,0.9,-0.26,0.38,-1.04,-3.11,-2.56,344,444,410,483,233
1630,0.9,-0.26,0.39,1.1,-3.72,-3.54,341,447,411,482,235
1631,0.91,-0.26,0.38,0.43,-3.05,-2.32,342,454,412,479,235
1632,0.89,-0.27,0.38,-0.43,-2.93,-1.89,341,451,410,477,233
1633,0.89,-0.27,0.38,-0.24,-2.99,-1.89,341,454,413,479,238
1634,0.89,-0.27,0.38,1.71,-3.48,-2.75,340,451,408,480,236
1635,0.9,-0.26,0.39,0.31,-3.72,-2.62,340,450,408,482,236
1636,0.89,-0.27,0.38,0.24,-2.56,-2.87,342,450,411,482,247
1637,0.88,-0.28,0.38,-1.1,-3.54,-2.75,340,454,410,476,239
1638,0.89,-0.26,0.38,0.55,-2.44,-3.48,341,448,407,479,236
1639,0.89,-0.27,0.38,0.24,-2.14,-2.56,339,450,411,477,236
1640,0.9,-0.26,0.38,0.61,-3.97,-3.6,340,444,409,480,236
1641,0.9,-0.26,0.37,0.49,-5.74,-1.95,340,449,405,478,240
1642,0.9,-0.26,0.37,0.61,-3.54,-2.81,339,453,404,480,234
1643,0.89,-0.26,0.37,0.61,-2.81,-3.42,340,449,408,480,244
1644,0.91,-0.26,0.38,-0.79,-2.2,-2.14,340,455,409,482,238
1645,0.9,-0.27,0.37,1.28,-2.62,-2.87,341,455,408,480,238
1646,0.91,-0.26,0.38,1.04,-1.28,-2.14,341,445,411,482,238
1647,0.89,-0.28,0.37,-2.38,-2.69,-3.05,341,450,408,478,242
1648,0.9,-0.26,0.37,0.12,-2.38,-2.2,338,450,411,479,234
1649,0.9,-0.26,0.38,1.46,-2.69,-2.62,341,451,409,480,235
1650,0.9,-0.26,0.38,0.06,-2.93,-2.14,339,450,405,477,235
1651,0.9,-0.26,0.38,1.1,-3.05,-3.11,340,452,408,481,236
1652,0.9,-0.26,0.38,-0.06,-2.26,-3.23,339,450,408,479,236
1653,0.9,-0.25,0.39,1.22,-2.81,-2.32,337,455,409,479,238
1654,0.9,-0.27,0.37,1.16,-3.66,-2.26,351,445,410,478,233
1655,0.9,-0.26,0.38,-0.55,-3.66,-2.75,342,451,408,480,233
1656,0.91,-0.25,0.39,0.55,-2.81,-3.17,334,453,412,478,238
1657,0.9,-0.26,0.38,-0.37,-3.54,-2.75,343,450,410,477,237
1658,0.91,-0.25,0.38,1.46,-2.01,-3.11,342,452,408,482,236
1659,0.9,-0.26,0.39,0.55,-1.89,-1.83,341,452,408,480,238
1660,0.89,-0.26,0.4,1.53,-3.91,-3.23,342,448,402,475,236
1661,0.9,-0.24,0.4,0.12,-3.36,-0.73,340,452,406,478,236
1662,0.88,-0.26,0.41,1.34,-3.3,-2.26,341,456,410,473,237
1663,0.9,-0.27,0.38,0.61,-2.62,-2.69,338,451,407,481,234
1664,0.86,-0.29,0.39,-0.55,-3.42,-3.36,341,451,409,482,240
1665,0.88,-0.27,0.39,1.22,-4.33,-2.75,341,454,414,479,245
1666,0.92,-0.26,0.37,2.62,-2.69,-1.28,341,451,405,478,237
1667,0.89,-0.28,0.39,-0.12,-1.83,-2.38,341,447,407,476,236
1668,0.88,-0.28,0.39,-1.22,-3.23,-3.78,341,453,407,478,237
1669,0.88,-0.28,0.38,0.79,-2.2,-1.16,342,451,408,480,237
1670,0.88,-0.29,0.39,0.0,-2.69,-2.14,343,452,409,479,234
1671,0.88,-0.27,0.4,0.06,-2.14,-2.01,344,451,408,476,237
1672,0.9,-0.27,0.4,1.1,-3.54,-1.1,337,452,409,476,240
1673,0.9,-0.27,0.39,1.59,-4.39,-0.92,344,452,420,483,235
1674,0.87,-0.29,0.39,0.18,-1.34,-2.2,340,451,408,478,236
1675,0.87,-0.29,0.39,0.37,-3.17,-1.77,338,454,410,495,237
1676,0.85,-0.31,0.38,2.01,-2.81,-3.54,342,451,410,477,236
1677,0.86,-0.29,0.39,-0.18,-2.62,-2.2,340,452,411,474,240
1678,0.9,-0.28,0.4,0.98,-2.62,-3.66,338,446,407,480,236
1679,0.91,-0.27,0.38,4.09,-3.72,-5.86,342,451,407,481,241
1680,0.9,-0.24,0.41,-0.06,-3.54,-1.1,341,455,411,477,238
1681,0.9,-0.28,0.37,-0.79,-1.89,-1.59,339,450,407,475,237
1682,0.9,-0.28,0.38,-7.32,-2.08,-0.43,342,455,409,478,241
1683,0.87,-0.3,0.38,-1.4,-2.93,-2.01,342,455,408,475,239
1684,0.87,-0.3,0.38,-0.31,-2.32,-3.42,339,467,406,478,260
1685,0.89,-0.29,0.38,0.06,-2.81,-2.62,339,454,410,477,240
1686,0.9,-0.28,0.38,-0.43,-1.95,-2.08,344,456,407,480,241
1687,0.89,-0.29,0.38,0.79,-4.15,-4.15,341,454,406,476,238
1688,0.86,-0.3,0.37,0.37,-3.3,-2.32,343,454,409,478,238
1689,0.89,-0.3,0.37,-0.92,-2.2,-2.32,340,452,408,478,236
1690,0.91,-0.26,0.41,0.73,-1.89,-2.93,342,453,407,479,238
1691,0.89,-0.28,0.39,1.65,-4.09,-3.66,344,453,408,478,241
1692,0.89,-0.29,0.38,0.0,-3.85,-2.69,341,450,410,478,238
1693,0.9,-0.28,0.38,1.59,-2.75,-2.62,339,454,410,477,240
1694,0.89,-0.29,0.38,-0.31,-2.62,-2.56,338,447,407,476,242
1695,0.87,-0.3,0.38,0.55,-2.93,-1.77,342,453,407,477,242
1696,0.89,-0.29,0.38,2.69,-1.89,-2.62,342,452,411,478,239
1697,0.89,-0.28,0.4,4.58,-2.99,-3.6,338,453,408,479,239
1698,0.89,-0.28,0.4,-1.16,-3.11,-2.99,343,457,409,479,241
1699,0.87,-0.3,0.38,0.24,-2.69,-2.75,341,454,412,478,240
1700,0.88,-0.28,0.39,0.79,-3.91,-1.34,343,451,403,476,243
1701,0.89,-0.29,0.39,0.12,-2.93,-2.62,339,455,409,478,241
1702,0.88,-0.28,0.4,-1.1,-2.08,-2.87,342,452,407,480,242
1703,0.89,-0.27,0.4,-0.06,-2.56,-2.62,342,454,408,476,238
1704,0.88,-0.28,0.39,1.59,-2.32,-3.17,344,451,411,478,242
1705,0.88,-0.29,0.39,-0.06,-3.05,-3.6,339,453,412,477,238
1706,0.88,-0.29,0.39,0.85,-2.93,-2.5,339,447,404,480,241
1707,0.89,-0.28,0.39,0.98,-3.05,-2.81,342,452,408,475,245
1708,0.9,-0.27,0.4,1.46,-2.81,-3.85,342,451,408,477,243
1709,0.88,-0.28,0.4,0.61,-2.99,-2.56,343,452,407,480,244
1710,0.89,-0.27,0.39,1.1,-2.99,-3.6,342,452,405,474,244
1711,0.88,-0.27,0.4,1.28,-1.59,-2.56,343,451,406,477,240
1712,0.89,-0.27,0.39,0.55,-2.93,-2.26,342,448,412,485,243
1713,0.9,-0.27,0.38,1.77,-2.56,-2.87,345,452,409,477,242
1714,0.89,-0.27,0.4,0.61,-3.11,-2.01,338,456,406,474,242
1715,0.89,-0.27,0.39,0.73,-3.11,-2.44,343,448,411,482,242
1716,0.89,-0.26,0.4,1.04,-2.32,-3.11,342,452,409,477,241
1717,0.89,-0.26,0.4,1.53,-3.36,-3.3,341,456,410,475,244
1718,0.89,-0.26,0.4,-0.55,-3.3,-3.05,343,453,409,477,244
1719,0.89,-0.26,0.41,-0.06,-2.69,-2.2,342,452,410,475,241
1720,0.89,-0.27,0.39,0.06,-2.75,-2.08,341,452,409,477,244
1721,0.89,-0.26,0.4,-0.18,-2.69,-2.93,341,452,413,478,242
1722,0.89,-0.28,0.39,-0.31,-2.75,-1.89,343,451,409,477,243
1723,0.89,-0.28,0.38,1.59,-2.08,-4.39,341,447,407,476,242
1724,0.89,-0.26,0.4,0.0,-2.87,-3.36,342,456,411,475,242
1725,0.87,-0.27,0.41,0.49,-2.99,-2.38,341,447,411,476,242
1726,0.87,-0.27,0.41,0.92,-3.05,-2.87,342,456,405,479,245
1727,0.91,-0.26,0.4,0.73,-3.66,-1.59,343,447,411,479,254
1728,0.89,-0.26,0.41,0.92,-2.81,-2.32,334,454,407,479,244
1729,0.88,-0.27,0.39,1.65,-3.36,-2.56,342,464,411,473,242
1730,0.87,-0.28,0.39,2.14,-2.62,-2.62,342,453,411,479,244
1731,0.89,-0.26,0.41,-4.39,-1.53,2.01,342,452,406,477,243
1732,0.87,-0.28,0.41,-2.01,-4.64,-0.67,338,453,408,477,243
1733,0.87,-0.28,0.41,0.37,-2.93,-2.38,341,452,411,476,244
1734,0.87,-0.29,0.4,-0.24,-3.23,-2.26,342,451,407,476,242
1735,0.88,-0.28,0.4,-0.37,-3.48,-1.1,344,454,408,476,242
1736,0.88,-0.27,0.41,1.1,-2.87,-1.83,345,457,412,480,241
1737,0.88,-0.28,0.41,-0.67,-1.77,-1.59,345,453,409,475,244
1738,0.87,-0.29,0.4,-0.06,-3.23,-3.36,343,449,409,475,240
1739,0.89,-0.28,0.4,2.01,-3.42,-3.66,342,449,412,477,242
1740,0.86,-0.29,0.42,1.53,-3.66,-1.46,339,447,411,475,246
1741,0.87,-0.28,0.41,-1.28,-3.11,-1.89,342,455,408,476,242
1742,0.88,-0.28,0.41,0.12,-2.62,-1.46,343,453,411,477,242
1743,0.86,-0.28,0.42,0.18,-3.42,-1.28,345,453,408,475,240
1744,0.87,-0.28,0.41,1.04,-2.81,-2.38,345,451,404,472,243
1745,0.87,-0.29,0.41,1.22,-3.54,-2.87,341,453,410,475,243
1746,0.88,-0.29,0.4,-0.18,-2.69,-2.93,341,452,407,474,244
1747,0.87,-0.28,0.41,0.06,-2.99,-3.23,342,452,409,475,245
1748,0.89,-0.27,0.41,2.5,-3.3,-2.56,339,454,404,476,240
1749,0.89,-0.28,0.4,-4.03,-2.56,-1.04,342,447,408,472,245
1750,0.88,-0.3,0.39,0.24,-4.94,-2.44,343,453,408,479,243
1751,0.85,-0.29,0.42,-2.01,-2.81,-1.89,341,451,404,479,245
1752,0.86,-0.29,0.4,-0.37,-3.54,-3.85,343,454,408,476,238
1753,0.89,-0.26,0.42,-0.37,-3.17,-2.08,344,456,409,475,244
1754,0.9,-0.27,0.41,-0.67,-3.11,-2.5,343,453,406,477,244
1755,0.88,-0.28,0.41,-0.06,-3.36,-1.77,340,449,411,472,245
1756,0.89,-0.28,0.4,1.16,-3.36,-2.2,340,452,411,478,242
1757,0.88,-0.3,0.38,-1.28,-2.08,-3.11,342,452,407,475,244
1758,0.88,-0.28,0.41,-0.61,-3.3,-1.95,340,447,410,476,244
1759,0.88,-0.27,0.41,-1.95,-4.46,-4.88,342,451,407,477,242
1760,0.89,-0.27,0.4,-0.31,-4.21,-4.58,344,451,404,475,244
1761,0.9,-0.27,0.39,0.98,-3.97,-2.93,342,450,409,478,243
1762,0.88,-0.27,0.39,0.61,-3.54,-2.99,342,453,410,477,243
1763,0.9,-0.27,0.39,-0.67,-2.26,-3.72,342,455,407,475,238
1764,0.89,-0.25,0.4,1.16,-3.23,-2.62,343,452,410,477,242
1765,0.88,-0.27,0.39,0.79,-3.11,-3.23,344,454,409,475,242
1766,0.92,-0.26,0.38,0.92,-2.81,-1.46,342,452,413,474,242
1767,0.9,-0.26,0.39,0.79,-2.69,-2.5,339,448,411,477,242
1768,0.9,-0.26,0.39,-0.67,-3.17,-3.97,338,458,410,477,240
1769,0.9,-0.25,0.4,2.81,-3.42,-2.32,342,448,409,474,237
1770,0.92,-0.23,0.41,0.61,-3.48,-3.78,344,454,408,476,243
1771,0.89,-0.25,0.39,-0.85,-2.5,-2.44,342,453,413,477,241
1772,0.89,-0.25,0.4,1.1,-2.93,-2.44,344,453,410,478,254
1773,0.9,-0.25,0.39,0.85,-2.75,-2.5,345,454,404,476,243
1774,0.89,-0.25,0.39,1.1,-2.75,-3.66,354,453,413,476,242
1775,0.9,-0.25,0.4,0.92,-3.36,-3.05,344,455,411,474,239
1776,0.89,-0.25,0.39,1.59,-2.81,-2.75,342,457,411,473,246
1777,0.9,-0.25,0.39,-0.06,-3.6,-3.3,342,453,420,474,243
1778,0.88,-0.27,0.38,-0.37,-2.56,-1.59,342,453,408,471,242
1779,0.89,-0.25,0.39,0.37,-3.17,-2.62,342,449,421,476,244
1780,0.89,-0.25,0.4,0.85,-3.11,-2.38,340,449,404,471,241
1781,0.89,-0.25,0.39,-0.61,-3.36,-2.14,344,452,417,477,245
1782,0.9,-0.25,0.4,-1.04,-2.75,-2.32,340,453,409,474,245
1783,0.88,-0.25,0.39,0.0,-3.05,-2.81,342,457,411,474,244
1784,0.89,-0.25,0.39,1.04,-2.99,-2.26,341,453,410,474,244
1785,0.9,-0.24,0.4,1.16,-3.42,-2.75,346,448,409,475,243
1786,0.91,-0.24,0.4,0.55,-2.99,-2.14,348,449,409,485,245
1787,0.9,-0.24,0.39,0.18,-2.93,-2.93,343,448,409,474,246
1788,0.9,-0.24,0.4,0.98,-3.36,-2.69,342,449,412,473,235
1789,0.9,-0.24,0.4,0.67,-3.66,-1.83,343,453,409,475,244
1790,0.9,-0.24,0.4,0.67,-3.23,-1.89,342,449,411,477,237
1791,0.88,-0.25,0.4,-0.12,-2.75,-2.32,342,454,412,473,242
1792,0.93,-0.23,0.41,-2.14,-1.34,-1.53,342,449,411,474,245
1793,0.91,-0.25,0.4,0.98,-2.99,-2.44,340,453,409,476,244
1794,0.9,-0.26,0.38,2.38,-3.05,-3.6,342,453,410,476,243
1795,0.87,-0.26,0.4,-1.04,-2.87,-1.71,345,449,408,477,243
1796,0.88,-0.26,0.37,-0.92,-7.45,-6.84,343,453,411,474,241
1797,0.94,-0.24,0.32,7.02,-0.24,-7.32,342,449,409,474,244
1798,0.92,-0.21,0.36,0.67,-2.62,-2.56,342,453,410,477,245
1799,0.94,-0.22,0.34,0.67,-3.23,-4.33,338,455,407,476,240
1800,0.92,-0.21,0.34,2.38,-2.32,-3.72,342,455,412,473,241
1801,0.94,-0.19,0.36,-1.34,-0.31,1.04,344,452,409,474,240
1802,0.91,-0.25,0.34,-4.88,-3.97,1.77,341,453,408,475,241
1803,0.96,-0.23,0.35,-1.65,-10.25,-2.69,344,455,406,474,239
1804,0.9,-0.32,0.27,-4.52,-7.32,-2.08,342,446,406,475,240
1805,0.87,-0.32,0.26,1.1,-10.44,-1.89,341,451,404,471,237
1806,0.97,-0.25,0.26,-1.4,-4.33,-4.33,339,455,406,470,253
1807,0.95,-0.25,0.28,3.11,-7.2,-2.14,340,453,410,474,235
1808,0.92,-0.29,0.26,1.77,-1.34,-5.62,344,452,409,491,234
1809,0.96,-0.22,0.29,-4.21,-1.89,-5.49,342,449,405,472,245
1810,0.95,-0.19,0.31,-0.67,-6.47,-5.37,344,447,410,477,242
1811,0.96,-0.2,0.29,2.93,-4.09,-3.72,341,452,403,476,235
1812,0.94,-0.23,0.27,2.2,-1.1,-2.75,345,452,408,473,236
1813,0.96,-0.2,0.29,1.46,-2.5,-1.95,344,453,408,473,235
1814,0.95,-0.2,0.28,-1.46,-2.01,-2.62,342,457,406,471,244
1815,0.95,-0.21,0.28,2.81,-3.72,-3.17,338,453,408,475,237
1816,0.94,-0.21,0.28,4.76,-4.46,-5.13,340,456,408,473,242
1817,0.96,-0.19,0.29,1.34,-4.94,-3.91,345,457,405,472,236
1818,0.94,-0.2,0.28,0.67,-2.99,-2.26,342,454,407,476,238
1819,0.96,-0.19,0.29,1.04,-2.44,-3.17,341,453,409,471,236
1820,0.96,-0.18,0.29,0.73,-3.85,-3.05,345,452,405,469,240
1821,0.95,-0.19,0.29,1.89,-2.62,-1.4,346,456,409,474,247
1822,0.95,-0.2,0.28,0.55,-2.99,-3.42,342,455,405,471,237
1823,0.93,-0.2,0.29,0.18,-4.03,-3.66,341,447,406,473,238
1824,0.95,-0.19,0.28,1.22,-2.38,-2.87,342,451,407,475,239
1825,0.95,-0.18,0.28,1.71,-2.62,-3.11,343,452,407,472,239
1826,0.94,-0.18,0.29,-0.55,-2.87,-1.83,339,452,402,469,234
1827,0.94,-0.19,0.29,0.61,-2.99,-3.3,342,453,405,472,236
1828,0.94,-0.18,0.29,1.83,-3.66,-1.95,342,451,406,472,236
1829,0.93,-0.19,0.29,1.16,-2.81,-1.22,339,453,408,470,234
1830,0.95,-0.19,0.29,-0.31,-3.3,-2.44,343,448,406,471,237
1831,0.95,-0.18,0.29,0.31,-3.17,-3.48,343,456,404,473,235
1832,0.94,-0.18,0.29,2.26,-2.44,-1.89,340,453,408,474,236
1833,0.95,-0.18,0.29,2.75,-3.3,-2.44,341,456,408,471,239
1834,0.94,-0.18,0.3,-0.49,-3.85,-3.11,342,456,402,474,237
1835,0.95,-0.18,0.28,1.4,-3.72,-1.65,341,458,407,472,236
1836,0.95,-0.18,0.29,0.31,-3.85,-3.3,342,452,409,474,237
1837,0.95,-0.17,0.29,0.31,-1.95,-2.44,343,452,406,472,236
1838,0.97,-0.18,0.27,3.11,-3.36,-2.56,342,452,404,472,238
1839,0.94,-0.19,0.28,0.92,-3.05,-2.56,344,453,409,469,239
1840,0.94,-0.19,0.29,0.85,-3.23,-1.53,342,453,408,481,239
1841,0.94,-0.19,0.29,1.71,-2.69,-4.09,342,448,407,475,236
1842,0.95,-0.18,0.29,2.93,-1.95,-2.81,343,455,403,475,238
1843,0.95,-0.17,0.3,0.61,-3.23,-2.69,340,454,405,473,237
1844,0.94,-0.18,0.29,0.12,-2.99,-2.93,343,452,408,472,240
1845,0.95,-0.18,0.3,0.31,-3.54,-2.56,342,452,407,472,239
1846,0.95,-0.18,0.29,0.67,-3.42,-2.32,343,450,409,472,240
1847,0.94,-0.18,0.29,0.61,-3.05,-1.89,343,452,410,473,236
1848,0.95,-0.18,0.29,0.06,-2.93,-1.83,344,451,409,471,241
1849,0.94,-0.17,0.31,1.77,-2.2,-1.83,342,453,406,475,237
1850,0.94,-0.17,0.3,-0.73,-2.14,-2.2,342,451,407,476,239
1851,0.96,-0.17,0.29,0.85,-4.15,-1.83,341,455,404,470,237
1852,0.95,-0.18,0.29,2.08,-3.85,-0.79,342,451,406,472,240
1853,0.95,-0.18,0.29,-2.14,-2.26,-1.16,344,450,405,472,239
1854,0.94,-0.18,0.29,-1.4,-2.75,-2.62,342,454,406,470,241
1855,0.96,-0.16,0.3,-0.12,-4.03,-3.05,343,453,403,471,238
1856,0.95,-0.17,0.29,1.65,-3.3,-2.2,345,448,407,474,239
1857,0.96,-0.17,0.29,-1.34,-3.66,-1.4,343,449,409,476,238
1858,0.94,-0.18,0.29,-0.18,-3.6,-1.4,346,451,408,472,238
1859,0.95,-0.17,0.29,1.28,-0.31,-3.48,339,449,405,473,240
1860,0.95,-0.17,0.3,1.77,-2.62,-3.3,343,449,408,471,236
1861,0.95,-0.18,0.29,0.98,-1.1,-2.44,343,446,405,474,240
1862,0.96,-0.17,0.29,2.08,-3.54,-3.3,340,453,406,471,239
1863,0.95,-0.17,0.29,2.01,-2.01,-2.69,339,456,408,473,239
1864,0.94,-0.17,0.29,-0.12,-3.11,-2.93,342,457,404,475,238
1865,0.95,-0.17,0.29,0.55,-4.39,-2.5,341,447,407,472,238
1866,0.96,-0.17,0.29,0.85,-2.14,-3.11,338,453,406,469,241
1867,0.95,-0.17,0.29,-1.46,-1.53,-2.14,341,462,405,472,238
1868,0.94,-0.17,0.29,1.28,-2.87,-2.5,342,452,409,471,241
1869,0.95,-0.17,0.3,1.46,-2.87,-2.5,342,455,408,468,240
1870,0.95,-0.17,0.29,0.31,-3.3,-2.93,341,453,402,471,239
1871,0.95,-0.16,0.29,0.06,-2.75,-2.62,340,457,406,477,238
1872,0.95,-0.17,0.29,0.43,-2.93,-1.65,341,458,404,471,240
1873,0.95,-0.17,0.29,0.92,-2.32,-3.17,343,452,406,468,239
1874,0.95,-0.16,0.3,0.67,-2.93,-2.2,339,451,406,472,238
1875,0.95,-0.17,0.29,-0.73,-2.99,-3.48,343,453,405,470,240
1876,0.95,-0.17,0.29,0.06,-2.75,-2.56,341,456,415,474,239
1877,0.95,-0.16,0.29,0.24,-3.11,-1.95,335,452,408,473,238
1878,0.95,-0.17,0.3,1.1,-3.78,-2.44,337,454,408,468,238
1879,0.95,-0.17,0.29,-0.24,-2.56,-1.22,339,453,406,467,268
1880,0.95,-0.17,0.29,0.0,-2.56,-1.77,337,453,408,473,237
1881,0.95,-0.17,0.29,0.98,-1.77,-2.75,342,452,403,467,237
1882,0.94,-0.17,0.29,1.71,-2.81,-3.54,339,448,422,479,236
1883,0.97,-0.14,0.32,2.5,-3.05,-2.81,338,457,406,470,235
1884,0.95,-0.17,0.29,0.06,-2.08,-2.08,340,452,405,474,236
1885,0.94,-0.17,0.3,0.18,-2.32,-2.56,341,456,404,473,236
1886,0.94,-0.17,0.3,-0.18,-3.91,-2.08,339,452,403,472,236
1887,0.96,-0.17,0.29,-0.49,-2.93,-1.89,341,454,409,471,238
1888,0.94,-0.17,0.29,-0.49,-3.91,-3.3,341,457,407,471,241
1889,0.95,-0.17,0.29,-0.43,-2.38,-0.67,342,454,406,471,236
1890,0.95,-0.19,0.26,-0.49,-1.77,-1.53,343,450,405,468,243
1891,0.95,-0.19,0.29,-1.4,-1.1,-0.43,342,460,408,474,235
1892,0.94,-0.21,0.29,-0.24,-3.48,-0.24,343,457,407,471,237
1893,0.92,-0.23,0.28,1.77,-3.85,-1.4,340,454,406,477,236
1894,0.94,-0.22,0.29,1.71,-1.77,-2.56,338,452,406,468,236
1895,0.94,-0.22,0.3,-0.37,-1.59,-3.54,338,455,405,471,235
1896,0.94,-0.22,0.3,-0.85,-1.95,-2.62,336,457,412,473,235
1897,0.93,-0.22,0.3,0.06,-2.08,-2.69,341,454,409,468,238
1898,0.92,-0.23,0.3,-0.49,-2.44,-2.87,340,449,407,468,233
1899,0.93,-0.21,0.32,1.53,-4.46,-3.23,339,459,408,469,234
1900,0.93,-0.21,0.31,0.24,-1.77,-3.48,340,451,406,471,235
1901,0.94,-0.21,0.31,0.49,-3.6,-2.32,338,459,406,471,237
1902,0.93,-0.22,0.31,-0.12,-3.66,-2.69,340,454,418,474,237
1903,0.92,-0.22,0.31,-0.12,-2.75,-1.83,338,458,405,473,235
1904,0.9,-0.23,0.3,-0.06,-2.81,-1.65,341,460,404,471,238
1905,0.97,-0.19,0.31,2.99,-4.94,-4.33,341,454,406,469,235
1906,0.93,-0.19,0.32,-14.95,-3.23,-3.97,344,457,404,468,238
1907,0.94,-0.21,0.31,1.1,-3.66,-3.6,343,460,411,472,234
1908,0.93,-0.2,0.32,-1.89,-3.72,-2.44,341,454,403,471,253
1909,0.91,-0.22,0.3,-1.95,-4.27,-1.1,338,457,405,474,236
1910,0.94,-0.2,0.32,-1.53,-5.19,-2.38,342,451,403,473,235
1911,0.94,-0.21,0.31,-1.1,-3.54,-3.23,342,456,403,473,238
1912,0.93,-0.2,0.31,1.28,-1.95,-1.22,341,457,409,471,237
1913,0.95,-0.2,0.31,0.18,-2.81,-4.82,340,456,403,471,236
1914,0.94,-0.2,0.31,-0.55,-2.87,-3.05,336,454,406,471,237
1915,0.93,-0.2,0.31,-0.49,-2.69,-1.04,342,458,406,471,234
1916,0.94,-0.2,0.31,2.01,-3.48,-4.46,342,456,404,469,237
1917,0.92,-0.2,0.32,0.0,-2.81,-0.55,341,459,406,470,239
1918,0.93,-0.2,0.32,1.22,-2.99,-2.2,338,451,409,471,236
1919,0.95,-0.19,0.32,1.46,-2.87,-2.81,342,451,408,470,234
1920,0.95,-0.2,0.31,-0.49,-3.6,-3.6,340,466,407,470,232
1921,0.94,-0.19,0.32,1.28,-1.89,-3.11,346,458,406,471,235
1922,0.96,-0.18,0.31,0.67,-3.91,-2.87,338,449,407,467,236
1923,0.94,-0.19,0.31,0.18,-4.09,-2.32,336,457,408,470,264
1924,0.96,-0.18,0.3,3.23,-2.62,-4.03,340,450,406,470,253
1925,0.96,-0.18,0.3,0.43,-3.54,-0.85,340,454,402,469,235
1926,0.96,-0.18,0.3,0.12,-2.32,-2.2,341,457,405,471,236
1927,0.94,-0.18,0.3,-0.67,-2.62,-2.62,338,459,405,471,233
1928,0.94,-0.18,0.3,-0.24,-2.44,-1.65,342,457,404,467,235
1929,0.93,-0.18,0.31,-0.61,-2.38,-2.26,339,457,406,472,235
1930,0.92,-0.2,0.29,0.12,-2.56,-2.99,338,455,406,473,235
1931,0.98,-0.17,0.3,1.77,-1.77,-4.21,340,449,404,474,238
1932,0.94,-0.18,0.31,-0.24,-2.14,-1.46,340,456,408,472,235
1933,0.95,-0.19,0.31,1.4,-3.48,-2.01,340,454,407,479,233
1934,0.94,-0.18,0.31,1.04,-1.77,-1.4,340,450,409,471,233
1935,0.95,-0.18,0.31,0.06,-2.5,-2.38,342,459,404,467,238
1936,0.93,-0.2,0.3,-0.37,-2.62,-2.14,340,459,407,470,235
1937,0.95,-0.18,0.31,-0.79,-4.03,-2.44,339,449,408,471,242
1938,0.95,-0.19,0.3,0.49,-3.17,-1.28,340,457,408,471,237
1939,0.95,-0.19,0.3,-0.92,-2.75,-2.38,340,449,404,473,237
1940,0.97,-0.19,0.3,0.49,-3.78,-2.99,340,454,410,473,236
1941,0.95,-0.18,0.31,1.16,-2.62,-2.32,340,450,410,471,236
1942,0.94,-0.19,0.3,-0.37,-1.53,0.12,341,455,406,467,235
1943,0.95,-0.19,0.3,-0.67,-3.54,-0.85,338,457,406,473,235
1944,0.93,-0.2,0.3,-0.85,-0.92,-1.89,337,459,408,471,236
1945,0.93,-0.19,0.32,-1.65,-2.5,-2.93,338,455,406,471,236
1946,0.94,-0.19,0.32,0.31,-2.5,-2.2,340,455,406,473,236
1947,0.94,-0.19,0.31,0.43,-2.75,-2.2,342,459,403,469,237
1948,0.93,-0.19,0.32,-0.73,-2.08,0.12,342,452,406,466,237
1949,0.94,-0.2,0.31,-0.61,-2.93,-0.85,335,452,404,470,239
1950,0.94,-0.2,0.3,-2.62,-6.04,-5.13,341,458,405,469,236
1951,0.92,-0.19,0.32,-1.95,-0.92,1.4,341,454,408,478,236
1952,0.92,-0.22,0.3,-0.61,-3.6,-5.13,337,455,406,470,236
1953,0.94,-0.19,0.32,1.4,-3.36,-2.08,339,455,406,469,238
1954,0.93,-0.2,0.31,1.28,-2.99,-3.54,340,458,403,471,237
1955,0.93,-0.19,0.32,0.73,-2.75,-2.26,339,458,409,469,236
1956,0.92,-0.19,0.32,2.01,-3.85,-1.4,340,450,405,472,237
1957,0.94,-0.19,0.3,2.2,-3.78,-2.87,336,459,414,472,243
1958,0.94,-0.18,0.32,0.49,-3.11,-3.54,339,457,406,471,237
1959,0.95,-0.18,0.3,-0.43,-2.01,-1.89,339,450,402,470,238
1960,0.95,-0.18,0.3,-0.67,-2.56,-3.23,339,452,405,469,238
1961,0.93,-0.19,0.3,0.12,-1.46,-2.56,335,451,408,472,237
1962,0.94,-0.18,0.31,2.26,-3.78,-2.69,341,459,405,472,237
1963,0.95,-0.18,0.3,0.61,-3.78,-1.83,339,455,405,470,263
1964,0.94,-0.19,0.29,-0.55,-2.93,-3.3,339,458,408,471,244
1965,0.94,-0.19,0.3,-1.46,-2.99,-1.89,340,454,407,467,239
1966,0.94,-0.19,0.3,-0.79,-2.26,-2.32,343,459,405,466,239
1967,0.94,-0.19,0.3,0.55,-2.69,-2.62,339,453,406,466,237
1968,0.96,-0.18,0.3,1.22,-4.09,-2.69,335,459,408,468,236
1969,0.95,-0.18,0.3,0.55,-2.2,-2.81,339,469,413,472,240
1970,0.94,-0.19,0.3,-1.1,-2.01,-1.4,340,452,403,468,237
1971,0.94,-0.19,0.3,2.62,-4.09,-3.05,331,454,405,465,236
1972,0.94,-0.18,0.3,1.53,-2.56,-2.38,339,449,404,472,238
1973,0.94,-0.19,0.28,2.01,-4.46,-3.54,339,460,402,468,237
1974,0.94,-0.17,0.3,-0.06,-2.2,-2.69,336,449,408,472,237
1975,0.95,-0.17,0.28,-0.18,-2.38,-1.89,338,458,404,471,240
1976,0.96,-0.16,0.28,1.83,-4.15,-2.32,337,455,405,470,238
1977,0.95,-0.17,0.28,-0.31,-3.97,-1.65,338,453,405,471,234
1978,0.96,-0.16,0.27,0.67,-5.0,-4.27,336,458,405,469,238
1979,0.96,-0.15,0.26,-10.86,-2.93,0.61,335,459,405,469,241
1980,0.95,-0.19,0.26,1.89,-3.3,-3.23,340,457,408,471,238
1981,0.95,-0.19,0.27,0.55,-3.48,-2.93,336,453,404,468,238
1982,0.96,-0.18,0.28,-2.32,-3.05,-3.72,337,457,404,469,238
1983,0.96,-0.18,0.27,0.06,-2.44,-2.75,335,454,407,468,239
1984,0.95,-0.18,0.26,-0.85,-3.66,-2.44,337,454,408,471,232
1985,0.95,-0.18,0.26,-1.22,-3.05,-2.44,338,454,402,468,236
1986,0.97,-0.18,0.26,0.92,-2.01,-1.95,334,455,404,465,239
1987,0.95,-0.19,0.26,-0.18,-2.87,-2.81,332,458,408,465,236
1988,0.96,-0.17,0.27,0.37,-1.71,-1.77,334,458,402,470,239
1989,0.95,-0.17,0.28,1.16,-1.53,-2.44,342,449,404,473,234
1990,0.95,-0.18,0.27,-0.24,-3.91,-2.38,338,449,412,464,239
1991,0.95,-0.18,0.27,-0.67,-2.56,-2.08,337,454,404,468,236
1992,0.96,-0.17,0.27,0.49,-2.81,-2.99,340,447,406,469,236
1993,0.96,-0.18,0.27,0.92,-2.44,-2.44,335,454,407,466,237
1994,0.95,-0.18,0.27,-0.73,-2.81,-2.14,337,459,405,468,234
1995,0.95,-0.18,0.27,-0.06,-3.6,-2.62,336,453,402,468,240
1996,0.96,-0.18,0.27,0.73,-3.91,-1.83,334,458,405,468,237
1997,0.94,-0.18,0.28,1.89,-2.32,-2.93,338,458,405,468,236
1998,0.96,-0.16,0.27,3.3,-4.15,-3.48,337,471,406,470,237
1999,0.96,-0.17,0.27,0.18,-3.36,-2.32,334,451,405,465,240
2000,0.95,-0.18,0.26,-0.43,-3.42,-2.14,336,455,408,468,234
2001,0.96,-0.17,0.26,0.43,-3.23,-1.77,335,457,402,470,238
2002,0.96,-0.17,0.27,0.73,-2.93,-2.93,337,457,407,475,235
2003,0.95,-0.17,0.27,-0.24,-2.08,-2.93,338,455,404,468,238
2004,0.95,-0.18,0.26,0.55,-3.36,-2.93,339,456,407,465,237
2005,0.96,-0.18,0.26,-0.12,-2.99,-2.93,337,451,406,470,245
2006,0.96,-0.17,0.27,-2.14,-0.55,-2.32,337,455,404,465,231
2007,0.89,-0.18,0.32,-15.5,-6.71,-0.61,333,455,402,462,242
