,aX,aY,aZ,gX,gY,gZ,little,ring,middle,index,thumb
0,-0.13,-0.87,0.49,-0.92,-4.21,-3.36,292,474,450,482,468
1,-0.12,-0.88,0.46,-4.21,-2.01,-1.22,294,470,451,488,466
2,-0.13,-0.88,0.47,-1.4,-2.81,-2.56,291,469,450,486,467
3,-0.1,-0.88,0.45,-1.65,-5.25,-2.08,293,465,445,486,467
4,-0.12,-0.88,0.46,-0.06,-4.03,-4.33,292,468,449,486,468
5,-0.12,-0.88,0.46,3.05,-3.6,-3.11,291,464,450,489,467
6,-0.13,-0.88,0.46,-0.67,-2.5,-3.05,295,471,449,489,475
7,-0.14,-0.87,0.47,2.56,-2.01,-4.7,294,472,449,488,467
8,-0.12,-0.88,0.45,4.7,-4.39,-3.85,302,470,449,485,469
9,-0.12,-0.88,0.45,2.75,-2.44,-4.39,295,464,445,489,464
10,-0.13,-0.88,0.47,-1.59,-2.5,-2.87,292,466,446,483,467
11,-0.15,-0.88,0.47,-0.73,-1.59,-4.7,291,471,442,484,468
12,-0.11,-0.89,0.45,-0.85,0.06,-4.03,294,469,447,485,468
13,-0.11,-0.88,0.47,-0.98,-2.26,-2.87,297,465,441,487,467
14,-0.11,-0.88,0.47,1.28,-4.27,-3.91,294,481,443,485,462
15,-0.09,-0.88,0.5,15.56,-1.04,-1.28,294,469,443,487,463
16,-0.14,-0.88,0.46,-6.59,-4.21,-2.2,293,481,444,484,466
17,-0.12,-0.89,0.45,0.12,-2.81,-3.54,291,469,443,480,468
18,-0.11,-0.88,0.45,-0.06,-4.46,-4.52,295,472,445,480,464
19,-0.12,-0.88,0.49,2.38,-2.69,-1.89,294,463,439,483,462
20,-0.08,-0.88,0.47,2.2,-3.97,0.0,293,472,440,483,468
21,-0.09,-0.88,0.46,-1.89,-1.16,0.37,295,468,439,484,465
22,-0.09,-0.88,0.45,0.0,-3.11,-2.75,291,463,443,490,466
23,-0.1,-0.89,0.46,-1.34,-3.6,-3.42,298,466,440,482,464
24,-0.09,-0.88,0.46,1.28,-4.39,-2.44,294,473,437,484,464
25,-0.1,-0.89,0.45,-0.12,-3.05,-2.14,298,468,438,485,464
26,-0.09,-0.89,0.45,-0.55,-2.14,-2.62,297,468,437,481,460
27,-0.09,-0.9,0.45,-0.73,-2.2,-2.93,296,471,435,483,463
28,-0.09,-0.89,0.44,1.34,-2.75,-3.23,295,467,435,482,484
29,-0.1,-0.9,0.45,-0.49,0.67,-2.75,294,472,438,481,460
30,-0.09,-0.89,0.44,2.08,-4.76,-2.38,294,468,440,483,465
31,-0.09,-0.9,0.45,0.31,-3.17,-2.38,296,468,439,480,463
32,-0.09,-0.9,0.44,-1.28,-3.23,-3.85,295,480,434,480,463
33,-0.08,-0.9,0.44,-1.34,-2.01,-2.62,290,469,435,479,463
34,-0.08,-0.9,0.43,0.55,-2.69,-2.38,293,463,443,482,487
35,-0.08,-0.91,0.43,-0.24,-2.62,-3.11,296,467,436,478,461
36,-0.08,-0.9,0.42,1.28,-2.69,-2.62,293,468,438,477,465
37,-0.08,-0.9,0.42,0.73,-3.42,-2.69,296,468,434,480,466
38,-0.08,-0.9,0.42,-0.37,-3.3,-2.99,296,471,437,477,461
39,-0.09,-0.9,0.42,1.65,-2.2,-1.89,296,467,437,480,464
40,-0.09,-0.91,0.42,1.34,-2.56,-2.56,290,468,434,481,462
41,-0.09,-0.9,0.43,1.71,-1.34,-3.72,294,472,435,483,464
42,-0.08,-0.91,0.42,-0.61,-2.26,-2.26,291,468,434,475,458
43,-0.09,-0.9,0.41,0.18,-2.75,-2.38,292,472,434,480,463
44,-0.09,-0.91,0.42,1.1,-2.01,-2.81,294,472,434,477,461
45,-0.11,-0.9,0.42,2.56,-4.03,-7.57,295,473,435,478,462
46,-0.09,-0.91,0.41,-0.49,-3.17,-1.53,293,469,436,477,463
47,-0.09,-0.91,0.42,-0.67,-2.01,-2.01,292,466,435,478,460
48,-0.08,-0.93,0.41,-0.85,-2.93,-5.68,293,464,436,479,460
49,-0.09,-0.91,0.41,-1.22,-0.73,-1.16,301,464,441,477,460
50,-0.1,-0.91,0.41,-0.24,-2.62,-2.32,293,472,432,476,461
51,-0.1,-0.91,0.41,-0.61,-2.2,-1.89,291,467,435,480,461
52,-0.1,-0.91,0.4,-1.53,-2.81,-3.05,293,474,431,474,460
53,-0.1,-0.91,0.39,2.69,-5.92,-2.75,294,467,431,475,461
54,-0.1,-0.91,0.39,0.18,-2.75,-2.69,292,468,428,475,459
55,-0.1,-0.92,0.41,-4.03,-3.48,-3.11,294,467,431,476,457
56,-0.1,-1.01,0.21,-31.74,8.54,3.78,295,469,436,476,459
57,-0.14,-0.95,0.2,-10.38,1.46,0.85,294,468,432,477,456
58,-0.22,-0.79,0.04,18.31,-19.04,-1.83,297,485,432,476,455
59,-0.13,-0.84,-0.11,-37.6,2.38,-38.09,296,473,423,477,462
60,-0.15,-0.98,0.09,-9.16,-8.3,-10.13,304,471,426,477,481
61,-0.19,-0.98,0.18,7.69,-4.94,2.32,300,468,425,474,460
62,-0.22,-0.97,0.09,-1.16,-3.05,-1.89,299,471,425,478,459
63,-0.19,-0.99,0.13,-7.14,1.53,-5.62,300,467,426,475,455
64,-0.16,-0.98,0.08,-2.5,-6.96,-3.3,298,471,426,479,459
65,-0.17,-0.97,0.05,0.55,-9.7,0.61,296,471,426,475,457
66,-0.19,-0.98,0.07,1.1,-3.23,-1.1,301,472,426,477,458
67,-0.19,-0.97,0.01,-1.22,-2.14,-1.22,299,471,425,475,458
68,-0.19,-0.97,0.0,3.91,-4.15,-0.92,302,475,422,481,469
69,-0.2,-0.97,0.03,4.94,-3.97,-2.14,301,472,428,479,458
70,-0.2,-0.98,0.06,-1.53,-2.38,-2.93,307,474,424,476,459
71,-0.19,-0.98,0.02,-2.99,-3.11,-3.72,302,475,428,475,459
72,-0.19,-0.97,0.02,2.32,-3.48,-1.59,301,469,423,480,454
73,-0.19,-0.98,0.02,-1.34,-3.11,-1.59,300,476,426,479,457
74,-0.2,-0.98,0.05,0.73,-2.26,-2.69,300,471,426,475,458
75,-0.21,-0.98,0.06,2.01,-4.58,-1.65,302,472,422,473,457
76,-0.2,-0.97,0.04,-0.55,-1.28,-2.62,303,471,424,475,455
77,-0.21,-0.98,0.04,-2.08,-1.71,-1.53,302,476,423,476,456
78,-0.21,-0.97,0.07,-3.48,-3.05,-6.59,304,473,424,477,452
79,-0.19,-0.97,0.05,4.15,-6.41,-0.85,302,476,423,478,456
80,-0.19,-0.98,0.05,0.18,0.12,-3.48,303,473,425,478,455
81,-0.2,-0.97,0.06,1.59,0.18,-2.26,301,475,424,478,457
82,-0.17,-0.98,0.05,0.98,-1.83,-4.39,300,471,419,478,457
83,-0.16,-0.98,0.05,1.4,-3.54,-1.53,308,475,423,478,456
84,-0.15,-0.98,0.1,-0.73,-2.93,-4.7,302,478,423,477,457
85,-0.15,-0.99,0.09,5.31,-2.69,-9.95,312,471,421,475,464
86,-0.11,-0.98,0.1,3.23,1.1,-2.56,322,469,421,475,463
87,-0.15,-0.97,0.04,-1.04,4.33,0.79,308,475,419,485,465
88,-0.13,-0.98,0.06,-1.1,-2.14,-5.37,303,469,422,478,465
89,-0.08,-0.98,0.03,-7.87,-14.28,-4.58,302,472,417,475,464
90,-0.1,-0.99,0.04,2.93,-1.95,-1.53,302,471,413,473,462
91,-0.1,-0.99,0.03,-2.56,-1.34,-4.7,298,476,415,477,461
92,-0.09,-1.0,0.02,1.16,1.65,-4.15,299,472,415,478,461
93,-0.09,-0.99,0.02,0.24,1.34,-1.4,305,473,420,475,462
94,-0.12,-1.01,0.06,-4.52,-4.58,2.32,301,476,417,477,461
95,-0.1,-1.0,0.05,-6.16,-4.64,-1.1,301,471,413,474,472
96,-0.1,-0.99,0.02,-2.99,-1.16,-2.87,301,472,418,471,462
97,-0.11,-0.99,-0.0,2.26,-4.03,-2.26,299,474,414,477,460
98,-0.11,-0.98,-0.0,0.85,-3.85,-1.53,301,476,412,475,461
99,-0.12,-0.99,0.01,-0.31,-1.4,-2.93,301,473,414,477,460
100,-0.12,-0.99,0.02,6.47,-4.21,0.49,294,472,415,473,464
101,-0.15,-0.99,0.03,-0.43,-2.75,-3.05,299,467,417,474,458
102,-0.13,-0.99,0.03,0.79,-4.58,-2.01,302,473,413,474,463
103,-0.13,-0.99,-0.0,1.53,-3.36,-1.46,304,475,416,474,461
104,-0.11,-0.99,0.01,0.98,-3.05,-3.42,301,472,413,474,461
105,-0.13,-0.99,0.01,-0.49,-2.81,-2.38,301,472,412,475,463
106,-0.15,-0.99,0.02,1.53,1.46,-0.55,297,474,415,473,460
107,-0.18,-0.98,0.05,9.83,9.64,0.0,292,472,406,475,460
108,-0.15,-0.98,0.06,0.61,-4.52,-3.42,296,475,410,476,457
109,-0.12,-0.99,0.05,2.08,-12.21,-0.79,306,470,409,473,462
110,-0.15,-0.98,0.04,-0.49,6.29,-3.42,318,474,411,476,464
111,-0.13,-0.98,0.06,0.49,-1.89,-4.82,307,472,410,479,463
112,-0.13,-0.98,0.07,1.95,-1.53,-1.77,304,472,410,482,457
113,-0.14,-0.98,0.07,-0.06,-3.36,-1.4,307,467,406,473,459
114,-0.13,-0.99,0.07,0.0,-3.97,-2.01,301,470,409,477,461
115,-0.14,-0.99,0.07,-0.31,-3.36,-2.75,305,475,410,479,459
116,-0.12,-0.99,0.06,-0.79,-4.94,-3.17,302,472,414,479,460
117,-0.12,-0.98,0.05,-1.04,-3.48,-3.97,299,474,415,485,459
118,-0.14,-0.99,0.06,0.67,-1.16,-2.75,304,472,413,481,463
119,-0.13,-0.99,0.08,1.77,-4.09,-2.08,304,472,414,475,474
120,-0.13,-0.99,0.07,-0.37,-4.33,-2.32,306,471,410,472,461
121,-0.13,-0.99,0.07,-0.49,-1.65,-2.75,304,473,418,476,462
122,-0.13,-0.98,0.06,0.06,-3.6,-2.08,301,475,412,477,462
123,-0.14,-0.99,0.05,0.49,-3.3,-2.62,307,476,412,473,457
124,-0.12,-0.98,0.06,1.53,-1.71,-2.44,307,473,411,476,460
125,-0.14,-0.99,0.06,1.34,-3.78,-1.65,307,472,415,478,459
126,-0.14,-0.98,0.07,-0.12,-1.04,-2.93,311,473,412,475,463
127,-0.13,-0.98,0.07,0.43,-2.81,-2.38,301,467,412,475,461
128,-0.13,-0.99,0.07,-0.43,-4.7,-2.08,306,470,415,476,460
129,-0.14,-0.98,0.06,0.55,-2.5,-2.62,309,466,414,478,460
130,-0.14,-0.99,0.06,-0.31,-2.5,-2.26,301,476,410,479,461
131,-0.13,-0.99,0.06,-0.79,-2.69,-3.3,303,472,411,475,457
132,-0.13,-0.99,0.06,0.43,-2.99,-2.38,307,472,411,475,462
133,-0.12,-0.98,0.06,0.98,-2.87,-2.69,308,469,414,475,462
134,-0.13,-0.98,0.06,1.16,-3.3,-2.2,306,468,414,475,460
135,-0.14,-0.98,0.08,0.43,-2.69,-2.69,307,471,410,474,461
136,-0.15,-0.99,0.07,0.37,-2.08,-2.62,306,468,412,475,461
137,-0.14,-0.98,0.07,0.61,-2.14,-2.14,304,476,411,475,460
138,-0.13,-0.99,0.07,0.06,-4.03,-2.93,308,478,413,477,491
139,-0.13,-0.98,0.06,-0.55,-2.81,-2.69,309,471,411,476,462
140,-0.14,-0.99,0.06,0.43,-3.11,-1.77,301,471,414,475,460
141,-0.15,-0.98,0.08,-0.06,-3.54,-2.14,307,467,411,476,460
142,-0.15,-0.99,0.06,0.67,-3.54,-2.32,308,474,414,471,458
143,-0.14,-0.98,0.06,0.18,-2.69,-2.14,307,472,413,474,470
144,-0.15,-0.98,0.06,1.34,-2.93,-2.26,308,472,414,479,458
145,-0.13,-0.98,0.08,1.22,-2.5,-3.3,307,476,410,473,459
146,-0.16,-0.98,0.05,0.49,-3.3,-2.32,304,475,411,476,456
147,-0.14,-0.98,0.06,-0.61,-3.23,-4.27,308,470,413,475,462
148,-0.15,-0.98,0.07,1.22,-2.87,-2.14,306,471,410,475,457
149,-0.14,-0.98,0.06,-0.92,-3.17,-4.27,309,472,410,473,459
150,-0.14,-0.98,0.06,0.43,-3.6,-2.5,308,477,407,471,460
151,-0.14,-0.98,0.05,1.1,-3.54,0.0,308,472,411,475,461
152,-0.13,-0.98,0.05,0.12,-2.44,-2.75,308,471,408,469,457
153,-0.15,-0.98,0.07,-0.43,-5.19,-3.3,310,467,412,474,459
154,-0.15,-0.98,0.06,-0.85,-0.37,-2.62,310,466,412,474,458
155,-0.14,-0.99,0.06,0.0,-2.99,-2.26,308,473,412,476,459
156,-0.14,-0.98,0.06,0.73,-3.54,-2.56,311,471,409,477,459
157,-0.14,-0.99,0.06,0.43,-3.42,-2.5,312,476,407,474,460
158,-0.14,-0.99,0.07,-0.12,-2.93,-2.69,316,472,410,475,456
159,-0.13,-0.99,0.06,0.61,-2.14,-1.77,315,472,408,475,458
160,-0.13,-0.98,0.06,0.98,-4.09,-1.71,308,470,409,470,459
161,-0.14,-0.98,0.07,0.31,-3.78,-1.95,307,476,407,473,456
162,-0.14,-0.98,0.06,0.73,-3.17,-2.2,311,471,407,475,458
163,-0.15,-0.99,0.06,0.85,-3.48,-2.26,308,475,407,476,460
164,-0.14,-0.98,0.05,0.49,-2.81,-2.32,309,482,409,475,459
165,-0.14,-0.98,0.06,0.49,-3.48,-3.6,308,476,417,479,484
166,-0.14,-0.98,0.06,0.55,-3.48,-2.32,310,471,408,473,457
167,-0.14,-0.98,0.05,0.18,-3.17,-2.2,309,467,408,473,457
168,-0.15,-0.99,0.05,-0.18,-2.56,-1.83,310,473,411,472,457
169,-0.14,-0.99,0.06,-0.85,-3.97,-2.32,309,477,410,476,455
170,-0.14,-0.98,0.06,-1.65,-3.23,-1.59,311,474,409,469,460
171,-0.15,-0.98,0.06,-0.06,-2.44,-2.62,312,472,407,473,455
172,-0.15,-0.98,0.05,0.85,-4.09,-2.87,312,476,407,470,457
173,-0.16,-0.99,0.06,0.98,-3.72,-2.62,310,473,407,472,455
174,-0.15,-0.98,0.07,0.43,-4.33,-3.54,312,470,410,471,460
175,-0.15,-0.98,0.06,-0.43,-1.95,-2.62,314,471,407,471,458
176,-0.15,-0.98,0.07,-0.18,-2.62,-2.44,311,473,408,475,459
177,-0.15,-0.98,0.06,0.37,-2.44,-1.95,313,469,407,470,456
178,-0.15,-0.98,0.07,-0.06,-2.99,-2.32,313,470,408,474,453
179,-0.15,-0.98,0.05,0.24,-3.17,-3.66,311,468,407,474,455
180,-0.14,-0.98,0.07,1.77,-2.56,-2.87,309,476,406,469,459
181,-0.15,-0.98,0.07,-0.24,-3.66,-2.38,313,472,409,472,453
182,-0.14,-0.98,0.07,-0.43,-2.44,-2.08,307,470,411,469,457
183,-0.15,-0.98,0.07,0.49,-3.91,-1.46,310,471,409,472,460
184,-0.15,-0.99,0.07,-0.43,-2.81,-2.75,315,471,407,471,456
185,-0.15,-0.98,0.07,-0.37,-2.87,-2.32,313,482,407,471,458
186,-0.16,-0.98,0.06,-0.37,-2.5,-3.17,314,472,409,471,452
187,-0.14,-0.98,0.05,0.61,-4.27,-2.01,310,480,406,471,456
188,-0.15,-0.98,0.07,0.85,-5.31,-1.28,314,467,410,471,459
189,-0.15,-0.98,0.07,1.04,-3.42,-4.39,314,472,407,470,472
190,-0.14,-0.98,0.07,-1.59,-2.08,-2.81,314,468,410,473,454
191,-0.15,-0.98,0.08,-0.06,-2.99,-1.83,317,472,406,468,458
192,-0.16,-0.98,0.07,-0.12,-2.81,-2.5,318,472,406,470,455
193,-0.15,-0.98,0.07,-0.18,-3.05,-2.69,315,472,405,474,454
194,-0.16,-0.98,0.06,0.18,-2.32,-2.62,312,467,404,472,457
195,-0.15,-0.98,0.06,0.37,-3.05,-2.75,312,468,409,468,456
196,-0.15,-0.98,0.06,0.31,-2.93,-2.56,312,476,407,468,457
197,-0.14,-0.98,0.07,0.43,-2.26,-3.6,311,476,403,473,459
198,-0.16,-0.98,0.07,0.55,-3.48,-2.69,312,472,406,470,455
199,-0.15,-0.98,0.07,-0.06,-3.48,-2.08,312,473,406,471,456
200,-0.15,-0.98,0.06,-0.73,-3.66,-2.5,312,466,407,469,454
201,-0.15,-0.98,0.07,0.92,-2.99,-2.2,313,471,406,469,452
202,-0.15,-0.98,0.07,-0.98,-2.2,-3.05,311,472,406,473,457
203,-0.15,-0.98,0.07,0.43,-3.36,-2.87,312,471,409,471,455
204,-0.15,-0.99,0.07,-0.73,-3.05,-2.99,313,469,408,470,456
205,-0.15,-0.98,0.07,1.77,-3.36,-2.44,315,471,404,473,455
206,-0.14,-0.98,0.07,0.61,-2.99,-2.5,314,476,405,470,452
207,-0.17,-0.99,0.08,-0.43,-2.32,-2.62,316,471,413,470,455
208,-0.15,-0.98,0.08,-0.37,-3.17,-3.05,314,473,406,470,458
209,-0.15,-0.98,0.07,0.12,-2.99,-2.69,316,472,406,470,459
210,-0.16,-0.98,0.07,0.43,-2.56,-2.32,313,475,411,473,457
211,-0.15,-0.98,0.06,-0.61,-2.75,-2.14,315,475,417,469,453
212,-0.15,-0.98,0.05,0.43,-4.09,-2.5,317,471,400,466,452
213,-0.16,-0.98,0.08,0.49,-2.81,-2.38,316,468,407,466,454
214,-0.16,-0.98,0.07,1.28,-3.42,-2.62,317,475,409,472,455
215,-0.15,-0.98,0.08,-0.73,-2.99,-3.17,318,472,413,469,454
216,-0.15,-0.98,0.07,-1.16,-3.17,-3.54,316,472,405,468,448
217,-0.15,-0.98,0.06,0.85,-3.54,-1.95,313,471,400,466,453
218,-0.15,-0.98,0.07,-0.31,-5.0,-2.01,319,477,406,471,452
219,-0.15,-0.98,0.06,-0.12,-2.56,-1.95,322,473,403,472,452
220,-0.14,-0.98,0.05,0.37,-1.95,-2.87,316,476,405,468,456
221,-0.15,-0.98,0.03,0.67,-3.48,-2.32,315,473,400,472,454
222,-0.15,-0.98,0.05,0.85,-2.62,-3.11,317,470,408,467,456
223,-0.13,-0.98,0.06,1.16,-3.17,-2.26,314,471,403,471,454
224,-0.16,-0.98,0.06,0.06,-2.38,-2.14,319,475,400,469,453
225,-0.15,-0.98,0.06,0.55,-2.93,-2.08,319,469,404,468,456
226,-0.16,-0.98,0.06,1.1,-3.11,-2.01,316,470,415,465,454
227,-0.15,-0.98,0.07,0.12,-3.05,-2.5,318,475,411,472,454
228,-0.16,-0.98,0.05,-0.18,-3.42,-2.32,315,467,403,468,457
229,-0.15,-0.98,0.07,1.28,-2.99,-2.01,316,472,404,467,457
230,-0.16,-0.98,0.07,0.61,-3.42,-3.17,314,474,401,472,453
231,-0.17,-0.98,0.08,1.16,-2.87,-2.14,317,470,404,470,454
232,-0.15,-0.98,0.08,-0.31,-2.01,-3.36,319,469,403,470,454
233,-0.15,-0.98,0.07,0.18,-2.26,-2.01,317,474,403,467,455
234,-0.15,-0.98,0.06,-0.98,-2.38,-3.6,311,472,405,468,454
235,-0.15,-0.98,0.05,-0.37,-3.48,-2.81,314,471,404,464,454
236,-0.14,-0.98,0.05,0.43,-4.09,-2.5,317,472,402,467,452
237,-0.15,-0.98,0.05,1.53,-3.54,-1.53,315,468,404,469,456
238,-0.14,-0.98,0.06,-0.85,-1.34,-6.96,315,472,403,466,453
239,-0.14,-0.98,0.06,0.49,-2.44,-2.87,317,471,405,469,453
240,-0.15,-0.98,0.05,-0.73,2.56,-2.93,315,465,403,471,454
241,-0.15,-0.98,0.06,-0.92,-8.97,-3.17,313,474,402,471,455
242,-0.14,-0.98,0.05,-0.49,-0.92,-2.87,313,471,400,471,454
243,-0.15,-0.98,0.05,1.4,-3.11,-2.14,312,467,398,468,450
244,-0.15,-0.98,0.05,1.22,-2.69,-2.08,310,472,401,465,456
245,-0.15,-0.98,0.06,2.2,-2.01,-3.36,308,470,398,470,456
246,-0.15,-0.99,0.07,1.65,-0.12,-2.81,302,466,398,470,455
247,-0.15,-0.98,0.04,-2.5,-1.83,-5.25,306,470,394,469,453
248,-0.16,-0.99,0.05,-4.03,-6.1,-6.1,305,469,399,466,456
249,-0.13,-0.99,0.03,-6.59,-2.81,-3.66,308,467,396,463,449
250,-0.12,-0.98,0.01,-3.36,-13.12,15.32,308,473,400,464,456
251,-0.19,-0.98,0.01,2.44,2.32,-6.41,307,469,407,467,453
252,-0.18,-0.98,0.02,3.48,-2.87,-2.75,306,470,406,467,453
253,-0.17,-0.98,0.01,1.4,-4.46,-2.01,305,469,407,471,452
254,-0.17,-0.98,0.02,2.87,-4.27,-1.59,305,470,416,468,454
255,-0.16,-0.98,0.03,1.53,-5.25,-2.32,305,473,406,467,453
256,-0.18,-0.98,0.04,8.3,0.12,-4.33,309,469,412,470,465
257,-0.16,-0.98,0.04,2.08,0.92,15.5,308,469,406,465,453
258,-0.23,-0.98,0.08,-9.34,-8.97,-9.52,305,463,410,465,454
259,-0.16,-0.97,0.04,1.28,-4.76,-2.01,305,472,408,468,455
260,-0.2,-0.98,0.06,4.52,-8.12,-0.12,305,473,407,468,455
261,-0.21,-0.98,0.1,-4.7,0.98,-5.0,307,471,405,466,452
262,-0.15,-0.98,-0.03,-12.15,-1.46,-11.72,305,466,409,468,452
263,-0.17,-0.97,0.0,7.87,-5.92,-3.36,303,467,407,466,453
264,-0.17,-0.98,0.04,0.0,-2.56,-3.36,304,468,406,467,452
265,-0.17,-0.98,0.02,-0.43,-3.11,-3.17,303,467,405,465,452
266,-0.18,-0.98,0.06,-1.34,-2.99,-3.11,303,470,402,465,453
267,-0.16,-0.98,0.05,1.34,-2.99,-1.46,305,468,402,465,440
268,-0.17,-0.98,0.02,2.01,-3.72,-1.65,307,467,406,465,453
269,-0.16,-0.98,0.02,-1.04,-2.75,-3.23,303,469,407,469,455
270,-0.17,-0.98,0.02,0.24,-2.75,-2.62,306,472,408,466,453
271,-0.16,-0.98,0.03,-2.32,-2.56,-4.46,305,463,404,465,452
272,-0.16,-0.98,0.02,2.32,-3.91,-1.53,315,473,405,465,452
273,-0.17,-0.98,0.02,-0.24,-3.97,-2.01,304,471,405,464,454
274,-0.16,-0.98,0.02,0.37,-4.03,-1.95,302,468,403,467,453
275,-0.19,-0.98,0.04,0.73,-2.56,-2.62,306,467,408,469,452
276,-0.18,-0.98,0.03,0.92,-3.48,-2.5,304,470,401,466,451
277,-0.18,-0.98,0.02,-0.67,-2.44,-3.36,307,467,406,464,482
278,-0.17,-0.98,0.03,0.98,-3.85,-2.14,306,470,405,465,452
279,-0.16,-0.98,0.03,-0.67,-4.52,-2.99,303,466,405,466,452
280,-0.16,-0.98,0.03,0.43,-2.87,-2.81,308,469,405,466,452
281,-0.17,-0.98,0.03,0.73,-3.72,-2.44,305,469,408,468,455
282,-0.16,-0.98,0.03,0.67,-4.09,-2.44,302,468,403,466,452
283,-0.17,-0.98,0.04,0.43,-3.48,-2.93,304,470,405,463,450
284,-0.17,-0.98,0.03,0.0,-2.93,-1.95,307,472,406,463,455
285,-0.15,-0.98,0.02,0.06,-2.75,-3.17,306,467,406,467,452
286,-0.16,-0.98,0.02,-0.92,-4.39,-3.3,308,471,406,464,450
287,-0.17,-0.98,0.02,0.12,-1.04,-3.66,306,463,405,468,455
288,-0.16,-0.98,0.01,-0.18,-3.17,-2.32,308,469,407,464,452
289,-0.15,-0.98,0.02,-0.31,-3.42,-3.3,307,470,406,466,449
290,-0.17,-0.98,0.02,2.62,-4.33,-1.16,304,465,409,463,452
291,-0.16,-0.98,0.03,0.43,-2.44,-2.69,308,474,408,469,448
292,-0.15,-0.98,0.01,2.32,-5.31,-1.04,305,471,414,467,453
293,-0.16,-0.98,0.03,-1.28,-2.56,-3.17,308,469,402,467,452
294,-0.18,-0.98,0.03,1.4,-4.15,-0.61,308,464,410,469,451
295,-0.17,-0.98,0.02,0.18,-2.38,-3.23,307,469,402,466,455
296,-0.18,-0.98,0.02,0.61,-2.26,-2.75,308,468,406,467,452
297,-0.16,-0.99,0.03,0.79,-2.69,-2.93,308,463,407,468,453
298,-0.18,-0.98,0.02,1.28,-4.33,-2.26,308,472,410,465,453
299,-0.16,-0.98,0.03,1.1,-3.91,-1.83,309,469,410,469,454
300,-0.17,-0.98,0.03,-1.28,-3.78,-4.03,307,464,407,469,455
301,-0.18,-0.98,0.03,-0.37,-2.56,-1.95,308,469,408,471,454
302,-0.15,-0.98,0.04,0.24,-2.01,-3.72,310,472,409,471,455
303,-0.17,-0.98,0.03,1.89,-2.2,-1.83,308,470,412,469,452
304,-0.17,-0.99,0.04,1.16,-4.7,-0.92,307,468,412,469,453
305,-0.17,-0.98,0.03,0.31,-2.32,-2.01,310,469,411,470,452
306,-0.18,-0.99,0.03,-1.1,-3.48,-2.38,309,467,410,470,453
307,-0.17,-0.98,0.0,-0.49,-4.76,-3.78,306,464,409,468,452
308,-0.18,-0.99,0.02,0.37,2.08,-2.56,309,472,411,470,460
309,-0.16,-0.98,0.03,-1.22,-4.03,-3.66,309,470,409,472,452
310,-0.17,-0.98,0.03,0.61,-2.62,-2.81,308,469,411,471,452
311,-0.17,-0.98,0.03,0.98,-2.56,-2.38,312,472,410,472,452
312,-0.17,-0.98,0.03,-1.53,-1.28,-3.17,305,470,409,468,453
313,-0.17,-0.98,0.03,0.0,-3.72,-1.95,308,470,414,468,452
314,-0.18,-0.98,0.03,-0.49,-2.75,-2.99,314,471,410,469,450
315,-0.17,-0.98,0.03,-0.61,-2.32,-2.87,308,462,408,472,457
316,-0.17,-0.98,0.03,0.37,-4.39,-1.77,308,466,411,472,444
317,-0.18,-0.97,0.02,2.56,-1.95,-2.32,308,468,405,472,455
318,-0.19,-0.98,0.03,0.37,-5.13,-2.26,311,468,408,477,453
319,-0.17,-0.98,0.03,0.24,-2.44,-3.72,309,468,411,467,447
320,-0.17,-0.98,0.03,-0.37,-2.75,-3.42,306,469,410,469,454
321,-0.18,-0.99,0.04,-0.55,-1.1,-2.56,308,473,409,470,440
322,-0.19,-0.98,0.03,0.43,-3.05,-1.1,309,469,412,470,452
323,-0.18,-0.98,0.03,0.31,-3.3,-2.56,309,469,411,469,448
324,-0.18,-0.98,0.03,-0.79,-2.75,-2.75,309,471,409,476,453
325,-0.17,-0.98,0.02,1.53,-3.91,-2.08,310,469,410,469,452
326,-0.17,-0.98,0.02,0.0,-3.85,-2.93,310,469,426,471,447
327,-0.17,-0.98,0.04,1.04,-3.6,-2.69,309,463,407,469,452
328,-0.18,-0.98,0.03,-0.49,-2.62,-3.48,311,466,407,467,454
329,-0.18,-0.98,0.02,0.37,-3.23,-2.75,309,468,425,468,454
330,-0.19,-0.98,0.04,0.06,-2.62,-1.83,308,466,407,472,446
331,-0.19,-0.98,0.04,0.49,-2.56,-1.95,306,472,409,472,448
332,-0.18,-0.98,0.02,0.18,-2.5,-2.38,307,468,412,470,451
333,-0.18,-0.98,0.03,0.06,-3.11,-1.77,309,469,407,470,452
334,-0.17,-0.98,0.02,2.2,-3.85,-1.95,321,474,409,472,449
335,-0.17,-0.98,0.02,1.16,-3.85,-3.11,311,470,410,470,451
336,-0.15,-0.98,0.01,-3.48,-1.77,-5.98,311,464,409,471,451
337,-0.15,-0.98,-0.01,-3.42,-0.73,-8.24,308,473,409,472,446
338,-0.16,-0.99,-0.01,-3.11,-2.44,-3.6,310,472,410,471,451
339,-0.17,-0.99,0.05,5.74,-2.75,0.92,311,464,409,470,451
340,-0.19,-0.98,-0.08,3.11,-2.5,4.39,308,470,410,471,451
341,-0.17,-0.98,-0.02,4.46,-1.53,-0.49,312,469,406,470,449
342,-0.17,-0.98,0.01,0.98,-2.99,-3.23,311,469,408,469,450
343,-0.17,-0.98,0.02,1.77,-5.86,-6.71,313,464,411,473,451
344,-0.15,-0.97,0.0,-3.42,-1.77,-4.76,315,469,410,467,450
345,-0.15,-0.99,-0.0,2.01,-3.11,-3.72,308,470,410,466,452
346,-0.16,-0.99,0.0,2.5,-5.86,0.06,308,471,410,470,453
347,-0.15,-0.99,0.0,-0.18,-5.37,-4.94,313,464,409,472,450
348,-0.15,-0.98,0.0,-1.89,-2.99,-6.41,312,470,413,467,450
349,-0.16,-0.98,0.0,2.32,-4.58,-1.22,316,470,410,469,451
350,-0.15,-0.98,0.01,0.92,-3.6,-2.75,315,474,414,472,450
351,-0.14,-0.97,-0.01,-0.67,-2.44,-2.87,317,470,413,471,449
352,-0.14,-0.99,0.0,1.04,-1.1,-3.66,316,473,411,465,452
353,-0.16,-0.99,0.01,2.32,-6.47,-2.44,317,469,410,472,450
354,-0.15,-0.99,0.0,-0.73,-3.05,-3.85,315,470,410,470,451
355,-0.15,-0.98,0.01,1.28,-2.81,-3.05,320,472,410,472,450
356,-0.13,-0.98,-0.02,1.53,-0.55,-4.94,317,466,413,469,447
357,-0.12,-0.98,0.01,1.22,-3.11,-3.66,319,473,409,470,448
358,-0.14,-0.98,0.02,0.12,-2.75,-2.26,318,470,409,467,450
359,-0.15,-0.98,0.01,-0.73,-3.42,-2.93,317,469,410,467,450
360,-0.14,-0.98,0.0,0.37,-5.19,-3.36,320,469,408,470,448
361,-0.14,-0.98,-0.01,-1.34,-2.01,-3.11,319,470,414,468,449
362,-0.13,-0.98,0.0,1.1,-0.85,-2.62,310,472,408,469,450
363,-0.15,-0.98,0.01,3.17,-0.37,-1.34,304,464,405,467,451
364,-0.16,-0.98,0.01,3.97,-1.34,-0.79,299,464,404,477,450
365,-0.15,-0.98,0.01,2.44,-9.52,-1.65,297,467,403,469,448
366,-0.15,-0.98,0.01,0.0,-0.12,-6.47,299,470,401,465,451
367,-0.15,-0.99,0.05,-0.98,-2.81,-6.47,298,465,407,468,449
368,-0.08,-1.0,0.06,-4.46,-10.44,-4.94,304,484,405,471,448
369,-0.06,-0.96,0.07,14.47,0.79,-7.08,305,467,404,470,452
370,-0.06,-1.0,0.1,-2.56,-5.19,-5.62,301,470,406,471,450
371,-0.09,-0.98,0.05,-3.48,-1.34,-1.59,307,467,408,467,445
372,-0.11,-1.0,-0.01,6.16,3.42,3.36,307,468,411,471,447
373,-0.13,-0.98,0.04,1.28,3.72,-2.5,304,469,407,470,448
374,-0.14,-0.98,0.01,1.89,-3.36,2.01,308,468,408,464,445
375,-0.16,-0.97,0.04,0.67,-6.84,-1.83,307,473,404,471,448
376,-0.19,-0.98,0.01,0.79,-4.58,-5.19,308,470,405,470,448
377,-0.18,-0.97,0.0,3.42,-3.78,-1.46,308,472,404,468,449
378,-0.19,-0.98,0.02,-0.24,-0.31,-2.81,308,473,408,467,443
379,-0.18,-0.97,0.04,2.38,-3.3,-1.34,308,469,410,470,446
380,-0.2,-0.98,0.04,-1.34,-0.92,-2.81,308,468,407,463,449
381,-0.21,-0.96,0.03,3.42,-1.4,-2.2,309,470,407,470,445
382,-0.19,-0.97,0.03,-0.18,-4.27,-2.93,311,473,408,478,446
383,-0.19,-0.97,0.03,-0.73,-3.23,-1.95,308,468,407,467,448
384,-0.2,-0.98,0.04,1.1,-2.75,-2.01,311,467,410,470,446
385,-0.2,-0.98,0.04,0.06,-1.83,-2.75,308,468,410,468,447
386,-0.2,-0.98,0.03,-0.67,-2.56,-3.17,309,470,406,469,449
387,-0.2,-0.97,0.02,-0.55,-2.62,-2.93,311,466,409,466,449
388,-0.2,-0.98,0.03,-1.16,-2.38,-3.6,310,469,409,467,448
389,-0.18,-0.97,0.01,1.22,-1.53,-1.4,311,468,405,466,448
390,-0.17,-0.98,-0.01,-10.07,1.53,-4.88,311,467,410,468,448
391,-0.18,-0.97,-0.01,-0.06,-2.5,-2.62,308,469,414,465,447
392,-0.18,-0.98,-0.01,-1.04,-2.38,-3.36,311,471,409,467,446
393,-0.18,-0.98,-0.01,-0.73,-3.42,-2.08,310,468,409,464,447
394,-0.18,-0.98,-0.02,0.67,-2.99,-3.11,313,468,412,467,450
395,-0.19,-0.97,-0.01,0.43,-3.72,-2.14,309,468,409,471,447
396,-0.18,-0.97,0.0,-2.56,-2.75,-4.33,313,473,408,471,454
397,-0.17,-0.98,-0.01,-0.43,-3.91,-3.42,308,469,405,465,446
398,-0.18,-0.98,-0.04,-0.49,-3.42,-2.87,311,465,410,466,449
399,-0.18,-0.98,-0.01,1.4,-2.62,-2.99,306,471,407,470,436
400,-0.16,-0.97,-0.02,2.38,-1.46,-5.13,306,468,405,467,443
401,-0.17,-0.98,0.01,0.06,-2.44,-1.28,308,463,406,465,448
402,-0.16,-0.98,-0.01,-4.15,-0.92,-5.13,304,471,407,467,448
403,-0.17,-0.98,-0.01,-2.32,-0.98,-5.74,306,466,409,467,443
404,-0.13,-0.98,-0.04,0.31,-3.78,-2.44,310,467,405,463,446
405,-0.15,-0.99,-0.01,0.61,-3.91,-2.44,308,461,404,466,444
406,-0.15,-0.98,-0.01,0.85,-4.03,-1.77,309,467,408,467,444
407,-0.15,-0.98,-0.03,0.55,1.77,-3.91,306,463,407,467,444
408,-0.14,-0.98,-0.04,0.31,-2.01,-2.26,306,469,416,466,446
409,-0.15,-0.98,-0.02,-2.5,-1.77,-5.0,308,467,405,465,446
410,-0.15,-0.98,-0.09,-3.6,-6.84,-1.46,306,468,403,464,450
411,-0.14,-0.98,-0.02,4.15,3.05,-0.67,304,467,409,470,445
412,-0.13,-0.98,-0.02,1.04,-0.24,-3.78,305,472,405,467,447
413,-0.15,-0.98,-0.03,3.23,-2.38,-4.09,310,469,409,463,448
414,-0.16,-0.99,-0.01,0.55,-6.16,-1.95,311,472,406,465,450
415,-0.13,-0.99,-0.0,1.53,-3.97,-4.27,309,469,406,463,447
416,-0.12,-0.99,-0.01,0.43,-0.79,-3.72,309,471,412,457,444
417,-0.15,-0.99,0.0,0.31,-3.36,-2.32,309,467,403,466,451
418,-0.15,-0.99,-0.03,0.31,-6.04,-2.56,310,471,402,470,444
419,-0.13,-0.98,-0.0,-1.59,-5.37,-1.28,307,472,408,466,450
420,-0.14,-0.99,-0.01,-0.67,-2.5,-3.23,314,468,409,465,447
421,-0.15,-0.99,-0.01,1.1,-2.81,-1.46,309,467,407,468,447
422,-0.14,-0.98,-0.01,0.61,-1.59,-2.32,311,467,412,466,448
423,-0.14,-0.99,-0.01,-0.06,-4.39,-2.26,309,465,406,465,445
424,-0.14,-0.98,-0.02,-0.55,-2.2,-2.56,311,465,407,466,447
425,-0.14,-0.98,-0.03,0.98,-3.72,-2.62,310,470,406,462,448
426,-0.14,-0.98,-0.03,-0.06,-2.87,-2.26,311,467,400,467,454
427,-0.15,-0.98,-0.04,0.0,-3.17,-2.26,311,467,407,467,445
428,-0.15,-0.98,-0.02,-0.18,-4.15,-2.14,311,469,402,468,475
429,-0.16,-0.98,-0.02,0.0,-5.37,-2.44,306,466,394,464,443
430,-0.15,-0.98,-0.03,0.79,-2.08,-2.14,312,464,408,467,446
431,-0.14,-0.98,-0.03,0.61,0.67,-2.38,312,468,408,466,444
432,-0.14,-0.98,-0.04,0.61,-0.67,-2.5,310,469,405,465,446
433,-0.15,-0.98,-0.04,0.92,-3.36,-2.26,309,471,403,466,447
434,-0.15,-0.98,-0.03,0.06,-3.54,-2.44,313,469,413,464,446
435,-0.14,-0.98,-0.04,0.06,-3.3,-2.44,309,468,407,460,446
436,-0.15,-0.98,-0.04,0.55,-3.78,-1.77,313,470,404,465,447
437,-0.14,-0.98,-0.04,0.12,-2.14,-3.17,310,471,407,465,442
438,-0.16,-0.98,-0.04,0.12,-4.15,-2.62,311,463,406,465,443
439,-0.17,-0.98,-0.03,0.79,-4.64,0.43,312,463,396,464,443
440,-0.14,-0.98,-0.03,1.77,-5.92,-1.1,310,471,410,461,448
441,-0.15,-0.98,-0.04,0.55,-3.11,-1.77,309,467,406,460,445
442,-0.16,-0.98,-0.04,-0.92,-3.05,-2.01,310,467,403,465,446
443,-0.16,-0.98,-0.04,0.73,-2.75,-3.17,312,468,404,464,445
444,-0.17,-0.98,-0.04,0.61,-3.85,-1.59,306,467,405,463,447
445,-0.15,-0.98,-0.04,0.49,-3.17,-2.38,313,468,403,464,446
446,-0.16,-0.98,-0.05,2.14,-3.91,-2.99,307,469,402,461,445
447,-0.17,-0.98,-0.04,0.43,-3.66,-2.14,311,466,405,467,447
448,-0.16,-0.98,-0.04,0.49,-2.75,-2.26,311,468,405,460,445
449,-0.17,-0.98,-0.03,-0.92,-1.95,-3.23,311,467,403,465,442
450,-0.16,-0.98,-0.03,-1.59,-1.65,-3.23,311,471,402,463,445
451,-0.16,-0.98,-0.02,0.55,-4.21,-1.53,308,466,400,462,448
452,-0.15,-0.98,-0.03,0.12,-3.36,-3.05,310,467,405,462,446
453,-0.17,-0.98,-0.03,-0.55,-2.08,-2.62,311,467,406,464,445
454,-0.16,-0.98,-0.04,1.53,-4.27,-2.38,311,471,400,464,448
455,-0.16,-0.99,-0.03,0.92,-2.93,-2.5,311,464,405,462,447
456,-0.16,-0.98,-0.04,0.18,-3.72,-2.38,311,470,405,469,438
457,-0.15,-0.98,-0.04,1.16,-3.54,-2.01,309,461,403,464,445
458,-0.17,-0.98,-0.04,0.18,-3.17,-2.2,310,464,403,466,487
459,-0.16,-0.98,-0.04,0.43,-3.36,-2.08,314,468,405,463,445
460,-0.16,-0.98,-0.04,-0.73,-2.56,-2.87,307,467,401,464,446
461,-0.16,-0.98,-0.05,0.79,-2.32,-2.26,307,466,404,464,445
462,-0.17,-0.98,-0.04,0.37,-3.42,-2.44,310,467,405,466,445
463,-0.18,-0.98,-0.04,0.43,-3.11,-1.89,310,466,401,464,448
464,-0.17,-0.98,-0.04,0.31,-3.6,-3.05,312,466,401,466,442
465,-0.17,-0.98,-0.05,2.32,-3.11,-1.59,311,470,402,464,439
466,-0.17,-0.98,-0.06,-1.95,-2.93,-2.93,309,465,404,459,441
467,-0.16,-0.98,-0.03,2.32,-2.08,-2.69,311,467,402,464,447
468,-0.19,-0.98,-0.02,0.55,-4.64,-1.65,314,466,403,460,445
469,-0.18,-0.98,-0.02,2.14,-4.33,-0.24,311,467,404,463,445
470,-0.19,-0.97,-0.02,1.28,-4.27,-2.26,312,471,403,466,445
471,-0.19,-0.97,-0.01,-0.49,-4.33,-2.32,311,467,402,466,444
472,-0.2,-0.97,-0.01,0.12,-3.11,-1.4,313,466,402,472,445
473,-0.2,-0.98,-0.0,-1.04,-3.54,-2.93,314,474,402,465,442
474,-0.19,-0.97,-0.01,-0.73,-3.42,-2.14,312,462,403,462,443
475,-0.2,-0.97,-0.01,0.06,-3.3,-3.23,313,467,405,464,444
476,-0.19,-0.98,-0.02,-0.49,-1.95,-2.5,314,467,402,469,440
477,-0.2,-0.98,-0.01,-2.14,-2.75,-1.89,311,467,399,466,441
478,-0.19,-0.97,-0.05,-0.85,-1.34,-3.48,313,461,402,465,454
479,-0.2,-0.98,-0.02,0.73,-2.69,-2.26,311,469,402,464,442
480,-0.2,-0.97,-0.03,0.06,-0.49,-2.14,311,457,395,465,445
481,-0.18,-0.98,-0.05,0.55,-3.42,-2.38,310,462,397,460,445
482,-0.19,-0.98,-0.03,-3.54,-0.24,-6.59,305,468,400,466,441
483,-0.19,-0.98,-0.04,-1.1,-1.1,-3.23,303,466,407,465,441
484,-0.18,-0.98,-0.05,-0.24,-1.77,-3.23,303,468,406,465,445
485,-0.17,-0.98,-0.05,-0.12,-1.89,-6.96,304,465,406,460,444
486,-0.16,-0.97,-0.07,0.85,-4.88,-2.26,307,467,406,467,444
487,-0.17,-0.98,-0.05,-0.31,-2.2,-2.44,308,466,405,463,445
488,-0.17,-0.98,-0.05,0.49,-4.21,-2.32,303,469,405,466,444
489,-0.17,-0.98,-0.06,-0.31,-3.23,-2.62,305,469,406,463,442
490,-0.18,-0.98,-0.05,0.43,-2.75,-2.5,307,468,406,463,447
491,-0.18,-0.98,-0.05,0.61,-3.6,-2.62,304,467,408,464,447
492,-0.18,-0.98,-0.06,0.12,-3.66,-2.69,307,461,406,464,445
493,-0.17,-0.97,-0.05,0.43,-3.72,-2.81,309,465,407,468,448
494,-0.18,-0.98,-0.04,0.85,-3.54,-3.05,309,460,405,464,441
495,-0.18,-0.98,-0.05,0.12,-3.36,-2.5,310,461,405,464,442
496,-0.17,-0.98,-0.04,0.06,-3.48,-2.44,308,470,405,464,444
497,-0.2,-0.99,-0.04,1.34,-3.36,-2.26,310,468,401,462,447
498,-0.18,-0.98,-0.05,-0.24,-3.42,-2.08,312,462,407,465,445
499,-0.17,-0.97,-0.04,-0.43,-1.59,-3.17,309,462,407,468,487
500,-0.2,-0.98,-0.02,-0.55,-4.58,-4.21,313,467,408,466,446
501,-0.13,-0.87,0.49,-0.92,-4.21,-3.36,292,474,450,482,468
502,-0.12,-0.88,0.46,-4.21,-2.01,-1.22,294,470,451,488,466
503,-0.13,-0.88,0.47,-1.4,-2.81,-2.56,291,469,450,486,467
504,-0.1,-0.88,0.45,-1.65,-5.25,-2.08,293,465,445,486,467
505,-0.12,-0.88,0.46,-0.06,-4.03,-4.33,292,468,449,486,468
506,-0.12,-0.88,0.46,3.05,-3.6,-3.11,291,464,450,489,467
507,-0.13,-0.88,0.46,-0.67,-2.5,-3.05,295,471,449,489,475
508,-0.14,-0.87,0.47,2.56,-2.01,-4.7,294,472,449,488,467
509,-0.12,-0.88,0.45,4.7,-4.39,-3.85,302,470,449,485,469
510,-0.12,-0.88,0.45,2.75,-2.44,-4.39,295,464,445,489,464
511,-0.13,-0.88,0.47,-1.59,-2.5,-2.87,292,466,446,483,467
512,-0.15,-0.88,0.47,-0.73,-1.59,-4.7,291,471,442,484,468
513,-0.11,-0.89,0.45,-0.85,0.06,-4.03,294,469,447,485,468
514,-0.11,-0.88,0.47,-0.98,-2.26,-2.87,297,465,441,487,467
515,-0.11,-0.88,0.47,1.28,-4.27,-3.91,294,481,443,485,462
516,-0.09,-0.88,0.5,15.56,-1.04,-1.28,294,469,443,487,463
517,-0.14,-0.88,0.46,-6.59,-4.21,-2.2,293,481,444,484,466
518,-0.12,-0.89,0.45,0.12,-2.81,-3.54,291,469,443,480,468
519,-0.11,-0.88,0.45,-0.06,-4.46,-4.52,295,472,445,480,464
520,-0.12,-0.88,0.49,2.38,-2.69,-1.89,294,463,439,483,462
521,-0.08,-0.88,0.47,2.2,-3.97,0.0,293,472,440,483,468
522,-0.09,-0.88,0.46,-1.89,-1.16,0.37,295,468,439,484,465
523,-0.09,-0.88,0.45,0.0,-3.11,-2.75,291,463,443,490,466
524,-0.1,-0.89,0.46,-1.34,-3.6,-3.42,298,466,440,482,464
525,-0.09,-0.88,0.46,1.28,-4.39,-2.44,294,473,437,484,464
526,-0.1,-0.89,0.45,-0.12,-3.05,-2.14,298,468,438,485,464
527,-0.09,-0.89,0.45,-0.55,-2.14,-2.62,297,468,437,481,460
528,-0.09,-0.9,0.45,-0.73,-2.2,-2.93,296,471,435,483,463
529,-0.09,-0.89,0.44,1.34,-2.75,-3.23,295,467,435,482,484
530,-0.1,-0.9,0.45,-0.49,0.67,-2.75,294,472,438,481,460
531,-0.09,-0.89,0.44,2.08,-4.76,-2.38,294,468,440,483,465
532,-0.09,-0.9,0.45,0.31,-3.17,-2.38,296,468,439,480,463
533,-0.09,-0.9,0.44,-1.28,-3.23,-3.85,295,480,434,480,463
534,-0.08,-0.9,0.44,-1.34,-2.01,-2.62,290,469,435,479,463
535,-0.08,-0.9,0.43,0.55,-2.69,-2.38,293,463,443,482,487
536,-0.08,-0.91,0.43,-0.24,-2.62,-3.11,296,467,436,478,461
537,-0.08,-0.9,0.42,1.28,-2.69,-2.62,293,468,438,477,465
538,-0.08,-0.9,0.42,0.73,-3.42,-2.69,296,468,434,480,466
539,-0.08,-0.9,0.42,-0.37,-3.3,-2.99,296,471,437,477,461
540,-0.09,-0.9,0.42,1.65,-2.2,-1.89,296,467,437,480,464
541,-0.09,-0.91,0.42,1.34,-2.56,-2.56,290,468,434,481,462
542,-0.09,-0.9,0.43,1.71,-1.34,-3.72,294,472,435,483,464
543,-0.08,-0.91,0.42,-0.61,-2.26,-2.26,291,468,434,475,458
544,-0.09,-0.9,0.41,0.18,-2.75,-2.38,292,472,434,480,463
545,-0.09,-0.91,0.42,1.1,-2.01,-2.81,294,472,434,477,461
546,-0.11,-0.9,0.42,2.56,-4.03,-7.57,295,473,435,478,462
547,-0.09,-0.91,0.41,-0.49,-3.17,-1.53,293,469,436,477,463
548,-0.09,-0.91,0.42,-0.67,-2.01,-2.01,292,466,435,478,460
549,-0.08,-0.93,0.41,-0.85,-2.93,-5.68,293,464,436,479,460
550,-0.09,-0.91,0.41,-1.22,-0.73,-1.16,301,464,441,477,460
551,-0.1,-0.91,0.41,-0.24,-2.62,-2.32,293,472,432,476,461
552,-0.1,-0.91,0.41,-0.61,-2.2,-1.89,291,467,435,480,461
553,-0.1,-0.91,0.4,-1.53,-2.81,-3.05,293,474,431,474,460
554,-0.1,-0.91,0.39,2.69,-5.92,-2.75,294,467,431,475,461
555,-0.1,-0.91,0.39,0.18,-2.75,-2.69,292,468,428,475,459
556,-0.1,-0.92,0.41,-4.03,-3.48,-3.11,294,467,431,476,457
557,-0.1,-1.01,0.21,-31.74,8.54,3.78,295,469,436,476,459
558,-0.14,-0.95,0.2,-10.38,1.46,0.85,294,468,432,477,456
559,-0.22,-0.79,0.04,18.31,-19.04,-1.83,297,485,432,476,455
560,-0.13,-0.84,-0.11,-37.6,2.38,-38.09,296,473,423,477,462
561,-0.15,-0.98,0.09,-9.16,-8.3,-10.13,304,471,426,477,481
562,-0.19,-0.98,0.18,7.69,-4.94,2.32,300,468,425,474,460
563,-0.22,-0.97,0.09,-1.16,-3.05,-1.89,299,471,425,478,459
564,-0.19,-0.99,0.13,-7.14,1.53,-5.62,300,467,426,475,455
565,-0.16,-0.98,0.08,-2.5,-6.96,-3.3,298,471,426,479,459
566,-0.17,-0.97,0.05,0.55,-9.7,0.61,296,471,426,475,457
567,-0.19,-0.98,0.07,1.1,-3.23,-1.1,301,472,426,477,458
568,-0.19,-0.97,0.01,-1.22,-2.14,-1.22,299,471,425,475,458
569,-0.19,-0.97,0.0,3.91,-4.15,-0.92,302,475,422,481,469
570,-0.2,-0.97,0.03,4.94,-3.97,-2.14,301,472,428,479,458
571,-0.2,-0.98,0.06,-1.53,-2.38,-2.93,307,474,424,476,459
572,-0.19,-0.98,0.02,-2.99,-3.11,-3.72,302,475,428,475,459
573,-0.19,-0.97,0.02,2.32,-3.48,-1.59,301,469,423,480,454
574,-0.19,-0.98,0.02,-1.34,-3.11,-1.59,300,476,426,479,457
575,-0.2,-0.98,0.05,0.73,-2.26,-2.69,300,471,426,475,458
576,-0.21,-0.98,0.06,2.01,-4.58,-1.65,302,472,422,473,457
577,-0.2,-0.97,0.04,-0.55,-1.28,-2.62,303,471,424,475,455
578,-0.21,-0.98,0.04,-2.08,-1.71,-1.53,302,476,423,476,456
579,-0.21,-0.97,0.07,-3.48,-3.05,-6.59,304,473,424,477,452
580,-0.19,-0.97,0.05,4.15,-6.41,-0.85,302,476,423,478,456
581,-0.19,-0.98,0.05,0.18,0.12,-3.48,303,473,425,478,455
582,-0.2,-0.97,0.06,1.59,0.18,-2.26,301,475,424,478,457
583,-0.17,-0.98,0.05,0.98,-1.83,-4.39,300,471,419,478,457
584,-0.16,-0.98,0.05,1.4,-3.54,-1.53,308,475,423,478,456
585,-0.15,-0.98,0.1,-0.73,-2.93,-4.7,302,478,423,477,457
586,-0.15,-0.99,0.09,5.31,-2.69,-9.95,312,471,421,475,464
587,-0.11,-0.98,0.1,3.23,1.1,-2.56,322,469,421,475,463
588,-0.15,-0.97,0.04,-1.04,4.33,0.79,308,475,419,485,465
589,-0.13,-0.98,0.06,-1.1,-2.14,-5.37,303,469,422,478,465
590,-0.08,-0.98,0.03,-7.87,-14.28,-4.58,302,472,417,475,464
591,-0.1,-0.99,0.04,2.93,-1.95,-1.53,302,471,413,473,462
592,-0.1,-0.99,0.03,-2.56,-1.34,-4.7,298,476,415,477,461
593,-0.09,-1.0,0.02,1.16,1.65,-4.15,299,472,415,478,461
594,-0.09,-0.99,0.02,0.24,1.34,-1.4,305,473,420,475,462
595,-0.12,-1.01,0.06,-4.52,-4.58,2.32,301,476,417,477,461
596,-0.1,-1.0,0.05,-6.16,-4.64,-1.1,301,471,413,474,472
597,-0.1,-0.99,0.02,-2.99,-1.16,-2.87,301,472,418,471,462
598,-0.11,-0.99,-0.0,2.26,-4.03,-2.26,299,474,414,477,460
599,-0.11,-0.98,-0.0,0.85,-3.85,-1.53,301,476,412,475,461
600,-0.12,-0.99,0.01,-0.31,-1.4,-2.93,301,473,414,477,460
601,-0.12,-0.99,0.02,6.47,-4.21,0.49,294,472,415,473,464
602,-0.15,-0.99,0.03,-0.43,-2.75,-3.05,299,467,417,474,458
603,-0.13,-0.99,0.03,0.79,-4.58,-2.01,302,473,413,474,463
604,-0.13,-0.99,-0.0,1.53,-3.36,-1.46,304,475,416,474,461
605,-0.11,-0.99,0.01,0.98,-3.05,-3.42,301,472,413,474,461
606,-0.13,-0.99,0.01,-0.49,-2.81,-2.38,301,472,412,475,463
607,-0.15,-0.99,0.02,1.53,1.46,-0.55,297,474,415,473,460
608,-0.18,-0.98,0.05,9.83,9.64,0.0,292,472,406,475,460
609,-0.15,-0.98,0.06,0.61,-4.52,-3.42,296,475,410,476,457
610,-0.12,-0.99,0.05,2.08,-12.21,-0.79,306,470,409,473,462
611,-0.15,-0.98,0.04,-0.49,6.29,-3.42,318,474,411,476,464
612,-0.13,-0.98,0.06,0.49,-1.89,-4.82,307,472,410,479,463
613,-0.13,-0.98,0.07,1.95,-1.53,-1.77,304,472,410,482,457
614,-0.14,-0.98,0.07,-0.06,-3.36,-1.4,307,467,406,473,459
615,-0.13,-0.99,0.07,0.0,-3.97,-2.01,301,470,409,477,461
616,-0.14,-0.99,0.07,-0.31,-3.36,-2.75,305,475,410,479,459
617,-0.12,-0.99,0.06,-0.79,-4.94,-3.17,302,472,414,479,460
618,-0.12,-0.98,0.05,-1.04,-3.48,-3.97,299,474,415,485,459
619,-0.14,-0.99,0.06,0.67,-1.16,-2.75,304,472,413,481,463
620,-0.13,-0.99,0.08,1.77,-4.09,-2.08,304,472,414,475,474
621,-0.13,-0.99,0.07,-0.37,-4.33,-2.32,306,471,410,472,461
622,-0.13,-0.99,0.07,-0.49,-1.65,-2.75,304,473,418,476,462
623,-0.13,-0.98,0.06,0.06,-3.6,-2.08,301,475,412,477,462
624,-0.14,-0.99,0.05,0.49,-3.3,-2.62,307,476,412,473,457
625,-0.12,-0.98,0.06,1.53,-1.71,-2.44,307,473,411,476,460
626,-0.14,-0.99,0.06,1.34,-3.78,-1.65,307,472,415,478,459
627,-0.14,-0.98,0.07,-0.12,-1.04,-2.93,311,473,412,475,463
628,-0.13,-0.98,0.07,0.43,-2.81,-2.38,301,467,412,475,461
629,-0.13,-0.99,0.07,-0.43,-4.7,-2.08,306,470,415,476,460
630,-0.14,-0.98,0.06,0.55,-2.5,-2.62,309,466,414,478,460
631,-0.14,-0.99,0.06,-0.31,-2.5,-2.26,301,476,410,479,461
632,-0.13,-0.99,0.06,-0.79,-2.69,-3.3,303,472,411,475,457
633,-0.13,-0.99,0.06,0.43,-2.99,-2.38,307,472,411,475,462
634,-0.12,-0.98,0.06,0.98,-2.87,-2.69,308,469,414,475,462
635,-0.13,-0.98,0.06,1.16,-3.3,-2.2,306,468,414,475,460
636,-0.14,-0.98,0.08,0.43,-2.69,-2.69,307,471,410,474,461
637,-0.15,-0.99,0.07,0.37,-2.08,-2.62,306,468,412,475,461
638,-0.14,-0.98,0.07,0.61,-2.14,-2.14,304,476,411,475,460
639,-0.13,-0.99,0.07,0.06,-4.03,-2.93,308,478,413,477,491
640,-0.13,-0.98,0.06,-0.55,-2.81,-2.69,309,471,411,476,462
641,-0.14,-0.99,0.06,0.43,-3.11,-1.77,301,471,414,475,460
642,-0.15,-0.98,0.08,-0.06,-3.54,-2.14,307,467,411,476,460
643,-0.15,-0.99,0.06,0.67,-3.54,-2.32,308,474,414,471,458
644,-0.14,-0.98,0.06,0.18,-2.69,-2.14,307,472,413,474,470
645,-0.15,-0.98,0.06,1.34,-2.93,-2.26,308,472,414,479,458
646,-0.13,-0.98,0.08,1.22,-2.5,-3.3,307,476,410,473,459
647,-0.16,-0.98,0.05,0.49,-3.3,-2.32,304,475,411,476,456
648,-0.14,-0.98,0.06,-0.61,-3.23,-4.27,308,470,413,475,462
649,-0.15,-0.98,0.07,1.22,-2.87,-2.14,306,471,410,475,457
650,-0.14,-0.98,0.06,-0.92,-3.17,-4.27,309,472,410,473,459
651,-0.14,-0.98,0.06,0.43,-3.6,-2.5,308,477,407,471,460
652,-0.14,-0.98,0.05,1.1,-3.54,0.0,308,472,411,475,461
653,-0.13,-0.98,0.05,0.12,-2.44,-2.75,308,471,408,469,457
654,-0.15,-0.98,0.07,-0.43,-5.19,-3.3,310,467,412,474,459
655,-0.15,-0.98,0.06,-0.85,-0.37,-2.62,310,466,412,474,458
656,-0.14,-0.99,0.06,0.0,-2.99,-2.26,308,473,412,476,459
657,-0.14,-0.98,0.06,0.73,-3.54,-2.56,311,471,409,477,459
658,-0.14,-0.99,0.06,0.43,-3.42,-2.5,312,476,407,474,460
659,-0.14,-0.99,0.07,-0.12,-2.93,-2.69,316,472,410,475,456
660,-0.13,-0.99,0.06,0.61,-2.14,-1.77,315,472,408,475,458
661,-0.13,-0.98,0.06,0.98,-4.09,-1.71,308,470,409,470,459
662,-0.14,-0.98,0.07,0.31,-3.78,-1.95,307,476,407,473,456
663,-0.14,-0.98,0.06,0.73,-3.17,-2.2,311,471,407,475,458
664,-0.15,-0.99,0.06,0.85,-3.48,-2.26,308,475,407,476,460
665,-0.14,-0.98,0.05,0.49,-2.81,-2.32,309,482,409,475,459
666,-0.14,-0.98,0.06,0.49,-3.48,-3.6,308,476,417,479,484
667,-0.14,-0.98,0.06,0.55,-3.48,-2.32,310,471,408,473,457
668,-0.14,-0.98,0.05,0.18,-3.17,-2.2,309,467,408,473,457
669,-0.15,-0.99,0.05,-0.18,-2.56,-1.83,310,473,411,472,457
670,-0.14,-0.99,0.06,-0.85,-3.97,-2.32,309,477,410,476,455
671,-0.14,-0.98,0.06,-1.65,-3.23,-1.59,311,474,409,469,460
672,-0.15,-0.98,0.06,-0.06,-2.44,-2.62,312,472,407,473,455
673,-0.15,-0.98,0.05,0.85,-4.09,-2.87,312,476,407,470,457
674,-0.16,-0.99,0.06,0.98,-3.72,-2.62,310,473,407,472,455
675,-0.15,-0.98,0.07,0.43,-4.33,-3.54,312,470,410,471,460
676,-0.15,-0.98,0.06,-0.43,-1.95,-2.62,314,471,407,471,458
677,-0.15,-0.98,0.07,-0.18,-2.62,-2.44,311,473,408,475,459
678,-0.15,-0.98,0.06,0.37,-2.44,-1.95,313,469,407,470,456
679,-0.15,-0.98,0.07,-0.06,-2.99,-2.32,313,470,408,474,453
680,-0.15,-0.98,0.05,0.24,-3.17,-3.66,311,468,407,474,455
681,-0.14,-0.98,0.07,1.77,-2.56,-2.87,309,476,406,469,459
682,-0.15,-0.98,0.07,-0.24,-3.66,-2.38,313,472,409,472,453
683,-0.14,-0.98,0.07,-0.43,-2.44,-2.08,307,470,411,469,457
684,-0.15,-0.98,0.07,0.49,-3.91,-1.46,310,471,409,472,460
685,-0.15,-0.99,0.07,-0.43,-2.81,-2.75,315,471,407,471,456
686,-0.15,-0.98,0.07,-0.37,-2.87,-2.32,313,482,407,471,458
687,-0.16,-0.98,0.06,-0.37,-2.5,-3.17,314,472,409,471,452
688,-0.14,-0.98,0.05,0.61,-4.27,-2.01,310,480,406,471,456
689,-0.15,-0.98,0.07,0.85,-5.31,-1.28,314,467,410,471,459
690,-0.15,-0.98,0.07,1.04,-3.42,-4.39,314,472,407,470,472
691,-0.14,-0.98,0.07,-1.59,-2.08,-2.81,314,468,410,473,454
692,-0.15,-0.98,0.08,-0.06,-2.99,-1.83,317,472,406,468,458
693,-0.16,-0.98,0.07,-0.12,-2.81,-2.5,318,472,406,470,455
694,-0.15,-0.98,0.07,-0.18,-3.05,-2.69,315,472,405,474,454
695,-0.16,-0.98,0.06,0.18,-2.32,-2.62,312,467,404,472,457
696,-0.15,-0.98,0.06,0.37,-3.05,-2.75,312,468,409,468,456
697,-0.15,-0.98,0.06,0.31,-2.93,-2.56,312,476,407,468,457
698,-0.14,-0.98,0.07,0.43,-2.26,-3.6,311,476,403,473,459
699,-0.16,-0.98,0.07,0.55,-3.48,-2.69,312,472,406,470,455
700,-0.15,-0.98,0.07,-0.06,-3.48,-2.08,312,473,406,471,456
701,-0.15,-0.98,0.06,-0.73,-3.66,-2.5,312,466,407,469,454
702,-0.15,-0.98,0.07,0.92,-2.99,-2.2,313,471,406,469,452
703,-0.15,-0.98,0.07,-0.98,-2.2,-3.05,311,472,406,473,457
704,-0.15,-0.98,0.07,0.43,-3.36,-2.87,312,471,409,471,455
705,-0.15,-0.99,0.07,-0.73,-3.05,-2.99,313,469,408,470,456
706,-0.15,-0.98,0.07,1.77,-3.36,-2.44,315,471,404,473,455
707,-0.14,-0.98,0.07,0.61,-2.99,-2.5,314,476,405,470,452
708,-0.17,-0.99,0.08,-0.43,-2.32,-2.62,316,471,413,470,455
709,-0.15,-0.98,0.08,-0.37,-3.17,-3.05,314,473,406,470,458
710,-0.15,-0.98,0.07,0.12,-2.99,-2.69,316,472,406,470,459
711,-0.16,-0.98,0.07,0.43,-2.56,-2.32,313,475,411,473,457
712,-0.15,-0.98,0.06,-0.61,-2.75,-2.14,315,475,417,469,453
713,-0.15,-0.98,0.05,0.43,-4.09,-2.5,317,471,400,466,452
714,-0.16,-0.98,0.08,0.49,-2.81,-2.38,316,468,407,466,454
715,-0.16,-0.98,0.07,1.28,-3.42,-2.62,317,475,409,472,455
716,-0.15,-0.98,0.08,-0.73,-2.99,-3.17,318,472,413,469,454
717,-0.15,-0.98,0.07,-1.16,-3.17,-3.54,316,472,405,468,448
718,-0.15,-0.98,0.06,0.85,-3.54,-1.95,313,471,400,466,453
719,-0.15,-0.98,0.07,-0.31,-5.0,-2.01,319,477,406,471,452
720,-0.15,-0.98,0.06,-0.12,-2.56,-1.95,322,473,403,472,452
721,-0.14,-0.98,0.05,0.37,-1.95,-2.87,316,476,405,468,456
722,-0.15,-0.98,0.03,0.67,-3.48,-2.32,315,473,400,472,454
723,-0.15,-0.98,0.05,0.85,-2.62,-3.11,317,470,408,467,456
724,-0.13,-0.98,0.06,1.16,-3.17,-2.26,314,471,403,471,454
725,-0.16,-0.98,0.06,0.06,-2.38,-2.14,319,475,400,469,453
726,-0.15,-0.98,0.06,0.55,-2.93,-2.08,319,469,404,468,456
727,-0.16,-0.98,0.06,1.1,-3.11,-2.01,316,470,415,465,454
728,-0.15,-0.98,0.07,0.12,-3.05,-2.5,318,475,411,472,454
729,-0.16,-0.98,0.05,-0.18,-3.42,-2.32,315,467,403,468,457
730,-0.15,-0.98,0.07,1.28,-2.99,-2.01,316,472,404,467,457
731,-0.16,-0.98,0.07,0.61,-3.42,-3.17,314,474,401,472,453
732,-0.17,-0.98,0.08,1.16,-2.87,-2.14,317,470,404,470,454
733,-0.15,-0.98,0.08,-0.31,-2.01,-3.36,319,469,403,470,454
734,-0.15,-0.98,0.07,0.18,-2.26,-2.01,317,474,403,467,455
735,-0.15,-0.98,0.06,-0.98,-2.38,-3.6,311,472,405,468,454
736,-0.15,-0.98,0.05,-0.37,-3.48,-2.81,314,471,404,464,454
737,-0.14,-0.98,0.05,0.43,-4.09,-2.5,317,472,402,467,452
738,-0.15,-0.98,0.05,1.53,-3.54,-1.53,315,468,404,469,456
739,-0.14,-0.98,0.06,-0.85,-1.34,-6.96,315,472,403,466,453
740,-0.14,-0.98,0.06,0.49,-2.44,-2.87,317,471,405,469,453
741,-0.15,-0.98,0.05,-0.73,2.56,-2.93,315,465,403,471,454
742,-0.15,-0.98,0.06,-0.92,-8.97,-3.17,313,474,402,471,455
743,-0.14,-0.98,0.05,-0.49,-0.92,-2.87,313,471,400,471,454
744,-0.15,-0.98,0.05,1.4,-3.11,-2.14,312,467,398,468,450
745,-0.15,-0.98,0.05,1.22,-2.69,-2.08,310,472,401,465,456
746,-0.15,-0.98,0.06,2.2,-2.01,-3.36,308,470,398,470,456
747,-0.15,-0.99,0.07,1.65,-0.12,-2.81,302,466,398,470,455
748,-0.15,-0.98,0.04,-2.5,-1.83,-5.25,306,470,394,469,453
749,-0.16,-0.99,0.05,-4.03,-6.1,-6.1,305,469,399,466,456
750,-0.13,-0.99,0.03,-6.59,-2.81,-3.66,308,467,396,463,449
751,-0.12,-0.98,0.01,-3.36,-13.12,15.32,308,473,400,464,456
752,-0.19,-0.98,0.01,2.44,2.32,-6.41,307,469,407,467,453
753,-0.18,-0.98,0.02,3.48,-2.87,-2.75,306,470,406,467,453
754,-0.17,-0.98,0.01,1.4,-4.46,-2.01,305,469,407,471,452
755,-0.17,-0.98,0.02,2.87,-4.27,-1.59,305,470,416,468,454
756,-0.16,-0.98,0.03,1.53,-5.25,-2.32,305,473,406,467,453
757,-0.18,-0.98,0.04,8.3,0.12,-4.33,309,469,412,470,465
758,-0.16,-0.98,0.04,2.08,0.92,15.5,308,469,406,465,453
759,-0.23,-0.98,0.08,-9.34,-8.97,-9.52,305,463,410,465,454
760,-0.16,-0.97,0.04,1.28,-4.76,-2.01,305,472,408,468,455
761,-0.2,-0.98,0.06,4.52,-8.12,-0.12,305,473,407,468,455
762,-0.21,-0.98,0.1,-4.7,0.98,-5.0,307,471,405,466,452
763,-0.15,-0.98,-0.03,-12.15,-1.46,-11.72,305,466,409,468,452
764,-0.17,-0.97,0.0,7.87,-5.92,-3.36,303,467,407,466,453
765,-0.17,-0.98,0.04,0.0,-2.56,-3.36,304,468,406,467,452
766,-0.17,-0.98,0.02,-0.43,-3.11,-3.17,303,467,405,465,452
767,-0.18,-0.98,0.06,-1.34,-2.99,-3.11,303,470,402,465,453
768,-0.16,-0.98,0.05,1.34,-2.99,-1.46,305,468,402,465,440
769,-0.17,-0.98,0.02,2.01,-3.72,-1.65,307,467,406,465,453
770,-0.16,-0.98,0.02,-1.04,-2.75,-3.23,303,469,407,469,455
771,-0.17,-0.98,0.02,0.24,-2.75,-2.62,306,472,408,466,453
772,-0.16,-0.98,0.03,-2.32,-2.56,-4.46,305,463,404,465,452
773,-0.16,-0.98,0.02,2.32,-3.91,-1.53,315,473,405,465,452
774,-0.17,-0.98,0.02,-0.24,-3.97,-2.01,304,471,405,464,454
775,-0.16,-0.98,0.02,0.37,-4.03,-1.95,302,468,403,467,453
776,-0.19,-0.98,0.04,0.73,-2.56,-2.62,306,467,408,469,452
777,-0.18,-0.98,0.03,0.92,-3.48,-2.5,304,470,401,466,451
778,-0.18,-0.98,0.02,-0.67,-2.44,-3.36,307,467,406,464,482
779,-0.17,-0.98,0.03,0.98,-3.85,-2.14,306,470,405,465,452
780,-0.16,-0.98,0.03,-0.67,-4.52,-2.99,303,466,405,466,452
781,-0.16,-0.98,0.03,0.43,-2.87,-2.81,308,469,405,466,452
782,-0.17,-0.98,0.03,0.73,-3.72,-2.44,305,469,408,468,455
783,-0.16,-0.98,0.03,0.67,-4.09,-2.44,302,468,403,466,452
784,-0.17,-0.98,0.04,0.43,-3.48,-2.93,304,470,405,463,450
785,-0.17,-0.98,0.03,0.0,-2.93,-1.95,307,472,406,463,455
786,-0.15,-0.98,0.02,0.06,-2.75,-3.17,306,467,406,467,452
787,-0.16,-0.98,0.02,-0.92,-4.39,-3.3,308,471,406,464,450
788,-0.17,-0.98,0.02,0.12,-1.04,-3.66,306,463,405,468,455
789,-0.16,-0.98,0.01,-0.18,-3.17,-2.32,308,469,407,464,452
790,-0.15,-0.98,0.02,-0.31,-3.42,-3.3,307,470,406,466,449
791,-0.17,-0.98,0.02,2.62,-4.33,-1.16,304,465,409,463,452
792,-0.16,-0.98,0.03,0.43,-2.44,-2.69,308,474,408,469,448
793,-0.15,-0.98,0.01,2.32,-5.31,-1.04,305,471,414,467,453
794,-0.16,-0.98,0.03,-1.28,-2.56,-3.17,308,469,402,467,452
795,-0.18,-0.98,0.03,1.4,-4.15,-0.61,308,464,410,469,451
796,-0.17,-0.98,0.02,0.18,-2.38,-3.23,307,469,402,466,455
797,-0.18,-0.98,0.02,0.61,-2.26,-2.75,308,468,406,467,452
798,-0.16,-0.99,0.03,0.79,-2.69,-2.93,308,463,407,468,453
799,-0.18,-0.98,0.02,1.28,-4.33,-2.26,308,472,410,465,453
800,-0.16,-0.98,0.03,1.1,-3.91,-1.83,309,469,410,469,454
801,-0.17,-0.98,0.03,-1.28,-3.78,-4.03,307,464,407,469,455
802,-0.18,-0.98,0.03,-0.37,-2.56,-1.95,308,469,408,471,454
803,-0.15,-0.98,0.04,0.24,-2.01,-3.72,310,472,409,471,455
804,-0.17,-0.98,0.03,1.89,-2.2,-1.83,308,470,412,469,452
805,-0.17,-0.99,0.04,1.16,-4.7,-0.92,307,468,412,469,453
806,-0.17,-0.98,0.03,0.31,-2.32,-2.01,310,469,411,470,452
807,-0.18,-0.99,0.03,-1.1,-3.48,-2.38,309,467,410,470,453
808,-0.17,-0.98,0.0,-0.49,-4.76,-3.78,306,464,409,468,452
809,-0.18,-0.99,0.02,0.37,2.08,-2.56,309,472,411,470,460
810,-0.16,-0.98,0.03,-1.22,-4.03,-3.66,309,470,409,472,452
811,-0.17,-0.98,0.03,0.61,-2.62,-2.81,308,469,411,471,452
812,-0.17,-0.98,0.03,0.98,-2.56,-2.38,312,472,410,472,452
813,-0.17,-0.98,0.03,-1.53,-1.28,-3.17,305,470,409,468,453
814,-0.17,-0.98,0.03,0.0,-3.72,-1.95,308,470,414,468,452
815,-0.18,-0.98,0.03,-0.49,-2.75,-2.99,314,471,410,469,450
816,-0.17,-0.98,0.03,-0.61,-2.32,-2.87,308,462,408,472,457
817,-0.17,-0.98,0.03,0.37,-4.39,-1.77,308,466,411,472,444
818,-0.18,-0.97,0.02,2.56,-1.95,-2.32,308,468,405,472,455
819,-0.19,-0.98,0.03,0.37,-5.13,-2.26,311,468,408,477,453
820,-0.17,-0.98,0.03,0.24,-2.44,-3.72,309,468,411,467,447
821,-0.17,-0.98,0.03,-0.37,-2.75,-3.42,306,469,410,469,454
822,-0.18,-0.99,0.04,-0.55,-1.1,-2.56,308,473,409,470,440
823,-0.19,-0.98,0.03,0.43,-3.05,-1.1,309,469,412,470,452
824,-0.18,-0.98,0.03,0.31,-3.3,-2.56,309,469,411,469,448
825,-0.18,-0.98,0.03,-0.79,-2.75,-2.75,309,471,409,476,453
826,-0.17,-0.98,0.02,1.53,-3.91,-2.08,310,469,410,469,452
827,-0.17,-0.98,0.02,0.0,-3.85,-2.93,310,469,426,471,447
828,-0.17,-0.98,0.04,1.04,-3.6,-2.69,309,463,407,469,452
829,-0.18,-0.98,0.03,-0.49,-2.62,-3.48,311,466,407,467,454
830,-0.18,-0.98,0.02,0.37,-3.23,-2.75,309,468,425,468,454
831,-0.19,-0.98,0.04,0.06,-2.62,-1.83,308,466,407,472,446
832,-0.19,-0.98,0.04,0.49,-2.56,-1.95,306,472,409,472,448
833,-0.18,-0.98,0.02,0.18,-2.5,-2.38,307,468,412,470,451
834,-0.18,-0.98,0.03,0.06,-3.11,-1.77,309,469,407,470,452
835,-0.17,-0.98,0.02,2.2,-3.85,-1.95,321,474,409,472,449
836,-0.17,-0.98,0.02,1.16,-3.85,-3.11,311,470,410,470,451
837,-0.15,-0.98,0.01,-3.48,-1.77,-5.98,311,464,409,471,451
838,-0.15,-0.98,-0.01,-3.42,-0.73,-8.24,308,473,409,472,446
839,-0.16,-0.99,-0.01,-3.11,-2.44,-3.6,310,472,410,471,451
840,-0.17,-0.99,0.05,5.74,-2.75,0.92,311,464,409,470,451
841,-0.19,-0.98,-0.08,3.11,-2.5,4.39,308,470,410,471,451
842,-0.17,-0.98,-0.02,4.46,-1.53,-0.49,312,469,406,470,449
843,-0.17,-0.98,0.01,0.98,-2.99,-3.23,311,469,408,469,450
844,-0.17,-0.98,0.02,1.77,-5.86,-6.71,313,464,411,473,451
845,-0.15,-0.97,0.0,-3.42,-1.77,-4.76,315,469,410,467,450
846,-0.15,-0.99,-0.0,2.01,-3.11,-3.72,308,470,410,466,452
847,-0.16,-0.99,0.0,2.5,-5.86,0.06,308,471,410,470,453
848,-0.15,-0.99,0.0,-0.18,-5.37,-4.94,313,464,409,472,450
849,-0.15,-0.98,0.0,-1.89,-2.99,-6.41,312,470,413,467,450
850,-0.16,-0.98,0.0,2.32,-4.58,-1.22,316,470,410,469,451
851,-0.15,-0.98,0.01,0.92,-3.6,-2.75,315,474,414,472,450
852,-0.14,-0.97,-0.01,-0.67,-2.44,-2.87,317,470,413,471,449
853,-0.14,-0.99,0.0,1.04,-1.1,-3.66,316,473,411,465,452
854,-0.16,-0.99,0.01,2.32,-6.47,-2.44,317,469,410,472,450
855,-0.15,-0.99,0.0,-0.73,-3.05,-3.85,315,470,410,470,451
856,-0.15,-0.98,0.01,1.28,-2.81,-3.05,320,472,410,472,450
857,-0.13,-0.98,-0.02,1.53,-0.55,-4.94,317,466,413,469,447
858,-0.12,-0.98,0.01,1.22,-3.11,-3.66,319,473,409,470,448
859,-0.14,-0.98,0.02,0.12,-2.75,-2.26,318,470,409,467,450
860,-0.15,-0.98,0.01,-0.73,-3.42,-2.93,317,469,410,467,450
861,-0.14,-0.98,0.0,0.37,-5.19,-3.36,320,469,408,470,448
862,-0.14,-0.98,-0.01,-1.34,-2.01,-3.11,319,470,414,468,449
863,-0.13,-0.98,0.0,1.1,-0.85,-2.62,310,472,408,469,450
864,-0.15,-0.98,0.01,3.17,-0.37,-1.34,304,464,405,467,451
865,-0.16,-0.98,0.01,3.97,-1.34,-0.79,299,464,404,477,450
866,-0.15,-0.98,0.01,2.44,-9.52,-1.65,297,467,403,469,448
867,-0.15,-0.98,0.01,0.0,-0.12,-6.47,299,470,401,465,451
868,-0.15,-0.99,0.05,-0.98,-2.81,-6.47,298,465,407,468,449
869,-0.08,-1.0,0.06,-4.46,-10.44,-4.94,304,484,405,471,448
870,-0.06,-0.96,0.07,14.47,0.79,-7.08,305,467,404,470,452
871,-0.06,-1.0,0.1,-2.56,-5.19,-5.62,301,470,406,471,450
872,-0.09,-0.98,0.05,-3.48,-1.34,-1.59,307,467,408,467,445
873,-0.11,-1.0,-0.01,6.16,3.42,3.36,307,468,411,471,447
874,-0.13,-0.98,0.04,1.28,3.72,-2.5,304,469,407,470,448
875,-0.14,-0.98,0.01,1.89,-3.36,2.01,308,468,408,464,445
876,-0.16,-0.97,0.04,0.67,-6.84,-1.83,307,473,404,471,448
877,-0.19,-0.98,0.01,0.79,-4.58,-5.19,308,470,405,470,448
878,-0.18,-0.97,0.0,3.42,-3.78,-1.46,308,472,404,468,449
879,-0.19,-0.98,0.02,-0.24,-0.31,-2.81,308,473,408,467,443
880,-0.18,-0.97,0.04,2.38,-3.3,-1.34,308,469,410,470,446
881,-0.2,-0.98,0.04,-1.34,-0.92,-2.81,308,468,407,463,449
882,-0.21,-0.96,0.03,3.42,-1.4,-2.2,309,470,407,470,445
883,-0.19,-0.97,0.03,-0.18,-4.27,-2.93,311,473,408,478,446
884,-0.19,-0.97,0.03,-0.73,-3.23,-1.95,308,468,407,467,448
885,-0.2,-0.98,0.04,1.1,-2.75,-2.01,311,467,410,470,446
886,-0.2,-0.98,0.04,0.06,-1.83,-2.75,308,468,410,468,447
887,-0.2,-0.98,0.03,-0.67,-2.56,-3.17,309,470,406,469,449
888,-0.2,-0.97,0.02,-0.55,-2.62,-2.93,311,466,409,466,449
889,-0.2,-0.98,0.03,-1.16,-2.38,-3.6,310,469,409,467,448
890,-0.18,-0.97,0.01,1.22,-1.53,-1.4,311,468,405,466,448
891,-0.17,-0.98,-0.01,-10.07,1.53,-4.88,311,467,410,468,448
892,-0.18,-0.97,-0.01,-0.06,-2.5,-2.62,308,469,414,465,447
893,-0.18,-0.98,-0.01,-1.04,-2.38,-3.36,311,471,409,467,446
894,-0.18,-0.98,-0.01,-0.73,-3.42,-2.08,310,468,409,464,447
895,-0.18,-0.98,-0.02,0.67,-2.99,-3.11,313,468,412,467,450
896,-0.19,-0.97,-0.01,0.43,-3.72,-2.14,309,468,409,471,447
897,-0.18,-0.97,0.0,-2.56,-2.75,-4.33,313,473,408,471,454
898,-0.17,-0.98,-0.01,-0.43,-3.91,-3.42,308,469,405,465,446
899,-0.18,-0.98,-0.04,-0.49,-3.42,-2.87,311,465,410,466,449
900,-0.18,-0.98,-0.01,1.4,-2.62,-2.99,306,471,407,470,436
901,-0.16,-0.97,-0.02,2.38,-1.46,-5.13,306,468,405,467,443
902,-0.17,-0.98,0.01,0.06,-2.44,-1.28,308,463,406,465,448
903,-0.16,-0.98,-0.01,-4.15,-0.92,-5.13,304,471,407,467,448
904,-0.17,-0.98,-0.01,-2.32,-0.98,-5.74,306,466,409,467,443
905,-0.13,-0.98,-0.04,0.31,-3.78,-2.44,310,467,405,463,446
906,-0.15,-0.99,-0.01,0.61,-3.91,-2.44,308,461,404,466,444
907,-0.15,-0.98,-0.01,0.85,-4.03,-1.77,309,467,408,467,444
908,-0.15,-0.98,-0.03,0.55,1.77,-3.91,306,463,407,467,444
909,-0.14,-0.98,-0.04,0.31,-2.01,-2.26,306,469,416,466,446
910,-0.15,-0.98,-0.02,-2.5,-1.77,-5.0,308,467,405,465,446
911,-0.15,-0.98,-0.09,-3.6,-6.84,-1.46,306,468,403,464,450
912,-0.14,-0.98,-0.02,4.15,3.05,-0.67,304,467,409,470,445
913,-0.13,-0.98,-0.02,1.04,-0.24,-3.78,305,472,405,467,447
914,-0.15,-0.98,-0.03,3.23,-2.38,-4.09,310,469,409,463,448
915,-0.16,-0.99,-0.01,0.55,-6.16,-1.95,311,472,406,465,450
916,-0.13,-0.99,-0.0,1.53,-3.97,-4.27,309,469,406,463,447
917,-0.12,-0.99,-0.01,0.43,-0.79,-3.72,309,471,412,457,444
918,-0.15,-0.99,0.0,0.31,-3.36,-2.32,309,467,403,466,451
919,-0.15,-0.99,-0.03,0.31,-6.04,-2.56,310,471,402,470,444
920,-0.13,-0.98,-0.0,-1.59,-5.37,-1.28,307,472,408,466,450
921,-0.14,-0.99,-0.01,-0.67,-2.5,-3.23,314,468,409,465,447
922,-0.15,-0.99,-0.01,1.1,-2.81,-1.46,309,467,407,468,447
923,-0.14,-0.98,-0.01,0.61,-1.59,-2.32,311,467,412,466,448
924,-0.14,-0.99,-0.01,-0.06,-4.39,-2.26,309,465,406,465,445
925,-0.14,-0.98,-0.02,-0.55,-2.2,-2.56,311,465,407,466,447
926,-0.14,-0.98,-0.03,0.98,-3.72,-2.62,310,470,406,462,448
927,-0.14,-0.98,-0.03,-0.06,-2.87,-2.26,311,467,400,467,454
928,-0.15,-0.98,-0.04,0.0,-3.17,-2.26,311,467,407,467,445
929,-0.15,-0.98,-0.02,-0.18,-4.15,-2.14,311,469,402,468,475
930,-0.16,-0.98,-0.02,0.0,-5.37,-2.44,306,466,394,464,443
931,-0.15,-0.98,-0.03,0.79,-2.08,-2.14,312,464,408,467,446
932,-0.14,-0.98,-0.03,0.61,0.67,-2.38,312,468,408,466,444
933,-0.14,-0.98,-0.04,0.61,-0.67,-2.5,310,469,405,465,446
934,-0.15,-0.98,-0.04,0.92,-3.36,-2.26,309,471,403,466,447
935,-0.15,-0.98,-0.03,0.06,-3.54,-2.44,313,469,413,464,446
936,-0.14,-0.98,-0.04,0.06,-3.3,-2.44,309,468,407,460,446
937,-0.15,-0.98,-0.04,0.55,-3.78,-1.77,313,470,404,465,447
938,-0.14,-0.98,-0.04,0.12,-2.14,-3.17,310,471,407,465,442
939,-0.16,-0.98,-0.04,0.12,-4.15,-2.62,311,463,406,465,443
940,-0.17,-0.98,-0.03,0.79,-4.64,0.43,312,463,396,464,443
941,-0.14,-0.98,-0.03,1.77,-5.92,-1.1,310,471,410,461,448
942,-0.15,-0.98,-0.04,0.55,-3.11,-1.77,309,467,406,460,445
943,-0.16,-0.98,-0.04,-0.92,-3.05,-2.01,310,467,403,465,446
944,-0.16,-0.98,-0.04,0.73,-2.75,-3.17,312,468,404,464,445
945,-0.17,-0.98,-0.04,0.61,-3.85,-1.59,306,467,405,463,447
946,-0.15,-0.98,-0.04,0.49,-3.17,-2.38,313,468,403,464,446
947,-0.16,-0.98,-0.05,2.14,-3.91,-2.99,307,469,402,461,445
948,-0.17,-0.98,-0.04,0.43,-3.66,-2.14,311,466,405,467,447
949,-0.16,-0.98,-0.04,0.49,-2.75,-2.26,311,468,405,460,445
950,-0.17,-0.98,-0.03,-0.92,-1.95,-3.23,311,467,403,465,442
951,-0.16,-0.98,-0.03,-1.59,-1.65,-3.23,311,471,402,463,445
952,-0.16,-0.98,-0.02,0.55,-4.21,-1.53,308,466,400,462,448
953,-0.15,-0.98,-0.03,0.12,-3.36,-3.05,310,467,405,462,446
954,-0.17,-0.98,-0.03,-0.55,-2.08,-2.62,311,467,406,464,445
955,-0.16,-0.98,-0.04,1.53,-4.27,-2.38,311,471,400,464,448
956,-0.16,-0.99,-0.03,0.92,-2.93,-2.5,311,464,405,462,447
957,-0.16,-0.98,-0.04,0.18,-3.72,-2.38,311,470,405,469,438
958,-0.15,-0.98,-0.04,1.16,-3.54,-2.01,309,461,403,464,445
959,-0.17,-0.98,-0.04,0.18,-3.17,-2.2,310,464,403,466,487
960,-0.16,-0.98,-0.04,0.43,-3.36,-2.08,314,468,405,463,445
961,-0.16,-0.98,-0.04,-0.73,-2.56,-2.87,307,467,401,464,446
962,-0.16,-0.98,-0.05,0.79,-2.32,-2.26,307,466,404,464,445
963,-0.17,-0.98,-0.04,0.37,-3.42,-2.44,310,467,405,466,445
964,-0.18,-0.98,-0.04,0.43,-3.11,-1.89,310,466,401,464,448
965,-0.17,-0.98,-0.04,0.31,-3.6,-3.05,312,466,401,466,442
966,-0.17,-0.98,-0.05,2.32,-3.11,-1.59,311,470,402,464,439
967,-0.17,-0.98,-0.06,-1.95,-2.93,-2.93,309,465,404,459,441
968,-0.16,-0.98,-0.03,2.32,-2.08,-2.69,311,467,402,464,447
969,-0.19,-0.98,-0.02,0.55,-4.64,-1.65,314,466,403,460,445
970,-0.18,-0.98,-0.02,2.14,-4.33,-0.24,311,467,404,463,445
971,-0.19,-0.97,-0.02,1.28,-4.27,-2.26,312,471,403,466,445
972,-0.19,-0.97,-0.01,-0.49,-4.33,-2.32,311,467,402,466,444
973,-0.2,-0.97,-0.01,0.12,-3.11,-1.4,313,466,402,472,445
974,-0.2,-0.98,-0.0,-1.04,-3.54,-2.93,314,474,402,465,442
975,-0.19,-0.97,-0.01,-0.73,-3.42,-2.14,312,462,403,462,443
976,-0.2,-0.97,-0.01,0.06,-3.3,-3.23,313,467,405,464,444
977,-0.19,-0.98,-0.02,-0.49,-1.95,-2.5,314,467,402,469,440
978,-0.2,-0.98,-0.01,-2.14,-2.75,-1.89,311,467,399,466,441
979,-0.19,-0.97,-0.05,-0.85,-1.34,-3.48,313,461,402,465,454
980,-0.2,-0.98,-0.02,0.73,-2.69,-2.26,311,469,402,464,442
981,-0.2,-0.97,-0.03,0.06,-0.49,-2.14,311,457,395,465,445
982,-0.18,-0.98,-0.05,0.55,-3.42,-2.38,310,462,397,460,445
983,-0.19,-0.98,-0.03,-3.54,-0.24,-6.59,305,468,400,466,441
984,-0.19,-0.98,-0.04,-1.1,-1.1,-3.23,303,466,407,465,441
985,-0.18,-0.98,-0.05,-0.24,-1.77,-3.23,303,468,406,465,445
986,-0.17,-0.98,-0.05,-0.12,-1.89,-6.96,304,465,406,460,444
987,-0.16,-0.97,-0.07,0.85,-4.88,-2.26,307,467,406,467,444
988,-0.17,-0.98,-0.05,-0.31,-2.2,-2.44,308,466,405,463,445
989,-0.17,-0.98,-0.05,0.49,-4.21,-2.32,303,469,405,466,444
990,-0.17,-0.98,-0.06,-0.31,-3.23,-2.62,305,469,406,463,442
991,-0.18,-0.98,-0.05,0.43,-2.75,-2.5,307,468,406,463,447
992,-0.18,-0.98,-0.05,0.61,-3.6,-2.62,304,467,408,464,447
993,-0.18,-0.98,-0.06,0.12,-3.66,-2.69,307,461,406,464,445
994,-0.17,-0.97,-0.05,0.43,-3.72,-2.81,309,465,407,468,448
995,-0.18,-0.98,-0.04,0.85,-3.54,-3.05,309,460,405,464,441
996,-0.18,-0.98,-0.05,0.12,-3.36,-2.5,310,461,405,464,442
997,-0.17,-0.98,-0.04,0.06,-3.48,-2.44,308,470,405,464,444
998,-0.2,-0.99,-0.04,1.34,-3.36,-2.26,310,468,401,462,447
999,-0.18,-0.98,-0.05,-0.24,-3.42,-2.08,312,462,407,465,445
1000,-0.17,-0.97,-0.04,-0.43,-1.59,-3.17,309,462,407,468,487
1001,-0.2,-0.98,-0.02,-0.55,-4.58,-4.21,313,467,408,466,446
1002,-0.13,-0.87,0.49,-0.92,-4.21,-3.36,292,474,450,482,468
1003,-0.12,-0.88,0.46,-4.21,-2.01,-1.22,294,470,451,488,466
1004,-0.13,-0.88,0.47,-1.4,-2.81,-2.56,291,469,450,486,467
1005,-0.1,-0.88,0.45,-1.65,-5.25,-2.08,293,465,445,486,467
1006,-0.12,-0.88,0.46,-0.06,-4.03,-4.33,292,468,449,486,468
1007,-0.12,-0.88,0.46,3.05,-3.6,-3.11,291,464,450,489,467
1008,-0.13,-0.88,0.46,-0.67,-2.5,-3.05,295,471,449,489,475
1009,-0.14,-0.87,0.47,2.56,-2.01,-4.7,294,472,449,488,467
1010,-0.12,-0.88,0.45,4.7,-4.39,-3.85,302,470,449,485,469
1011,-0.12,-0.88,0.45,2.75,-2.44,-4.39,295,464,445,489,464
1012,-0.13,-0.88,0.47,-1.59,-2.5,-2.87,292,466,446,483,467
1013,-0.15,-0.88,0.47,-0.73,-1.59,-4.7,291,471,442,484,468
1014,-0.11,-0.89,0.45,-0.85,0.06,-4.03,294,469,447,485,468
1015,-0.11,-0.88,0.47,-0.98,-2.26,-2.87,297,465,441,487,467
1016,-0.11,-0.88,0.47,1.28,-4.27,-3.91,294,481,443,485,462
1017,-0.09,-0.88,0.5,15.56,-1.04,-1.28,294,469,443,487,463
1018,-0.14,-0.88,0.46,-6.59,-4.21,-2.2,293,481,444,484,466
1019,-0.12,-0.89,0.45,0.12,-2.81,-3.54,291,469,443,480,468
1020,-0.11,-0.88,0.45,-0.06,-4.46,-4.52,295,472,445,480,464
1021,-0.12,-0.88,0.49,2.38,-2.69,-1.89,294,463,439,483,462
1022,-0.08,-0.88,0.47,2.2,-3.97,0.0,293,472,440,483,468
1023,-0.09,-0.88,0.46,-1.89,-1.16,0.37,295,468,439,484,465
1024,-0.09,-0.88,0.45,0.0,-3.11,-2.75,291,463,443,490,466
1025,-0.1,-0.89,0.46,-1.34,-3.6,-3.42,298,466,440,482,464
1026,-0.09,-0.88,0.46,1.28,-4.39,-2.44,294,473,437,484,464
1027,-0.1,-0.89,0.45,-0.12,-3.05,-2.14,298,468,438,485,464
1028,-0.09,-0.89,0.45,-0.55,-2.14,-2.62,297,468,437,481,460
1029,-0.09,-0.9,0.45,-0.73,-2.2,-2.93,296,471,435,483,463
1030,-0.09,-0.89,0.44,1.34,-2.75,-3.23,295,467,435,482,484
1031,-0.1,-0.9,0.45,-0.49,0.67,-2.75,294,472,438,481,460
1032,-0.09,-0.89,0.44,2.08,-4.76,-2.38,294,468,440,483,465
1033,-0.09,-0.9,0.45,0.31,-3.17,-2.38,296,468,439,480,463
1034,-0.09,-0.9,0.44,-1.28,-3.23,-3.85,295,480,434,480,463
1035,-0.08,-0.9,0.44,-1.34,-2.01,-2.62,290,469,435,479,463
1036,-0.08,-0.9,0.43,0.55,-2.69,-2.38,293,463,443,482,487
1037,-0.08,-0.91,0.43,-0.24,-2.62,-3.11,296,467,436,478,461
1038,-0.08,-0.9,0.42,1.28,-2.69,-2.62,293,468,438,477,465
1039,-0.08,-0.9,0.42,0.73,-3.42,-2.69,296,468,434,480,466
1040,-0.08,-0.9,0.42,-0.37,-3.3,-2.99,296,471,437,477,461
1041,-0.09,-0.9,0.42,1.65,-2.2,-1.89,296,467,437,480,464
1042,-0.09,-0.91,0.42,1.34,-2.56,-2.56,290,468,434,481,462
1043,-0.09,-0.9,0.43,1.71,-1.34,-3.72,294,472,435,483,464
1044,-0.08,-0.91,0.42,-0.61,-2.26,-2.26,291,468,434,475,458
1045,-0.09,-0.9,0.41,0.18,-2.75,-2.38,292,472,434,480,463
1046,-0.09,-0.91,0.42,1.1,-2.01,-2.81,294,472,434,477,461
1047,-0.11,-0.9,0.42,2.56,-4.03,-7.57,295,473,435,478,462
1048,-0.09,-0.91,0.41,-0.49,-3.17,-1.53,293,469,436,477,463
1049,-0.09,-0.91,0.42,-0.67,-2.01,-2.01,292,466,435,478,460
1050,-0.08,-0.93,0.41,-0.85,-2.93,-5.68,293,464,436,479,460
1051,-0.09,-0.91,0.41,-1.22,-0.73,-1.16,301,464,441,477,460
1052,-0.1,-0.91,0.41,-0.24,-2.62,-2.32,293,472,432,476,461
1053,-0.1,-0.91,0.41,-0.61,-2.2,-1.89,291,467,435,480,461
1054,-0.1,-0.91,0.4,-1.53,-2.81,-3.05,293,474,431,474,460
1055,-0.1,-0.91,0.39,2.69,-5.92,-2.75,294,467,431,475,461
1056,-0.1,-0.91,0.39,0.18,-2.75,-2.69,292,468,428,475,459
1057,-0.1,-0.92,0.41,-4.03,-3.48,-3.11,294,467,431,476,457
1058,-0.1,-1.01,0.21,-31.74,8.54,3.78,295,469,436,476,459
1059,-0.14,-0.95,0.2,-10.38,1.46,0.85,294,468,432,477,456
1060,-0.22,-0.79,0.04,18.31,-19.04,-1.83,297,485,432,476,455
1061,-0.13,-0.84,-0.11,-37.6,2.38,-38.09,296,473,423,477,462
1062,-0.15,-0.98,0.09,-9.16,-8.3,-10.13,304,471,426,477,481
1063,-0.19,-0.98,0.18,7.69,-4.94,2.32,300,468,425,474,460
1064,-0.22,-0.97,0.09,-1.16,-3.05,-1.89,299,471,425,478,459
1065,-0.19,-0.99,0.13,-7.14,1.53,-5.62,300,467,426,475,455
1066,-0.16,-0.98,0.08,-2.5,-6.96,-3.3,298,471,426,479,459
1067,-0.17,-0.97,0.05,0.55,-9.7,0.61,296,471,426,475,457
1068,-0.19,-0.98,0.07,1.1,-3.23,-1.1,301,472,426,477,458
1069,-0.19,-0.97,0.01,-1.22,-2.14,-1.22,299,471,425,475,458
1070,-0.19,-0.97,0.0,3.91,-4.15,-0.92,302,475,422,481,469
1071,-0.2,-0.97,0.03,4.94,-3.97,-2.14,301,472,428,479,458
1072,-0.2,-0.98,0.06,-1.53,-2.38,-2.93,307,474,424,476,459
1073,-0.19,-0.98,0.02,-2.99,-3.11,-3.72,302,475,428,475,459
1074,-0.19,-0.97,0.02,2.32,-3.48,-1.59,301,469,423,480,454
1075,-0.19,-0.98,0.02,-1.34,-3.11,-1.59,300,476,426,479,457
1076,-0.2,-0.98,0.05,0.73,-2.26,-2.69,300,471,426,475,458
1077,-0.21,-0.98,0.06,2.01,-4.58,-1.65,302,472,422,473,457
1078,-0.2,-0.97,0.04,-0.55,-1.28,-2.62,303,471,424,475,455
1079,-0.21,-0.98,0.04,-2.08,-1.71,-1.53,302,476,423,476,456
1080,-0.21,-0.97,0.07,-3.48,-3.05,-6.59,304,473,424,477,452
1081,-0.19,-0.97,0.05,4.15,-6.41,-0.85,302,476,423,478,456
1082,-0.19,-0.98,0.05,0.18,0.12,-3.48,303,473,425,478,455
1083,-0.2,-0.97,0.06,1.59,0.18,-2.26,301,475,424,478,457
1084,-0.17,-0.98,0.05,0.98,-1.83,-4.39,300,471,419,478,457
1085,-0.16,-0.98,0.05,1.4,-3.54,-1.53,308,475,423,478,456
1086,-0.15,-0.98,0.1,-0.73,-2.93,-4.7,302,478,423,477,457
1087,-0.15,-0.99,0.09,5.31,-2.69,-9.95,312,471,421,475,464
1088,-0.11,-0.98,0.1,3.23,1.1,-2.56,322,469,421,475,463
1089,-0.15,-0.97,0.04,-1.04,4.33,0.79,308,475,419,485,465
1090,-0.13,-0.98,0.06,-1.1,-2.14,-5.37,303,469,422,478,465
1091,-0.08,-0.98,0.03,-7.87,-14.28,-4.58,302,472,417,475,464
1092,-0.1,-0.99,0.04,2.93,-1.95,-1.53,302,471,413,473,462
1093,-0.1,-0.99,0.03,-2.56,-1.34,-4.7,298,476,415,477,461
1094,-0.09,-1.0,0.02,1.16,1.65,-4.15,299,472,415,478,461
1095,-0.09,-0.99,0.02,0.24,1.34,-1.4,305,473,420,475,462
1096,-0.12,-1.01,0.06,-4.52,-4.58,2.32,301,476,417,477,461
1097,-0.1,-1.0,0.05,-6.16,-4.64,-1.1,301,471,413,474,472
1098,-0.1,-0.99,0.02,-2.99,-1.16,-2.87,301,472,418,471,462
1099,-0.11,-0.99,-0.0,2.26,-4.03,-2.26,299,474,414,477,460
1100,-0.11,-0.98,-0.0,0.85,-3.85,-1.53,301,476,412,475,461
1101,-0.12,-0.99,0.01,-0.31,-1.4,-2.93,301,473,414,477,460
1102,-0.12,-0.99,0.02,6.47,-4.21,0.49,294,472,415,473,464
1103,-0.15,-0.99,0.03,-0.43,-2.75,-3.05,299,467,417,474,458
1104,-0.13,-0.99,0.03,0.79,-4.58,-2.01,302,473,413,474,463
1105,-0.13,-0.99,-0.0,1.53,-3.36,-1.46,304,475,416,474,461
1106,-0.11,-0.99,0.01,0.98,-3.05,-3.42,301,472,413,474,461
1107,-0.13,-0.99,0.01,-0.49,-2.81,-2.38,301,472,412,475,463
1108,-0.15,-0.99,0.02,1.53,1.46,-0.55,297,474,415,473,460
1109,-0.18,-0.98,0.05,9.83,9.64,0.0,292,472,406,475,460
1110,-0.15,-0.98,0.06,0.61,-4.52,-3.42,296,475,410,476,457
1111,-0.12,-0.99,0.05,2.08,-12.21,-0.79,306,470,409,473,462
1112,-0.15,-0.98,0.04,-0.49,6.29,-3.42,318,474,411,476,464
1113,-0.13,-0.98,0.06,0.49,-1.89,-4.82,307,472,410,479,463
1114,-0.13,-0.98,0.07,1.95,-1.53,-1.77,304,472,410,482,457
1115,-0.14,-0.98,0.07,-0.06,-3.36,-1.4,307,467,406,473,459
1116,-0.13,-0.99,0.07,0.0,-3.97,-2.01,301,470,409,477,461
1117,-0.14,-0.99,0.07,-0.31,-3.36,-2.75,305,475,410,479,459
1118,-0.12,-0.99,0.06,-0.79,-4.94,-3.17,302,472,414,479,460
1119,-0.12,-0.98,0.05,-1.04,-3.48,-3.97,299,474,415,485,459
1120,-0.14,-0.99,0.06,0.67,-1.16,-2.75,304,472,413,481,463
1121,-0.13,-0.99,0.08,1.77,-4.09,-2.08,304,472,414,475,474
1122,-0.13,-0.99,0.07,-0.37,-4.33,-2.32,306,471,410,472,461
1123,-0.13,-0.99,0.07,-0.49,-1.65,-2.75,304,473,418,476,462
1124,-0.13,-0.98,0.06,0.06,-3.6,-2.08,301,475,412,477,462
1125,-0.14,-0.99,0.05,0.49,-3.3,-2.62,307,476,412,473,457
1126,-0.12,-0.98,0.06,1.53,-1.71,-2.44,307,473,411,476,460
1127,-0.14,-0.99,0.06,1.34,-3.78,-1.65,307,472,415,478,459
1128,-0.14,-0.98,0.07,-0.12,-1.04,-2.93,311,473,412,475,463
1129,-0.13,-0.98,0.07,0.43,-2.81,-2.38,301,467,412,475,461
1130,-0.13,-0.99,0.07,-0.43,-4.7,-2.08,306,470,415,476,460
1131,-0.14,-0.98,0.06,0.55,-2.5,-2.62,309,466,414,478,460
1132,-0.14,-0.99,0.06,-0.31,-2.5,-2.26,301,476,410,479,461
1133,-0.13,-0.99,0.06,-0.79,-2.69,-3.3,303,472,411,475,457
1134,-0.13,-0.99,0.06,0.43,-2.99,-2.38,307,472,411,475,462
1135,-0.12,-0.98,0.06,0.98,-2.87,-2.69,308,469,414,475,462
1136,-0.13,-0.98,0.06,1.16,-3.3,-2.2,306,468,414,475,460
1137,-0.14,-0.98,0.08,0.43,-2.69,-2.69,307,471,410,474,461
1138,-0.15,-0.99,0.07,0.37,-2.08,-2.62,306,468,412,475,461
1139,-0.14,-0.98,0.07,0.61,-2.14,-2.14,304,476,411,475,460
1140,-0.13,-0.99,0.07,0.06,-4.03,-2.93,308,478,413,477,491
1141,-0.13,-0.98,0.06,-0.55,-2.81,-2.69,309,471,411,476,462
1142,-0.14,-0.99,0.06,0.43,-3.11,-1.77,301,471,414,475,460
1143,-0.15,-0.98,0.08,-0.06,-3.54,-2.14,307,467,411,476,460
1144,-0.15,-0.99,0.06,0.67,-3.54,-2.32,308,474,414,471,458
1145,-0.14,-0.98,0.06,0.18,-2.69,-2.14,307,472,413,474,470
1146,-0.15,-0.98,0.06,1.34,-2.93,-2.26,308,472,414,479,458
1147,-0.13,-0.98,0.08,1.22,-2.5,-3.3,307,476,410,473,459
1148,-0.16,-0.98,0.05,0.49,-3.3,-2.32,304,475,411,476,456
1149,-0.14,-0.98,0.06,-0.61,-3.23,-4.27,308,470,413,475,462
1150,-0.15,-0.98,0.07,1.22,-2.87,-2.14,306,471,410,475,457
1151,-0.14,-0.98,0.06,-0.92,-3.17,-4.27,309,472,410,473,459
1152,-0.14,-0.98,0.06,0.43,-3.6,-2.5,308,477,407,471,460
1153,-0.14,-0.98,0.05,1.1,-3.54,0.0,308,472,411,475,461
1154,-0.13,-0.98,0.05,0.12,-2.44,-2.75,308,471,408,469,457
1155,-0.15,-0.98,0.07,-0.43,-5.19,-3.3,310,467,412,474,459
1156,-0.15,-0.98,0.06,-0.85,-0.37,-2.62,310,466,412,474,458
1157,-0.14,-0.99,0.06,0.0,-2.99,-2.26,308,473,412,476,459
1158,-0.14,-0.98,0.06,0.73,-3.54,-2.56,311,471,409,477,459
1159,-0.14,-0.99,0.06,0.43,-3.42,-2.5,312,476,407,474,460
1160,-0.14,-0.99,0.07,-0.12,-2.93,-2.69,316,472,410,475,456
1161,-0.13,-0.99,0.06,0.61,-2.14,-1.77,315,472,408,475,458
1162,-0.13,-0.98,0.06,0.98,-4.09,-1.71,308,470,409,470,459
1163,-0.14,-0.98,0.07,0.31,-3.78,-1.95,307,476,407,473,456
1164,-0.14,-0.98,0.06,0.73,-3.17,-2.2,311,471,407,475,458
1165,-0.15,-0.99,0.06,0.85,-3.48,-2.26,308,475,407,476,460
1166,-0.14,-0.98,0.05,0.49,-2.81,-2.32,309,482,409,475,459
1167,-0.14,-0.98,0.06,0.49,-3.48,-3.6,308,476,417,479,484
1168,-0.14,-0.98,0.06,0.55,-3.48,-2.32,310,471,408,473,457
1169,-0.14,-0.98,0.05,0.18,-3.17,-2.2,309,467,408,473,457
1170,-0.15,-0.99,0.05,-0.18,-2.56,-1.83,310,473,411,472,457
1171,-0.14,-0.99,0.06,-0.85,-3.97,-2.32,309,477,410,476,455
1172,-0.14,-0.98,0.06,-1.65,-3.23,-1.59,311,474,409,469,460
1173,-0.15,-0.98,0.06,-0.06,-2.44,-2.62,312,472,407,473,455
1174,-0.15,-0.98,0.05,0.85,-4.09,-2.87,312,476,407,470,457
1175,-0.16,-0.99,0.06,0.98,-3.72,-2.62,310,473,407,472,455
1176,-0.15,-0.98,0.07,0.43,-4.33,-3.54,312,470,410,471,460
1177,-0.15,-0.98,0.06,-0.43,-1.95,-2.62,314,471,407,471,458
1178,-0.15,-0.98,0.07,-0.18,-2.62,-2.44,311,473,408,475,459
1179,-0.15,-0.98,0.06,0.37,-2.44,-1.95,313,469,407,470,456
1180,-0.15,-0.98,0.07,-0.06,-2.99,-2.32,313,470,408,474,453
1181,-0.15,-0.98,0.05,0.24,-3.17,-3.66,311,468,407,474,455
1182,-0.14,-0.98,0.07,1.77,-2.56,-2.87,309,476,406,469,459
1183,-0.15,-0.98,0.07,-0.24,-3.66,-2.38,313,472,409,472,453
1184,-0.14,-0.98,0.07,-0.43,-2.44,-2.08,307,470,411,469,457
1185,-0.15,-0.98,0.07,0.49,-3.91,-1.46,310,471,409,472,460
1186,-0.15,-0.99,0.07,-0.43,-2.81,-2.75,315,471,407,471,456
1187,-0.15,-0.98,0.07,-0.37,-2.87,-2.32,313,482,407,471,458
1188,-0.16,-0.98,0.06,-0.37,-2.5,-3.17,314,472,409,471,452
1189,-0.14,-0.98,0.05,0.61,-4.27,-2.01,310,480,406,471,456
1190,-0.15,-0.98,0.07,0.85,-5.31,-1.28,314,467,410,471,459
1191,-0.15,-0.98,0.07,1.04,-3.42,-4.39,314,472,407,470,472
1192,-0.14,-0.98,0.07,-1.59,-2.08,-2.81,314,468,410,473,454
1193,-0.15,-0.98,0.08,-0.06,-2.99,-1.83,317,472,406,468,458
1194,-0.16,-0.98,0.07,-0.12,-2.81,-2.5,318,472,406,470,455
1195,-0.15,-0.98,0.07,-0.18,-3.05,-2.69,315,472,405,474,454
1196,-0.16,-0.98,0.06,0.18,-2.32,-2.62,312,467,404,472,457
1197,-0.15,-0.98,0.06,0.37,-3.05,-2.75,312,468,409,468,456
1198,-0.15,-0.98,0.06,0.31,-2.93,-2.56,312,476,407,468,457
1199,-0.14,-0.98,0.07,0.43,-2.26,-3.6,311,476,403,473,459
1200,-0.16,-0.98,0.07,0.55,-3.48,-2.69,312,472,406,470,455
1201,-0.15,-0.98,0.07,-0.06,-3.48,-2.08,312,473,406,471,456
1202,-0.15,-0.98,0.06,-0.73,-3.66,-2.5,312,466,407,469,454
1203,-0.15,-0.98,0.07,0.92,-2.99,-2.2,313,471,406,469,452
1204,-0.15,-0.98,0.07,-0.98,-2.2,-3.05,311,472,406,473,457
1205,-0.15,-0.98,0.07,0.43,-3.36,-2.87,312,471,409,471,455
1206,-0.15,-0.99,0.07,-0.73,-3.05,-2.99,313,469,408,470,456
1207,-0.15,-0.98,0.07,1.77,-3.36,-2.44,315,471,404,473,455
1208,-0.14,-0.98,0.07,0.61,-2.99,-2.5,314,476,405,470,452
1209,-0.17,-0.99,0.08,-0.43,-2.32,-2.62,316,471,413,470,455
1210,-0.15,-0.98,0.08,-0.37,-3.17,-3.05,314,473,406,470,458
1211,-0.15,-0.98,0.07,0.12,-2.99,-2.69,316,472,406,470,459
1212,-0.16,-0.98,0.07,0.43,-2.56,-2.32,313,475,411,473,457
1213,-0.15,-0.98,0.06,-0.61,-2.75,-2.14,315,475,417,469,453
1214,-0.15,-0.98,0.05,0.43,-4.09,-2.5,317,471,400,466,452
1215,-0.16,-0.98,0.08,0.49,-2.81,-2.38,316,468,407,466,454
1216,-0.16,-0.98,0.07,1.28,-3.42,-2.62,317,475,409,472,455
1217,-0.15,-0.98,0.08,-0.73,-2.99,-3.17,318,472,413,469,454
1218,-0.15,-0.98,0.07,-1.16,-3.17,-3.54,316,472,405,468,448
1219,-0.15,-0.98,0.06,0.85,-3.54,-1.95,313,471,400,466,453
1220,-0.15,-0.98,0.07,-0.31,-5.0,-2.01,319,477,406,471,452
1221,-0.15,-0.98,0.06,-0.12,-2.56,-1.95,322,473,403,472,452
1222,-0.14,-0.98,0.05,0.37,-1.95,-2.87,316,476,405,468,456
1223,-0.15,-0.98,0.03,0.67,-3.48,-2.32,315,473,400,472,454
1224,-0.15,-0.98,0.05,0.85,-2.62,-3.11,317,470,408,467,456
1225,-0.13,-0.98,0.06,1.16,-3.17,-2.26,314,471,403,471,454
1226,-0.16,-0.98,0.06,0.06,-2.38,-2.14,319,475,400,469,453
1227,-0.15,-0.98,0.06,0.55,-2.93,-2.08,319,469,404,468,456
1228,-0.16,-0.98,0.06,1.1,-3.11,-2.01,316,470,415,465,454
1229,-0.15,-0.98,0.07,0.12,-3.05,-2.5,318,475,411,472,454
1230,-0.16,-0.98,0.05,-0.18,-3.42,-2.32,315,467,403,468,457
1231,-0.15,-0.98,0.07,1.28,-2.99,-2.01,316,472,404,467,457
1232,-0.16,-0.98,0.07,0.61,-3.42,-3.17,314,474,401,472,453
1233,-0.17,-0.98,0.08,1.16,-2.87,-2.14,317,470,404,470,454
1234,-0.15,-0.98,0.08,-0.31,-2.01,-3.36,319,469,403,470,454
1235,-0.15,-0.98,0.07,0.18,-2.26,-2.01,317,474,403,467,455
1236,-0.15,-0.98,0.06,-0.98,-2.38,-3.6,311,472,405,468,454
1237,-0.15,-0.98,0.05,-0.37,-3.48,-2.81,314,471,404,464,454
1238,-0.14,-0.98,0.05,0.43,-4.09,-2.5,317,472,402,467,452
1239,-0.15,-0.98,0.05,1.53,-3.54,-1.53,315,468,404,469,456
1240,-0.14,-0.98,0.06,-0.85,-1.34,-6.96,315,472,403,466,453
1241,-0.14,-0.98,0.06,0.49,-2.44,-2.87,317,471,405,469,453
1242,-0.15,-0.98,0.05,-0.73,2.56,-2.93,315,465,403,471,454
1243,-0.15,-0.98,0.06,-0.92,-8.97,-3.17,313,474,402,471,455
1244,-0.14,-0.98,0.05,-0.49,-0.92,-2.87,313,471,400,471,454
1245,-0.15,-0.98,0.05,1.4,-3.11,-2.14,312,467,398,468,450
1246,-0.15,-0.98,0.05,1.22,-2.69,-2.08,310,472,401,465,456
1247,-0.15,-0.98,0.06,2.2,-2.01,-3.36,308,470,398,470,456
1248,-0.15,-0.99,0.07,1.65,-0.12,-2.81,302,466,398,470,455
1249,-0.15,-0.98,0.04,-2.5,-1.83,-5.25,306,470,394,469,453
1250,-0.16,-0.99,0.05,-4.03,-6.1,-6.1,305,469,399,466,456
1251,-0.13,-0.99,0.03,-6.59,-2.81,-3.66,308,467,396,463,449
1252,-0.12,-0.98,0.01,-3.36,-13.12,15.32,308,473,400,464,456
1253,-0.19,-0.98,0.01,2.44,2.32,-6.41,307,469,407,467,453
1254,-0.18,-0.98,0.02,3.48,-2.87,-2.75,306,470,406,467,453
1255,-0.17,-0.98,0.01,1.4,-4.46,-2.01,305,469,407,471,452
1256,-0.17,-0.98,0.02,2.87,-4.27,-1.59,305,470,416,468,454
1257,-0.16,-0.98,0.03,1.53,-5.25,-2.32,305,473,406,467,453
1258,-0.18,-0.98,0.04,8.3,0.12,-4.33,309,469,412,470,465
1259,-0.16,-0.98,0.04,2.08,0.92,15.5,308,469,406,465,453
1260,-0.23,-0.98,0.08,-9.34,-8.97,-9.52,305,463,410,465,454
1261,-0.16,-0.97,0.04,1.28,-4.76,-2.01,305,472,408,468,455
1262,-0.2,-0.98,0.06,4.52,-8.12,-0.12,305,473,407,468,455
1263,-0.21,-0.98,0.1,-4.7,0.98,-5.0,307,471,405,466,452
1264,-0.15,-0.98,-0.03,-12.15,-1.46,-11.72,305,466,409,468,452
1265,-0.17,-0.97,0.0,7.87,-5.92,-3.36,303,467,407,466,453
1266,-0.17,-0.98,0.04,0.0,-2.56,-3.36,304,468,406,467,452
1267,-0.17,-0.98,0.02,-0.43,-3.11,-3.17,303,467,405,465,452
1268,-0.18,-0.98,0.06,-1.34,-2.99,-3.11,303,470,402,465,453
1269,-0.16,-0.98,0.05,1.34,-2.99,-1.46,305,468,402,465,440
1270,-0.17,-0.98,0.02,2.01,-3.72,-1.65,307,467,406,465,453
1271,-0.16,-0.98,0.02,-1.04,-2.75,-3.23,303,469,407,469,455
1272,-0.17,-0.98,0.02,0.24,-2.75,-2.62,306,472,408,466,453
1273,-0.16,-0.98,0.03,-2.32,-2.56,-4.46,305,463,404,465,452
1274,-0.16,-0.98,0.02,2.32,-3.91,-1.53,315,473,405,465,452
1275,-0.17,-0.98,0.02,-0.24,-3.97,-2.01,304,471,405,464,454
1276,-0.16,-0.98,0.02,0.37,-4.03,-1.95,302,468,403,467,453
1277,-0.19,-0.98,0.04,0.73,-2.56,-2.62,306,467,408,469,452
1278,-0.18,-0.98,0.03,0.92,-3.48,-2.5,304,470,401,466,451
1279,-0.18,-0.98,0.02,-0.67,-2.44,-3.36,307,467,406,464,482
1280,-0.17,-0.98,0.03,0.98,-3.85,-2.14,306,470,405,465,452
1281,-0.16,-0.98,0.03,-0.67,-4.52,-2.99,303,466,405,466,452
1282,-0.16,-0.98,0.03,0.43,-2.87,-2.81,308,469,405,466,452
1283,-0.17,-0.98,0.03,0.73,-3.72,-2.44,305,469,408,468,455
1284,-0.16,-0.98,0.03,0.67,-4.09,-2.44,302,468,403,466,452
1285,-0.17,-0.98,0.04,0.43,-3.48,-2.93,304,470,405,463,450
1286,-0.17,-0.98,0.03,0.0,-2.93,-1.95,307,472,406,463,455
1287,-0.15,-0.98,0.02,0.06,-2.75,-3.17,306,467,406,467,452
1288,-0.16,-0.98,0.02,-0.92,-4.39,-3.3,308,471,406,464,450
1289,-0.17,-0.98,0.02,0.12,-1.04,-3.66,306,463,405,468,455
1290,-0.16,-0.98,0.01,-0.18,-3.17,-2.32,308,469,407,464,452
1291,-0.15,-0.98,0.02,-0.31,-3.42,-3.3,307,470,406,466,449
1292,-0.17,-0.98,0.02,2.62,-4.33,-1.16,304,465,409,463,452
1293,-0.16,-0.98,0.03,0.43,-2.44,-2.69,308,474,408,469,448
1294,-0.15,-0.98,0.01,2.32,-5.31,-1.04,305,471,414,467,453
1295,-0.16,-0.98,0.03,-1.28,-2.56,-3.17,308,469,402,467,452
1296,-0.18,-0.98,0.03,1.4,-4.15,-0.61,308,464,410,469,451
1297,-0.17,-0.98,0.02,0.18,-2.38,-3.23,307,469,402,466,455
1298,-0.18,-0.98,0.02,0.61,-2.26,-2.75,308,468,406,467,452
1299,-0.16,-0.99,0.03,0.79,-2.69,-2.93,308,463,407,468,453
1300,-0.18,-0.98,0.02,1.28,-4.33,-2.26,308,472,410,465,453
1301,-0.16,-0.98,0.03,1.1,-3.91,-1.83,309,469,410,469,454
1302,-0.17,-0.98,0.03,-1.28,-3.78,-4.03,307,464,407,469,455
1303,-0.18,-0.98,0.03,-0.37,-2.56,-1.95,308,469,408,471,454
1304,-0.15,-0.98,0.04,0.24,-2.01,-3.72,310,472,409,471,455
1305,-0.17,-0.98,0.03,1.89,-2.2,-1.83,308,470,412,469,452
1306,-0.17,-0.99,0.04,1.16,-4.7,-0.92,307,468,412,469,453
1307,-0.17,-0.98,0.03,0.31,-2.32,-2.01,310,469,411,470,452
1308,-0.18,-0.99,0.03,-1.1,-3.48,-2.38,309,467,410,470,453
1309,-0.17,-0.98,0.0,-0.49,-4.76,-3.78,306,464,409,468,452
1310,-0.18,-0.99,0.02,0.37,2.08,-2.56,309,472,411,470,460
1311,-0.16,-0.98,0.03,-1.22,-4.03,-3.66,309,470,409,472,452
1312,-0.17,-0.98,0.03,0.61,-2.62,-2.81,308,469,411,471,452
1313,-0.17,-0.98,0.03,0.98,-2.56,-2.38,312,472,410,472,452
1314,-0.17,-0.98,0.03,-1.53,-1.28,-3.17,305,470,409,468,453
1315,-0.17,-0.98,0.03,0.0,-3.72,-1.95,308,470,414,468,452
1316,-0.18,-0.98,0.03,-0.49,-2.75,-2.99,314,471,410,469,450
1317,-0.17,-0.98,0.03,-0.61,-2.32,-2.87,308,462,408,472,457
1318,-0.17,-0.98,0.03,0.37,-4.39,-1.77,308,466,411,472,444
1319,-0.18,-0.97,0.02,2.56,-1.95,-2.32,308,468,405,472,455
1320,-0.19,-0.98,0.03,0.37,-5.13,-2.26,311,468,408,477,453
1321,-0.17,-0.98,0.03,0.24,-2.44,-3.72,309,468,411,467,447
1322,-0.17,-0.98,0.03,-0.37,-2.75,-3.42,306,469,410,469,454
1323,-0.18,-0.99,0.04,-0.55,-1.1,-2.56,308,473,409,470,440
1324,-0.19,-0.98,0.03,0.43,-3.05,-1.1,309,469,412,470,452
1325,-0.18,-0.98,0.03,0.31,-3.3,-2.56,309,469,411,469,448
1326,-0.18,-0.98,0.03,-0.79,-2.75,-2.75,309,471,409,476,453
1327,-0.17,-0.98,0.02,1.53,-3.91,-2.08,310,469,410,469,452
1328,-0.17,-0.98,0.02,0.0,-3.85,-2.93,310,469,426,471,447
1329,-0.17,-0.98,0.04,1.04,-3.6,-2.69,309,463,407,469,452
1330,-0.18,-0.98,0.03,-0.49,-2.62,-3.48,311,466,407,467,454
1331,-0.18,-0.98,0.02,0.37,-3.23,-2.75,309,468,425,468,454
1332,-0.19,-0.98,0.04,0.06,-2.62,-1.83,308,466,407,472,446
1333,-0.19,-0.98,0.04,0.49,-2.56,-1.95,306,472,409,472,448
1334,-0.18,-0.98,0.02,0.18,-2.5,-2.38,307,468,412,470,451
1335,-0.18,-0.98,0.03,0.06,-3.11,-1.77,309,469,407,470,452
1336,-0.17,-0.98,0.02,2.2,-3.85,-1.95,321,474,409,472,449
1337,-0.17,-0.98,0.02,1.16,-3.85,-3.11,311,470,410,470,451
1338,-0.15,-0.98,0.01,-3.48,-1.77,-5.98,311,464,409,471,451
1339,-0.15,-0.98,-0.01,-3.42,-0.73,-8.24,308,473,409,472,446
1340,-0.16,-0.99,-0.01,-3.11,-2.44,-3.6,310,472,410,471,451
1341,-0.17,-0.99,0.05,5.74,-2.75,0.92,311,464,409,470,451
1342,-0.19,-0.98,-0.08,3.11,-2.5,4.39,308,470,410,471,451
1343,-0.17,-0.98,-0.02,4.46,-1.53,-0.49,312,469,406,470,449
1344,-0.17,-0.98,0.01,0.98,-2.99,-3.23,311,469,408,469,450
1345,-0.17,-0.98,0.02,1.77,-5.86,-6.71,313,464,411,473,451
1346,-0.15,-0.97,0.0,-3.42,-1.77,-4.76,315,469,410,467,450
1347,-0.15,-0.99,-0.0,2.01,-3.11,-3.72,308,470,410,466,452
1348,-0.16,-0.99,0.0,2.5,-5.86,0.06,308,471,410,470,453
1349,-0.15,-0.99,0.0,-0.18,-5.37,-4.94,313,464,409,472,450
1350,-0.15,-0.98,0.0,-1.89,-2.99,-6.41,312,470,413,467,450
1351,-0.16,-0.98,0.0,2.32,-4.58,-1.22,316,470,410,469,451
1352,-0.15,-0.98,0.01,0.92,-3.6,-2.75,315,474,414,472,450
1353,-0.14,-0.97,-0.01,-0.67,-2.44,-2.87,317,470,413,471,449
1354,-0.14,-0.99,0.0,1.04,-1.1,-3.66,316,473,411,465,452
1355,-0.16,-0.99,0.01,2.32,-6.47,-2.44,317,469,410,472,450
1356,-0.15,-0.99,0.0,-0.73,-3.05,-3.85,315,470,410,470,451
1357,-0.15,-0.98,0.01,1.28,-2.81,-3.05,320,472,410,472,450
1358,-0.13,-0.98,-0.02,1.53,-0.55,-4.94,317,466,413,469,447
1359,-0.12,-0.98,0.01,1.22,-3.11,-3.66,319,473,409,470,448
1360,-0.14,-0.98,0.02,0.12,-2.75,-2.26,318,470,409,467,450
1361,-0.15,-0.98,0.01,-0.73,-3.42,-2.93,317,469,410,467,450
1362,-0.14,-0.98,0.0,0.37,-5.19,-3.36,320,469,408,470,448
1363,-0.14,-0.98,-0.01,-1.34,-2.01,-3.11,319,470,414,468,449
1364,-0.13,-0.98,0.0,1.1,-0.85,-2.62,310,472,408,469,450
1365,-0.15,-0.98,0.01,3.17,-0.37,-1.34,304,464,405,467,451
1366,-0.16,-0.98,0.01,3.97,-1.34,-0.79,299,464,404,477,450
1367,-0.15,-0.98,0.01,2.44,-9.52,-1.65,297,467,403,469,448
1368,-0.15,-0.98,0.01,0.0,-0.12,-6.47,299,470,401,465,451
1369,-0.15,-0.99,0.05,-0.98,-2.81,-6.47,298,465,407,468,449
1370,-0.08,-1.0,0.06,-4.46,-10.44,-4.94,304,484,405,471,448
1371,-0.06,-0.96,0.07,14.47,0.79,-7.08,305,467,404,470,452
1372,-0.06,-1.0,0.1,-2.56,-5.19,-5.62,301,470,406,471,450
1373,-0.09,-0.98,0.05,-3.48,-1.34,-1.59,307,467,408,467,445
1374,-0.11,-1.0,-0.01,6.16,3.42,3.36,307,468,411,471,447
1375,-0.13,-0.98,0.04,1.28,3.72,-2.5,304,469,407,470,448
1376,-0.14,-0.98,0.01,1.89,-3.36,2.01,308,468,408,464,445
1377,-0.16,-0.97,0.04,0.67,-6.84,-1.83,307,473,404,471,448
1378,-0.19,-0.98,0.01,0.79,-4.58,-5.19,308,470,405,470,448
1379,-0.18,-0.97,0.0,3.42,-3.78,-1.46,308,472,404,468,449
1380,-0.19,-0.98,0.02,-0.24,-0.31,-2.81,308,473,408,467,443
1381,-0.18,-0.97,0.04,2.38,-3.3,-1.34,308,469,410,470,446
1382,-0.2,-0.98,0.04,-1.34,-0.92,-2.81,308,468,407,463,449
1383,-0.21,-0.96,0.03,3.42,-1.4,-2.2,309,470,407,470,445
1384,-0.19,-0.97,0.03,-0.18,-4.27,-2.93,311,473,408,478,446
1385,-0.19,-0.97,0.03,-0.73,-3.23,-1.95,308,468,407,467,448
1386,-0.2,-0.98,0.04,1.1,-2.75,-2.01,311,467,410,470,446
1387,-0.2,-0.98,0.04,0.06,-1.83,-2.75,308,468,410,468,447
1388,-0.2,-0.98,0.03,-0.67,-2.56,-3.17,309,470,406,469,449
1389,-0.2,-0.97,0.02,-0.55,-2.62,-2.93,311,466,409,466,449
1390,-0.2,-0.98,0.03,-1.16,-2.38,-3.6,310,469,409,467,448
1391,-0.18,-0.97,0.01,1.22,-1.53,-1.4,311,468,405,466,448
1392,-0.17,-0.98,-0.01,-10.07,1.53,-4.88,311,467,410,468,448
1393,-0.18,-0.97,-0.01,-0.06,-2.5,-2.62,308,469,414,465,447
1394,-0.18,-0.98,-0.01,-1.04,-2.38,-3.36,311,471,409,467,446
1395,-0.18,-0.98,-0.01,-0.73,-3.42,-2.08,310,468,409,464,447
1396,-0.18,-0.98,-0.02,0.67,-2.99,-3.11,313,468,412,467,450
1397,-0.19,-0.97,-0.01,0.43,-3.72,-2.14,309,468,409,471,447
1398,-0.18,-0.97,0.0,-2.56,-2.75,-4.33,313,473,408,471,454
1399,-0.17,-0.98,-0.01,-0.43,-3.91,-3.42,308,469,405,465,446
1400,-0.18,-0.98,-0.04,-0.49,-3.42,-2.87,311,465,410,466,449
1401,-0.18,-0.98,-0.01,1.4,-2.62,-2.99,306,471,407,470,436
1402,-0.16,-0.97,-0.02,2.38,-1.46,-5.13,306,468,405,467,443
1403,-0.17,-0.98,0.01,0.06,-2.44,-1.28,308,463,406,465,448
1404,-0.16,-0.98,-0.01,-4.15,-0.92,-5.13,304,471,407,467,448
1405,-0.17,-0.98,-0.01,-2.32,-0.98,-5.74,306,466,409,467,443
1406,-0.13,-0.98,-0.04,0.31,-3.78,-2.44,310,467,405,463,446
1407,-0.15,-0.99,-0.01,0.61,-3.91,-2.44,308,461,404,466,444
1408,-0.15,-0.98,-0.01,0.85,-4.03,-1.77,309,467,408,467,444
1409,-0.15,-0.98,-0.03,0.55,1.77,-3.91,306,463,407,467,444
1410,-0.14,-0.98,-0.04,0.31,-2.01,-2.26,306,469,416,466,446
1411,-0.15,-0.98,-0.02,-2.5,-1.77,-5.0,308,467,405,465,446
1412,-0.15,-0.98,-0.09,-3.6,-6.84,-1.46,306,468,403,464,450
1413,-0.14,-0.98,-0.02,4.15,3.05,-0.67,304,467,409,470,445
1414,-0.13,-0.98,-0.02,1.04,-0.24,-3.78,305,472,405,467,447
1415,-0.15,-0.98,-0.03,3.23,-2.38,-4.09,310,469,409,463,448
1416,-0.16,-0.99,-0.01,0.55,-6.16,-1.95,311,472,406,465,450
1417,-0.13,-0.99,-0.0,1.53,-3.97,-4.27,309,469,406,463,447
1418,-0.12,-0.99,-0.01,0.43,-0.79,-3.72,309,471,412,457,444
1419,-0.15,-0.99,0.0,0.31,-3.36,-2.32,309,467,403,466,451
1420,-0.15,-0.99,-0.03,0.31,-6.04,-2.56,310,471,402,470,444
1421,-0.13,-0.98,-0.0,-1.59,-5.37,-1.28,307,472,408,466,450
1422,-0.14,-0.99,-0.01,-0.67,-2.5,-3.23,314,468,409,465,447
1423,-0.15,-0.99,-0.01,1.1,-2.81,-1.46,309,467,407,468,447
1424,-0.14,-0.98,-0.01,0.61,-1.59,-2.32,311,467,412,466,448
1425,-0.14,-0.99,-0.01,-0.06,-4.39,-2.26,309,465,406,465,445
1426,-0.14,-0.98,-0.02,-0.55,-2.2,-2.56,311,465,407,466,447
1427,-0.14,-0.98,-0.03,0.98,-3.72,-2.62,310,470,406,462,448
1428,-0.14,-0.98,-0.03,-0.06,-2.87,-2.26,311,467,400,467,454
1429,-0.15,-0.98,-0.04,0.0,-3.17,-2.26,311,467,407,467,445
1430,-0.15,-0.98,-0.02,-0.18,-4.15,-2.14,311,469,402,468,475
1431,-0.16,-0.98,-0.02,0.0,-5.37,-2.44,306,466,394,464,443
1432,-0.15,-0.98,-0.03,0.79,-2.08,-2.14,312,464,408,467,446
1433,-0.14,-0.98,-0.03,0.61,0.67,-2.38,312,468,408,466,444
1434,-0.14,-0.98,-0.04,0.61,-0.67,-2.5,310,469,405,465,446
1435,-0.15,-0.98,-0.04,0.92,-3.36,-2.26,309,471,403,466,447
1436,-0.15,-0.98,-0.03,0.06,-3.54,-2.44,313,469,413,464,446
1437,-0.14,-0.98,-0.04,0.06,-3.3,-2.44,309,468,407,460,446
1438,-0.15,-0.98,-0.04,0.55,-3.78,-1.77,313,470,404,465,447
1439,-0.14,-0.98,-0.04,0.12,-2.14,-3.17,310,471,407,465,442
1440,-0.16,-0.98,-0.04,0.12,-4.15,-2.62,311,463,406,465,443
1441,-0.17,-0.98,-0.03,0.79,-4.64,0.43,312,463,396,464,443
1442,-0.14,-0.98,-0.03,1.77,-5.92,-1.1,310,471,410,461,448
1443,-0.15,-0.98,-0.04,0.55,-3.11,-1.77,309,467,406,460,445
1444,-0.16,-0.98,-0.04,-0.92,-3.05,-2.01,310,467,403,465,446
1445,-0.16,-0.98,-0.04,0.73,-2.75,-3.17,312,468,404,464,445
1446,-0.17,-0.98,-0.04,0.61,-3.85,-1.59,306,467,405,463,447
1447,-0.15,-0.98,-0.04,0.49,-3.17,-2.38,313,468,403,464,446
1448,-0.16,-0.98,-0.05,2.14,-3.91,-2.99,307,469,402,461,445
1449,-0.17,-0.98,-0.04,0.43,-3.66,-2.14,311,466,405,467,447
1450,-0.16,-0.98,-0.04,0.49,-2.75,-2.26,311,468,405,460,445
1451,-0.17,-0.98,-0.03,-0.92,-1.95,-3.23,311,467,403,465,442
1452,-0.16,-0.98,-0.03,-1.59,-1.65,-3.23,311,471,402,463,445
1453,-0.16,-0.98,-0.02,0.55,-4.21,-1.53,308,466,400,462,448
1454,-0.15,-0.98,-0.03,0.12,-3.36,-3.05,310,467,405,462,446
1455,-0.17,-0.98,-0.03,-0.55,-2.08,-2.62,311,467,406,464,445
1456,-0.16,-0.98,-0.04,1.53,-4.27,-2.38,311,471,400,464,448
1457,-0.16,-0.99,-0.03,0.92,-2.93,-2.5,311,464,405,462,447
1458,-0.16,-0.98,-0.04,0.18,-3.72,-2.38,311,470,405,469,438
1459,-0.15,-0.98,-0.04,1.16,-3.54,-2.01,309,461,403,464,445
1460,-0.17,-0.98,-0.04,0.18,-3.17,-2.2,310,464,403,466,487
1461,-0.16,-0.98,-0.04,0.43,-3.36,-2.08,314,468,405,463,445
1462,-0.16,-0.98,-0.04,-0.73,-2.56,-2.87,307,467,401,464,446
1463,-0.16,-0.98,-0.05,0.79,-2.32,-2.26,307,466,404,464,445
1464,-0.17,-0.98,-0.04,0.37,-3.42,-2.44,310,467,405,466,445
1465,-0.18,-0.98,-0.04,0.43,-3.11,-1.89,310,466,401,464,448
1466,-0.17,-0.98,-0.04,0.31,-3.6,-3.05,312,466,401,466,442
1467,-0.17,-0.98,-0.05,2.32,-3.11,-1.59,311,470,402,464,439
1468,-0.17,-0.98,-0.06,-1.95,-2.93,-2.93,309,465,404,459,441
1469,-0.16,-0.98,-0.03,2.32,-2.08,-2.69,311,467,402,464,447
1470,-0.19,-0.98,-0.02,0.55,-4.64,-1.65,314,466,403,460,445
1471,-0.18,-0.98,-0.02,2.14,-4.33,-0.24,311,467,404,463,445
1472,-0.19,-0.97,-0.02,1.28,-4.27,-2.26,312,471,403,466,445
1473,-0.19,-0.97,-0.01,-0.49,-4.33,-2.32,311,467,402,466,444
1474,-0.2,-0.97,-0.01,0.12,-3.11,-1.4,313,466,402,472,445
1475,-0.2,-0.98,-0.0,-1.04,-3.54,-2.93,314,474,402,465,442
1476,-0.19,-0.97,-0.01,-0.73,-3.42,-2.14,312,462,403,462,443
1477,-0.2,-0.97,-0.01,0.06,-3.3,-3.23,313,467,405,464,444
1478,-0.19,-0.98,-0.02,-0.49,-1.95,-2.5,314,467,402,469,440
1479,-0.2,-0.98,-0.01,-2.14,-2.75,-1.89,311,467,399,466,441
1480,-0.19,-0.97,-0.05,-0.85,-1.34,-3.48,313,461,402,465,454
1481,-0.2,-0.98,-0.02,0.73,-2.69,-2.26,311,469,402,464,442
1482,-0.2,-0.97,-0.03,0.06,-0.49,-2.14,311,457,395,465,445
1483,-0.18,-0.98,-0.05,0.55,-3.42,-2.38,310,462,397,460,445
1484,-0.19,-0.98,-0.03,-3.54,-0.24,-6.59,305,468,400,466,441
1485,-0.19,-0.98,-0.04,-1.1,-1.1,-3.23,303,466,407,465,441
1486,-0.18,-0.98,-0.05,-0.24,-1.77,-3.23,303,468,406,465,445
1487,-0.17,-0.98,-0.05,-0.12,-1.89,-6.96,304,465,406,460,444
1488,-0.16,-0.97,-0.07,0.85,-4.88,-2.26,307,467,406,467,444
1489,-0.17,-0.98,-0.05,-0.31,-2.2,-2.44,308,466,405,463,445
1490,-0.17,-0.98,-0.05,0.49,-4.21,-2.32,303,469,405,466,444
1491,-0.17,-0.98,-0.06,-0.31,-3.23,-2.62,305,469,406,463,442
1492,-0.18,-0.98,-0.05,0.43,-2.75,-2.5,307,468,406,463,447
1493,-0.18,-0.98,-0.05,0.61,-3.6,-2.62,304,467,408,464,447
1494,-0.18,-0.98,-0.06,0.12,-3.66,-2.69,307,461,406,464,445
1495,-0.17,-0.97,-0.05,0.43,-3.72,-2.81,309,465,407,468,448
1496,-0.18,-0.98,-0.04,0.85,-3.54,-3.05,309,460,405,464,441
1497,-0.18,-0.98,-0.05,0.12,-3.36,-2.5,310,461,405,464,442
1498,-0.17,-0.98,-0.04,0.06,-3.48,-2.44,308,470,405,464,444
1499,-0.2,-0.99,-0.04,1.34,-3.36,-2.26,310,468,401,462,447
1500,-0.18,-0.98,-0.05,-0.24,-3.42,-2.08,312,462,407,465,445
1501,-0.17,-0.97,-0.04,-0.43,-1.59,-3.17,309,462,407,468,487
1502,-0.2,-0.98,-0.02,-0.55,-4.58,-4.21,313,467,408,466,446
1503,-0.13,-0.87,0.49,-0.92,-4.21,-3.36,292,474,450,482,468
1504,-0.12,-0.88,0.46,-4.21,-2.01,-1.22,294,470,451,488,466
1505,-0.13,-0.88,0.47,-1.4,-2.81,-2.56,291,469,450,486,467
1506,-0.1,-0.88,0.45,-1.65,-5.25,-2.08,293,465,445,486,467
1507,-0.12,-0.88,0.46,-0.06,-4.03,-4.33,292,468,449,486,468
1508,-0.12,-0.88,0.46,3.05,-3.6,-3.11,291,464,450,489,467
1509,-0.13,-0.88,0.46,-0.67,-2.5,-3.05,295,471,449,489,475
1510,-0.14,-0.87,0.47,2.56,-2.01,-4.7,294,472,449,488,467
1511,-0.12,-0.88,0.45,4.7,-4.39,-3.85,302,470,449,485,469
1512,-0.12,-0.88,0.45,2.75,-2.44,-4.39,295,464,445,489,464
1513,-0.13,-0.88,0.47,-1.59,-2.5,-2.87,292,466,446,483,467
1514,-0.15,-0.88,0.47,-0.73,-1.59,-4.7,291,471,442,484,468
1515,-0.11,-0.89,0.45,-0.85,0.06,-4.03,294,469,447,485,468
1516,-0.11,-0.88,0.47,-0.98,-2.26,-2.87,297,465,441,487,467
1517,-0.11,-0.88,0.47,1.28,-4.27,-3.91,294,481,443,485,462
1518,-0.09,-0.88,0.5,15.56,-1.04,-1.28,294,469,443,487,463
1519,-0.14,-0.88,0.46,-6.59,-4.21,-2.2,293,481,444,484,466
1520,-0.12,-0.89,0.45,0.12,-2.81,-3.54,291,469,443,480,468
1521,-0.11,-0.88,0.45,-0.06,-4.46,-4.52,295,472,445,480,464
1522,-0.12,-0.88,0.49,2.38,-2.69,-1.89,294,463,439,483,462
1523,-0.08,-0.88,0.47,2.2,-3.97,0.0,293,472,440,483,468
1524,-0.09,-0.88,0.46,-1.89,-1.16,0.37,295,468,439,484,465
1525,-0.09,-0.88,0.45,0.0,-3.11,-2.75,291,463,443,490,466
1526,-0.1,-0.89,0.46,-1.34,-3.6,-3.42,298,466,440,482,464
1527,-0.09,-0.88,0.46,1.28,-4.39,-2.44,294,473,437,484,464
1528,-0.1,-0.89,0.45,-0.12,-3.05,-2.14,298,468,438,485,464
1529,-0.09,-0.89,0.45,-0.55,-2.14,-2.62,297,468,437,481,460
1530,-0.09,-0.9,0.45,-0.73,-2.2,-2.93,296,471,435,483,463
1531,-0.09,-0.89,0.44,1.34,-2.75,-3.23,295,467,435,482,484
1532,-0.1,-0.9,0.45,-0.49,0.67,-2.75,294,472,438,481,460
1533,-0.09,-0.89,0.44,2.08,-4.76,-2.38,294,468,440,483,465
1534,-0.09,-0.9,0.45,0.31,-3.17,-2.38,296,468,439,480,463
1535,-0.09,-0.9,0.44,-1.28,-3.23,-3.85,295,480,434,480,463
1536,-0.08,-0.9,0.44,-1.34,-2.01,-2.62,290,469,435,479,463
1537,-0.08,-0.9,0.43,0.55,-2.69,-2.38,293,463,443,482,487
1538,-0.08,-0.91,0.43,-0.24,-2.62,-3.11,296,467,436,478,461
1539,-0.08,-0.9,0.42,1.28,-2.69,-2.62,293,468,438,477,465
1540,-0.08,-0.9,0.42,0.73,-3.42,-2.69,296,468,434,480,466
1541,-0.08,-0.9,0.42,-0.37,-3.3,-2.99,296,471,437,477,461
1542,-0.09,-0.9,0.42,1.65,-2.2,-1.89,296,467,437,480,464
1543,-0.09,-0.91,0.42,1.34,-2.56,-2.56,290,468,434,481,462
1544,-0.09,-0.9,0.43,1.71,-1.34,-3.72,294,472,435,483,464
1545,-0.08,-0.91,0.42,-0.61,-2.26,-2.26,291,468,434,475,458
1546,-0.09,-0.9,0.41,0.18,-2.75,-2.38,292,472,434,480,463
1547,-0.09,-0.91,0.42,1.1,-2.01,-2.81,294,472,434,477,461
1548,-0.11,-0.9,0.42,2.56,-4.03,-7.57,295,473,435,478,462
1549,-0.09,-0.91,0.41,-0.49,-3.17,-1.53,293,469,436,477,463
1550,-0.09,-0.91,0.42,-0.67,-2.01,-2.01,292,466,435,478,460
1551,-0.08,-0.93,0.41,-0.85,-2.93,-5.68,293,464,436,479,460
1552,-0.09,-0.91,0.41,-1.22,-0.73,-1.16,301,464,441,477,460
1553,-0.1,-0.91,0.41,-0.24,-2.62,-2.32,293,472,432,476,461
1554,-0.1,-0.91,0.41,-0.61,-2.2,-1.89,291,467,435,480,461
1555,-0.1,-0.91,0.4,-1.53,-2.81,-3.05,293,474,431,474,460
1556,-0.1,-0.91,0.39,2.69,-5.92,-2.75,294,467,431,475,461
1557,-0.1,-0.91,0.39,0.18,-2.75,-2.69,292,468,428,475,459
1558,-0.1,-0.92,0.41,-4.03,-3.48,-3.11,294,467,431,476,457
1559,-0.1,-1.01,0.21,-31.74,8.54,3.78,295,469,436,476,459
1560,-0.14,-0.95,0.2,-10.38,1.46,0.85,294,468,432,477,456
1561,-0.22,-0.79,0.04,18.31,-19.04,-1.83,297,485,432,476,455
1562,-0.13,-0.84,-0.11,-37.6,2.38,-38.09,296,473,423,477,462
1563,-0.15,-0.98,0.09,-9.16,-8.3,-10.13,304,471,426,477,481
1564,-0.19,-0.98,0.18,7.69,-4.94,2.32,300,468,425,474,460
1565,-0.22,-0.97,0.09,-1.16,-3.05,-1.89,299,471,425,478,459
1566,-0.19,-0.99,0.13,-7.14,1.53,-5.62,300,467,426,475,455
1567,-0.16,-0.98,0.08,-2.5,-6.96,-3.3,298,471,426,479,459
1568,-0.17,-0.97,0.05,0.55,-9.7,0.61,296,471,426,475,457
1569,-0.19,-0.98,0.07,1.1,-3.23,-1.1,301,472,426,477,458
1570,-0.19,-0.97,0.01,-1.22,-2.14,-1.22,299,471,425,475,458
1571,-0.19,-0.97,0.0,3.91,-4.15,-0.92,302,475,422,481,469
1572,-0.2,-0.97,0.03,4.94,-3.97,-2.14,301,472,428,479,458
1573,-0.2,-0.98,0.06,-1.53,-2.38,-2.93,307,474,424,476,459
1574,-0.19,-0.98,0.02,-2.99,-3.11,-3.72,302,475,428,475,459
1575,-0.19,-0.97,0.02,2.32,-3.48,-1.59,301,469,423,480,454
1576,-0.19,-0.98,0.02,-1.34,-3.11,-1.59,300,476,426,479,457
1577,-0.2,-0.98,0.05,0.73,-2.26,-2.69,300,471,426,475,458
1578,-0.21,-0.98,0.06,2.01,-4.58,-1.65,302,472,422,473,457
1579,-0.2,-0.97,0.04,-0.55,-1.28,-2.62,303,471,424,475,455
1580,-0.21,-0.98,0.04,-2.08,-1.71,-1.53,302,476,423,476,456
1581,-0.21,-0.97,0.07,-3.48,-3.05,-6.59,304,473,424,477,452
1582,-0.19,-0.97,0.05,4.15,-6.41,-0.85,302,476,423,478,456
1583,-0.19,-0.98,0.05,0.18,0.12,-3.48,303,473,425,478,455
1584,-0.2,-0.97,0.06,1.59,0.18,-2.26,301,475,424,478,457
1585,-0.17,-0.98,0.05,0.98,-1.83,-4.39,300,471,419,478,457
1586,-0.16,-0.98,0.05,1.4,-3.54,-1.53,308,475,423,478,456
1587,-0.15,-0.98,0.1,-0.73,-2.93,-4.7,302,478,423,477,457
1588,-0.15,-0.99,0.09,5.31,-2.69,-9.95,312,471,421,475,464
1589,-0.11,-0.98,0.1,3.23,1.1,-2.56,322,469,421,475,463
1590,-0.15,-0.97,0.04,-1.04,4.33,0.79,308,475,419,485,465
1591,-0.13,-0.98,0.06,-1.1,-2.14,-5.37,303,469,422,478,465
1592,-0.08,-0.98,0.03,-7.87,-14.28,-4.58,302,472,417,475,464
1593,-0.1,-0.99,0.04,2.93,-1.95,-1.53,302,471,413,473,462
1594,-0.1,-0.99,0.03,-2.56,-1.34,-4.7,298,476,415,477,461
1595,-0.09,-1.0,0.02,1.16,1.65,-4.15,299,472,415,478,461
1596,-0.09,-0.99,0.02,0.24,1.34,-1.4,305,473,420,475,462
1597,-0.12,-1.01,0.06,-4.52,-4.58,2.32,301,476,417,477,461
1598,-0.1,-1.0,0.05,-6.16,-4.64,-1.1,301,471,413,474,472
1599,-0.1,-0.99,0.02,-2.99,-1.16,-2.87,301,472,418,471,462
1600,-0.11,-0.99,-0.0,2.26,-4.03,-2.26,299,474,414,477,460
1601,-0.11,-0.98,-0.0,0.85,-3.85,-1.53,301,476,412,475,461
1602,-0.12,-0.99,0.01,-0.31,-1.4,-2.93,301,473,414,477,460
1603,-0.12,-0.99,0.02,6.47,-4.21,0.49,294,472,415,473,464
1604,-0.15,-0.99,0.03,-0.43,-2.75,-3.05,299,467,417,474,458
1605,-0.13,-0.99,0.03,0.79,-4.58,-2.01,302,473,413,474,463
1606,-0.13,-0.99,-0.0,1.53,-3.36,-1.46,304,475,416,474,461
1607,-0.11,-0.99,0.01,0.98,-3.05,-3.42,301,472,413,474,461
1608,-0.13,-0.99,0.01,-0.49,-2.81,-2.38,301,472,412,475,463
1609,-0.15,-0.99,0.02,1.53,1.46,-0.55,297,474,415,473,460
1610,-0.18,-0.98,0.05,9.83,9.64,0.0,292,472,406,475,460
1611,-0.15,-0.98,0.06,0.61,-4.52,-3.42,296,475,410,476,457
1612,-0.12,-0.99,0.05,2.08,-12.21,-0.79,306,470,409,473,462
1613,-0.15,-0.98,0.04,-0.49,6.29,-3.42,318,474,411,476,464
1614,-0.13,-0.98,0.06,0.49,-1.89,-4.82,307,472,410,479,463
1615,-0.13,-0.98,0.07,1.95,-1.53,-1.77,304,472,410,482,457
1616,-0.14,-0.98,0.07,-0.06,-3.36,-1.4,307,467,406,473,459
1617,-0.13,-0.99,0.07,0.0,-3.97,-2.01,301,470,409,477,461
1618,-0.14,-0.99,0.07,-0.31,-3.36,-2.75,305,475,410,479,459
1619,-0.12,-0.99,0.06,-0.79,-4.94,-3.17,302,472,414,479,460
1620,-0.12,-0.98,0.05,-1.04,-3.48,-3.97,299,474,415,485,459
1621,-0.14,-0.99,0.06,0.67,-1.16,-2.75,304,472,413,481,463
1622,-0.13,-0.99,0.08,1.77,-4.09,-2.08,304,472,414,475,474
1623,-0.13,-0.99,0.07,-0.37,-4.33,-2.32,306,471,410,472,461
1624,-0.13,-0.99,0.07,-0.49,-1.65,-2.75,304,473,418,476,462
1625,-0.13,-0.98,0.06,0.06,-3.6,-2.08,301,475,412,477,462
1626,-0.14,-0.99,0.05,0.49,-3.3,-2.62,307,476,412,473,457
1627,-0.12,-0.98,0.06,1.53,-1.71,-2.44,307,473,411,476,460
1628,-0.14,-0.99,0.06,1.34,-3.78,-1.65,307,472,415,478,459
1629,-0.14,-0.98,0.07,-0.12,-1.04,-2.93,311,473,412,475,463
1630,-0.13,-0.98,0.07,0.43,-2.81,-2.38,301,467,412,475,461
1631,-0.13,-0.99,0.07,-0.43,-4.7,-2.08,306,470,415,476,460
1632,-0.14,-0.98,0.06,0.55,-2.5,-2.62,309,466,414,478,460
1633,-0.14,-0.99,0.06,-0.31,-2.5,-2.26,301,476,410,479,461
1634,-0.13,-0.99,0.06,-0.79,-2.69,-3.3,303,472,411,475,457
1635,-0.13,-0.99,0.06,0.43,-2.99,-2.38,307,472,411,475,462
1636,-0.12,-0.98,0.06,0.98,-2.87,-2.69,308,469,414,475,462
1637,-0.13,-0.98,0.06,1.16,-3.3,-2.2,306,468,414,475,460
1638,-0.14,-0.98,0.08,0.43,-2.69,-2.69,307,471,410,474,461
1639,-0.15,-0.99,0.07,0.37,-2.08,-2.62,306,468,412,475,461
1640,-0.14,-0.98,0.07,0.61,-2.14,-2.14,304,476,411,475,460
1641,-0.13,-0.99,0.07,0.06,-4.03,-2.93,308,478,413,477,491
1642,-0.13,-0.98,0.06,-0.55,-2.81,-2.69,309,471,411,476,462
1643,-0.14,-0.99,0.06,0.43,-3.11,-1.77,301,471,414,475,460
1644,-0.15,-0.98,0.08,-0.06,-3.54,-2.14,307,467,411,476,460
1645,-0.15,-0.99,0.06,0.67,-3.54,-2.32,308,474,414,471,458
1646,-0.14,-0.98,0.06,0.18,-2.69,-2.14,307,472,413,474,470
1647,-0.15,-0.98,0.06,1.34,-2.93,-2.26,308,472,414,479,458
1648,-0.13,-0.98,0.08,1.22,-2.5,-3.3,307,476,410,473,459
1649,-0.16,-0.98,0.05,0.49,-3.3,-2.32,304,475,411,476,456
1650,-0.14,-0.98,0.06,-0.61,-3.23,-4.27,308,470,413,475,462
1651,-0.15,-0.98,0.07,1.22,-2.87,-2.14,306,471,410,475,457
1652,-0.14,-0.98,0.06,-0.92,-3.17,-4.27,309,472,410,473,459
1653,-0.14,-0.98,0.06,0.43,-3.6,-2.5,308,477,407,471,460
1654,-0.14,-0.98,0.05,1.1,-3.54,0.0,308,472,411,475,461
1655,-0.13,-0.98,0.05,0.12,-2.44,-2.75,308,471,408,469,457
1656,-0.15,-0.98,0.07,-0.43,-5.19,-3.3,310,467,412,474,459
1657,-0.15,-0.98,0.06,-0.85,-0.37,-2.62,310,466,412,474,458
1658,-0.14,-0.99,0.06,0.0,-2.99,-2.26,308,473,412,476,459
1659,-0.14,-0.98,0.06,0.73,-3.54,-2.56,311,471,409,477,459
1660,-0.14,-0.99,0.06,0.43,-3.42,-2.5,312,476,407,474,460
1661,-0.14,-0.99,0.07,-0.12,-2.93,-2.69,316,472,410,475,456
1662,-0.13,-0.99,0.06,0.61,-2.14,-1.77,315,472,408,475,458
1663,-0.13,-0.98,0.06,0.98,-4.09,-1.71,308,470,409,470,459
1664,-0.14,-0.98,0.07,0.31,-3.78,-1.95,307,476,407,473,456
1665,-0.14,-0.98,0.06,0.73,-3.17,-2.2,311,471,407,475,458
1666,-0.15,-0.99,0.06,0.85,-3.48,-2.26,308,475,407,476,460
1667,-0.14,-0.98,0.05,0.49,-2.81,-2.32,309,482,409,475,459
1668,-0.14,-0.98,0.06,0.49,-3.48,-3.6,308,476,417,479,484
1669,-0.14,-0.98,0.06,0.55,-3.48,-2.32,310,471,408,473,457
1670,-0.14,-0.98,0.05,0.18,-3.17,-2.2,309,467,408,473,457
1671,-0.15,-0.99,0.05,-0.18,-2.56,-1.83,310,473,411,472,457
1672,-0.14,-0.99,0.06,-0.85,-3.97,-2.32,309,477,410,476,455
1673,-0.14,-0.98,0.06,-1.65,-3.23,-1.59,311,474,409,469,460
1674,-0.15,-0.98,0.06,-0.06,-2.44,-2.62,312,472,407,473,455
1675,-0.15,-0.98,0.05,0.85,-4.09,-2.87,312,476,407,470,457
1676,-0.16,-0.99,0.06,0.98,-3.72,-2.62,310,473,407,472,455
1677,-0.15,-0.98,0.07,0.43,-4.33,-3.54,312,470,410,471,460
1678,-0.15,-0.98,0.06,-0.43,-1.95,-2.62,314,471,407,471,458
1679,-0.15,-0.98,0.07,-0.18,-2.62,-2.44,311,473,408,475,459
1680,-0.15,-0.98,0.06,0.37,-2.44,-1.95,313,469,407,470,456
1681,-0.15,-0.98,0.07,-0.06,-2.99,-2.32,313,470,408,474,453
1682,-0.15,-0.98,0.05,0.24,-3.17,-3.66,311,468,407,474,455
1683,-0.14,-0.98,0.07,1.77,-2.56,-2.87,309,476,406,469,459
1684,-0.15,-0.98,0.07,-0.24,-3.66,-2.38,313,472,409,472,453
1685,-0.14,-0.98,0.07,-0.43,-2.44,-2.08,307,470,411,469,457
1686,-0.15,-0.98,0.07,0.49,-3.91,-1.46,310,471,409,472,460
1687,-0.15,-0.99,0.07,-0.43,-2.81,-2.75,315,471,407,471,456
1688,-0.15,-0.98,0.07,-0.37,-2.87,-2.32,313,482,407,471,458
1689,-0.16,-0.98,0.06,-0.37,-2.5,-3.17,314,472,409,471,452
1690,-0.14,-0.98,0.05,0.61,-4.27,-2.01,310,480,406,471,456
1691,-0.15,-0.98,0.07,0.85,-5.31,-1.28,314,467,410,471,459
1692,-0.15,-0.98,0.07,1.04,-3.42,-4.39,314,472,407,470,472
1693,-0.14,-0.98,0.07,-1.59,-2.08,-2.81,314,468,410,473,454
1694,-0.15,-0.98,0.08,-0.06,-2.99,-1.83,317,472,406,468,458
1695,-0.16,-0.98,0.07,-0.12,-2.81,-2.5,318,472,406,470,455
1696,-0.15,-0.98,0.07,-0.18,-3.05,-2.69,315,472,405,474,454
1697,-0.16,-0.98,0.06,0.18,-2.32,-2.62,312,467,404,472,457
1698,-0.15,-0.98,0.06,0.37,-3.05,-2.75,312,468,409,468,456
1699,-0.15,-0.98,0.06,0.31,-2.93,-2.56,312,476,407,468,457
1700,-0.14,-0.98,0.07,0.43,-2.26,-3.6,311,476,403,473,459
1701,-0.16,-0.98,0.07,0.55,-3.48,-2.69,312,472,406,470,455
1702,-0.15,-0.98,0.07,-0.06,-3.48,-2.08,312,473,406,471,456
1703,-0.15,-0.98,0.06,-0.73,-3.66,-2.5,312,466,407,469,454
1704,-0.15,-0.98,0.07,0.92,-2.99,-2.2,313,471,406,469,452
1705,-0.15,-0.98,0.07,-0.98,-2.2,-3.05,311,472,406,473,457
1706,-0.15,-0.98,0.07,0.43,-3.36,-2.87,312,471,409,471,455
1707,-0.15,-0.99,0.07,-0.73,-3.05,-2.99,313,469,408,470,456
1708,-0.15,-0.98,0.07,1.77,-3.36,-2.44,315,471,404,473,455
1709,-0.14,-0.98,0.07,0.61,-2.99,-2.5,314,476,405,470,452
1710,-0.17,-0.99,0.08,-0.43,-2.32,-2.62,316,471,413,470,455
1711,-0.15,-0.98,0.08,-0.37,-3.17,-3.05,314,473,406,470,458
1712,-0.15,-0.98,0.07,0.12,-2.99,-2.69,316,472,406,470,459
1713,-0.16,-0.98,0.07,0.43,-2.56,-2.32,313,475,411,473,457
1714,-0.15,-0.98,0.06,-0.61,-2.75,-2.14,315,475,417,469,453
1715,-0.15,-0.98,0.05,0.43,-4.09,-2.5,317,471,400,466,452
1716,-0.16,-0.98,0.08,0.49,-2.81,-2.38,316,468,407,466,454
1717,-0.16,-0.98,0.07,1.28,-3.42,-2.62,317,475,409,472,455
1718,-0.15,-0.98,0.08,-0.73,-2.99,-3.17,318,472,413,469,454
1719,-0.15,-0.98,0.07,-1.16,-3.17,-3.54,316,472,405,468,448
1720,-0.15,-0.98,0.06,0.85,-3.54,-1.95,313,471,400,466,453
1721,-0.15,-0.98,0.07,-0.31,-5.0,-2.01,319,477,406,471,452
1722,-0.15,-0.98,0.06,-0.12,-2.56,-1.95,322,473,403,472,452
1723,-0.14,-0.98,0.05,0.37,-1.95,-2.87,316,476,405,468,456
1724,-0.15,-0.98,0.03,0.67,-3.48,-2.32,315,473,400,472,454
1725,-0.15,-0.98,0.05,0.85,-2.62,-3.11,317,470,408,467,456
1726,-0.13,-0.98,0.06,1.16,-3.17,-2.26,314,471,403,471,454
1727,-0.16,-0.98,0.06,0.06,-2.38,-2.14,319,475,400,469,453
1728,-0.15,-0.98,0.06,0.55,-2.93,-2.08,319,469,404,468,456
1729,-0.16,-0.98,0.06,1.1,-3.11,-2.01,316,470,415,465,454
1730,-0.15,-0.98,0.07,0.12,-3.05,-2.5,318,475,411,472,454
1731,-0.16,-0.98,0.05,-0.18,-3.42,-2.32,315,467,403,468,457
1732,-0.15,-0.98,0.07,1.28,-2.99,-2.01,316,472,404,467,457
1733,-0.16,-0.98,0.07,0.61,-3.42,-3.17,314,474,401,472,453
1734,-0.17,-0.98,0.08,1.16,-2.87,-2.14,317,470,404,470,454
1735,-0.15,-0.98,0.08,-0.31,-2.01,-3.36,319,469,403,470,454
1736,-0.15,-0.98,0.07,0.18,-2.26,-2.01,317,474,403,467,455
1737,-0.15,-0.98,0.06,-0.98,-2.38,-3.6,311,472,405,468,454
1738,-0.15,-0.98,0.05,-0.37,-3.48,-2.81,314,471,404,464,454
1739,-0.14,-0.98,0.05,0.43,-4.09,-2.5,317,472,402,467,452
1740,-0.15,-0.98,0.05,1.53,-3.54,-1.53,315,468,404,469,456
1741,-0.14,-0.98,0.06,-0.85,-1.34,-6.96,315,472,403,466,453
1742,-0.14,-0.98,0.06,0.49,-2.44,-2.87,317,471,405,469,453
1743,-0.15,-0.98,0.05,-0.73,2.56,-2.93,315,465,403,471,454
1744,-0.15,-0.98,0.06,-0.92,-8.97,-3.17,313,474,402,471,455
1745,-0.14,-0.98,0.05,-0.49,-0.92,-2.87,313,471,400,471,454
1746,-0.15,-0.98,0.05,1.4,-3.11,-2.14,312,467,398,468,450
1747,-0.15,-0.98,0.05,1.22,-2.69,-2.08,310,472,401,465,456
1748,-0.15,-0.98,0.06,2.2,-2.01,-3.36,308,470,398,470,456
1749,-0.15,-0.99,0.07,1.65,-0.12,-2.81,302,466,398,470,455
1750,-0.15,-0.98,0.04,-2.5,-1.83,-5.25,306,470,394,469,453
1751,-0.16,-0.99,0.05,-4.03,-6.1,-6.1,305,469,399,466,456
1752,-0.13,-0.99,0.03,-6.59,-2.81,-3.66,308,467,396,463,449
1753,-0.12,-0.98,0.01,-3.36,-13.12,15.32,308,473,400,464,456
1754,-0.19,-0.98,0.01,2.44,2.32,-6.41,307,469,407,467,453
1755,-0.18,-0.98,0.02,3.48,-2.87,-2.75,306,470,406,467,453
1756,-0.17,-0.98,0.01,1.4,-4.46,-2.01,305,469,407,471,452
1757,-0.17,-0.98,0.02,2.87,-4.27,-1.59,305,470,416,468,454
1758,-0.16,-0.98,0.03,1.53,-5.25,-2.32,305,473,406,467,453
1759,-0.18,-0.98,0.04,8.3,0.12,-4.33,309,469,412,470,465
1760,-0.16,-0.98,0.04,2.08,0.92,15.5,308,469,406,465,453
1761,-0.23,-0.98,0.08,-9.34,-8.97,-9.52,305,463,410,465,454
1762,-0.16,-0.97,0.04,1.28,-4.76,-2.01,305,472,408,468,455
1763,-0.2,-0.98,0.06,4.52,-8.12,-0.12,305,473,407,468,455
1764,-0.21,-0.98,0.1,-4.7,0.98,-5.0,307,471,405,466,452
1765,-0.15,-0.98,-0.03,-12.15,-1.46,-11.72,305,466,409,468,452
1766,-0.17,-0.97,0.0,7.87,-5.92,-3.36,303,467,407,466,453
1767,-0.17,-0.98,0.04,0.0,-2.56,-3.36,304,468,406,467,452
1768,-0.17,-0.98,0.02,-0.43,-3.11,-3.17,303,467,405,465,452
1769,-0.18,-0.98,0.06,-1.34,-2.99,-3.11,303,470,402,465,453
1770,-0.16,-0.98,0.05,1.34,-2.99,-1.46,305,468,402,465,440
1771,-0.17,-0.98,0.02,2.01,-3.72,-1.65,307,467,406,465,453
1772,-0.16,-0.98,0.02,-1.04,-2.75,-3.23,303,469,407,469,455
1773,-0.17,-0.98,0.02,0.24,-2.75,-2.62,306,472,408,466,453
1774,-0.16,-0.98,0.03,-2.32,-2.56,-4.46,305,463,404,465,452
1775,-0.16,-0.98,0.02,2.32,-3.91,-1.53,315,473,405,465,452
1776,-0.17,-0.98,0.02,-0.24,-3.97,-2.01,304,471,405,464,454
1777,-0.16,-0.98,0.02,0.37,-4.03,-1.95,302,468,403,467,453
1778,-0.19,-0.98,0.04,0.73,-2.56,-2.62,306,467,408,469,452
1779,-0.18,-0.98,0.03,0.92,-3.48,-2.5,304,470,401,466,451
1780,-0.18,-0.98,0.02,-0.67,-2.44,-3.36,307,467,406,464,482
1781,-0.17,-0.98,0.03,0.98,-3.85,-2.14,306,470,405,465,452
1782,-0.16,-0.98,0.03,-0.67,-4.52,-2.99,303,466,405,466,452
1783,-0.16,-0.98,0.03,0.43,-2.87,-2.81,308,469,405,466,452
1784,-0.17,-0.98,0.03,0.73,-3.72,-2.44,305,469,408,468,455
1785,-0.16,-0.98,0.03,0.67,-4.09,-2.44,302,468,403,466,452
1786,-0.17,-0.98,0.04,0.43,-3.48,-2.93,304,470,405,463,450
1787,-0.17,-0.98,0.03,0.0,-2.93,-1.95,307,472,406,463,455
1788,-0.15,-0.98,0.02,0.06,-2.75,-3.17,306,467,406,467,452
1789,-0.16,-0.98,0.02,-0.92,-4.39,-3.3,308,471,406,464,450
1790,-0.17,-0.98,0.02,0.12,-1.04,-3.66,306,463,405,468,455
1791,-0.16,-0.98,0.01,-0.18,-3.17,-2.32,308,469,407,464,452
1792,-0.15,-0.98,0.02,-0.31,-3.42,-3.3,307,470,406,466,449
1793,-0.17,-0.98,0.02,2.62,-4.33,-1.16,304,465,409,463,452
1794,-0.16,-0.98,0.03,0.43,-2.44,-2.69,308,474,408,469,448
1795,-0.15,-0.98,0.01,2.32,-5.31,-1.04,305,471,414,467,453
1796,-0.16,-0.98,0.03,-1.28,-2.56,-3.17,308,469,402,467,452
1797,-0.18,-0.98,0.03,1.4,-4.15,-0.61,308,464,410,469,451
1798,-0.17,-0.98,0.02,0.18,-2.38,-3.23,307,469,402,466,455
1799,-0.18,-0.98,0.02,0.61,-2.26,-2.75,308,468,406,467,452
1800,-0.16,-0.99,0.03,0.79,-2.69,-2.93,308,463,407,468,453
1801,-0.18,-0.98,0.02,1.28,-4.33,-2.26,308,472,410,465,453
1802,-0.16,-0.98,0.03,1.1,-3.91,-1.83,309,469,410,469,454
1803,-0.17,-0.98,0.03,-1.28,-3.78,-4.03,307,464,407,469,455
1804,-0.18,-0.98,0.03,-0.37,-2.56,-1.95,308,469,408,471,454
1805,-0.15,-0.98,0.04,0.24,-2.01,-3.72,310,472,409,471,455
1806,-0.17,-0.98,0.03,1.89,-2.2,-1.83,308,470,412,469,452
1807,-0.17,-0.99,0.04,1.16,-4.7,-0.92,307,468,412,469,453
1808,-0.17,-0.98,0.03,0.31,-2.32,-2.01,310,469,411,470,452
1809,-0.18,-0.99,0.03,-1.1,-3.48,-2.38,309,467,410,470,453
1810,-0.17,-0.98,0.0,-0.49,-4.76,-3.78,306,464,409,468,452
1811,-0.18,-0.99,0.02,0.37,2.08,-2.56,309,472,411,470,460
1812,-0.16,-0.98,0.03,-1.22,-4.03,-3.66,309,470,409,472,452
1813,-0.17,-0.98,0.03,0.61,-2.62,-2.81,308,469,411,471,452
1814,-0.17,-0.98,0.03,0.98,-2.56,-2.38,312,472,410,472,452
1815,-0.17,-0.98,0.03,-1.53,-1.28,-3.17,305,470,409,468,453
1816,-0.17,-0.98,0.03,0.0,-3.72,-1.95,308,470,414,468,452
1817,-0.18,-0.98,0.03,-0.49,-2.75,-2.99,314,471,410,469,450
1818,-0.17,-0.98,0.03,-0.61,-2.32,-2.87,308,462,408,472,457
1819,-0.17,-0.98,0.03,0.37,-4.39,-1.77,308,466,411,472,444
1820,-0.18,-0.97,0.02,2.56,-1.95,-2.32,308,468,405,472,455
1821,-0.19,-0.98,0.03,0.37,-5.13,-2.26,311,468,408,477,453
1822,-0.17,-0.98,0.03,0.24,-2.44,-3.72,309,468,411,467,447
1823,-0.17,-0.98,0.03,-0.37,-2.75,-3.42,306,469,410,469,454
1824,-0.18,-0.99,0.04,-0.55,-1.1,-2.56,308,473,409,470,440
1825,-0.19,-0.98,0.03,0.43,-3.05,-1.1,309,469,412,470,452
1826,-0.18,-0.98,0.03,0.31,-3.3,-2.56,309,469,411,469,448
1827,-0.18,-0.98,0.03,-0.79,-2.75,-2.75,309,471,409,476,453
1828,-0.17,-0.98,0.02,1.53,-3.91,-2.08,310,469,410,469,452
1829,-0.17,-0.98,0.02,0.0,-3.85,-2.93,310,469,426,471,447
1830,-0.17,-0.98,0.04,1.04,-3.6,-2.69,309,463,407,469,452
1831,-0.18,-0.98,0.03,-0.49,-2.62,-3.48,311,466,407,467,454
1832,-0.18,-0.98,0.02,0.37,-3.23,-2.75,309,468,425,468,454
1833,-0.19,-0.98,0.04,0.06,-2.62,-1.83,308,466,407,472,446
1834,-0.19,-0.98,0.04,0.49,-2.56,-1.95,306,472,409,472,448
1835,-0.18,-0.98,0.02,0.18,-2.5,-2.38,307,468,412,470,451
1836,-0.18,-0.98,0.03,0.06,-3.11,-1.77,309,469,407,470,452
1837,-0.17,-0.98,0.02,2.2,-3.85,-1.95,321,474,409,472,449
1838,-0.17,-0.98,0.02,1.16,-3.85,-3.11,311,470,410,470,451
1839,-0.15,-0.98,0.01,-3.48,-1.77,-5.98,311,464,409,471,451
1840,-0.15,-0.98,-0.01,-3.42,-0.73,-8.24,308,473,409,472,446
1841,-0.16,-0.99,-0.01,-3.11,-2.44,-3.6,310,472,410,471,451
1842,-0.17,-0.99,0.05,5.74,-2.75,0.92,311,464,409,470,451
1843,-0.19,-0.98,-0.08,3.11,-2.5,4.39,308,470,410,471,451
1844,-0.17,-0.98,-0.02,4.46,-1.53,-0.49,312,469,406,470,449
1845,-0.17,-0.98,0.01,0.98,-2.99,-3.23,311,469,408,469,450
1846,-0.17,-0.98,0.02,1.77,-5.86,-6.71,313,464,411,473,451
1847,-0.15,-0.97,0.0,-3.42,-1.77,-4.76,315,469,410,467,450
1848,-0.15,-0.99,-0.0,2.01,-3.11,-3.72,308,470,410,466,452
1849,-0.16,-0.99,0.0,2.5,-5.86,0.06,308,471,410,470,453
1850,-0.15,-0.99,0.0,-0.18,-5.37,-4.94,313,464,409,472,450
1851,-0.15,-0.98,0.0,-1.89,-2.99,-6.41,312,470,413,467,450
1852,-0.16,-0.98,0.0,2.32,-4.58,-1.22,316,470,410,469,451
1853,-0.15,-0.98,0.01,0.92,-3.6,-2.75,315,474,414,472,450
1854,-0.14,-0.97,-0.01,-0.67,-2.44,-2.87,317,470,413,471,449
1855,-0.14,-0.99,0.0,1.04,-1.1,-3.66,316,473,411,465,452
1856,-0.16,-0.99,0.01,2.32,-6.47,-2.44,317,469,410,472,450
1857,-0.15,-0.99,0.0,-0.73,-3.05,-3.85,315,470,410,470,451
1858,-0.15,-0.98,0.01,1.28,-2.81,-3.05,320,472,410,472,450
1859,-0.13,-0.98,-0.02,1.53,-0.55,-4.94,317,466,413,469,447
1860,-0.12,-0.98,0.01,1.22,-3.11,-3.66,319,473,409,470,448
1861,-0.14,-0.98,0.02,0.12,-2.75,-2.26,318,470,409,467,450
1862,-0.15,-0.98,0.01,-0.73,-3.42,-2.93,317,469,410,467,450
1863,-0.14,-0.98,0.0,0.37,-5.19,-3.36,320,469,408,470,448
1864,-0.14,-0.98,-0.01,-1.34,-2.01,-3.11,319,470,414,468,449
1865,-0.13,-0.98,0.0,1.1,-0.85,-2.62,310,472,408,469,450
1866,-0.15,-0.98,0.01,3.17,-0.37,-1.34,304,464,405,467,451
1867,-0.16,-0.98,0.01,3.97,-1.34,-0.79,299,464,404,477,450
1868,-0.15,-0.98,0.01,2.44,-9.52,-1.65,297,467,403,469,448
1869,-0.15,-0.98,0.01,0.0,-0.12,-6.47,299,470,401,465,451
1870,-0.15,-0.99,0.05,-0.98,-2.81,-6.47,298,465,407,468,449
1871,-0.08,-1.0,0.06,-4.46,-10.44,-4.94,304,484,405,471,448
1872,-0.06,-0.96,0.07,14.47,0.79,-7.08,305,467,404,470,452
1873,-0.06,-1.0,0.1,-2.56,-5.19,-5.62,301,470,406,471,450
1874,-0.09,-0.98,0.05,-3.48,-1.34,-1.59,307,467,408,467,445
1875,-0.11,-1.0,-0.01,6.16,3.42,3.36,307,468,411,471,447
1876,-0.13,-0.98,0.04,1.28,3.72,-2.5,304,469,407,470,448
1877,-0.14,-0.98,0.01,1.89,-3.36,2.01,308,468,408,464,445
1878,-0.16,-0.97,0.04,0.67,-6.84,-1.83,307,473,404,471,448
1879,-0.19,-0.98,0.01,0.79,-4.58,-5.19,308,470,405,470,448
1880,-0.18,-0.97,0.0,3.42,-3.78,-1.46,308,472,404,468,449
1881,-0.19,-0.98,0.02,-0.24,-0.31,-2.81,308,473,408,467,443
1882,-0.18,-0.97,0.04,2.38,-3.3,-1.34,308,469,410,470,446
1883,-0.2,-0.98,0.04,-1.34,-0.92,-2.81,308,468,407,463,449
1884,-0.21,-0.96,0.03,3.42,-1.4,-2.2,309,470,407,470,445
1885,-0.19,-0.97,0.03,-0.18,-4.27,-2.93,311,473,408,478,446
1886,-0.19,-0.97,0.03,-0.73,-3.23,-1.95,308,468,407,467,448
1887,-0.2,-0.98,0.04,1.1,-2.75,-2.01,311,467,410,470,446
1888,-0.2,-0.98,0.04,0.06,-1.83,-2.75,308,468,410,468,447
1889,-0.2,-0.98,0.03,-0.67,-2.56,-3.17,309,470,406,469,449
1890,-0.2,-0.97,0.02,-0.55,-2.62,-2.93,311,466,409,466,449
1891,-0.2,-0.98,0.03,-1.16,-2.38,-3.6,310,469,409,467,448
1892,-0.18,-0.97,0.01,1.22,-1.53,-1.4,311,468,405,466,448
1893,-0.17,-0.98,-0.01,-10.07,1.53,-4.88,311,467,410,468,448
1894,-0.18,-0.97,-0.01,-0.06,-2.5,-2.62,308,469,414,465,447
1895,-0.18,-0.98,-0.01,-1.04,-2.38,-3.36,311,471,409,467,446
1896,-0.18,-0.98,-0.01,-0.73,-3.42,-2.08,310,468,409,464,447
1897,-0.18,-0.98,-0.02,0.67,-2.99,-3.11,313,468,412,467,450
1898,-0.19,-0.97,-0.01,0.43,-3.72,-2.14,309,468,409,471,447
1899,-0.18,-0.97,0.0,-2.56,-2.75,-4.33,313,473,408,471,454
1900,-0.17,-0.98,-0.01,-0.43,-3.91,-3.42,308,469,405,465,446
1901,-0.18,-0.98,-0.04,-0.49,-3.42,-2.87,311,465,410,466,449
1902,-0.18,-0.98,-0.01,1.4,-2.62,-2.99,306,471,407,470,436
1903,-0.16,-0.97,-0.02,2.38,-1.46,-5.13,306,468,405,467,443
1904,-0.17,-0.98,0.01,0.06,-2.44,-1.28,308,463,406,465,448
1905,-0.16,-0.98,-0.01,-4.15,-0.92,-5.13,304,471,407,467,448
1906,-0.17,-0.98,-0.01,-2.32,-0.98,-5.74,306,466,409,467,443
1907,-0.13,-0.98,-0.04,0.31,-3.78,-2.44,310,467,405,463,446
1908,-0.15,-0.99,-0.01,0.61,-3.91,-2.44,308,461,404,466,444
1909,-0.15,-0.98,-0.01,0.85,-4.03,-1.77,309,467,408,467,444
1910,-0.15,-0.98,-0.03,0.55,1.77,-3.91,306,463,407,467,444
1911,-0.14,-0.98,-0.04,0.31,-2.01,-2.26,306,469,416,466,446
1912,-0.15,-0.98,-0.02,-2.5,-1.77,-5.0,308,467,405,465,446
1913,-0.15,-0.98,-0.09,-3.6,-6.84,-1.46,306,468,403,464,450
1914,-0.14,-0.98,-0.02,4.15,3.05,-0.67,304,467,409,470,445
1915,-0.13,-0.98,-0.02,1.04,-0.24,-3.78,305,472,405,467,447
1916,-0.15,-0.98,-0.03,3.23,-2.38,-4.09,310,469,409,463,448
1917,-0.16,-0.99,-0.01,0.55,-6.16,-1.95,311,472,406,465,450
1918,-0.13,-0.99,-0.0,1.53,-3.97,-4.27,309,469,406,463,447
1919,-0.12,-0.99,-0.01,0.43,-0.79,-3.72,309,471,412,457,444
1920,-0.15,-0.99,0.0,0.31,-3.36,-2.32,309,467,403,466,451
1921,-0.15,-0.99,-0.03,0.31,-6.04,-2.56,310,471,402,470,444
1922,-0.13,-0.98,-0.0,-1.59,-5.37,-1.28,307,472,408,466,450
1923,-0.14,-0.99,-0.01,-0.67,-2.5,-3.23,314,468,409,465,447
1924,-0.15,-0.99,-0.01,1.1,-2.81,-1.46,309,467,407,468,447
1925,-0.14,-0.98,-0.01,0.61,-1.59,-2.32,311,467,412,466,448
1926,-0.14,-0.99,-0.01,-0.06,-4.39,-2.26,309,465,406,465,445
1927,-0.14,-0.98,-0.02,-0.55,-2.2,-2.56,311,465,407,466,447
1928,-0.14,-0.98,-0.03,0.98,-3.72,-2.62,310,470,406,462,448
1929,-0.14,-0.98,-0.03,-0.06,-2.87,-2.26,311,467,400,467,454
1930,-0.15,-0.98,-0.04,0.0,-3.17,-2.26,311,467,407,467,445
1931,-0.15,-0.98,-0.02,-0.18,-4.15,-2.14,311,469,402,468,475
1932,-0.16,-0.98,-0.02,0.0,-5.37,-2.44,306,466,394,464,443
1933,-0.15,-0.98,-0.03,0.79,-2.08,-2.14,312,464,408,467,446
1934,-0.14,-0.98,-0.03,0.61,0.67,-2.38,312,468,408,466,444
1935,-0.14,-0.98,-0.04,0.61,-0.67,-2.5,310,469,405,465,446
1936,-0.15,-0.98,-0.04,0.92,-3.36,-2.26,309,471,403,466,447
1937,-0.15,-0.98,-0.03,0.06,-3.54,-2.44,313,469,413,464,446
1938,-0.14,-0.98,-0.04,0.06,-3.3,-2.44,309,468,407,460,446
1939,-0.15,-0.98,-0.04,0.55,-3.78,-1.77,313,470,404,465,447
1940,-0.14,-0.98,-0.04,0.12,-2.14,-3.17,310,471,407,465,442
1941,-0.16,-0.98,-0.04,0.12,-4.15,-2.62,311,463,406,465,443
1942,-0.17,-0.98,-0.03,0.79,-4.64,0.43,312,463,396,464,443
1943,-0.14,-0.98,-0.03,1.77,-5.92,-1.1,310,471,410,461,448
1944,-0.15,-0.98,-0.04,0.55,-3.11,-1.77,309,467,406,460,445
1945,-0.16,-0.98,-0.04,-0.92,-3.05,-2.01,310,467,403,465,446
1946,-0.16,-0.98,-0.04,0.73,-2.75,-3.17,312,468,404,464,445
1947,-0.17,-0.98,-0.04,0.61,-3.85,-1.59,306,467,405,463,447
1948,-0.15,-0.98,-0.04,0.49,-3.17,-2.38,313,468,403,464,446
1949,-0.16,-0.98,-0.05,2.14,-3.91,-2.99,307,469,402,461,445
1950,-0.17,-0.98,-0.04,0.43,-3.66,-2.14,311,466,405,467,447
1951,-0.16,-0.98,-0.04,0.49,-2.75,-2.26,311,468,405,460,445
1952,-0.17,-0.98,-0.03,-0.92,-1.95,-3.23,311,467,403,465,442
1953,-0.16,-0.98,-0.03,-1.59,-1.65,-3.23,311,471,402,463,445
1954,-0.16,-0.98,-0.02,0.55,-4.21,-1.53,308,466,400,462,448
1955,-0.15,-0.98,-0.03,0.12,-3.36,-3.05,310,467,405,462,446
1956,-0.17,-0.98,-0.03,-0.55,-2.08,-2.62,311,467,406,464,445
1957,-0.16,-0.98,-0.04,1.53,-4.27,-2.38,311,471,400,464,448
1958,-0.16,-0.99,-0.03,0.92,-2.93,-2.5,311,464,405,462,447
1959,-0.16,-0.98,-0.04,0.18,-3.72,-2.38,311,470,405,469,438
1960,-0.15,-0.98,-0.04,1.16,-3.54,-2.01,309,461,403,464,445
1961,-0.17,-0.98,-0.04,0.18,-3.17,-2.2,310,464,403,466,487
1962,-0.16,-0.98,-0.04,0.43,-3.36,-2.08,314,468,405,463,445
1963,-0.16,-0.98,-0.04,-0.73,-2.56,-2.87,307,467,401,464,446
1964,-0.16,-0.98,-0.05,0.79,-2.32,-2.26,307,466,404,464,445
1965,-0.17,-0.98,-0.04,0.37,-3.42,-2.44,310,467,405,466,445
1966,-0.18,-0.98,-0.04,0.43,-3.11,-1.89,310,466,401,464,448
1967,-0.17,-0.98,-0.04,0.31,-3.6,-3.05,312,466,401,466,442
1968,-0.17,-0.98,-0.05,2.32,-3.11,-1.59,311,470,402,464,439
1969,-0.17,-0.98,-0.06,-1.95,-2.93,-2.93,309,465,404,459,441
1970,-0.16,-0.98,-0.03,2.32,-2.08,-2.69,311,467,402,464,447
1971,-0.19,-0.98,-0.02,0.55,-4.64,-1.65,314,466,403,460,445
1972,-0.18,-0.98,-0.02,2.14,-4.33,-0.24,311,467,404,463,445
1973,-0.19,-0.97,-0.02,1.28,-4.27,-2.26,312,471,403,466,445
1974,-0.19,-0.97,-0.01,-0.49,-4.33,-2.32,311,467,402,466,444
1975,-0.2,-0.97,-0.01,0.12,-3.11,-1.4,313,466,402,472,445
1976,-0.2,-0.98,-0.0,-1.04,-3.54,-2.93,314,474,402,465,442
1977,-0.19,-0.97,-0.01,-0.73,-3.42,-2.14,312,462,403,462,443
1978,-0.2,-0.97,-0.01,0.06,-3.3,-3.23,313,467,405,464,444
1979,-0.19,-0.98,-0.02,-0.49,-1.95,-2.5,314,467,402,469,440
1980,-0.2,-0.98,-0.01,-2.14,-2.75,-1.89,311,467,399,466,441
1981,-0.19,-0.97,-0.05,-0.85,-1.34,-3.48,313,461,402,465,454
1982,-0.2,-0.98,-0.02,0.73,-2.69,-2.26,311,469,402,464,442
1983,-0.2,-0.97,-0.03,0.06,-0.49,-2.14,311,457,395,465,445
1984,-0.18,-0.98,-0.05,0.55,-3.42,-2.38,310,462,397,460,445
1985,-0.19,-0.98,-0.03,-3.54,-0.24,-6.59,305,468,400,466,441
1986,-0.19,-0.98,-0.04,-1.1,-1.1,-3.23,303,466,407,465,441
1987,-0.18,-0.98,-0.05,-0.24,-1.77,-3.23,303,468,406,465,445
1988,-0.17,-0.98,-0.05,-0.12,-1.89,-6.96,304,465,406,460,444
1989,-0.16,-0.97,-0.07,0.85,-4.88,-2.26,307,467,406,467,444
1990,-0.17,-0.98,-0.05,-0.31,-2.2,-2.44,308,466,405,463,445
1991,-0.17,-0.98,-0.05,0.49,-4.21,-2.32,303,469,405,466,444
1992,-0.17,-0.98,-0.06,-0.31,-3.23,-2.62,305,469,406,463,442
1993,-0.18,-0.98,-0.05,0.43,-2.75,-2.5,307,468,406,463,447
1994,-0.18,-0.98,-0.05,0.61,-3.6,-2.62,304,467,408,464,447
1995,-0.18,-0.98,-0.06,0.12,-3.66,-2.69,307,461,406,464,445
1996,-0.17,-0.97,-0.05,0.43,-3.72,-2.81,309,465,407,468,448
1997,-0.18,-0.98,-0.04,0.85,-3.54,-3.05,309,460,405,464,441
1998,-0.18,-0.98,-0.05,0.12,-3.36,-2.5,310,461,405,464,442
1999,-0.17,-0.98,-0.04,0.06,-3.48,-2.44,308,470,405,464,444
2000,-0.2,-0.99,-0.04,1.34,-3.36,-2.26,310,468,401,462,447
2001,-0.18,-0.98,-0.05,-0.24,-3.42,-2.08,312,462,407,465,445
2002,-0.17,-0.97,-0.04,-0.43,-1.59,-3.17,309,462,407,468,487
2003,-0.2,-0.98,-0.02,-0.55,-4.58,-4.21,313,467,408,466,446
