,aX,aY,aZ,gX,gY,gZ,little,ring,middle,index,thumb
0,0.18,0.95,0.26,-2.14,1.65,-9.09,346,447,402,244,192
1,0.11,0.95,0.29,-0.12,3.05,-6.23,344,446,406,243,192
2,0.15,0.95,0.27,0.43,-0.31,-3.78,344,447,401,256,195
3,0.16,0.95,0.27,1.4,-4.27,-0.79,347,450,405,247,194
4,0.14,0.94,0.27,0.55,-3.48,-1.22,341,453,402,243,196
5,0.14,0.96,0.27,2.2,-3.85,-4.03,348,454,408,248,198
6,0.13,0.95,0.26,6.84,-1.65,-4.09,343,450,413,249,195
7,0.14,0.94,0.27,0.61,-3.66,-3.6,345,445,402,246,194
8,0.15,0.97,0.29,0.0,-8.48,-7.63,343,443,405,246,195
9,0.11,0.98,0.26,-2.14,-5.74,-10.07,346,448,405,245,200
10,0.12,0.96,0.26,-0.98,-10.99,-6.9,346,454,406,247,196
11,0.08,0.91,0.26,8.18,3.91,-7.87,346,451,407,249,200
12,0.08,0.96,0.27,1.22,2.93,-4.7,346,454,409,247,198
13,0.09,0.96,0.29,2.14,-1.95,-1.4,348,454,408,249,200
14,0.09,0.94,0.28,-5.49,-4.76,0.43,342,453,405,248,200
15,0.08,0.95,0.3,-0.61,-3.72,-3.6,346,449,405,251,196
16,0.08,0.95,0.3,-1.28,-3.23,-2.44,345,455,407,248,197
17,0.08,0.95,0.31,-0.18,-2.81,-3.3,341,455,408,252,197
18,0.09,0.93,0.29,-1.89,-3.97,-2.69,345,453,406,251,196
19,0.09,0.96,0.3,0.12,-3.36,-3.6,346,451,405,249,201
20,0.08,0.95,0.3,-0.18,-1.83,-3.23,355,454,404,252,198
21,0.08,0.95,0.29,-0.37,-3.6,-1.04,346,455,402,249,199
22,0.1,0.94,0.3,-1.59,-4.39,-2.26,342,448,407,249,199
23,0.1,0.95,0.32,1.22,-3.23,-3.23,343,455,404,250,204
24,0.08,0.95,0.31,2.93,-3.05,-1.4,344,449,408,251,201
25,0.08,0.95,0.29,0.67,-0.92,-1.95,344,452,409,252,202
26,0.08,0.94,0.31,0.85,-2.99,-3.85,349,445,405,249,200
27,0.09,0.94,0.31,-0.98,-3.72,-1.89,345,454,402,248,201
28,0.08,0.93,0.3,-1.04,-3.3,-3.3,346,454,405,250,201
29,0.09,0.96,0.31,0.61,-1.77,-4.7,349,450,407,250,202
30,0.06,0.95,0.31,0.73,-2.14,-1.77,347,450,410,250,228
31,0.05,0.95,0.32,0.55,-2.62,-3.23,346,447,404,249,200
32,0.08,0.95,0.32,1.4,-4.09,-3.3,350,452,407,254,201
33,0.07,0.94,0.3,-1.04,-1.28,-1.71,347,451,403,248,203
34,0.07,0.94,0.31,0.79,-2.99,-2.14,349,453,402,248,202
35,0.07,0.95,0.31,0.61,-2.93,-2.56,347,447,406,252,201
36,0.08,0.96,0.32,-0.79,-2.75,-3.11,346,452,409,251,204
37,0.08,0.95,0.31,0.73,-4.33,-2.14,347,454,406,251,204
38,0.08,0.94,0.32,1.83,-5.98,-5.0,347,451,406,251,204
39,0.05,0.95,0.32,0.61,-0.55,-4.46,349,452,403,254,204
40,0.05,0.94,0.32,0.67,-0.31,-0.92,351,456,408,253,202
41,0.08,0.94,0.31,-2.38,-2.38,-0.43,347,447,402,253,201
42,0.06,0.95,0.34,0.49,-4.33,-9.52,347,447,407,253,203
43,0.01,0.93,0.35,4.27,-0.92,-2.62,350,455,405,254,207
44,0.0,0.94,0.31,3.6,2.44,-0.79,347,456,403,257,203
45,0.05,0.98,0.3,9.28,-8.54,1.04,341,455,414,251,200
46,0.09,0.99,0.3,5.74,-1.28,6.84,347,453,405,253,204
47,0.13,0.98,0.33,-4.39,0.31,2.5,346,447,401,253,204
48,0.11,0.96,0.23,-1.89,-1.1,-1.95,351,456,406,253,206
49,0.12,0.92,0.26,-1.71,-1.4,-4.09,347,446,407,256,205
50,0.08,1.06,0.34,-2.08,-2.69,-7.63,348,453,401,254,208
51,0.12,0.96,0.29,-4.94,-4.7,3.05,347,454,406,256,209
52,0.09,0.93,0.25,-5.37,-5.07,-1.83,350,453,403,263,208
53,0.09,0.95,0.32,-1.95,-10.13,5.31,350,454,405,261,207
54,0.11,0.96,0.32,2.75,-6.84,-2.2,344,451,403,260,207
55,0.05,0.93,0.3,2.26,-5.31,-0.85,350,454,403,258,209
56,0.09,0.95,0.34,-7.93,-5.68,-1.1,346,445,401,261,205
57,0.03,0.94,0.35,-0.92,-4.09,-2.81,346,458,401,259,208
58,0.08,0.88,0.31,4.82,-2.99,2.26,346,450,403,259,208
59,0.04,0.94,0.37,-1.28,-7.69,0.43,345,455,405,262,209
60,0.05,0.91,0.35,-5.62,-3.85,-3.17,347,452,406,262,205
61,0.06,0.92,0.37,0.18,-4.7,-1.22,347,449,403,259,208
62,0.06,0.92,0.33,1.16,-2.01,0.12,347,448,406,263,210
63,0.04,0.94,0.34,-2.2,-4.94,-0.12,346,451,404,260,210
64,0.09,0.92,0.36,2.38,-0.24,-0.98,347,451,411,261,208
65,0.08,0.93,0.35,2.26,-3.36,-2.5,346,450,404,262,208
66,0.07,0.93,0.36,0.73,-3.6,-1.46,345,455,402,261,213
67,0.07,0.94,0.36,-1.89,-3.97,-3.6,350,446,407,261,211
68,0.07,0.91,0.35,0.49,-3.42,-4.76,343,448,406,264,207
69,0.09,0.93,0.36,-1.89,-3.23,-0.85,345,452,405,261,208
70,0.07,0.9,0.41,-6.35,-2.32,1.83,345,452,406,264,209
71,0.13,0.91,0.39,1.04,0.24,1.34,344,455,407,265,209
72,0.11,0.92,0.38,1.59,-5.07,-3.72,346,451,410,265,207
73,0.11,0.9,0.38,-1.95,-4.39,-0.61,347,452,400,263,211
74,0.13,0.91,0.4,-0.61,-3.05,-2.01,346,453,404,261,212
75,0.13,0.92,0.39,3.72,-2.2,-5.0,347,455,403,260,212
76,0.12,0.92,0.38,3.05,0.61,-5.43,347,453,401,263,207
77,0.13,0.92,0.39,2.5,-2.08,0.12,346,446,404,261,209
78,0.13,0.9,0.37,1.53,-4.27,-1.95,349,453,404,263,210
79,0.12,0.91,0.38,-0.92,-2.81,-1.59,345,453,406,264,212
80,0.14,0.91,0.37,0.37,-4.03,-5.62,347,455,402,266,211
81,0.13,0.9,0.38,-2.26,-3.11,-1.4,343,456,408,277,213
82,0.15,0.91,0.38,-0.06,-2.81,-0.67,345,453,406,263,209
83,0.15,0.91,0.39,1.22,-2.62,-2.08,342,449,403,264,205
84,0.15,0.91,0.39,0.61,-2.38,-1.95,346,456,403,263,214
85,0.15,0.91,0.4,-0.43,-2.69,-2.5,345,446,403,266,213
86,0.16,0.91,0.39,2.99,-2.62,-2.75,346,453,405,266,211
87,0.14,0.9,0.39,-1.83,-2.01,-2.08,345,452,404,266,212
88,0.14,0.9,0.4,-2.75,-3.48,-2.38,347,452,399,266,208
89,0.13,0.9,0.41,-1.95,-2.26,-3.48,347,455,400,264,209
90,0.16,0.91,0.4,0.67,-1.95,-2.01,346,453,402,266,212
91,0.14,0.91,0.41,0.79,-3.78,-2.81,349,448,401,264,210
92,0.15,0.9,0.4,0.31,-4.15,-0.92,344,453,401,265,213
93,0.15,0.9,0.41,2.62,-1.65,-3.42,342,450,401,266,212
94,0.13,0.9,0.4,0.98,0.98,-4.39,346,450,407,267,215
95,0.13,0.91,0.39,0.61,-2.99,-2.38,344,451,403,263,206
96,0.13,0.9,0.4,0.12,-3.91,-1.53,344,448,400,267,214
97,0.13,0.9,0.4,-0.98,-3.91,-2.01,344,450,405,267,210
98,0.13,0.89,0.41,-1.53,-3.78,-1.77,346,450,404,265,213
99,0.13,0.9,0.4,-3.11,-3.3,-4.39,346,442,403,263,213
100,0.14,0.9,0.41,1.95,-3.78,-0.37,345,448,399,268,209
101,0.14,0.89,0.41,1.04,-2.62,-1.71,345,450,399,267,210
102,0.12,0.91,0.4,0.24,-3.6,-2.44,341,448,401,265,209
103,0.13,0.91,0.41,-1.53,-2.69,-3.42,346,451,397,266,214
104,0.12,0.9,0.42,-0.67,-4.76,-2.32,345,449,397,266,212
105,0.12,0.88,0.42,-1.46,-1.28,-0.06,347,446,393,264,214
106,0.15,0.85,0.44,-1.59,-7.32,-1.4,338,449,404,266,210
107,0.15,0.87,0.45,-1.53,-4.15,-2.5,345,449,401,265,215
108,0.14,0.88,0.45,0.24,-3.05,-1.65,341,449,400,266,212
109,0.15,0.87,0.45,-1.16,-2.5,-0.37,346,449,400,267,212
110,0.15,0.87,0.45,-5.74,-4.7,-3.48,345,447,397,265,214
111,0.16,0.88,0.48,-3.17,-8.18,-2.99,347,450,399,267,211
112,0.15,0.89,0.48,-4.52,-5.86,-3.54,346,449,399,267,215
113,0.15,0.88,0.46,5.37,-5.92,-3.54,348,445,401,269,214
114,0.15,0.87,0.49,-6.77,-11.54,-1.1,344,449,414,269,213
115,0.18,0.85,0.48,1.34,-3.11,-1.28,347,448,397,266,212
116,0.2,0.86,0.48,2.62,-3.05,-2.62,345,452,403,275,214
117,0.19,0.86,0.48,-2.26,4.7,-2.62,344,454,400,270,212
118,0.19,0.87,0.49,1.77,-3.91,0.49,346,449,401,269,217
119,0.21,0.86,0.49,-4.27,-4.64,-2.56,343,449,401,269,214
120,0.2,0.85,0.5,-0.43,-2.75,-2.99,347,450,403,269,214
121,0.21,0.86,0.51,1.04,-2.56,-1.83,345,452,400,266,213
122,0.2,0.85,0.51,2.26,-3.42,-2.38,347,449,399,263,222
123,0.2,0.84,0.51,1.1,-2.08,-0.92,347,451,400,270,214
124,0.21,0.84,0.52,2.2,-2.69,-2.2,348,454,397,269,213
125,0.2,0.83,0.53,-2.62,-1.77,-1.89,344,450,402,269,214
126,0.21,0.82,0.53,-1.95,-4.58,-4.39,348,447,401,268,216
127,0.21,0.81,0.53,-0.73,-0.85,0.73,344,451,402,267,214
128,0.2,0.82,0.55,-1.28,-2.56,-5.49,345,445,403,269,216
129,0.2,0.81,0.56,-1.59,-3.05,-2.2,345,453,399,269,213
130,0.2,0.79,0.56,1.53,-3.23,-2.44,345,451,401,267,216
131,0.19,0.82,0.57,-0.18,-0.92,-2.81,345,453,400,271,217
132,0.18,0.8,0.57,-0.12,-3.72,-2.26,348,450,403,268,232
133,0.19,0.8,0.57,0.18,-2.08,-3.23,346,451,400,269,208
134,0.2,0.8,0.58,0.0,-2.69,-1.53,344,450,400,270,211
135,0.18,0.8,0.58,0.31,-2.69,-3.17,341,454,401,268,216
136,0.19,0.79,0.58,0.43,-2.69,-2.38,345,445,399,270,213
137,0.18,0.81,0.57,1.4,-4.15,-4.09,342,449,406,269,214
138,0.17,0.82,0.55,5.19,-1.71,-3.78,347,450,400,268,216
139,0.16,0.84,0.51,7.57,-1.95,-8.0,345,453,397,266,216
140,0.15,0.84,0.42,9.09,-9.58,-4.52,344,449,401,268,217
141,0.11,0.98,0.45,16.3,-1.04,-5.62,344,446,401,272,217
142,0.12,0.89,0.37,-2.75,-5.55,1.89,341,449,402,268,223
143,0.13,0.9,0.42,-5.31,-2.81,-2.08,341,454,400,270,215
144,0.13,0.89,0.44,0.24,-4.58,-2.44,345,452,399,270,217
145,0.14,0.88,0.45,-1.46,-3.05,-1.65,342,449,401,274,235
146,0.14,0.86,0.47,-3.54,-2.81,-1.77,341,444,398,269,213
147,0.14,0.87,0.48,-0.55,-4.09,-2.38,344,455,403,271,215
148,0.14,0.86,0.48,0.0,-2.62,-1.77,344,454,399,265,216
149,0.14,0.86,0.49,-1.53,-2.87,-1.83,346,450,402,271,217
150,0.15,0.85,0.49,-0.85,-3.72,-1.71,344,454,397,271,214
151,0.14,0.85,0.5,0.18,-2.14,-1.89,344,452,403,270,214
152,0.15,0.85,0.5,-0.73,-3.11,-3.23,347,452,407,269,215
153,0.15,0.86,0.51,-0.55,-3.23,-2.32,346,447,401,268,215
154,0.14,0.85,0.5,2.93,-2.75,-2.75,346,444,402,271,217
155,0.15,0.85,0.5,0.55,-1.89,-0.85,344,451,401,268,216
156,0.14,0.85,0.49,-0.55,-2.5,-2.75,345,449,402,275,217
157,0.14,0.85,0.5,-0.18,-3.42,-2.38,347,449,401,269,213
158,0.15,0.85,0.51,-1.59,-2.26,-0.37,347,452,415,269,213
159,0.15,0.84,0.51,0.49,-1.71,-1.4,342,453,399,268,218
160,0.15,0.84,0.51,-0.79,-4.03,-2.01,348,452,399,269,214
161,0.16,0.85,0.52,0.73,-1.4,-0.43,344,454,400,266,223
162,0.17,0.83,0.51,0.55,-4.03,-2.5,345,454,400,270,213
163,0.16,0.85,0.52,-0.73,-2.56,-2.08,348,452,400,270,215
164,0.15,0.83,0.52,0.85,-3.3,-2.56,340,452,400,268,217
165,0.17,0.85,0.52,-1.95,-3.85,-0.98,345,452,400,268,213
166,0.17,0.83,0.52,0.24,-3.66,-1.34,343,450,398,269,216
167,0.16,0.82,0.53,0.43,-2.56,-2.44,343,457,400,267,218
168,0.17,0.83,0.53,-0.37,-2.38,-2.26,343,451,396,272,216
169,0.19,0.84,0.54,0.98,-3.48,-1.1,341,453,402,271,216
170,0.17,0.83,0.54,0.55,-2.26,-1.89,341,452,403,267,214
171,0.17,0.82,0.54,0.37,-2.44,-3.05,348,453,400,268,218
172,0.17,0.83,0.53,2.56,-2.75,-2.44,345,450,402,271,246
173,0.16,0.84,0.52,4.94,-0.61,-3.42,345,447,403,272,217
174,0.14,0.86,0.48,4.82,0.92,-2.81,343,449,403,269,216
175,0.14,0.88,0.47,3.78,-3.36,-2.38,345,449,398,277,216
176,0.14,0.89,0.46,1.77,-1.95,-1.89,344,449,399,271,215
177,0.14,0.89,0.48,4.03,-2.75,-0.85,347,450,402,272,216
178,0.15,0.85,0.44,-0.24,-0.73,-6.96,345,450,406,266,219
179,0.13,0.88,0.46,-0.12,-4.58,0.18,342,454,400,269,219
180,0.14,0.89,0.47,-2.2,-2.81,-1.95,344,452,401,272,216
181,0.16,0.88,0.47,-0.31,-2.69,-2.75,340,454,399,274,217
182,0.13,0.87,0.46,-2.99,-3.05,-5.25,347,452,399,270,216
183,0.14,0.85,0.49,-0.92,-4.58,-2.32,346,451,403,273,215
184,0.14,0.86,0.5,1.04,-3.36,-1.59,344,449,399,273,218
185,0.14,0.85,0.49,0.37,-3.17,-2.69,347,449,403,270,217
186,0.14,0.86,0.49,0.49,-1.89,-3.05,345,449,397,273,215
187,0.14,0.87,0.49,2.56,-1.28,-3.66,347,452,399,269,218
188,0.14,0.86,0.49,0.31,-5.68,-0.98,345,450,400,270,217
189,0.13,0.88,0.47,0.67,-3.11,-1.71,343,448,397,273,217
190,0.15,0.87,0.47,1.46,-3.42,-2.44,347,449,396,269,216
191,0.15,0.89,0.47,2.38,-3.97,-3.05,347,454,402,270,215
192,0.15,0.88,0.46,1.4,-3.11,-2.32,344,444,406,273,216
193,0.16,0.88,0.45,3.54,-2.87,-2.01,347,444,403,274,219
194,0.12,0.91,0.43,0.24,1.46,-7.32,347,453,405,269,218
195,0.17,0.89,0.39,4.21,-5.92,-4.27,346,452,400,270,219
196,0.18,0.9,0.4,-2.99,-10.07,-2.38,343,444,403,274,219
197,0.09,0.94,0.41,-5.25,-6.77,-9.46,347,450,403,269,218
198,0.1,0.86,0.43,-2.62,-10.19,-3.11,343,450,397,271,216
199,0.1,0.92,0.39,2.44,-5.8,-2.81,344,457,397,268,219
200,0.09,0.92,0.44,-2.14,1.53,-5.43,345,449,401,268,219
201,0.08,0.88,0.43,3.11,-2.01,-1.65,346,449,400,266,219
202,0.08,0.93,0.44,-0.24,-1.83,-2.87,340,449,400,272,219
203,0.09,0.89,0.45,-0.73,-2.5,-2.32,345,451,401,271,219
204,0.11,0.87,0.45,-0.61,-3.48,-2.08,340,450,402,270,226
205,0.09,0.89,0.46,-0.55,-2.81,-1.65,347,451,403,273,218
206,0.12,0.88,0.46,2.2,-2.44,0.67,343,453,402,273,219
207,0.1,0.87,0.48,0.85,-1.89,-1.46,345,449,400,268,220
208,0.11,0.88,0.47,-2.87,-4.82,-3.42,347,448,404,273,220
209,0.1,0.86,0.47,-0.43,-3.42,0.92,344,447,401,274,207
210,0.13,0.85,0.46,4.03,-6.04,-6.04,346,450,397,271,216
211,0.1,0.88,0.47,1.34,-1.53,-2.26,345,453,400,268,216
212,0.11,0.89,0.48,-0.67,-1.46,-1.04,344,445,397,274,218
213,0.13,0.88,0.49,0.79,-2.99,-1.89,345,458,399,274,219
214,0.17,0.89,0.46,-2.01,-5.98,-1.65,343,451,397,271,220
215,0.14,0.86,0.48,2.08,-2.69,-0.85,344,452,401,275,220
216,0.13,0.86,0.49,-1.83,-3.54,-4.09,344,448,403,272,217
217,0.13,0.86,0.49,-1.22,-2.69,-3.17,342,448,401,271,219
218,0.14,0.89,0.48,2.81,-2.93,-3.85,343,450,402,274,220
219,0.14,0.87,0.44,17.4,-2.99,-2.75,343,454,401,275,220
220,0.13,0.9,0.44,-0.12,-6.53,-0.92,345,452,400,271,218
221,0.13,0.87,0.42,1.16,-7.45,-2.99,347,452,403,275,216
222,0.13,0.91,0.43,3.97,-2.14,-2.75,344,449,401,269,215
223,0.15,0.92,0.42,-2.26,-1.71,-1.22,344,449,401,273,219
224,0.15,0.91,0.43,0.31,-3.78,-1.77,345,452,407,272,215
225,0.13,0.9,0.43,-0.06,-4.64,-2.08,347,451,402,272,218
226,0.13,0.89,0.43,-0.98,-2.2,-2.69,345,455,400,271,217
227,0.15,0.9,0.43,-0.31,-2.5,-3.72,346,449,417,272,216
228,0.15,0.9,0.44,2.2,-1.95,-1.4,344,451,400,272,218
229,0.15,0.88,0.42,0.85,-1.28,-4.33,345,449,398,269,217
230,0.14,0.9,0.43,-0.12,-2.56,-3.36,344,449,403,274,220
231,0.16,0.91,0.43,1.22,-2.26,-2.44,344,448,400,275,219
232,0.15,0.9,0.43,0.43,-2.14,-2.5,345,444,402,275,219
233,0.15,0.9,0.43,1.71,-2.14,-1.71,347,449,397,274,218
234,0.15,0.89,0.42,3.42,-5.37,-0.24,340,450,413,273,221
235,0.16,0.89,0.43,1.46,-2.14,-1.71,345,453,400,273,215
236,0.17,0.89,0.43,1.53,-3.42,-1.1,344,456,397,276,220
237,0.21,0.93,0.43,1.83,-1.83,-0.12,346,449,402,273,218
238,0.17,0.91,0.43,1.53,-0.73,-2.32,347,445,397,275,217
239,0.19,0.89,0.42,3.48,-4.21,-2.99,341,447,396,273,218
240,0.17,0.88,0.41,-1.28,-3.3,-3.54,344,449,401,274,220
241,0.16,0.88,0.42,1.22,-2.26,-1.59,347,448,406,273,223
242,0.16,0.89,0.41,1.16,-2.87,-5.49,346,448,400,275,220
243,0.12,0.9,0.37,3.54,1.4,-9.83,347,443,400,273,220
244,0.1,0.92,0.38,-0.18,-3.11,-2.75,341,449,409,275,217
245,0.1,0.9,0.38,-0.92,-7.32,-1.95,346,449,400,272,221
246,0.1,0.92,0.37,4.76,-3.66,-3.05,345,447,402,272,220
247,0.08,0.93,0.38,-1.89,-0.67,-6.59,343,453,403,277,244
248,0.05,0.92,0.38,2.5,-4.82,-5.68,342,449,399,282,218
249,0.1,0.92,0.38,2.99,-3.3,-1.28,345,453,404,275,218
250,0.09,0.92,0.41,-4.21,-6.59,-5.8,342,454,400,273,248
251,0.07,0.93,0.4,-1.22,-2.5,-1.71,340,452,403,275,219
252,0.09,0.92,0.41,1.1,-4.64,-2.14,340,448,402,274,218
253,0.1,0.9,0.38,-2.56,-1.95,-4.64,343,449,401,276,219
254,0.09,0.9,0.4,-0.79,-2.87,-2.5,342,445,400,273,217
255,0.08,0.93,0.41,1.16,-4.09,-0.24,340,453,401,275,217
256,0.08,0.91,0.41,-0.24,-2.14,-2.01,340,449,405,277,218
257,0.09,0.91,0.4,-1.53,-3.3,-2.56,341,449,399,271,220
258,0.08,0.91,0.41,0.55,-3.6,-1.65,342,461,404,274,216
259,0.08,0.91,0.4,0.67,-2.69,-1.65,342,443,401,277,220
260,0.1,0.91,0.41,-0.73,-3.54,-1.59,340,448,403,276,220
261,0.1,0.91,0.4,0.0,-3.48,-2.56,341,448,401,277,216
262,0.1,0.91,0.4,0.67,-3.11,-2.44,343,452,403,274,218
263,0.1,0.91,0.4,-0.92,-3.97,-2.38,343,453,400,272,216
264,0.11,0.9,0.4,0.49,-2.87,-1.77,345,449,399,276,228
265,0.09,0.9,0.41,0.24,-3.66,-2.5,342,452,404,275,216
266,0.11,0.9,0.4,1.83,-2.81,-0.49,345,448,400,273,230
267,0.11,0.91,0.41,-0.37,-2.87,-3.54,342,445,400,274,218
268,0.1,0.91,0.42,-1.95,-2.81,-0.98,342,446,403,275,220
269,0.12,0.9,0.42,1.1,-4.64,-2.44,349,451,401,274,221
270,0.11,0.9,0.42,-0.73,-2.87,-2.62,344,448,406,274,220
271,0.12,0.91,0.43,5.43,-2.62,-2.2,342,446,401,274,221
272,0.13,0.9,0.41,1.28,-2.44,-1.89,343,449,400,277,218
273,0.11,0.9,0.41,-2.99,-2.93,-2.99,343,452,401,276,220
274,0.11,0.89,0.41,-0.67,-2.08,-2.26,341,446,401,277,219
275,0.17,0.92,0.43,1.53,-1.65,5.07,337,451,404,276,218
276,0.16,0.9,0.42,1.16,-4.64,-4.88,344,450,403,274,218
277,0.14,0.89,0.42,-1.71,-5.07,-2.56,338,449,403,278,224
278,0.13,0.9,0.41,3.05,-3.3,-2.14,338,448,400,274,222
279,0.12,0.9,0.4,0.61,-3.54,-3.54,346,449,397,275,216
280,0.1,0.9,0.4,1.65,-2.14,-3.97,345,452,402,271,243
281,0.11,0.91,0.39,0.85,-6.16,-8.3,342,445,401,274,220
282,0.05,0.9,0.42,6.59,-6.96,1.4,343,447,397,274,221
283,0.05,0.91,0.41,0.0,-4.03,-1.04,343,442,402,276,218
284,0.06,0.9,0.41,-0.92,-3.54,-3.23,340,443,400,271,222
285,0.06,0.9,0.43,-0.49,-3.48,-1.95,344,449,405,275,221
286,0.07,0.92,0.41,-0.98,-3.17,-2.81,345,452,403,275,220
287,0.05,0.92,0.42,-5.07,-1.83,-2.44,343,451,398,275,216
288,0.08,0.92,0.46,2.62,-2.14,-0.06,344,449,400,277,218
289,0.12,0.89,0.42,8.48,-5.25,5.43,343,444,400,275,252
290,0.07,0.87,0.44,-0.49,-3.3,-2.75,341,451,400,275,217
291,0.07,0.9,0.45,-1.22,-3.36,-2.62,343,450,400,272,219
292,0.06,0.88,0.44,-0.49,-2.62,-1.34,342,448,399,278,220
293,0.07,0.87,0.44,-1.59,-1.89,-2.62,342,444,400,274,221
294,0.09,0.9,0.45,2.93,-2.87,-0.73,345,448,401,276,219
295,0.09,0.88,0.45,0.61,-2.69,-3.97,340,449,402,275,222
296,0.1,0.89,0.45,-1.22,-3.05,-3.17,343,453,398,274,222
297,0.08,0.87,0.45,-0.12,-2.81,-2.32,343,451,400,282,220
298,0.07,0.9,0.43,6.04,-3.48,-0.55,345,453,400,272,220
299,0.09,0.88,0.43,1.04,-3.36,-2.56,344,450,401,275,221
300,0.1,0.88,0.43,0.79,-2.14,-1.04,339,448,401,278,221
301,0.09,0.89,0.44,1.22,-1.77,-1.59,342,452,408,277,227
302,0.09,0.89,0.45,0.49,-3.54,-2.5,345,445,401,276,220
303,0.1,0.89,0.45,-1.83,-3.54,-2.75,342,445,402,274,233
304,0.1,0.91,0.44,1.65,-3.91,-1.77,348,448,401,272,220
305,0.1,0.89,0.43,-0.43,-5.49,-1.71,346,448,402,277,220
306,0.09,0.89,0.43,-0.98,-0.49,-3.48,340,449,397,277,220
307,0.08,0.88,0.44,-3.11,4.21,-11.29,341,444,402,275,221
308,0.06,0.87,0.45,1.83,-5.19,-2.87,346,443,400,278,219
309,0.01,0.89,0.46,-2.2,-2.01,-7.2,343,449,398,275,220
310,0.05,0.92,0.46,-0.06,-2.81,-1.16,344,458,400,276,219
311,0.06,0.89,0.46,-0.61,-7.39,-5.86,343,447,401,281,217
312,0.05,0.88,0.48,-0.18,-0.49,0.55,343,448,399,273,220
313,0.07,0.89,0.48,2.75,-5.92,-2.08,344,449,403,278,218
314,0.05,0.87,0.49,1.1,-5.19,0.0,350,449,400,274,221
315,0.1,0.84,0.47,-3.17,-7.75,-2.5,344,450,400,274,218
316,0.1,0.88,0.48,1.46,-2.62,-2.01,344,448,403,274,222
317,0.14,0.9,0.47,5.8,-14.77,8.48,344,444,400,277,220
318,0.1,0.87,0.47,-1.77,3.11,-11.72,343,452,401,278,222
319,0.02,0.86,0.49,-1.34,-2.99,-2.14,342,449,394,277,221
320,0.02,0.87,0.49,1.22,-1.95,-2.08,343,447,402,284,222
321,0.02,0.85,0.5,-0.79,-1.28,-3.85,341,449,401,276,222
322,0.03,0.87,0.49,-1.28,2.2,-8.0,344,447,397,276,218
323,0.03,0.88,0.5,-0.18,-4.15,-1.16,343,449,400,279,221
324,0.02,0.88,0.51,0.43,-4.03,-3.23,343,442,402,272,221
325,0.02,0.88,0.51,0.49,-2.5,-1.89,342,448,404,280,219
326,0.02,0.88,0.52,-1.53,-2.81,-2.56,344,444,397,278,236
327,0.03,0.85,0.5,-0.73,-1.4,-3.54,344,444,400,273,223
328,0.04,0.86,0.52,-0.73,-3.17,-2.75,344,446,402,279,221
329,0.02,0.87,0.53,2.26,-1.71,-4.46,343,446,402,275,223
330,0.03,0.85,0.5,3.48,-3.05,-2.26,345,448,402,275,220
331,0.02,0.85,0.5,-2.44,-3.6,-2.93,342,450,401,283,221
332,0.03,0.87,0.52,0.85,-3.6,-2.08,343,450,401,276,224
333,0.04,0.86,0.5,-0.18,-2.69,0.37,346,453,403,279,211
334,0.01,0.85,0.49,-0.06,-2.44,-5.43,344,450,403,277,222
335,0.02,0.85,0.5,4.82,7.87,-1.71,344,446,397,274,218
336,0.03,0.87,0.49,1.65,3.66,-11.05,346,443,403,277,218
337,0.06,0.84,0.49,16.54,-9.16,-5.07,343,442,396,278,223
338,0.01,0.94,0.39,-7.81,-3.05,-13.92,341,451,400,274,222
339,-0.13,0.87,0.43,13.61,6.84,-8.06,338,447,403,275,231
340,-0.01,0.91,0.41,8.67,-8.3,-1.89,345,443,401,276,218
341,-0.08,0.88,0.44,-6.84,-1.71,-6.1,342,440,400,275,216
342,-0.1,0.87,0.44,0.67,-4.27,-3.17,342,444,401,278,221
343,-0.04,0.93,0.45,0.18,16.05,4.39,339,446,403,274,216
344,0.05,0.94,0.39,-3.17,9.03,-0.18,344,443,403,278,235
345,-0.04,0.81,0.47,-8.54,-6.35,4.33,340,447,401,278,219
346,-0.0,0.92,0.47,-9.16,1.22,-1.22,342,438,402,274,216
347,-0.01,0.9,0.46,0.06,-4.82,-5.07,346,446,401,276,219
348,-0.03,0.89,0.47,4.33,-3.17,-1.28,344,448,401,279,222
349,-0.01,0.85,0.49,-2.62,-5.55,-4.33,347,443,401,280,249
350,0.0,0.85,0.5,3.48,-3.78,1.4,347,448,399,278,218
351,0.05,0.91,0.45,8.97,-6.84,-3.42,343,444,404,276,222
352,0.05,0.87,0.46,2.01,-3.66,-0.24,347,439,397,275,220
353,0.06,0.89,0.47,-0.61,-2.99,-1.34,346,439,404,276,223
354,0.05,0.87,0.49,2.5,-3.6,0.0,347,437,401,277,221
355,0.05,0.88,0.49,-1.65,-5.07,-0.98,343,442,401,277,221
356,0.05,0.87,0.5,-1.59,-3.85,-3.91,346,444,397,279,220
357,0.04,0.87,0.5,-1.71,-1.4,-1.4,347,446,411,273,221
358,0.07,0.86,0.5,0.0,-4.27,-3.11,345,443,398,275,221
359,0.08,0.87,0.49,0.61,-3.48,0.06,341,444,402,278,222
360,0.07,0.87,0.49,0.67,-4.58,-1.77,343,442,403,276,223
361,0.08,0.86,0.49,0.55,-3.11,-2.81,348,442,400,277,219
362,0.07,0.87,0.5,-1.28,-0.98,-4.7,344,444,401,286,220
363,0.07,0.87,0.48,-0.12,-3.78,-1.46,345,442,401,275,223
364,0.07,0.87,0.49,-0.06,-2.87,-2.75,347,442,399,280,222
365,0.07,0.88,0.49,0.98,-1.53,-2.87,346,439,404,276,220
366,0.07,0.88,0.5,0.79,-4.15,0.18,345,439,402,278,223
367,0.09,0.87,0.5,-0.55,-2.87,-2.32,349,442,400,278,232
368,0.06,0.87,0.49,0.43,-0.43,-2.2,346,446,402,280,220
369,0.08,0.87,0.48,0.85,-4.09,-0.49,343,445,401,280,221
370,0.08,0.87,0.48,-1.1,-3.97,-2.26,346,442,402,278,223
371,0.08,0.87,0.49,-1.4,-2.14,-2.81,344,442,398,278,218
372,0.09,0.87,0.49,0.92,-4.94,-2.08,345,442,401,280,221
373,0.08,0.86,0.49,0.12,-2.56,-2.62,351,443,400,284,219
374,0.07,0.87,0.49,1.34,-2.2,-2.08,348,445,403,278,223
375,0.08,0.86,0.48,5.49,-1.16,-3.11,346,443,401,280,221
376,0.07,0.87,0.48,2.14,-0.85,-3.23,346,441,404,278,222
377,0.07,0.89,0.47,-1.95,-3.97,-5.92,344,444,401,277,220
378,0.05,0.87,0.49,0.61,-3.85,-1.16,344,437,404,278,220
379,0.06,0.87,0.48,0.85,-2.93,-4.21,345,446,400,279,220
380,0.06,0.88,0.49,-1.34,-3.23,-1.53,345,446,401,278,223
381,0.06,0.87,0.49,-0.31,-3.85,-1.34,338,444,406,278,221
382,0.07,0.87,0.5,0.24,-4.64,-1.65,343,441,403,277,222
383,0.07,0.86,0.49,-2.99,-3.23,-1.04,341,441,401,278,223
384,0.07,0.85,0.51,0.06,-4.58,-3.36,345,439,400,278,223
385,0.06,0.86,0.51,-0.67,-1.77,-4.64,345,438,406,274,224
386,0.07,0.86,0.52,1.28,-2.38,-2.2,342,443,400,278,222
387,0.03,0.85,0.51,-0.61,-0.73,-4.76,344,443,400,280,224
388,0.04,0.87,0.5,1.1,0.0,-1.59,345,445,400,279,224
389,0.03,0.86,0.5,-1.34,-4.33,-5.86,347,446,400,275,221
390,0.01,0.88,0.5,4.94,0.18,-4.33,346,443,401,281,222
391,0.02,0.88,0.5,-0.67,-2.08,-2.99,348,440,402,277,224
392,-0.0,0.88,0.5,0.55,-3.54,-4.33,344,445,400,274,224
393,0.0,0.87,0.5,-0.61,-6.1,-9.95,343,439,405,279,222
394,-0.05,0.86,0.46,4.76,-3.42,-9.4,347,448,403,284,223
395,-0.1,0.87,0.47,2.62,0.12,-9.28,345,448,404,280,221
396,-0.1,0.9,0.51,-2.32,-8.97,-6.16,344,443,402,280,220
397,-0.1,0.87,0.5,-3.11,-4.88,-5.0,345,442,403,277,219
398,-0.11,0.87,0.5,0.12,-2.26,-1.53,343,442,400,278,223
399,-0.08,0.85,0.49,0.37,-5.98,-0.31,346,445,398,278,220
400,-0.08,0.85,0.49,-2.2,-2.81,-1.71,345,442,399,279,222
401,-0.08,0.87,0.49,-0.49,-1.46,-1.59,345,444,397,281,223
402,-0.08,0.87,0.49,0.55,-3.91,-3.23,347,446,400,275,228
403,-0.07,0.89,0.49,0.49,-3.78,-1.16,346,446,399,281,221
404,-0.08,0.86,0.47,-2.75,-3.3,-1.59,345,443,405,277,223
405,-0.08,0.86,0.48,-2.32,-3.36,-2.14,345,443,398,280,221
406,-0.08,0.86,0.49,-0.61,-2.81,-2.26,345,446,400,278,221
407,-0.08,0.88,0.5,0.24,-2.87,-1.77,347,443,397,279,222
408,-0.09,0.87,0.5,-0.06,-2.93,-2.26,343,443,396,280,220
409,-0.08,0.87,0.49,-0.31,-2.14,-2.93,345,444,404,281,221
410,-0.08,0.86,0.49,-0.73,-3.78,-3.36,344,437,402,279,224
411,-0.07,0.88,0.5,-0.06,-2.93,-1.28,347,443,403,284,221
412,-0.06,0.85,0.5,1.22,-5.0,0.24,347,443,399,270,221
413,-0.03,0.86,0.49,0.0,-3.3,-1.95,344,442,398,281,221
414,-0.06,0.86,0.51,-1.4,-3.85,-0.92,348,444,402,279,221
415,-0.02,0.87,0.52,1.22,-3.11,0.43,347,444,399,279,221
416,-0.03,0.87,0.51,-1.22,-2.81,-1.4,345,446,400,278,219
417,-0.02,0.86,0.52,-0.37,-3.23,-4.33,345,443,401,276,222
418,-0.03,0.85,0.52,1.46,-3.05,-2.08,345,445,399,278,222
419,-0.02,0.85,0.51,0.61,-4.27,-1.95,348,447,403,281,220
420,-0.04,0.87,0.51,0.61,-2.56,-2.44,346,443,404,279,217
421,-0.04,0.85,0.51,2.32,-3.6,-0.31,345,440,399,275,221
422,-0.02,0.86,0.49,1.46,-1.59,-3.66,348,446,397,280,221
423,-0.02,0.87,0.49,2.32,-3.91,-2.93,345,443,399,277,222
424,-0.01,0.89,0.48,4.7,-2.62,-0.49,346,443,404,278,223
425,-0.0,0.88,0.47,-0.79,-5.31,-1.53,346,448,399,280,222
426,0.01,0.89,0.49,-0.49,-2.26,-1.83,348,445,398,278,221
427,-0.01,0.83,0.51,-4.33,-2.44,-3.23,342,446,399,278,221
428,-0.05,0.82,0.48,8.85,1.46,-8.67,346,440,398,282,222
429,-0.06,0.91,0.51,2.01,-10.44,-4.64,345,445,400,278,242
430,-0.01,0.79,0.52,-10.93,-9.46,-5.31,347,445,403,282,222
431,-0.03,0.88,0.5,5.98,-0.18,-1.53,344,444,400,279,224
432,-0.03,0.91,0.48,-1.53,-4.46,0.85,345,449,398,285,230
433,-0.03,0.89,0.5,-5.62,-4.21,-1.1,347,435,397,281,218
434,-0.02,0.91,0.53,-4.09,-2.81,-8.48,345,449,396,278,225
435,0.0,0.88,0.49,-5.37,-6.29,-6.77,345,448,401,282,218
436,-0.02,0.89,0.46,13.31,8.24,-0.37,346,444,399,279,219
437,0.01,0.86,0.47,-0.43,1.46,-3.36,342,440,403,281,222
438,0.0,0.86,0.49,-2.32,-4.39,-2.14,346,441,400,278,222
439,-0.03,0.9,0.49,0.49,-5.68,1.04,346,445,403,279,235
440,-0.02,0.86,0.48,-7.02,-3.97,1.16,346,457,400,279,222
441,0.01,0.85,0.49,-0.24,3.17,-1.95,347,446,401,280,221
442,0.01,0.86,0.52,-1.1,-4.52,-2.62,347,444,400,278,224
443,-0.0,0.88,0.5,4.21,-0.37,0.24,346,441,402,280,222
444,0.0,0.86,0.5,-2.87,-3.36,-1.34,346,441,403,279,222
445,0.0,0.88,0.5,-2.62,-2.5,-1.34,345,443,399,277,229
446,0.03,0.85,0.48,1.71,-3.23,-0.55,348,446,400,280,224
447,0.03,0.88,0.48,-5.62,-3.42,-3.6,348,441,400,281,222
448,0.03,0.87,0.49,-0.31,-1.71,-0.43,342,443,403,281,222
449,0.04,0.88,0.5,-1.04,-0.55,-3.05,345,443,400,278,223
450,0.04,0.88,0.51,-3.91,-2.69,3.91,343,444,401,281,224
451,0.08,0.88,0.52,0.18,-4.15,-6.53,350,443,402,278,222
452,0.05,0.91,0.54,2.32,-3.11,-2.32,343,444,402,289,222
453,0.03,0.86,0.5,0.24,-2.5,-4.03,349,447,403,279,225
454,0.03,0.89,0.51,2.01,-3.11,-3.97,346,445,397,276,225
455,0.05,0.86,0.51,-1.34,-2.2,-3.05,347,445,403,282,225
456,0.06,0.88,0.51,4.27,-2.87,-1.46,345,441,398,278,224
457,0.06,0.86,0.48,-8.18,-5.19,-0.79,349,440,402,281,223
458,0.05,0.86,0.47,-3.23,-3.17,-1.65,346,447,402,278,222
459,0.04,0.89,0.5,1.28,0.06,-2.14,344,440,402,281,221
460,0.04,0.83,0.51,-6.77,-5.49,-7.51,354,445,400,281,224
461,0.01,0.88,0.5,-2.14,-2.75,-2.01,343,446,400,278,222
462,0.05,0.95,0.52,4.58,2.26,-4.64,340,443,398,278,221
463,-0.0,0.86,0.49,-3.42,-7.39,-5.55,336,449,400,276,216
464,-0.01,0.84,0.52,-2.26,-5.68,-0.67,336,450,405,280,222
465,0.03,0.92,0.54,-9.89,-0.85,-6.59,338,440,400,275,223
466,-0.0,0.82,0.53,1.16,2.44,-3.66,336,449,400,280,224
467,0.04,0.85,0.52,1.22,0.67,-2.26,337,447,396,277,222
468,0.02,0.87,0.55,-0.55,-2.38,-3.36,338,442,398,286,224
469,0.01,0.85,0.55,1.71,-2.75,-1.34,339,448,400,280,223
470,0.0,0.86,0.54,0.18,-2.75,-1.34,335,444,398,276,224
471,0.01,0.84,0.53,-1.04,-5.68,-1.04,340,446,399,281,223
472,0.03,0.84,0.55,0.24,-1.46,-2.75,338,444,402,281,222
473,0.02,0.83,0.55,-0.85,-2.69,-2.69,340,444,399,279,222
474,0.02,0.84,0.54,-1.83,-2.14,-2.32,340,442,399,280,220
475,0.03,0.84,0.54,2.99,-2.69,-3.78,340,445,396,282,225
476,0.03,0.84,0.54,3.48,-4.27,-0.31,341,442,400,277,222
477,0.03,0.82,0.52,1.34,-1.59,-2.44,343,443,398,281,222
478,0.04,0.84,0.53,0.12,-4.94,-2.2,341,435,398,283,221
479,0.02,0.86,0.55,2.44,-2.69,-0.18,341,444,398,283,237
480,0.03,0.83,0.54,-0.24,-2.87,-2.01,341,443,395,286,221
481,0.04,0.84,0.55,-0.18,-3.3,-0.85,343,435,400,279,225
482,0.03,0.85,0.54,-0.67,-2.75,-3.11,341,440,397,279,222
483,0.04,0.86,0.54,-1.1,-1.28,-2.14,339,443,401,281,223
484,0.03,0.84,0.55,-2.5,-3.05,-4.09,341,443,400,281,225
485,0.02,0.85,0.56,0.79,-2.99,-1.34,344,434,400,277,224
486,0.03,0.84,0.55,0.61,-4.64,-0.49,338,444,394,279,223
487,0.03,0.85,0.56,-1.59,-2.69,-2.56,338,439,394,281,222
488,0.02,0.82,0.56,0.85,-2.14,-2.5,343,434,397,280,226
489,0.02,0.83,0.56,-1.65,-3.42,-1.77,342,439,398,279,248
490,0.01,0.82,0.57,-0.49,-2.93,-1.53,341,441,400,282,225
491,0.03,0.83,0.57,1.28,-3.17,-1.71,350,443,399,283,222
492,0.04,0.82,0.56,1.53,-2.2,-1.95,341,439,397,281,223
493,0.05,0.83,0.57,-0.61,-0.73,-3.66,343,439,396,280,229
494,0.03,0.86,0.59,4.39,-2.44,-2.38,342,440,397,282,231
495,0.04,0.81,0.58,0.06,-2.44,-0.79,342,439,396,282,256
496,0.06,0.81,0.58,-1.28,-4.33,-2.08,338,441,397,282,221
497,0.06,0.81,0.59,-2.62,-2.32,0.06,342,450,397,278,220
498,0.06,0.81,0.59,1.59,-3.78,-0.24,348,440,397,279,223
499,0.04,0.81,0.59,-1.89,-4.09,-2.75,340,437,397,281,224
500,0.07,0.81,0.6,-0.43,-4.82,0.49,345,435,394,282,222
501,0.05,0.8,0.59,-0.24,-2.75,-2.2,344,442,397,276,214
502,0.18,0.95,0.26,-2.14,1.65,-9.09,346,447,402,244,192
503,0.11,0.95,0.29,-0.12,3.05,-6.23,344,446,406,243,192
504,0.15,0.95,0.27,0.43,-0.31,-3.78,344,447,401,256,195
505,0.16,0.95,0.27,1.4,-4.27,-0.79,347,450,405,247,194
506,0.14,0.94,0.27,0.55,-3.48,-1.22,341,453,402,243,196
507,0.14,0.96,0.27,2.2,-3.85,-4.03,348,454,408,248,198
508,0.13,0.95,0.26,6.84,-1.65,-4.09,343,450,413,249,195
509,0.14,0.94,0.27,0.61,-3.66,-3.6,345,445,402,246,194
510,0.15,0.97,0.29,0.0,-8.48,-7.63,343,443,405,246,195
511,0.11,0.98,0.26,-2.14,-5.74,-10.07,346,448,405,245,200
512,0.12,0.96,0.26,-0.98,-10.99,-6.9,346,454,406,247,196
513,0.08,0.91,0.26,8.18,3.91,-7.87,346,451,407,249,200
514,0.08,0.96,0.27,1.22,2.93,-4.7,346,454,409,247,198
515,0.09,0.96,0.29,2.14,-1.95,-1.4,348,454,408,249,200
516,0.09,0.94,0.28,-5.49,-4.76,0.43,342,453,405,248,200
517,0.08,0.95,0.3,-0.61,-3.72,-3.6,346,449,405,251,196
518,0.08,0.95,0.3,-1.28,-3.23,-2.44,345,455,407,248,197
519,0.08,0.95,0.31,-0.18,-2.81,-3.3,341,455,408,252,197
520,0.09,0.93,0.29,-1.89,-3.97,-2.69,345,453,406,251,196
521,0.09,0.96,0.3,0.12,-3.36,-3.6,346,451,405,249,201
522,0.08,0.95,0.3,-0.18,-1.83,-3.23,355,454,404,252,198
523,0.08,0.95,0.29,-0.37,-3.6,-1.04,346,455,402,249,199
524,0.1,0.94,0.3,-1.59,-4.39,-2.26,342,448,407,249,199
525,0.1,0.95,0.32,1.22,-3.23,-3.23,343,455,404,250,204
526,0.08,0.95,0.31,2.93,-3.05,-1.4,344,449,408,251,201
527,0.08,0.95,0.29,0.67,-0.92,-1.95,344,452,409,252,202
528,0.08,0.94,0.31,0.85,-2.99,-3.85,349,445,405,249,200
529,0.09,0.94,0.31,-0.98,-3.72,-1.89,345,454,402,248,201
530,0.08,0.93,0.3,-1.04,-3.3,-3.3,346,454,405,250,201
531,0.09,0.96,0.31,0.61,-1.77,-4.7,349,450,407,250,202
532,0.06,0.95,0.31,0.73,-2.14,-1.77,347,450,410,250,228
533,0.05,0.95,0.32,0.55,-2.62,-3.23,346,447,404,249,200
534,0.08,0.95,0.32,1.4,-4.09,-3.3,350,452,407,254,201
535,0.07,0.94,0.3,-1.04,-1.28,-1.71,347,451,403,248,203
536,0.07,0.94,0.31,0.79,-2.99,-2.14,349,453,402,248,202
537,0.07,0.95,0.31,0.61,-2.93,-2.56,347,447,406,252,201
538,0.08,0.96,0.32,-0.79,-2.75,-3.11,346,452,409,251,204
539,0.08,0.95,0.31,0.73,-4.33,-2.14,347,454,406,251,204
540,0.08,0.94,0.32,1.83,-5.98,-5.0,347,451,406,251,204
541,0.05,0.95,0.32,0.61,-0.55,-4.46,349,452,403,254,204
542,0.05,0.94,0.32,0.67,-0.31,-0.92,351,456,408,253,202
543,0.08,0.94,0.31,-2.38,-2.38,-0.43,347,447,402,253,201
544,0.06,0.95,0.34,0.49,-4.33,-9.52,347,447,407,253,203
545,0.01,0.93,0.35,4.27,-0.92,-2.62,350,455,405,254,207
546,0.0,0.94,0.31,3.6,2.44,-0.79,347,456,403,257,203
547,0.05,0.98,0.3,9.28,-8.54,1.04,341,455,414,251,200
548,0.09,0.99,0.3,5.74,-1.28,6.84,347,453,405,253,204
549,0.13,0.98,0.33,-4.39,0.31,2.5,346,447,401,253,204
550,0.11,0.96,0.23,-1.89,-1.1,-1.95,351,456,406,253,206
551,0.12,0.92,0.26,-1.71,-1.4,-4.09,347,446,407,256,205
552,0.08,1.06,0.34,-2.08,-2.69,-7.63,348,453,401,254,208
553,0.12,0.96,0.29,-4.94,-4.7,3.05,347,454,406,256,209
554,0.09,0.93,0.25,-5.37,-5.07,-1.83,350,453,403,263,208
555,0.09,0.95,0.32,-1.95,-10.13,5.31,350,454,405,261,207
556,0.11,0.96,0.32,2.75,-6.84,-2.2,344,451,403,260,207
557,0.05,0.93,0.3,2.26,-5.31,-0.85,350,454,403,258,209
558,0.09,0.95,0.34,-7.93,-5.68,-1.1,346,445,401,261,205
559,0.03,0.94,0.35,-0.92,-4.09,-2.81,346,458,401,259,208
560,0.08,0.88,0.31,4.82,-2.99,2.26,346,450,403,259,208
561,0.04,0.94,0.37,-1.28,-7.69,0.43,345,455,405,262,209
562,0.05,0.91,0.35,-5.62,-3.85,-3.17,347,452,406,262,205
563,0.06,0.92,0.37,0.18,-4.7,-1.22,347,449,403,259,208
564,0.06,0.92,0.33,1.16,-2.01,0.12,347,448,406,263,210
565,0.04,0.94,0.34,-2.2,-4.94,-0.12,346,451,404,260,210
566,0.09,0.92,0.36,2.38,-0.24,-0.98,347,451,411,261,208
567,0.08,0.93,0.35,2.26,-3.36,-2.5,346,450,404,262,208
568,0.07,0.93,0.36,0.73,-3.6,-1.46,345,455,402,261,213
569,0.07,0.94,0.36,-1.89,-3.97,-3.6,350,446,407,261,211
570,0.07,0.91,0.35,0.49,-3.42,-4.76,343,448,406,264,207
571,0.09,0.93,0.36,-1.89,-3.23,-0.85,345,452,405,261,208
572,0.07,0.9,0.41,-6.35,-2.32,1.83,345,452,406,264,209
573,0.13,0.91,0.39,1.04,0.24,1.34,344,455,407,265,209
574,0.11,0.92,0.38,1.59,-5.07,-3.72,346,451,410,265,207
575,0.11,0.9,0.38,-1.95,-4.39,-0.61,347,452,400,263,211
576,0.13,0.91,0.4,-0.61,-3.05,-2.01,346,453,404,261,212
577,0.13,0.92,0.39,3.72,-2.2,-5.0,347,455,403,260,212
578,0.12,0.92,0.38,3.05,0.61,-5.43,347,453,401,263,207
579,0.13,0.92,0.39,2.5,-2.08,0.12,346,446,404,261,209
580,0.13,0.9,0.37,1.53,-4.27,-1.95,349,453,404,263,210
581,0.12,0.91,0.38,-0.92,-2.81,-1.59,345,453,406,264,212
582,0.14,0.91,0.37,0.37,-4.03,-5.62,347,455,402,266,211
583,0.13,0.9,0.38,-2.26,-3.11,-1.4,343,456,408,277,213
584,0.15,0.91,0.38,-0.06,-2.81,-0.67,345,453,406,263,209
585,0.15,0.91,0.39,1.22,-2.62,-2.08,342,449,403,264,205
586,0.15,0.91,0.39,0.61,-2.38,-1.95,346,456,403,263,214
587,0.15,0.91,0.4,-0.43,-2.69,-2.5,345,446,403,266,213
588,0.16,0.91,0.39,2.99,-2.62,-2.75,346,453,405,266,211
589,0.14,0.9,0.39,-1.83,-2.01,-2.08,345,452,404,266,212
590,0.14,0.9,0.4,-2.75,-3.48,-2.38,347,452,399,266,208
591,0.13,0.9,0.41,-1.95,-2.26,-3.48,347,455,400,264,209
592,0.16,0.91,0.4,0.67,-1.95,-2.01,346,453,402,266,212
593,0.14,0.91,0.41,0.79,-3.78,-2.81,349,448,401,264,210
594,0.15,0.9,0.4,0.31,-4.15,-0.92,344,453,401,265,213
595,0.15,0.9,0.41,2.62,-1.65,-3.42,342,450,401,266,212
596,0.13,0.9,0.4,0.98,0.98,-4.39,346,450,407,267,215
597,0.13,0.91,0.39,0.61,-2.99,-2.38,344,451,403,263,206
598,0.13,0.9,0.4,0.12,-3.91,-1.53,344,448,400,267,214
599,0.13,0.9,0.4,-0.98,-3.91,-2.01,344,450,405,267,210
600,0.13,0.89,0.41,-1.53,-3.78,-1.77,346,450,404,265,213
601,0.13,0.9,0.4,-3.11,-3.3,-4.39,346,442,403,263,213
602,0.14,0.9,0.41,1.95,-3.78,-0.37,345,448,399,268,209
603,0.14,0.89,0.41,1.04,-2.62,-1.71,345,450,399,267,210
604,0.12,0.91,0.4,0.24,-3.6,-2.44,341,448,401,265,209
605,0.13,0.91,0.41,-1.53,-2.69,-3.42,346,451,397,266,214
606,0.12,0.9,0.42,-0.67,-4.76,-2.32,345,449,397,266,212
607,0.12,0.88,0.42,-1.46,-1.28,-0.06,347,446,393,264,214
608,0.15,0.85,0.44,-1.59,-7.32,-1.4,338,449,404,266,210
609,0.15,0.87,0.45,-1.53,-4.15,-2.5,345,449,401,265,215
610,0.14,0.88,0.45,0.24,-3.05,-1.65,341,449,400,266,212
611,0.15,0.87,0.45,-1.16,-2.5,-0.37,346,449,400,267,212
612,0.15,0.87,0.45,-5.74,-4.7,-3.48,345,447,397,265,214
613,0.16,0.88,0.48,-3.17,-8.18,-2.99,347,450,399,267,211
614,0.15,0.89,0.48,-4.52,-5.86,-3.54,346,449,399,267,215
615,0.15,0.88,0.46,5.37,-5.92,-3.54,348,445,401,269,214
616,0.15,0.87,0.49,-6.77,-11.54,-1.1,344,449,414,269,213
617,0.18,0.85,0.48,1.34,-3.11,-1.28,347,448,397,266,212
618,0.2,0.86,0.48,2.62,-3.05,-2.62,345,452,403,275,214
619,0.19,0.86,0.48,-2.26,4.7,-2.62,344,454,400,270,212
620,0.19,0.87,0.49,1.77,-3.91,0.49,346,449,401,269,217
621,0.21,0.86,0.49,-4.27,-4.64,-2.56,343,449,401,269,214
622,0.2,0.85,0.5,-0.43,-2.75,-2.99,347,450,403,269,214
623,0.21,0.86,0.51,1.04,-2.56,-1.83,345,452,400,266,213
624,0.2,0.85,0.51,2.26,-3.42,-2.38,347,449,399,263,222
625,0.2,0.84,0.51,1.1,-2.08,-0.92,347,451,400,270,214
626,0.21,0.84,0.52,2.2,-2.69,-2.2,348,454,397,269,213
627,0.2,0.83,0.53,-2.62,-1.77,-1.89,344,450,402,269,214
628,0.21,0.82,0.53,-1.95,-4.58,-4.39,348,447,401,268,216
629,0.21,0.81,0.53,-0.73,-0.85,0.73,344,451,402,267,214
630,0.2,0.82,0.55,-1.28,-2.56,-5.49,345,445,403,269,216
631,0.2,0.81,0.56,-1.59,-3.05,-2.2,345,453,399,269,213
632,0.2,0.79,0.56,1.53,-3.23,-2.44,345,451,401,267,216
633,0.19,0.82,0.57,-0.18,-0.92,-2.81,345,453,400,271,217
634,0.18,0.8,0.57,-0.12,-3.72,-2.26,348,450,403,268,232
635,0.19,0.8,0.57,0.18,-2.08,-3.23,346,451,400,269,208
636,0.2,0.8,0.58,0.0,-2.69,-1.53,344,450,400,270,211
637,0.18,0.8,0.58,0.31,-2.69,-3.17,341,454,401,268,216
638,0.19,0.79,0.58,0.43,-2.69,-2.38,345,445,399,270,213
639,0.18,0.81,0.57,1.4,-4.15,-4.09,342,449,406,269,214
640,0.17,0.82,0.55,5.19,-1.71,-3.78,347,450,400,268,216
641,0.16,0.84,0.51,7.57,-1.95,-8.0,345,453,397,266,216
642,0.15,0.84,0.42,9.09,-9.58,-4.52,344,449,401,268,217
643,0.11,0.98,0.45,16.3,-1.04,-5.62,344,446,401,272,217
644,0.12,0.89,0.37,-2.75,-5.55,1.89,341,449,402,268,223
645,0.13,0.9,0.42,-5.31,-2.81,-2.08,341,454,400,270,215
646,0.13,0.89,0.44,0.24,-4.58,-2.44,345,452,399,270,217
647,0.14,0.88,0.45,-1.46,-3.05,-1.65,342,449,401,274,235
648,0.14,0.86,0.47,-3.54,-2.81,-1.77,341,444,398,269,213
649,0.14,0.87,0.48,-0.55,-4.09,-2.38,344,455,403,271,215
650,0.14,0.86,0.48,0.0,-2.62,-1.77,344,454,399,265,216
651,0.14,0.86,0.49,-1.53,-2.87,-1.83,346,450,402,271,217
652,0.15,0.85,0.49,-0.85,-3.72,-1.71,344,454,397,271,214
653,0.14,0.85,0.5,0.18,-2.14,-1.89,344,452,403,270,214
654,0.15,0.85,0.5,-0.73,-3.11,-3.23,347,452,407,269,215
655,0.15,0.86,0.51,-0.55,-3.23,-2.32,346,447,401,268,215
656,0.14,0.85,0.5,2.93,-2.75,-2.75,346,444,402,271,217
657,0.15,0.85,0.5,0.55,-1.89,-0.85,344,451,401,268,216
658,0.14,0.85,0.49,-0.55,-2.5,-2.75,345,449,402,275,217
659,0.14,0.85,0.5,-0.18,-3.42,-2.38,347,449,401,269,213
660,0.15,0.85,0.51,-1.59,-2.26,-0.37,347,452,415,269,213
661,0.15,0.84,0.51,0.49,-1.71,-1.4,342,453,399,268,218
662,0.15,0.84,0.51,-0.79,-4.03,-2.01,348,452,399,269,214
663,0.16,0.85,0.52,0.73,-1.4,-0.43,344,454,400,266,223
664,0.17,0.83,0.51,0.55,-4.03,-2.5,345,454,400,270,213
665,0.16,0.85,0.52,-0.73,-2.56,-2.08,348,452,400,270,215
666,0.15,0.83,0.52,0.85,-3.3,-2.56,340,452,400,268,217
667,0.17,0.85,0.52,-1.95,-3.85,-0.98,345,452,400,268,213
668,0.17,0.83,0.52,0.24,-3.66,-1.34,343,450,398,269,216
669,0.16,0.82,0.53,0.43,-2.56,-2.44,343,457,400,267,218
670,0.17,0.83,0.53,-0.37,-2.38,-2.26,343,451,396,272,216
671,0.19,0.84,0.54,0.98,-3.48,-1.1,341,453,402,271,216
672,0.17,0.83,0.54,0.55,-2.26,-1.89,341,452,403,267,214
673,0.17,0.82,0.54,0.37,-2.44,-3.05,348,453,400,268,218
674,0.17,0.83,0.53,2.56,-2.75,-2.44,345,450,402,271,246
675,0.16,0.84,0.52,4.94,-0.61,-3.42,345,447,403,272,217
676,0.14,0.86,0.48,4.82,0.92,-2.81,343,449,403,269,216
677,0.14,0.88,0.47,3.78,-3.36,-2.38,345,449,398,277,216
678,0.14,0.89,0.46,1.77,-1.95,-1.89,344,449,399,271,215
679,0.14,0.89,0.48,4.03,-2.75,-0.85,347,450,402,272,216
680,0.15,0.85,0.44,-0.24,-0.73,-6.96,345,450,406,266,219
681,0.13,0.88,0.46,-0.12,-4.58,0.18,342,454,400,269,219
682,0.14,0.89,0.47,-2.2,-2.81,-1.95,344,452,401,272,216
683,0.16,0.88,0.47,-0.31,-2.69,-2.75,340,454,399,274,217
684,0.13,0.87,0.46,-2.99,-3.05,-5.25,347,452,399,270,216
685,0.14,0.85,0.49,-0.92,-4.58,-2.32,346,451,403,273,215
686,0.14,0.86,0.5,1.04,-3.36,-1.59,344,449,399,273,218
687,0.14,0.85,0.49,0.37,-3.17,-2.69,347,449,403,270,217
688,0.14,0.86,0.49,0.49,-1.89,-3.05,345,449,397,273,215
689,0.14,0.87,0.49,2.56,-1.28,-3.66,347,452,399,269,218
690,0.14,0.86,0.49,0.31,-5.68,-0.98,345,450,400,270,217
691,0.13,0.88,0.47,0.67,-3.11,-1.71,343,448,397,273,217
692,0.15,0.87,0.47,1.46,-3.42,-2.44,347,449,396,269,216
693,0.15,0.89,0.47,2.38,-3.97,-3.05,347,454,402,270,215
694,0.15,0.88,0.46,1.4,-3.11,-2.32,344,444,406,273,216
695,0.16,0.88,0.45,3.54,-2.87,-2.01,347,444,403,274,219
696,0.12,0.91,0.43,0.24,1.46,-7.32,347,453,405,269,218
697,0.17,0.89,0.39,4.21,-5.92,-4.27,346,452,400,270,219
698,0.18,0.9,0.4,-2.99,-10.07,-2.38,343,444,403,274,219
699,0.09,0.94,0.41,-5.25,-6.77,-9.46,347,450,403,269,218
700,0.1,0.86,0.43,-2.62,-10.19,-3.11,343,450,397,271,216
701,0.1,0.92,0.39,2.44,-5.8,-2.81,344,457,397,268,219
702,0.09,0.92,0.44,-2.14,1.53,-5.43,345,449,401,268,219
703,0.08,0.88,0.43,3.11,-2.01,-1.65,346,449,400,266,219
704,0.08,0.93,0.44,-0.24,-1.83,-2.87,340,449,400,272,219
705,0.09,0.89,0.45,-0.73,-2.5,-2.32,345,451,401,271,219
706,0.11,0.87,0.45,-0.61,-3.48,-2.08,340,450,402,270,226
707,0.09,0.89,0.46,-0.55,-2.81,-1.65,347,451,403,273,218
708,0.12,0.88,0.46,2.2,-2.44,0.67,343,453,402,273,219
709,0.1,0.87,0.48,0.85,-1.89,-1.46,345,449,400,268,220
710,0.11,0.88,0.47,-2.87,-4.82,-3.42,347,448,404,273,220
711,0.1,0.86,0.47,-0.43,-3.42,0.92,344,447,401,274,207
712,0.13,0.85,0.46,4.03,-6.04,-6.04,346,450,397,271,216
713,0.1,0.88,0.47,1.34,-1.53,-2.26,345,453,400,268,216
714,0.11,0.89,0.48,-0.67,-1.46,-1.04,344,445,397,274,218
715,0.13,0.88,0.49,0.79,-2.99,-1.89,345,458,399,274,219
716,0.17,0.89,0.46,-2.01,-5.98,-1.65,343,451,397,271,220
717,0.14,0.86,0.48,2.08,-2.69,-0.85,344,452,401,275,220
718,0.13,0.86,0.49,-1.83,-3.54,-4.09,344,448,403,272,217
719,0.13,0.86,0.49,-1.22,-2.69,-3.17,342,448,401,271,219
720,0.14,0.89,0.48,2.81,-2.93,-3.85,343,450,402,274,220
721,0.14,0.87,0.44,17.4,-2.99,-2.75,343,454,401,275,220
722,0.13,0.9,0.44,-0.12,-6.53,-0.92,345,452,400,271,218
723,0.13,0.87,0.42,1.16,-7.45,-2.99,347,452,403,275,216
724,0.13,0.91,0.43,3.97,-2.14,-2.75,344,449,401,269,215
725,0.15,0.92,0.42,-2.26,-1.71,-1.22,344,449,401,273,219
726,0.15,0.91,0.43,0.31,-3.78,-1.77,345,452,407,272,215
727,0.13,0.9,0.43,-0.06,-4.64,-2.08,347,451,402,272,218
728,0.13,0.89,0.43,-0.98,-2.2,-2.69,345,455,400,271,217
729,0.15,0.9,0.43,-0.31,-2.5,-3.72,346,449,417,272,216
730,0.15,0.9,0.44,2.2,-1.95,-1.4,344,451,400,272,218
731,0.15,0.88,0.42,0.85,-1.28,-4.33,345,449,398,269,217
732,0.14,0.9,0.43,-0.12,-2.56,-3.36,344,449,403,274,220
733,0.16,0.91,0.43,1.22,-2.26,-2.44,344,448,400,275,219
734,0.15,0.9,0.43,0.43,-2.14,-2.5,345,444,402,275,219
735,0.15,0.9,0.43,1.71,-2.14,-1.71,347,449,397,274,218
736,0.15,0.89,0.42,3.42,-5.37,-0.24,340,450,413,273,221
737,0.16,0.89,0.43,1.46,-2.14,-1.71,345,453,400,273,215
738,0.17,0.89,0.43,1.53,-3.42,-1.1,344,456,397,276,220
739,0.21,0.93,0.43,1.83,-1.83,-0.12,346,449,402,273,218
740,0.17,0.91,0.43,1.53,-0.73,-2.32,347,445,397,275,217
741,0.19,0.89,0.42,3.48,-4.21,-2.99,341,447,396,273,218
742,0.17,0.88,0.41,-1.28,-3.3,-3.54,344,449,401,274,220
743,0.16,0.88,0.42,1.22,-2.26,-1.59,347,448,406,273,223
744,0.16,0.89,0.41,1.16,-2.87,-5.49,346,448,400,275,220
745,0.12,0.9,0.37,3.54,1.4,-9.83,347,443,400,273,220
746,0.1,0.92,0.38,-0.18,-3.11,-2.75,341,449,409,275,217
747,0.1,0.9,0.38,-0.92,-7.32,-1.95,346,449,400,272,221
748,0.1,0.92,0.37,4.76,-3.66,-3.05,345,447,402,272,220
749,0.08,0.93,0.38,-1.89,-0.67,-6.59,343,453,403,277,244
750,0.05,0.92,0.38,2.5,-4.82,-5.68,342,449,399,282,218
751,0.1,0.92,0.38,2.99,-3.3,-1.28,345,453,404,275,218
752,0.09,0.92,0.41,-4.21,-6.59,-5.8,342,454,400,273,248
753,0.07,0.93,0.4,-1.22,-2.5,-1.71,340,452,403,275,219
754,0.09,0.92,0.41,1.1,-4.64,-2.14,340,448,402,274,218
755,0.1,0.9,0.38,-2.56,-1.95,-4.64,343,449,401,276,219
756,0.09,0.9,0.4,-0.79,-2.87,-2.5,342,445,400,273,217
757,0.08,0.93,0.41,1.16,-4.09,-0.24,340,453,401,275,217
758,0.08,0.91,0.41,-0.24,-2.14,-2.01,340,449,405,277,218
759,0.09,0.91,0.4,-1.53,-3.3,-2.56,341,449,399,271,220
760,0.08,0.91,0.41,0.55,-3.6,-1.65,342,461,404,274,216
761,0.08,0.91,0.4,0.67,-2.69,-1.65,342,443,401,277,220
762,0.1,0.91,0.41,-0.73,-3.54,-1.59,340,448,403,276,220
763,0.1,0.91,0.4,0.0,-3.48,-2.56,341,448,401,277,216
764,0.1,0.91,0.4,0.67,-3.11,-2.44,343,452,403,274,218
765,0.1,0.91,0.4,-0.92,-3.97,-2.38,343,453,400,272,216
766,0.11,0.9,0.4,0.49,-2.87,-1.77,345,449,399,276,228
767,0.09,0.9,0.41,0.24,-3.66,-2.5,342,452,404,275,216
768,0.11,0.9,0.4,1.83,-2.81,-0.49,345,448,400,273,230
769,0.11,0.91,0.41,-0.37,-2.87,-3.54,342,445,400,274,218
770,0.1,0.91,0.42,-1.95,-2.81,-0.98,342,446,403,275,220
771,0.12,0.9,0.42,1.1,-4.64,-2.44,349,451,401,274,221
772,0.11,0.9,0.42,-0.73,-2.87,-2.62,344,448,406,274,220
773,0.12,0.91,0.43,5.43,-2.62,-2.2,342,446,401,274,221
774,0.13,0.9,0.41,1.28,-2.44,-1.89,343,449,400,277,218
775,0.11,0.9,0.41,-2.99,-2.93,-2.99,343,452,401,276,220
776,0.11,0.89,0.41,-0.67,-2.08,-2.26,341,446,401,277,219
777,0.17,0.92,0.43,1.53,-1.65,5.07,337,451,404,276,218
778,0.16,0.9,0.42,1.16,-4.64,-4.88,344,450,403,274,218
779,0.14,0.89,0.42,-1.71,-5.07,-2.56,338,449,403,278,224
780,0.13,0.9,0.41,3.05,-3.3,-2.14,338,448,400,274,222
781,0.12,0.9,0.4,0.61,-3.54,-3.54,346,449,397,275,216
782,0.1,0.9,0.4,1.65,-2.14,-3.97,345,452,402,271,243
783,0.11,0.91,0.39,0.85,-6.16,-8.3,342,445,401,274,220
784,0.05,0.9,0.42,6.59,-6.96,1.4,343,447,397,274,221
785,0.05,0.91,0.41,0.0,-4.03,-1.04,343,442,402,276,218
786,0.06,0.9,0.41,-0.92,-3.54,-3.23,340,443,400,271,222
787,0.06,0.9,0.43,-0.49,-3.48,-1.95,344,449,405,275,221
788,0.07,0.92,0.41,-0.98,-3.17,-2.81,345,452,403,275,220
789,0.05,0.92,0.42,-5.07,-1.83,-2.44,343,451,398,275,216
790,0.08,0.92,0.46,2.62,-2.14,-0.06,344,449,400,277,218
791,0.12,0.89,0.42,8.48,-5.25,5.43,343,444,400,275,252
792,0.07,0.87,0.44,-0.49,-3.3,-2.75,341,451,400,275,217
793,0.07,0.9,0.45,-1.22,-3.36,-2.62,343,450,400,272,219
794,0.06,0.88,0.44,-0.49,-2.62,-1.34,342,448,399,278,220
795,0.07,0.87,0.44,-1.59,-1.89,-2.62,342,444,400,274,221
796,0.09,0.9,0.45,2.93,-2.87,-0.73,345,448,401,276,219
797,0.09,0.88,0.45,0.61,-2.69,-3.97,340,449,402,275,222
798,0.1,0.89,0.45,-1.22,-3.05,-3.17,343,453,398,274,222
799,0.08,0.87,0.45,-0.12,-2.81,-2.32,343,451,400,282,220
800,0.07,0.9,0.43,6.04,-3.48,-0.55,345,453,400,272,220
801,0.09,0.88,0.43,1.04,-3.36,-2.56,344,450,401,275,221
802,0.1,0.88,0.43,0.79,-2.14,-1.04,339,448,401,278,221
803,0.09,0.89,0.44,1.22,-1.77,-1.59,342,452,408,277,227
804,0.09,0.89,0.45,0.49,-3.54,-2.5,345,445,401,276,220
805,0.1,0.89,0.45,-1.83,-3.54,-2.75,342,445,402,274,233
806,0.1,0.91,0.44,1.65,-3.91,-1.77,348,448,401,272,220
807,0.1,0.89,0.43,-0.43,-5.49,-1.71,346,448,402,277,220
808,0.09,0.89,0.43,-0.98,-0.49,-3.48,340,449,397,277,220
809,0.08,0.88,0.44,-3.11,4.21,-11.29,341,444,402,275,221
810,0.06,0.87,0.45,1.83,-5.19,-2.87,346,443,400,278,219
811,0.01,0.89,0.46,-2.2,-2.01,-7.2,343,449,398,275,220
812,0.05,0.92,0.46,-0.06,-2.81,-1.16,344,458,400,276,219
813,0.06,0.89,0.46,-0.61,-7.39,-5.86,343,447,401,281,217
814,0.05,0.88,0.48,-0.18,-0.49,0.55,343,448,399,273,220
815,0.07,0.89,0.48,2.75,-5.92,-2.08,344,449,403,278,218
816,0.05,0.87,0.49,1.1,-5.19,0.0,350,449,400,274,221
817,0.1,0.84,0.47,-3.17,-7.75,-2.5,344,450,400,274,218
818,0.1,0.88,0.48,1.46,-2.62,-2.01,344,448,403,274,222
819,0.14,0.9,0.47,5.8,-14.77,8.48,344,444,400,277,220
820,0.1,0.87,0.47,-1.77,3.11,-11.72,343,452,401,278,222
821,0.02,0.86,0.49,-1.34,-2.99,-2.14,342,449,394,277,221
822,0.02,0.87,0.49,1.22,-1.95,-2.08,343,447,402,284,222
823,0.02,0.85,0.5,-0.79,-1.28,-3.85,341,449,401,276,222
824,0.03,0.87,0.49,-1.28,2.2,-8.0,344,447,397,276,218
825,0.03,0.88,0.5,-0.18,-4.15,-1.16,343,449,400,279,221
826,0.02,0.88,0.51,0.43,-4.03,-3.23,343,442,402,272,221
827,0.02,0.88,0.51,0.49,-2.5,-1.89,342,448,404,280,219
828,0.02,0.88,0.52,-1.53,-2.81,-2.56,344,444,397,278,236
829,0.03,0.85,0.5,-0.73,-1.4,-3.54,344,444,400,273,223
830,0.04,0.86,0.52,-0.73,-3.17,-2.75,344,446,402,279,221
831,0.02,0.87,0.53,2.26,-1.71,-4.46,343,446,402,275,223
832,0.03,0.85,0.5,3.48,-3.05,-2.26,345,448,402,275,220
833,0.02,0.85,0.5,-2.44,-3.6,-2.93,342,450,401,283,221
834,0.03,0.87,0.52,0.85,-3.6,-2.08,343,450,401,276,224
835,0.04,0.86,0.5,-0.18,-2.69,0.37,346,453,403,279,211
836,0.01,0.85,0.49,-0.06,-2.44,-5.43,344,450,403,277,222
837,0.02,0.85,0.5,4.82,7.87,-1.71,344,446,397,274,218
838,0.03,0.87,0.49,1.65,3.66,-11.05,346,443,403,277,218
839,0.06,0.84,0.49,16.54,-9.16,-5.07,343,442,396,278,223
840,0.01,0.94,0.39,-7.81,-3.05,-13.92,341,451,400,274,222
841,-0.13,0.87,0.43,13.61,6.84,-8.06,338,447,403,275,231
842,-0.01,0.91,0.41,8.67,-8.3,-1.89,345,443,401,276,218
843,-0.08,0.88,0.44,-6.84,-1.71,-6.1,342,440,400,275,216
844,-0.1,0.87,0.44,0.67,-4.27,-3.17,342,444,401,278,221
845,-0.04,0.93,0.45,0.18,16.05,4.39,339,446,403,274,216
846,0.05,0.94,0.39,-3.17,9.03,-0.18,344,443,403,278,235
847,-0.04,0.81,0.47,-8.54,-6.35,4.33,340,447,401,278,219
848,-0.0,0.92,0.47,-9.16,1.22,-1.22,342,438,402,274,216
849,-0.01,0.9,0.46,0.06,-4.82,-5.07,346,446,401,276,219
850,-0.03,0.89,0.47,4.33,-3.17,-1.28,344,448,401,279,222
851,-0.01,0.85,0.49,-2.62,-5.55,-4.33,347,443,401,280,249
852,0.0,0.85,0.5,3.48,-3.78,1.4,347,448,399,278,218
853,0.05,0.91,0.45,8.97,-6.84,-3.42,343,444,404,276,222
854,0.05,0.87,0.46,2.01,-3.66,-0.24,347,439,397,275,220
855,0.06,0.89,0.47,-0.61,-2.99,-1.34,346,439,404,276,223
856,0.05,0.87,0.49,2.5,-3.6,0.0,347,437,401,277,221
857,0.05,0.88,0.49,-1.65,-5.07,-0.98,343,442,401,277,221
858,0.05,0.87,0.5,-1.59,-3.85,-3.91,346,444,397,279,220
859,0.04,0.87,0.5,-1.71,-1.4,-1.4,347,446,411,273,221
860,0.07,0.86,0.5,0.0,-4.27,-3.11,345,443,398,275,221
861,0.08,0.87,0.49,0.61,-3.48,0.06,341,444,402,278,222
862,0.07,0.87,0.49,0.67,-4.58,-1.77,343,442,403,276,223
863,0.08,0.86,0.49,0.55,-3.11,-2.81,348,442,400,277,219
864,0.07,0.87,0.5,-1.28,-0.98,-4.7,344,444,401,286,220
865,0.07,0.87,0.48,-0.12,-3.78,-1.46,345,442,401,275,223
866,0.07,0.87,0.49,-0.06,-2.87,-2.75,347,442,399,280,222
867,0.07,0.88,0.49,0.98,-1.53,-2.87,346,439,404,276,220
868,0.07,0.88,0.5,0.79,-4.15,0.18,345,439,402,278,223
869,0.09,0.87,0.5,-0.55,-2.87,-2.32,349,442,400,278,232
870,0.06,0.87,0.49,0.43,-0.43,-2.2,346,446,402,280,220
871,0.08,0.87,0.48,0.85,-4.09,-0.49,343,445,401,280,221
872,0.08,0.87,0.48,-1.1,-3.97,-2.26,346,442,402,278,223
873,0.08,0.87,0.49,-1.4,-2.14,-2.81,344,442,398,278,218
874,0.09,0.87,0.49,0.92,-4.94,-2.08,345,442,401,280,221
875,0.08,0.86,0.49,0.12,-2.56,-2.62,351,443,400,284,219
876,0.07,0.87,0.49,1.34,-2.2,-2.08,348,445,403,278,223
877,0.08,0.86,0.48,5.49,-1.16,-3.11,346,443,401,280,221
878,0.07,0.87,0.48,2.14,-0.85,-3.23,346,441,404,278,222
879,0.07,0.89,0.47,-1.95,-3.97,-5.92,344,444,401,277,220
880,0.05,0.87,0.49,0.61,-3.85,-1.16,344,437,404,278,220
881,0.06,0.87,0.48,0.85,-2.93,-4.21,345,446,400,279,220
882,0.06,0.88,0.49,-1.34,-3.23,-1.53,345,446,401,278,223
883,0.06,0.87,0.49,-0.31,-3.85,-1.34,338,444,406,278,221
884,0.07,0.87,0.5,0.24,-4.64,-1.65,343,441,403,277,222
885,0.07,0.86,0.49,-2.99,-3.23,-1.04,341,441,401,278,223
886,0.07,0.85,0.51,0.06,-4.58,-3.36,345,439,400,278,223
887,0.06,0.86,0.51,-0.67,-1.77,-4.64,345,438,406,274,224
888,0.07,0.86,0.52,1.28,-2.38,-2.2,342,443,400,278,222
889,0.03,0.85,0.51,-0.61,-0.73,-4.76,344,443,400,280,224
890,0.04,0.87,0.5,1.1,0.0,-1.59,345,445,400,279,224
891,0.03,0.86,0.5,-1.34,-4.33,-5.86,347,446,400,275,221
892,0.01,0.88,0.5,4.94,0.18,-4.33,346,443,401,281,222
893,0.02,0.88,0.5,-0.67,-2.08,-2.99,348,440,402,277,224
894,-0.0,0.88,0.5,0.55,-3.54,-4.33,344,445,400,274,224
895,0.0,0.87,0.5,-0.61,-6.1,-9.95,343,439,405,279,222
896,-0.05,0.86,0.46,4.76,-3.42,-9.4,347,448,403,284,223
897,-0.1,0.87,0.47,2.62,0.12,-9.28,345,448,404,280,221
898,-0.1,0.9,0.51,-2.32,-8.97,-6.16,344,443,402,280,220
899,-0.1,0.87,0.5,-3.11,-4.88,-5.0,345,442,403,277,219
900,-0.11,0.87,0.5,0.12,-2.26,-1.53,343,442,400,278,223
901,-0.08,0.85,0.49,0.37,-5.98,-0.31,346,445,398,278,220
902,-0.08,0.85,0.49,-2.2,-2.81,-1.71,345,442,399,279,222
903,-0.08,0.87,0.49,-0.49,-1.46,-1.59,345,444,397,281,223
904,-0.08,0.87,0.49,0.55,-3.91,-3.23,347,446,400,275,228
905,-0.07,0.89,0.49,0.49,-3.78,-1.16,346,446,399,281,221
906,-0.08,0.86,0.47,-2.75,-3.3,-1.59,345,443,405,277,223
907,-0.08,0.86,0.48,-2.32,-3.36,-2.14,345,443,398,280,221
908,-0.08,0.86,0.49,-0.61,-2.81,-2.26,345,446,400,278,221
909,-0.08,0.88,0.5,0.24,-2.87,-1.77,347,443,397,279,222
910,-0.09,0.87,0.5,-0.06,-2.93,-2.26,343,443,396,280,220
911,-0.08,0.87,0.49,-0.31,-2.14,-2.93,345,444,404,281,221
912,-0.08,0.86,0.49,-0.73,-3.78,-3.36,344,437,402,279,224
913,-0.07,0.88,0.5,-0.06,-2.93,-1.28,347,443,403,284,221
914,-0.06,0.85,0.5,1.22,-5.0,0.24,347,443,399,270,221
915,-0.03,0.86,0.49,0.0,-3.3,-1.95,344,442,398,281,221
916,-0.06,0.86,0.51,-1.4,-3.85,-0.92,348,444,402,279,221
917,-0.02,0.87,0.52,1.22,-3.11,0.43,347,444,399,279,221
918,-0.03,0.87,0.51,-1.22,-2.81,-1.4,345,446,400,278,219
919,-0.02,0.86,0.52,-0.37,-3.23,-4.33,345,443,401,276,222
920,-0.03,0.85,0.52,1.46,-3.05,-2.08,345,445,399,278,222
921,-0.02,0.85,0.51,0.61,-4.27,-1.95,348,447,403,281,220
922,-0.04,0.87,0.51,0.61,-2.56,-2.44,346,443,404,279,217
923,-0.04,0.85,0.51,2.32,-3.6,-0.31,345,440,399,275,221
924,-0.02,0.86,0.49,1.46,-1.59,-3.66,348,446,397,280,221
925,-0.02,0.87,0.49,2.32,-3.91,-2.93,345,443,399,277,222
926,-0.01,0.89,0.48,4.7,-2.62,-0.49,346,443,404,278,223
927,-0.0,0.88,0.47,-0.79,-5.31,-1.53,346,448,399,280,222
928,0.01,0.89,0.49,-0.49,-2.26,-1.83,348,445,398,278,221
929,-0.01,0.83,0.51,-4.33,-2.44,-3.23,342,446,399,278,221
930,-0.05,0.82,0.48,8.85,1.46,-8.67,346,440,398,282,222
931,-0.06,0.91,0.51,2.01,-10.44,-4.64,345,445,400,278,242
932,-0.01,0.79,0.52,-10.93,-9.46,-5.31,347,445,403,282,222
933,-0.03,0.88,0.5,5.98,-0.18,-1.53,344,444,400,279,224
934,-0.03,0.91,0.48,-1.53,-4.46,0.85,345,449,398,285,230
935,-0.03,0.89,0.5,-5.62,-4.21,-1.1,347,435,397,281,218
936,-0.02,0.91,0.53,-4.09,-2.81,-8.48,345,449,396,278,225
937,0.0,0.88,0.49,-5.37,-6.29,-6.77,345,448,401,282,218
938,-0.02,0.89,0.46,13.31,8.24,-0.37,346,444,399,279,219
939,0.01,0.86,0.47,-0.43,1.46,-3.36,342,440,403,281,222
940,0.0,0.86,0.49,-2.32,-4.39,-2.14,346,441,400,278,222
941,-0.03,0.9,0.49,0.49,-5.68,1.04,346,445,403,279,235
942,-0.02,0.86,0.48,-7.02,-3.97,1.16,346,457,400,279,222
943,0.01,0.85,0.49,-0.24,3.17,-1.95,347,446,401,280,221
944,0.01,0.86,0.52,-1.1,-4.52,-2.62,347,444,400,278,224
945,-0.0,0.88,0.5,4.21,-0.37,0.24,346,441,402,280,222
946,0.0,0.86,0.5,-2.87,-3.36,-1.34,346,441,403,279,222
947,0.0,0.88,0.5,-2.62,-2.5,-1.34,345,443,399,277,229
948,0.03,0.85,0.48,1.71,-3.23,-0.55,348,446,400,280,224
949,0.03,0.88,0.48,-5.62,-3.42,-3.6,348,441,400,281,222
950,0.03,0.87,0.49,-0.31,-1.71,-0.43,342,443,403,281,222
951,0.04,0.88,0.5,-1.04,-0.55,-3.05,345,443,400,278,223
952,0.04,0.88,0.51,-3.91,-2.69,3.91,343,444,401,281,224
953,0.08,0.88,0.52,0.18,-4.15,-6.53,350,443,402,278,222
954,0.05,0.91,0.54,2.32,-3.11,-2.32,343,444,402,289,222
955,0.03,0.86,0.5,0.24,-2.5,-4.03,349,447,403,279,225
956,0.03,0.89,0.51,2.01,-3.11,-3.97,346,445,397,276,225
957,0.05,0.86,0.51,-1.34,-2.2,-3.05,347,445,403,282,225
958,0.06,0.88,0.51,4.27,-2.87,-1.46,345,441,398,278,224
959,0.06,0.86,0.48,-8.18,-5.19,-0.79,349,440,402,281,223
960,0.05,0.86,0.47,-3.23,-3.17,-1.65,346,447,402,278,222
961,0.04,0.89,0.5,1.28,0.06,-2.14,344,440,402,281,221
962,0.04,0.83,0.51,-6.77,-5.49,-7.51,354,445,400,281,224
963,0.01,0.88,0.5,-2.14,-2.75,-2.01,343,446,400,278,222
964,0.05,0.95,0.52,4.58,2.26,-4.64,340,443,398,278,221
965,-0.0,0.86,0.49,-3.42,-7.39,-5.55,336,449,400,276,216
966,-0.01,0.84,0.52,-2.26,-5.68,-0.67,336,450,405,280,222
967,0.03,0.92,0.54,-9.89,-0.85,-6.59,338,440,400,275,223
968,-0.0,0.82,0.53,1.16,2.44,-3.66,336,449,400,280,224
969,0.04,0.85,0.52,1.22,0.67,-2.26,337,447,396,277,222
970,0.02,0.87,0.55,-0.55,-2.38,-3.36,338,442,398,286,224
971,0.01,0.85,0.55,1.71,-2.75,-1.34,339,448,400,280,223
972,0.0,0.86,0.54,0.18,-2.75,-1.34,335,444,398,276,224
973,0.01,0.84,0.53,-1.04,-5.68,-1.04,340,446,399,281,223
974,0.03,0.84,0.55,0.24,-1.46,-2.75,338,444,402,281,222
975,0.02,0.83,0.55,-0.85,-2.69,-2.69,340,444,399,279,222
976,0.02,0.84,0.54,-1.83,-2.14,-2.32,340,442,399,280,220
977,0.03,0.84,0.54,2.99,-2.69,-3.78,340,445,396,282,225
978,0.03,0.84,0.54,3.48,-4.27,-0.31,341,442,400,277,222
979,0.03,0.82,0.52,1.34,-1.59,-2.44,343,443,398,281,222
980,0.04,0.84,0.53,0.12,-4.94,-2.2,341,435,398,283,221
981,0.02,0.86,0.55,2.44,-2.69,-0.18,341,444,398,283,237
982,0.03,0.83,0.54,-0.24,-2.87,-2.01,341,443,395,286,221
983,0.04,0.84,0.55,-0.18,-3.3,-0.85,343,435,400,279,225
984,0.03,0.85,0.54,-0.67,-2.75,-3.11,341,440,397,279,222
985,0.04,0.86,0.54,-1.1,-1.28,-2.14,339,443,401,281,223
986,0.03,0.84,0.55,-2.5,-3.05,-4.09,341,443,400,281,225
987,0.02,0.85,0.56,0.79,-2.99,-1.34,344,434,400,277,224
988,0.03,0.84,0.55,0.61,-4.64,-0.49,338,444,394,279,223
989,0.03,0.85,0.56,-1.59,-2.69,-2.56,338,439,394,281,222
990,0.02,0.82,0.56,0.85,-2.14,-2.5,343,434,397,280,226
991,0.02,0.83,0.56,-1.65,-3.42,-1.77,342,439,398,279,248
992,0.01,0.82,0.57,-0.49,-2.93,-1.53,341,441,400,282,225
993,0.03,0.83,0.57,1.28,-3.17,-1.71,350,443,399,283,222
994,0.04,0.82,0.56,1.53,-2.2,-1.95,341,439,397,281,223
995,0.05,0.83,0.57,-0.61,-0.73,-3.66,343,439,396,280,229
996,0.03,0.86,0.59,4.39,-2.44,-2.38,342,440,397,282,231
997,0.04,0.81,0.58,0.06,-2.44,-0.79,342,439,396,282,256
998,0.06,0.81,0.58,-1.28,-4.33,-2.08,338,441,397,282,221
999,0.06,0.81,0.59,-2.62,-2.32,0.06,342,450,397,278,220
1000,0.06,0.81,0.59,1.59,-3.78,-0.24,348,440,397,279,223
1001,0.04,0.81,0.59,-1.89,-4.09,-2.75,340,437,397,281,224
1002,0.07,0.81,0.6,-0.43,-4.82,0.49,345,435,394,282,222
1003,0.05,0.8,0.59,-0.24,-2.75,-2.2,344,442,397,276,214
1004,0.18,0.95,0.26,-2.14,1.65,-9.09,346,447,402,244,192
1005,0.11,0.95,0.29,-0.12,3.05,-6.23,344,446,406,243,192
1006,0.15,0.95,0.27,0.43,-0.31,-3.78,344,447,401,256,195
1007,0.16,0.95,0.27,1.4,-4.27,-0.79,347,450,405,247,194
1008,0.14,0.94,0.27,0.55,-3.48,-1.22,341,453,402,243,196
1009,0.14,0.96,0.27,2.2,-3.85,-4.03,348,454,408,248,198
1010,0.13,0.95,0.26,6.84,-1.65,-4.09,343,450,413,249,195
1011,0.14,0.94,0.27,0.61,-3.66,-3.6,345,445,402,246,194
1012,0.15,0.97,0.29,0.0,-8.48,-7.63,343,443,405,246,195
1013,0.11,0.98,0.26,-2.14,-5.74,-10.07,346,448,405,245,200
1014,0.12,0.96,0.26,-0.98,-10.99,-6.9,346,454,406,247,196
1015,0.08,0.91,0.26,8.18,3.91,-7.87,346,451,407,249,200
1016,0.08,0.96,0.27,1.22,2.93,-4.7,346,454,409,247,198
1017,0.09,0.96,0.29,2.14,-1.95,-1.4,348,454,408,249,200
1018,0.09,0.94,0.28,-5.49,-4.76,0.43,342,453,405,248,200
1019,0.08,0.95,0.3,-0.61,-3.72,-3.6,346,449,405,251,196
1020,0.08,0.95,0.3,-1.28,-3.23,-2.44,345,455,407,248,197
1021,0.08,0.95,0.31,-0.18,-2.81,-3.3,341,455,408,252,197
1022,0.09,0.93,0.29,-1.89,-3.97,-2.69,345,453,406,251,196
1023,0.09,0.96,0.3,0.12,-3.36,-3.6,346,451,405,249,201
1024,0.08,0.95,0.3,-0.18,-1.83,-3.23,355,454,404,252,198
1025,0.08,0.95,0.29,-0.37,-3.6,-1.04,346,455,402,249,199
1026,0.1,0.94,0.3,-1.59,-4.39,-2.26,342,448,407,249,199
1027,0.1,0.95,0.32,1.22,-3.23,-3.23,343,455,404,250,204
1028,0.08,0.95,0.31,2.93,-3.05,-1.4,344,449,408,251,201
1029,0.08,0.95,0.29,0.67,-0.92,-1.95,344,452,409,252,202
1030,0.08,0.94,0.31,0.85,-2.99,-3.85,349,445,405,249,200
1031,0.09,0.94,0.31,-0.98,-3.72,-1.89,345,454,402,248,201
1032,0.08,0.93,0.3,-1.04,-3.3,-3.3,346,454,405,250,201
1033,0.09,0.96,0.31,0.61,-1.77,-4.7,349,450,407,250,202
1034,0.06,0.95,0.31,0.73,-2.14,-1.77,347,450,410,250,228
1035,0.05,0.95,0.32,0.55,-2.62,-3.23,346,447,404,249,200
1036,0.08,0.95,0.32,1.4,-4.09,-3.3,350,452,407,254,201
1037,0.07,0.94,0.3,-1.04,-1.28,-1.71,347,451,403,248,203
1038,0.07,0.94,0.31,0.79,-2.99,-2.14,349,453,402,248,202
1039,0.07,0.95,0.31,0.61,-2.93,-2.56,347,447,406,252,201
1040,0.08,0.96,0.32,-0.79,-2.75,-3.11,346,452,409,251,204
1041,0.08,0.95,0.31,0.73,-4.33,-2.14,347,454,406,251,204
1042,0.08,0.94,0.32,1.83,-5.98,-5.0,347,451,406,251,204
1043,0.05,0.95,0.32,0.61,-0.55,-4.46,349,452,403,254,204
1044,0.05,0.94,0.32,0.67,-0.31,-0.92,351,456,408,253,202
1045,0.08,0.94,0.31,-2.38,-2.38,-0.43,347,447,402,253,201
1046,0.06,0.95,0.34,0.49,-4.33,-9.52,347,447,407,253,203
1047,0.01,0.93,0.35,4.27,-0.92,-2.62,350,455,405,254,207
1048,0.0,0.94,0.31,3.6,2.44,-0.79,347,456,403,257,203
1049,0.05,0.98,0.3,9.28,-8.54,1.04,341,455,414,251,200
1050,0.09,0.99,0.3,5.74,-1.28,6.84,347,453,405,253,204
1051,0.13,0.98,0.33,-4.39,0.31,2.5,346,447,401,253,204
1052,0.11,0.96,0.23,-1.89,-1.1,-1.95,351,456,406,253,206
1053,0.12,0.92,0.26,-1.71,-1.4,-4.09,347,446,407,256,205
1054,0.08,1.06,0.34,-2.08,-2.69,-7.63,348,453,401,254,208
1055,0.12,0.96,0.29,-4.94,-4.7,3.05,347,454,406,256,209
1056,0.09,0.93,0.25,-5.37,-5.07,-1.83,350,453,403,263,208
1057,0.09,0.95,0.32,-1.95,-10.13,5.31,350,454,405,261,207
1058,0.11,0.96,0.32,2.75,-6.84,-2.2,344,451,403,260,207
1059,0.05,0.93,0.3,2.26,-5.31,-0.85,350,454,403,258,209
1060,0.09,0.95,0.34,-7.93,-5.68,-1.1,346,445,401,261,205
1061,0.03,0.94,0.35,-0.92,-4.09,-2.81,346,458,401,259,208
1062,0.08,0.88,0.31,4.82,-2.99,2.26,346,450,403,259,208
1063,0.04,0.94,0.37,-1.28,-7.69,0.43,345,455,405,262,209
1064,0.05,0.91,0.35,-5.62,-3.85,-3.17,347,452,406,262,205
1065,0.06,0.92,0.37,0.18,-4.7,-1.22,347,449,403,259,208
1066,0.06,0.92,0.33,1.16,-2.01,0.12,347,448,406,263,210
1067,0.04,0.94,0.34,-2.2,-4.94,-0.12,346,451,404,260,210
1068,0.09,0.92,0.36,2.38,-0.24,-0.98,347,451,411,261,208
1069,0.08,0.93,0.35,2.26,-3.36,-2.5,346,450,404,262,208
1070,0.07,0.93,0.36,0.73,-3.6,-1.46,345,455,402,261,213
1071,0.07,0.94,0.36,-1.89,-3.97,-3.6,350,446,407,261,211
1072,0.07,0.91,0.35,0.49,-3.42,-4.76,343,448,406,264,207
1073,0.09,0.93,0.36,-1.89,-3.23,-0.85,345,452,405,261,208
1074,0.07,0.9,0.41,-6.35,-2.32,1.83,345,452,406,264,209
1075,0.13,0.91,0.39,1.04,0.24,1.34,344,455,407,265,209
1076,0.11,0.92,0.38,1.59,-5.07,-3.72,346,451,410,265,207
1077,0.11,0.9,0.38,-1.95,-4.39,-0.61,347,452,400,263,211
1078,0.13,0.91,0.4,-0.61,-3.05,-2.01,346,453,404,261,212
1079,0.13,0.92,0.39,3.72,-2.2,-5.0,347,455,403,260,212
1080,0.12,0.92,0.38,3.05,0.61,-5.43,347,453,401,263,207
1081,0.13,0.92,0.39,2.5,-2.08,0.12,346,446,404,261,209
1082,0.13,0.9,0.37,1.53,-4.27,-1.95,349,453,404,263,210
1083,0.12,0.91,0.38,-0.92,-2.81,-1.59,345,453,406,264,212
1084,0.14,0.91,0.37,0.37,-4.03,-5.62,347,455,402,266,211
1085,0.13,0.9,0.38,-2.26,-3.11,-1.4,343,456,408,277,213
1086,0.15,0.91,0.38,-0.06,-2.81,-0.67,345,453,406,263,209
1087,0.15,0.91,0.39,1.22,-2.62,-2.08,342,449,403,264,205
1088,0.15,0.91,0.39,0.61,-2.38,-1.95,346,456,403,263,214
1089,0.15,0.91,0.4,-0.43,-2.69,-2.5,345,446,403,266,213
1090,0.16,0.91,0.39,2.99,-2.62,-2.75,346,453,405,266,211
1091,0.14,0.9,0.39,-1.83,-2.01,-2.08,345,452,404,266,212
1092,0.14,0.9,0.4,-2.75,-3.48,-2.38,347,452,399,266,208
1093,0.13,0.9,0.41,-1.95,-2.26,-3.48,347,455,400,264,209
1094,0.16,0.91,0.4,0.67,-1.95,-2.01,346,453,402,266,212
1095,0.14,0.91,0.41,0.79,-3.78,-2.81,349,448,401,264,210
1096,0.15,0.9,0.4,0.31,-4.15,-0.92,344,453,401,265,213
1097,0.15,0.9,0.41,2.62,-1.65,-3.42,342,450,401,266,212
1098,0.13,0.9,0.4,0.98,0.98,-4.39,346,450,407,267,215
1099,0.13,0.91,0.39,0.61,-2.99,-2.38,344,451,403,263,206
1100,0.13,0.9,0.4,0.12,-3.91,-1.53,344,448,400,267,214
1101,0.13,0.9,0.4,-0.98,-3.91,-2.01,344,450,405,267,210
1102,0.13,0.89,0.41,-1.53,-3.78,-1.77,346,450,404,265,213
1103,0.13,0.9,0.4,-3.11,-3.3,-4.39,346,442,403,263,213
1104,0.14,0.9,0.41,1.95,-3.78,-0.37,345,448,399,268,209
1105,0.14,0.89,0.41,1.04,-2.62,-1.71,345,450,399,267,210
1106,0.12,0.91,0.4,0.24,-3.6,-2.44,341,448,401,265,209
1107,0.13,0.91,0.41,-1.53,-2.69,-3.42,346,451,397,266,214
1108,0.12,0.9,0.42,-0.67,-4.76,-2.32,345,449,397,266,212
1109,0.12,0.88,0.42,-1.46,-1.28,-0.06,347,446,393,264,214
1110,0.15,0.85,0.44,-1.59,-7.32,-1.4,338,449,404,266,210
1111,0.15,0.87,0.45,-1.53,-4.15,-2.5,345,449,401,265,215
1112,0.14,0.88,0.45,0.24,-3.05,-1.65,341,449,400,266,212
1113,0.15,0.87,0.45,-1.16,-2.5,-0.37,346,449,400,267,212
1114,0.15,0.87,0.45,-5.74,-4.7,-3.48,345,447,397,265,214
1115,0.16,0.88,0.48,-3.17,-8.18,-2.99,347,450,399,267,211
1116,0.15,0.89,0.48,-4.52,-5.86,-3.54,346,449,399,267,215
1117,0.15,0.88,0.46,5.37,-5.92,-3.54,348,445,401,269,214
1118,0.15,0.87,0.49,-6.77,-11.54,-1.1,344,449,414,269,213
1119,0.18,0.85,0.48,1.34,-3.11,-1.28,347,448,397,266,212
1120,0.2,0.86,0.48,2.62,-3.05,-2.62,345,452,403,275,214
1121,0.19,0.86,0.48,-2.26,4.7,-2.62,344,454,400,270,212
1122,0.19,0.87,0.49,1.77,-3.91,0.49,346,449,401,269,217
1123,0.21,0.86,0.49,-4.27,-4.64,-2.56,343,449,401,269,214
1124,0.2,0.85,0.5,-0.43,-2.75,-2.99,347,450,403,269,214
1125,0.21,0.86,0.51,1.04,-2.56,-1.83,345,452,400,266,213
1126,0.2,0.85,0.51,2.26,-3.42,-2.38,347,449,399,263,222
1127,0.2,0.84,0.51,1.1,-2.08,-0.92,347,451,400,270,214
1128,0.21,0.84,0.52,2.2,-2.69,-2.2,348,454,397,269,213
1129,0.2,0.83,0.53,-2.62,-1.77,-1.89,344,450,402,269,214
1130,0.21,0.82,0.53,-1.95,-4.58,-4.39,348,447,401,268,216
1131,0.21,0.81,0.53,-0.73,-0.85,0.73,344,451,402,267,214
1132,0.2,0.82,0.55,-1.28,-2.56,-5.49,345,445,403,269,216
1133,0.2,0.81,0.56,-1.59,-3.05,-2.2,345,453,399,269,213
1134,0.2,0.79,0.56,1.53,-3.23,-2.44,345,451,401,267,216
1135,0.19,0.82,0.57,-0.18,-0.92,-2.81,345,453,400,271,217
1136,0.18,0.8,0.57,-0.12,-3.72,-2.26,348,450,403,268,232
1137,0.19,0.8,0.57,0.18,-2.08,-3.23,346,451,400,269,208
1138,0.2,0.8,0.58,0.0,-2.69,-1.53,344,450,400,270,211
1139,0.18,0.8,0.58,0.31,-2.69,-3.17,341,454,401,268,216
1140,0.19,0.79,0.58,0.43,-2.69,-2.38,345,445,399,270,213
1141,0.18,0.81,0.57,1.4,-4.15,-4.09,342,449,406,269,214
1142,0.17,0.82,0.55,5.19,-1.71,-3.78,347,450,400,268,216
1143,0.16,0.84,0.51,7.57,-1.95,-8.0,345,453,397,266,216
1144,0.15,0.84,0.42,9.09,-9.58,-4.52,344,449,401,268,217
1145,0.11,0.98,0.45,16.3,-1.04,-5.62,344,446,401,272,217
1146,0.12,0.89,0.37,-2.75,-5.55,1.89,341,449,402,268,223
1147,0.13,0.9,0.42,-5.31,-2.81,-2.08,341,454,400,270,215
1148,0.13,0.89,0.44,0.24,-4.58,-2.44,345,452,399,270,217
1149,0.14,0.88,0.45,-1.46,-3.05,-1.65,342,449,401,274,235
1150,0.14,0.86,0.47,-3.54,-2.81,-1.77,341,444,398,269,213
1151,0.14,0.87,0.48,-0.55,-4.09,-2.38,344,455,403,271,215
1152,0.14,0.86,0.48,0.0,-2.62,-1.77,344,454,399,265,216
1153,0.14,0.86,0.49,-1.53,-2.87,-1.83,346,450,402,271,217
1154,0.15,0.85,0.49,-0.85,-3.72,-1.71,344,454,397,271,214
1155,0.14,0.85,0.5,0.18,-2.14,-1.89,344,452,403,270,214
1156,0.15,0.85,0.5,-0.73,-3.11,-3.23,347,452,407,269,215
1157,0.15,0.86,0.51,-0.55,-3.23,-2.32,346,447,401,268,215
1158,0.14,0.85,0.5,2.93,-2.75,-2.75,346,444,402,271,217
1159,0.15,0.85,0.5,0.55,-1.89,-0.85,344,451,401,268,216
1160,0.14,0.85,0.49,-0.55,-2.5,-2.75,345,449,402,275,217
1161,0.14,0.85,0.5,-0.18,-3.42,-2.38,347,449,401,269,213
1162,0.15,0.85,0.51,-1.59,-2.26,-0.37,347,452,415,269,213
1163,0.15,0.84,0.51,0.49,-1.71,-1.4,342,453,399,268,218
1164,0.15,0.84,0.51,-0.79,-4.03,-2.01,348,452,399,269,214
1165,0.16,0.85,0.52,0.73,-1.4,-0.43,344,454,400,266,223
1166,0.17,0.83,0.51,0.55,-4.03,-2.5,345,454,400,270,213
1167,0.16,0.85,0.52,-0.73,-2.56,-2.08,348,452,400,270,215
1168,0.15,0.83,0.52,0.85,-3.3,-2.56,340,452,400,268,217
1169,0.17,0.85,0.52,-1.95,-3.85,-0.98,345,452,400,268,213
1170,0.17,0.83,0.52,0.24,-3.66,-1.34,343,450,398,269,216
1171,0.16,0.82,0.53,0.43,-2.56,-2.44,343,457,400,267,218
1172,0.17,0.83,0.53,-0.37,-2.38,-2.26,343,451,396,272,216
1173,0.19,0.84,0.54,0.98,-3.48,-1.1,341,453,402,271,216
1174,0.17,0.83,0.54,0.55,-2.26,-1.89,341,452,403,267,214
1175,0.17,0.82,0.54,0.37,-2.44,-3.05,348,453,400,268,218
1176,0.17,0.83,0.53,2.56,-2.75,-2.44,345,450,402,271,246
1177,0.16,0.84,0.52,4.94,-0.61,-3.42,345,447,403,272,217
1178,0.14,0.86,0.48,4.82,0.92,-2.81,343,449,403,269,216
1179,0.14,0.88,0.47,3.78,-3.36,-2.38,345,449,398,277,216
1180,0.14,0.89,0.46,1.77,-1.95,-1.89,344,449,399,271,215
1181,0.14,0.89,0.48,4.03,-2.75,-0.85,347,450,402,272,216
1182,0.15,0.85,0.44,-0.24,-0.73,-6.96,345,450,406,266,219
1183,0.13,0.88,0.46,-0.12,-4.58,0.18,342,454,400,269,219
1184,0.14,0.89,0.47,-2.2,-2.81,-1.95,344,452,401,272,216
1185,0.16,0.88,0.47,-0.31,-2.69,-2.75,340,454,399,274,217
1186,0.13,0.87,0.46,-2.99,-3.05,-5.25,347,452,399,270,216
1187,0.14,0.85,0.49,-0.92,-4.58,-2.32,346,451,403,273,215
1188,0.14,0.86,0.5,1.04,-3.36,-1.59,344,449,399,273,218
1189,0.14,0.85,0.49,0.37,-3.17,-2.69,347,449,403,270,217
1190,0.14,0.86,0.49,0.49,-1.89,-3.05,345,449,397,273,215
1191,0.14,0.87,0.49,2.56,-1.28,-3.66,347,452,399,269,218
1192,0.14,0.86,0.49,0.31,-5.68,-0.98,345,450,400,270,217
1193,0.13,0.88,0.47,0.67,-3.11,-1.71,343,448,397,273,217
1194,0.15,0.87,0.47,1.46,-3.42,-2.44,347,449,396,269,216
1195,0.15,0.89,0.47,2.38,-3.97,-3.05,347,454,402,270,215
1196,0.15,0.88,0.46,1.4,-3.11,-2.32,344,444,406,273,216
1197,0.16,0.88,0.45,3.54,-2.87,-2.01,347,444,403,274,219
1198,0.12,0.91,0.43,0.24,1.46,-7.32,347,453,405,269,218
1199,0.17,0.89,0.39,4.21,-5.92,-4.27,346,452,400,270,219
1200,0.18,0.9,0.4,-2.99,-10.07,-2.38,343,444,403,274,219
1201,0.09,0.94,0.41,-5.25,-6.77,-9.46,347,450,403,269,218
1202,0.1,0.86,0.43,-2.62,-10.19,-3.11,343,450,397,271,216
1203,0.1,0.92,0.39,2.44,-5.8,-2.81,344,457,397,268,219
1204,0.09,0.92,0.44,-2.14,1.53,-5.43,345,449,401,268,219
1205,0.08,0.88,0.43,3.11,-2.01,-1.65,346,449,400,266,219
1206,0.08,0.93,0.44,-0.24,-1.83,-2.87,340,449,400,272,219
1207,0.09,0.89,0.45,-0.73,-2.5,-2.32,345,451,401,271,219
1208,0.11,0.87,0.45,-0.61,-3.48,-2.08,340,450,402,270,226
1209,0.09,0.89,0.46,-0.55,-2.81,-1.65,347,451,403,273,218
1210,0.12,0.88,0.46,2.2,-2.44,0.67,343,453,402,273,219
1211,0.1,0.87,0.48,0.85,-1.89,-1.46,345,449,400,268,220
1212,0.11,0.88,0.47,-2.87,-4.82,-3.42,347,448,404,273,220
1213,0.1,0.86,0.47,-0.43,-3.42,0.92,344,447,401,274,207
1214,0.13,0.85,0.46,4.03,-6.04,-6.04,346,450,397,271,216
1215,0.1,0.88,0.47,1.34,-1.53,-2.26,345,453,400,268,216
1216,0.11,0.89,0.48,-0.67,-1.46,-1.04,344,445,397,274,218
1217,0.13,0.88,0.49,0.79,-2.99,-1.89,345,458,399,274,219
1218,0.17,0.89,0.46,-2.01,-5.98,-1.65,343,451,397,271,220
1219,0.14,0.86,0.48,2.08,-2.69,-0.85,344,452,401,275,220
1220,0.13,0.86,0.49,-1.83,-3.54,-4.09,344,448,403,272,217
1221,0.13,0.86,0.49,-1.22,-2.69,-3.17,342,448,401,271,219
1222,0.14,0.89,0.48,2.81,-2.93,-3.85,343,450,402,274,220
1223,0.14,0.87,0.44,17.4,-2.99,-2.75,343,454,401,275,220
1224,0.13,0.9,0.44,-0.12,-6.53,-0.92,345,452,400,271,218
1225,0.13,0.87,0.42,1.16,-7.45,-2.99,347,452,403,275,216
1226,0.13,0.91,0.43,3.97,-2.14,-2.75,344,449,401,269,215
1227,0.15,0.92,0.42,-2.26,-1.71,-1.22,344,449,401,273,219
1228,0.15,0.91,0.43,0.31,-3.78,-1.77,345,452,407,272,215
1229,0.13,0.9,0.43,-0.06,-4.64,-2.08,347,451,402,272,218
1230,0.13,0.89,0.43,-0.98,-2.2,-2.69,345,455,400,271,217
1231,0.15,0.9,0.43,-0.31,-2.5,-3.72,346,449,417,272,216
1232,0.15,0.9,0.44,2.2,-1.95,-1.4,344,451,400,272,218
1233,0.15,0.88,0.42,0.85,-1.28,-4.33,345,449,398,269,217
1234,0.14,0.9,0.43,-0.12,-2.56,-3.36,344,449,403,274,220
1235,0.16,0.91,0.43,1.22,-2.26,-2.44,344,448,400,275,219
1236,0.15,0.9,0.43,0.43,-2.14,-2.5,345,444,402,275,219
1237,0.15,0.9,0.43,1.71,-2.14,-1.71,347,449,397,274,218
1238,0.15,0.89,0.42,3.42,-5.37,-0.24,340,450,413,273,221
1239,0.16,0.89,0.43,1.46,-2.14,-1.71,345,453,400,273,215
1240,0.17,0.89,0.43,1.53,-3.42,-1.1,344,456,397,276,220
1241,0.21,0.93,0.43,1.83,-1.83,-0.12,346,449,402,273,218
1242,0.17,0.91,0.43,1.53,-0.73,-2.32,347,445,397,275,217
1243,0.19,0.89,0.42,3.48,-4.21,-2.99,341,447,396,273,218
1244,0.17,0.88,0.41,-1.28,-3.3,-3.54,344,449,401,274,220
1245,0.16,0.88,0.42,1.22,-2.26,-1.59,347,448,406,273,223
1246,0.16,0.89,0.41,1.16,-2.87,-5.49,346,448,400,275,220
1247,0.12,0.9,0.37,3.54,1.4,-9.83,347,443,400,273,220
1248,0.1,0.92,0.38,-0.18,-3.11,-2.75,341,449,409,275,217
1249,0.1,0.9,0.38,-0.92,-7.32,-1.95,346,449,400,272,221
1250,0.1,0.92,0.37,4.76,-3.66,-3.05,345,447,402,272,220
1251,0.08,0.93,0.38,-1.89,-0.67,-6.59,343,453,403,277,244
1252,0.05,0.92,0.38,2.5,-4.82,-5.68,342,449,399,282,218
1253,0.1,0.92,0.38,2.99,-3.3,-1.28,345,453,404,275,218
1254,0.09,0.92,0.41,-4.21,-6.59,-5.8,342,454,400,273,248
1255,0.07,0.93,0.4,-1.22,-2.5,-1.71,340,452,403,275,219
1256,0.09,0.92,0.41,1.1,-4.64,-2.14,340,448,402,274,218
1257,0.1,0.9,0.38,-2.56,-1.95,-4.64,343,449,401,276,219
1258,0.09,0.9,0.4,-0.79,-2.87,-2.5,342,445,400,273,217
1259,0.08,0.93,0.41,1.16,-4.09,-0.24,340,453,401,275,217
1260,0.08,0.91,0.41,-0.24,-2.14,-2.01,340,449,405,277,218
1261,0.09,0.91,0.4,-1.53,-3.3,-2.56,341,449,399,271,220
1262,0.08,0.91,0.41,0.55,-3.6,-1.65,342,461,404,274,216
1263,0.08,0.91,0.4,0.67,-2.69,-1.65,342,443,401,277,220
1264,0.1,0.91,0.41,-0.73,-3.54,-1.59,340,448,403,276,220
1265,0.1,0.91,0.4,0.0,-3.48,-2.56,341,448,401,277,216
1266,0.1,0.91,0.4,0.67,-3.11,-2.44,343,452,403,274,218
1267,0.1,0.91,0.4,-0.92,-3.97,-2.38,343,453,400,272,216
1268,0.11,0.9,0.4,0.49,-2.87,-1.77,345,449,399,276,228
1269,0.09,0.9,0.41,0.24,-3.66,-2.5,342,452,404,275,216
1270,0.11,0.9,0.4,1.83,-2.81,-0.49,345,448,400,273,230
1271,0.11,0.91,0.41,-0.37,-2.87,-3.54,342,445,400,274,218
1272,0.1,0.91,0.42,-1.95,-2.81,-0.98,342,446,403,275,220
1273,0.12,0.9,0.42,1.1,-4.64,-2.44,349,451,401,274,221
1274,0.11,0.9,0.42,-0.73,-2.87,-2.62,344,448,406,274,220
1275,0.12,0.91,0.43,5.43,-2.62,-2.2,342,446,401,274,221
1276,0.13,0.9,0.41,1.28,-2.44,-1.89,343,449,400,277,218
1277,0.11,0.9,0.41,-2.99,-2.93,-2.99,343,452,401,276,220
1278,0.11,0.89,0.41,-0.67,-2.08,-2.26,341,446,401,277,219
1279,0.17,0.92,0.43,1.53,-1.65,5.07,337,451,404,276,218
1280,0.16,0.9,0.42,1.16,-4.64,-4.88,344,450,403,274,218
1281,0.14,0.89,0.42,-1.71,-5.07,-2.56,338,449,403,278,224
1282,0.13,0.9,0.41,3.05,-3.3,-2.14,338,448,400,274,222
1283,0.12,0.9,0.4,0.61,-3.54,-3.54,346,449,397,275,216
1284,0.1,0.9,0.4,1.65,-2.14,-3.97,345,452,402,271,243
1285,0.11,0.91,0.39,0.85,-6.16,-8.3,342,445,401,274,220
1286,0.05,0.9,0.42,6.59,-6.96,1.4,343,447,397,274,221
1287,0.05,0.91,0.41,0.0,-4.03,-1.04,343,442,402,276,218
1288,0.06,0.9,0.41,-0.92,-3.54,-3.23,340,443,400,271,222
1289,0.06,0.9,0.43,-0.49,-3.48,-1.95,344,449,405,275,221
1290,0.07,0.92,0.41,-0.98,-3.17,-2.81,345,452,403,275,220
1291,0.05,0.92,0.42,-5.07,-1.83,-2.44,343,451,398,275,216
1292,0.08,0.92,0.46,2.62,-2.14,-0.06,344,449,400,277,218
1293,0.12,0.89,0.42,8.48,-5.25,5.43,343,444,400,275,252
1294,0.07,0.87,0.44,-0.49,-3.3,-2.75,341,451,400,275,217
1295,0.07,0.9,0.45,-1.22,-3.36,-2.62,343,450,400,272,219
1296,0.06,0.88,0.44,-0.49,-2.62,-1.34,342,448,399,278,220
1297,0.07,0.87,0.44,-1.59,-1.89,-2.62,342,444,400,274,221
1298,0.09,0.9,0.45,2.93,-2.87,-0.73,345,448,401,276,219
1299,0.09,0.88,0.45,0.61,-2.69,-3.97,340,449,402,275,222
1300,0.1,0.89,0.45,-1.22,-3.05,-3.17,343,453,398,274,222
1301,0.08,0.87,0.45,-0.12,-2.81,-2.32,343,451,400,282,220
1302,0.07,0.9,0.43,6.04,-3.48,-0.55,345,453,400,272,220
1303,0.09,0.88,0.43,1.04,-3.36,-2.56,344,450,401,275,221
1304,0.1,0.88,0.43,0.79,-2.14,-1.04,339,448,401,278,221
1305,0.09,0.89,0.44,1.22,-1.77,-1.59,342,452,408,277,227
1306,0.09,0.89,0.45,0.49,-3.54,-2.5,345,445,401,276,220
1307,0.1,0.89,0.45,-1.83,-3.54,-2.75,342,445,402,274,233
1308,0.1,0.91,0.44,1.65,-3.91,-1.77,348,448,401,272,220
1309,0.1,0.89,0.43,-0.43,-5.49,-1.71,346,448,402,277,220
1310,0.09,0.89,0.43,-0.98,-0.49,-3.48,340,449,397,277,220
1311,0.08,0.88,0.44,-3.11,4.21,-11.29,341,444,402,275,221
1312,0.06,0.87,0.45,1.83,-5.19,-2.87,346,443,400,278,219
1313,0.01,0.89,0.46,-2.2,-2.01,-7.2,343,449,398,275,220
1314,0.05,0.92,0.46,-0.06,-2.81,-1.16,344,458,400,276,219
1315,0.06,0.89,0.46,-0.61,-7.39,-5.86,343,447,401,281,217
1316,0.05,0.88,0.48,-0.18,-0.49,0.55,343,448,399,273,220
1317,0.07,0.89,0.48,2.75,-5.92,-2.08,344,449,403,278,218
1318,0.05,0.87,0.49,1.1,-5.19,0.0,350,449,400,274,221
1319,0.1,0.84,0.47,-3.17,-7.75,-2.5,344,450,400,274,218
1320,0.1,0.88,0.48,1.46,-2.62,-2.01,344,448,403,274,222
1321,0.14,0.9,0.47,5.8,-14.77,8.48,344,444,400,277,220
1322,0.1,0.87,0.47,-1.77,3.11,-11.72,343,452,401,278,222
1323,0.02,0.86,0.49,-1.34,-2.99,-2.14,342,449,394,277,221
1324,0.02,0.87,0.49,1.22,-1.95,-2.08,343,447,402,284,222
1325,0.02,0.85,0.5,-0.79,-1.28,-3.85,341,449,401,276,222
1326,0.03,0.87,0.49,-1.28,2.2,-8.0,344,447,397,276,218
1327,0.03,0.88,0.5,-0.18,-4.15,-1.16,343,449,400,279,221
1328,0.02,0.88,0.51,0.43,-4.03,-3.23,343,442,402,272,221
1329,0.02,0.88,0.51,0.49,-2.5,-1.89,342,448,404,280,219
1330,0.02,0.88,0.52,-1.53,-2.81,-2.56,344,444,397,278,236
1331,0.03,0.85,0.5,-0.73,-1.4,-3.54,344,444,400,273,223
1332,0.04,0.86,0.52,-0.73,-3.17,-2.75,344,446,402,279,221
1333,0.02,0.87,0.53,2.26,-1.71,-4.46,343,446,402,275,223
1334,0.03,0.85,0.5,3.48,-3.05,-2.26,345,448,402,275,220
1335,0.02,0.85,0.5,-2.44,-3.6,-2.93,342,450,401,283,221
1336,0.03,0.87,0.52,0.85,-3.6,-2.08,343,450,401,276,224
1337,0.04,0.86,0.5,-0.18,-2.69,0.37,346,453,403,279,211
1338,0.01,0.85,0.49,-0.06,-2.44,-5.43,344,450,403,277,222
1339,0.02,0.85,0.5,4.82,7.87,-1.71,344,446,397,274,218
1340,0.03,0.87,0.49,1.65,3.66,-11.05,346,443,403,277,218
1341,0.06,0.84,0.49,16.54,-9.16,-5.07,343,442,396,278,223
1342,0.01,0.94,0.39,-7.81,-3.05,-13.92,341,451,400,274,222
1343,-0.13,0.87,0.43,13.61,6.84,-8.06,338,447,403,275,231
1344,-0.01,0.91,0.41,8.67,-8.3,-1.89,345,443,401,276,218
1345,-0.08,0.88,0.44,-6.84,-1.71,-6.1,342,440,400,275,216
1346,-0.1,0.87,0.44,0.67,-4.27,-3.17,342,444,401,278,221
1347,-0.04,0.93,0.45,0.18,16.05,4.39,339,446,403,274,216
1348,0.05,0.94,0.39,-3.17,9.03,-0.18,344,443,403,278,235
1349,-0.04,0.81,0.47,-8.54,-6.35,4.33,340,447,401,278,219
1350,-0.0,0.92,0.47,-9.16,1.22,-1.22,342,438,402,274,216
1351,-0.01,0.9,0.46,0.06,-4.82,-5.07,346,446,401,276,219
1352,-0.03,0.89,0.47,4.33,-3.17,-1.28,344,448,401,279,222
1353,-0.01,0.85,0.49,-2.62,-5.55,-4.33,347,443,401,280,249
1354,0.0,0.85,0.5,3.48,-3.78,1.4,347,448,399,278,218
1355,0.05,0.91,0.45,8.97,-6.84,-3.42,343,444,404,276,222
1356,0.05,0.87,0.46,2.01,-3.66,-0.24,347,439,397,275,220
1357,0.06,0.89,0.47,-0.61,-2.99,-1.34,346,439,404,276,223
1358,0.05,0.87,0.49,2.5,-3.6,0.0,347,437,401,277,221
1359,0.05,0.88,0.49,-1.65,-5.07,-0.98,343,442,401,277,221
1360,0.05,0.87,0.5,-1.59,-3.85,-3.91,346,444,397,279,220
1361,0.04,0.87,0.5,-1.71,-1.4,-1.4,347,446,411,273,221
1362,0.07,0.86,0.5,0.0,-4.27,-3.11,345,443,398,275,221
1363,0.08,0.87,0.49,0.61,-3.48,0.06,341,444,402,278,222
1364,0.07,0.87,0.49,0.67,-4.58,-1.77,343,442,403,276,223
1365,0.08,0.86,0.49,0.55,-3.11,-2.81,348,442,400,277,219
1366,0.07,0.87,0.5,-1.28,-0.98,-4.7,344,444,401,286,220
1367,0.07,0.87,0.48,-0.12,-3.78,-1.46,345,442,401,275,223
1368,0.07,0.87,0.49,-0.06,-2.87,-2.75,347,442,399,280,222
1369,0.07,0.88,0.49,0.98,-1.53,-2.87,346,439,404,276,220
1370,0.07,0.88,0.5,0.79,-4.15,0.18,345,439,402,278,223
1371,0.09,0.87,0.5,-0.55,-2.87,-2.32,349,442,400,278,232
1372,0.06,0.87,0.49,0.43,-0.43,-2.2,346,446,402,280,220
1373,0.08,0.87,0.48,0.85,-4.09,-0.49,343,445,401,280,221
1374,0.08,0.87,0.48,-1.1,-3.97,-2.26,346,442,402,278,223
1375,0.08,0.87,0.49,-1.4,-2.14,-2.81,344,442,398,278,218
1376,0.09,0.87,0.49,0.92,-4.94,-2.08,345,442,401,280,221
1377,0.08,0.86,0.49,0.12,-2.56,-2.62,351,443,400,284,219
1378,0.07,0.87,0.49,1.34,-2.2,-2.08,348,445,403,278,223
1379,0.08,0.86,0.48,5.49,-1.16,-3.11,346,443,401,280,221
1380,0.07,0.87,0.48,2.14,-0.85,-3.23,346,441,404,278,222
1381,0.07,0.89,0.47,-1.95,-3.97,-5.92,344,444,401,277,220
1382,0.05,0.87,0.49,0.61,-3.85,-1.16,344,437,404,278,220
1383,0.06,0.87,0.48,0.85,-2.93,-4.21,345,446,400,279,220
1384,0.06,0.88,0.49,-1.34,-3.23,-1.53,345,446,401,278,223
1385,0.06,0.87,0.49,-0.31,-3.85,-1.34,338,444,406,278,221
1386,0.07,0.87,0.5,0.24,-4.64,-1.65,343,441,403,277,222
1387,0.07,0.86,0.49,-2.99,-3.23,-1.04,341,441,401,278,223
1388,0.07,0.85,0.51,0.06,-4.58,-3.36,345,439,400,278,223
1389,0.06,0.86,0.51,-0.67,-1.77,-4.64,345,438,406,274,224
1390,0.07,0.86,0.52,1.28,-2.38,-2.2,342,443,400,278,222
1391,0.03,0.85,0.51,-0.61,-0.73,-4.76,344,443,400,280,224
1392,0.04,0.87,0.5,1.1,0.0,-1.59,345,445,400,279,224
1393,0.03,0.86,0.5,-1.34,-4.33,-5.86,347,446,400,275,221
1394,0.01,0.88,0.5,4.94,0.18,-4.33,346,443,401,281,222
1395,0.02,0.88,0.5,-0.67,-2.08,-2.99,348,440,402,277,224
1396,-0.0,0.88,0.5,0.55,-3.54,-4.33,344,445,400,274,224
1397,0.0,0.87,0.5,-0.61,-6.1,-9.95,343,439,405,279,222
1398,-0.05,0.86,0.46,4.76,-3.42,-9.4,347,448,403,284,223
1399,-0.1,0.87,0.47,2.62,0.12,-9.28,345,448,404,280,221
1400,-0.1,0.9,0.51,-2.32,-8.97,-6.16,344,443,402,280,220
1401,-0.1,0.87,0.5,-3.11,-4.88,-5.0,345,442,403,277,219
1402,-0.11,0.87,0.5,0.12,-2.26,-1.53,343,442,400,278,223
1403,-0.08,0.85,0.49,0.37,-5.98,-0.31,346,445,398,278,220
1404,-0.08,0.85,0.49,-2.2,-2.81,-1.71,345,442,399,279,222
1405,-0.08,0.87,0.49,-0.49,-1.46,-1.59,345,444,397,281,223
1406,-0.08,0.87,0.49,0.55,-3.91,-3.23,347,446,400,275,228
1407,-0.07,0.89,0.49,0.49,-3.78,-1.16,346,446,399,281,221
1408,-0.08,0.86,0.47,-2.75,-3.3,-1.59,345,443,405,277,223
1409,-0.08,0.86,0.48,-2.32,-3.36,-2.14,345,443,398,280,221
1410,-0.08,0.86,0.49,-0.61,-2.81,-2.26,345,446,400,278,221
1411,-0.08,0.88,0.5,0.24,-2.87,-1.77,347,443,397,279,222
1412,-0.09,0.87,0.5,-0.06,-2.93,-2.26,343,443,396,280,220
1413,-0.08,0.87,0.49,-0.31,-2.14,-2.93,345,444,404,281,221
1414,-0.08,0.86,0.49,-0.73,-3.78,-3.36,344,437,402,279,224
1415,-0.07,0.88,0.5,-0.06,-2.93,-1.28,347,443,403,284,221
1416,-0.06,0.85,0.5,1.22,-5.0,0.24,347,443,399,270,221
1417,-0.03,0.86,0.49,0.0,-3.3,-1.95,344,442,398,281,221
1418,-0.06,0.86,0.51,-1.4,-3.85,-0.92,348,444,402,279,221
1419,-0.02,0.87,0.52,1.22,-3.11,0.43,347,444,399,279,221
1420,-0.03,0.87,0.51,-1.22,-2.81,-1.4,345,446,400,278,219
1421,-0.02,0.86,0.52,-0.37,-3.23,-4.33,345,443,401,276,222
1422,-0.03,0.85,0.52,1.46,-3.05,-2.08,345,445,399,278,222
1423,-0.02,0.85,0.51,0.61,-4.27,-1.95,348,447,403,281,220
1424,-0.04,0.87,0.51,0.61,-2.56,-2.44,346,443,404,279,217
1425,-0.04,0.85,0.51,2.32,-3.6,-0.31,345,440,399,275,221
1426,-0.02,0.86,0.49,1.46,-1.59,-3.66,348,446,397,280,221
1427,-0.02,0.87,0.49,2.32,-3.91,-2.93,345,443,399,277,222
1428,-0.01,0.89,0.48,4.7,-2.62,-0.49,346,443,404,278,223
1429,-0.0,0.88,0.47,-0.79,-5.31,-1.53,346,448,399,280,222
1430,0.01,0.89,0.49,-0.49,-2.26,-1.83,348,445,398,278,221
1431,-0.01,0.83,0.51,-4.33,-2.44,-3.23,342,446,399,278,221
1432,-0.05,0.82,0.48,8.85,1.46,-8.67,346,440,398,282,222
1433,-0.06,0.91,0.51,2.01,-10.44,-4.64,345,445,400,278,242
1434,-0.01,0.79,0.52,-10.93,-9.46,-5.31,347,445,403,282,222
1435,-0.03,0.88,0.5,5.98,-0.18,-1.53,344,444,400,279,224
1436,-0.03,0.91,0.48,-1.53,-4.46,0.85,345,449,398,285,230
1437,-0.03,0.89,0.5,-5.62,-4.21,-1.1,347,435,397,281,218
1438,-0.02,0.91,0.53,-4.09,-2.81,-8.48,345,449,396,278,225
1439,0.0,0.88,0.49,-5.37,-6.29,-6.77,345,448,401,282,218
1440,-0.02,0.89,0.46,13.31,8.24,-0.37,346,444,399,279,219
1441,0.01,0.86,0.47,-0.43,1.46,-3.36,342,440,403,281,222
1442,0.0,0.86,0.49,-2.32,-4.39,-2.14,346,441,400,278,222
1443,-0.03,0.9,0.49,0.49,-5.68,1.04,346,445,403,279,235
1444,-0.02,0.86,0.48,-7.02,-3.97,1.16,346,457,400,279,222
1445,0.01,0.85,0.49,-0.24,3.17,-1.95,347,446,401,280,221
1446,0.01,0.86,0.52,-1.1,-4.52,-2.62,347,444,400,278,224
1447,-0.0,0.88,0.5,4.21,-0.37,0.24,346,441,402,280,222
1448,0.0,0.86,0.5,-2.87,-3.36,-1.34,346,441,403,279,222
1449,0.0,0.88,0.5,-2.62,-2.5,-1.34,345,443,399,277,229
1450,0.03,0.85,0.48,1.71,-3.23,-0.55,348,446,400,280,224
1451,0.03,0.88,0.48,-5.62,-3.42,-3.6,348,441,400,281,222
1452,0.03,0.87,0.49,-0.31,-1.71,-0.43,342,443,403,281,222
1453,0.04,0.88,0.5,-1.04,-0.55,-3.05,345,443,400,278,223
1454,0.04,0.88,0.51,-3.91,-2.69,3.91,343,444,401,281,224
1455,0.08,0.88,0.52,0.18,-4.15,-6.53,350,443,402,278,222
1456,0.05,0.91,0.54,2.32,-3.11,-2.32,343,444,402,289,222
1457,0.03,0.86,0.5,0.24,-2.5,-4.03,349,447,403,279,225
1458,0.03,0.89,0.51,2.01,-3.11,-3.97,346,445,397,276,225
1459,0.05,0.86,0.51,-1.34,-2.2,-3.05,347,445,403,282,225
1460,0.06,0.88,0.51,4.27,-2.87,-1.46,345,441,398,278,224
1461,0.06,0.86,0.48,-8.18,-5.19,-0.79,349,440,402,281,223
1462,0.05,0.86,0.47,-3.23,-3.17,-1.65,346,447,402,278,222
1463,0.04,0.89,0.5,1.28,0.06,-2.14,344,440,402,281,221
1464,0.04,0.83,0.51,-6.77,-5.49,-7.51,354,445,400,281,224
1465,0.01,0.88,0.5,-2.14,-2.75,-2.01,343,446,400,278,222
1466,0.05,0.95,0.52,4.58,2.26,-4.64,340,443,398,278,221
1467,-0.0,0.86,0.49,-3.42,-7.39,-5.55,336,449,400,276,216
1468,-0.01,0.84,0.52,-2.26,-5.68,-0.67,336,450,405,280,222
1469,0.03,0.92,0.54,-9.89,-0.85,-6.59,338,440,400,275,223
1470,-0.0,0.82,0.53,1.16,2.44,-3.66,336,449,400,280,224
1471,0.04,0.85,0.52,1.22,0.67,-2.26,337,447,396,277,222
1472,0.02,0.87,0.55,-0.55,-2.38,-3.36,338,442,398,286,224
1473,0.01,0.85,0.55,1.71,-2.75,-1.34,339,448,400,280,223
1474,0.0,0.86,0.54,0.18,-2.75,-1.34,335,444,398,276,224
1475,0.01,0.84,0.53,-1.04,-5.68,-1.04,340,446,399,281,223
1476,0.03,0.84,0.55,0.24,-1.46,-2.75,338,444,402,281,222
1477,0.02,0.83,0.55,-0.85,-2.69,-2.69,340,444,399,279,222
1478,0.02,0.84,0.54,-1.83,-2.14,-2.32,340,442,399,280,220
1479,0.03,0.84,0.54,2.99,-2.69,-3.78,340,445,396,282,225
1480,0.03,0.84,0.54,3.48,-4.27,-0.31,341,442,400,277,222
1481,0.03,0.82,0.52,1.34,-1.59,-2.44,343,443,398,281,222
1482,0.04,0.84,0.53,0.12,-4.94,-2.2,341,435,398,283,221
1483,0.02,0.86,0.55,2.44,-2.69,-0.18,341,444,398,283,237
1484,0.03,0.83,0.54,-0.24,-2.87,-2.01,341,443,395,286,221
1485,0.04,0.84,0.55,-0.18,-3.3,-0.85,343,435,400,279,225
1486,0.03,0.85,0.54,-0.67,-2.75,-3.11,341,440,397,279,222
1487,0.04,0.86,0.54,-1.1,-1.28,-2.14,339,443,401,281,223
1488,0.03,0.84,0.55,-2.5,-3.05,-4.09,341,443,400,281,225
1489,0.02,0.85,0.56,0.79,-2.99,-1.34,344,434,400,277,224
1490,0.03,0.84,0.55,0.61,-4.64,-0.49,338,444,394,279,223
1491,0.03,0.85,0.56,-1.59,-2.69,-2.56,338,439,394,281,222
1492,0.02,0.82,0.56,0.85,-2.14,-2.5,343,434,397,280,226
1493,0.02,0.83,0.56,-1.65,-3.42,-1.77,342,439,398,279,248
1494,0.01,0.82,0.57,-0.49,-2.93,-1.53,341,441,400,282,225
1495,0.03,0.83,0.57,1.28,-3.17,-1.71,350,443,399,283,222
1496,0.04,0.82,0.56,1.53,-2.2,-1.95,341,439,397,281,223
1497,0.05,0.83,0.57,-0.61,-0.73,-3.66,343,439,396,280,229
1498,0.03,0.86,0.59,4.39,-2.44,-2.38,342,440,397,282,231
1499,0.04,0.81,0.58,0.06,-2.44,-0.79,342,439,396,282,256
1500,0.06,0.81,0.58,-1.28,-4.33,-2.08,338,441,397,282,221
1501,0.06,0.81,0.59,-2.62,-2.32,0.06,342,450,397,278,220
1502,0.06,0.81,0.59,1.59,-3.78,-0.24,348,440,397,279,223
1503,0.04,0.81,0.59,-1.89,-4.09,-2.75,340,437,397,281,224
1504,0.07,0.81,0.6,-0.43,-4.82,0.49,345,435,394,282,222
1505,0.05,0.8,0.59,-0.24,-2.75,-2.2,344,442,397,276,214
1506,0.18,0.95,0.26,-2.14,1.65,-9.09,346,447,402,244,192
1507,0.11,0.95,0.29,-0.12,3.05,-6.23,344,446,406,243,192
1508,0.15,0.95,0.27,0.43,-0.31,-3.78,344,447,401,256,195
1509,0.16,0.95,0.27,1.4,-4.27,-0.79,347,450,405,247,194
1510,0.14,0.94,0.27,0.55,-3.48,-1.22,341,453,402,243,196
1511,0.14,0.96,0.27,2.2,-3.85,-4.03,348,454,408,248,198
1512,0.13,0.95,0.26,6.84,-1.65,-4.09,343,450,413,249,195
1513,0.14,0.94,0.27,0.61,-3.66,-3.6,345,445,402,246,194
1514,0.15,0.97,0.29,0.0,-8.48,-7.63,343,443,405,246,195
1515,0.11,0.98,0.26,-2.14,-5.74,-10.07,346,448,405,245,200
1516,0.12,0.96,0.26,-0.98,-10.99,-6.9,346,454,406,247,196
1517,0.08,0.91,0.26,8.18,3.91,-7.87,346,451,407,249,200
1518,0.08,0.96,0.27,1.22,2.93,-4.7,346,454,409,247,198
1519,0.09,0.96,0.29,2.14,-1.95,-1.4,348,454,408,249,200
1520,0.09,0.94,0.28,-5.49,-4.76,0.43,342,453,405,248,200
1521,0.08,0.95,0.3,-0.61,-3.72,-3.6,346,449,405,251,196
1522,0.08,0.95,0.3,-1.28,-3.23,-2.44,345,455,407,248,197
1523,0.08,0.95,0.31,-0.18,-2.81,-3.3,341,455,408,252,197
1524,0.09,0.93,0.29,-1.89,-3.97,-2.69,345,453,406,251,196
1525,0.09,0.96,0.3,0.12,-3.36,-3.6,346,451,405,249,201
1526,0.08,0.95,0.3,-0.18,-1.83,-3.23,355,454,404,252,198
1527,0.08,0.95,0.29,-0.37,-3.6,-1.04,346,455,402,249,199
1528,0.1,0.94,0.3,-1.59,-4.39,-2.26,342,448,407,249,199
1529,0.1,0.95,0.32,1.22,-3.23,-3.23,343,455,404,250,204
1530,0.08,0.95,0.31,2.93,-3.05,-1.4,344,449,408,251,201
1531,0.08,0.95,0.29,0.67,-0.92,-1.95,344,452,409,252,202
1532,0.08,0.94,0.31,0.85,-2.99,-3.85,349,445,405,249,200
1533,0.09,0.94,0.31,-0.98,-3.72,-1.89,345,454,402,248,201
1534,0.08,0.93,0.3,-1.04,-3.3,-3.3,346,454,405,250,201
1535,0.09,0.96,0.31,0.61,-1.77,-4.7,349,450,407,250,202
1536,0.06,0.95,0.31,0.73,-2.14,-1.77,347,450,410,250,228
1537,0.05,0.95,0.32,0.55,-2.62,-3.23,346,447,404,249,200
1538,0.08,0.95,0.32,1.4,-4.09,-3.3,350,452,407,254,201
1539,0.07,0.94,0.3,-1.04,-1.28,-1.71,347,451,403,248,203
1540,0.07,0.94,0.31,0.79,-2.99,-2.14,349,453,402,248,202
1541,0.07,0.95,0.31,0.61,-2.93,-2.56,347,447,406,252,201
1542,0.08,0.96,0.32,-0.79,-2.75,-3.11,346,452,409,251,204
1543,0.08,0.95,0.31,0.73,-4.33,-2.14,347,454,406,251,204
1544,0.08,0.94,0.32,1.83,-5.98,-5.0,347,451,406,251,204
1545,0.05,0.95,0.32,0.61,-0.55,-4.46,349,452,403,254,204
1546,0.05,0.94,0.32,0.67,-0.31,-0.92,351,456,408,253,202
1547,0.08,0.94,0.31,-2.38,-2.38,-0.43,347,447,402,253,201
1548,0.06,0.95,0.34,0.49,-4.33,-9.52,347,447,407,253,203
1549,0.01,0.93,0.35,4.27,-0.92,-2.62,350,455,405,254,207
1550,0.0,0.94,0.31,3.6,2.44,-0.79,347,456,403,257,203
1551,0.05,0.98,0.3,9.28,-8.54,1.04,341,455,414,251,200
1552,0.09,0.99,0.3,5.74,-1.28,6.84,347,453,405,253,204
1553,0.13,0.98,0.33,-4.39,0.31,2.5,346,447,401,253,204
1554,0.11,0.96,0.23,-1.89,-1.1,-1.95,351,456,406,253,206
1555,0.12,0.92,0.26,-1.71,-1.4,-4.09,347,446,407,256,205
1556,0.08,1.06,0.34,-2.08,-2.69,-7.63,348,453,401,254,208
1557,0.12,0.96,0.29,-4.94,-4.7,3.05,347,454,406,256,209
1558,0.09,0.93,0.25,-5.37,-5.07,-1.83,350,453,403,263,208
1559,0.09,0.95,0.32,-1.95,-10.13,5.31,350,454,405,261,207
1560,0.11,0.96,0.32,2.75,-6.84,-2.2,344,451,403,260,207
1561,0.05,0.93,0.3,2.26,-5.31,-0.85,350,454,403,258,209
1562,0.09,0.95,0.34,-7.93,-5.68,-1.1,346,445,401,261,205
1563,0.03,0.94,0.35,-0.92,-4.09,-2.81,346,458,401,259,208
1564,0.08,0.88,0.31,4.82,-2.99,2.26,346,450,403,259,208
1565,0.04,0.94,0.37,-1.28,-7.69,0.43,345,455,405,262,209
1566,0.05,0.91,0.35,-5.62,-3.85,-3.17,347,452,406,262,205
1567,0.06,0.92,0.37,0.18,-4.7,-1.22,347,449,403,259,208
1568,0.06,0.92,0.33,1.16,-2.01,0.12,347,448,406,263,210
1569,0.04,0.94,0.34,-2.2,-4.94,-0.12,346,451,404,260,210
1570,0.09,0.92,0.36,2.38,-0.24,-0.98,347,451,411,261,208
1571,0.08,0.93,0.35,2.26,-3.36,-2.5,346,450,404,262,208
1572,0.07,0.93,0.36,0.73,-3.6,-1.46,345,455,402,261,213
1573,0.07,0.94,0.36,-1.89,-3.97,-3.6,350,446,407,261,211
1574,0.07,0.91,0.35,0.49,-3.42,-4.76,343,448,406,264,207
1575,0.09,0.93,0.36,-1.89,-3.23,-0.85,345,452,405,261,208
1576,0.07,0.9,0.41,-6.35,-2.32,1.83,345,452,406,264,209
1577,0.13,0.91,0.39,1.04,0.24,1.34,344,455,407,265,209
1578,0.11,0.92,0.38,1.59,-5.07,-3.72,346,451,410,265,207
1579,0.11,0.9,0.38,-1.95,-4.39,-0.61,347,452,400,263,211
1580,0.13,0.91,0.4,-0.61,-3.05,-2.01,346,453,404,261,212
1581,0.13,0.92,0.39,3.72,-2.2,-5.0,347,455,403,260,212
1582,0.12,0.92,0.38,3.05,0.61,-5.43,347,453,401,263,207
1583,0.13,0.92,0.39,2.5,-2.08,0.12,346,446,404,261,209
1584,0.13,0.9,0.37,1.53,-4.27,-1.95,349,453,404,263,210
1585,0.12,0.91,0.38,-0.92,-2.81,-1.59,345,453,406,264,212
1586,0.14,0.91,0.37,0.37,-4.03,-5.62,347,455,402,266,211
1587,0.13,0.9,0.38,-2.26,-3.11,-1.4,343,456,408,277,213
1588,0.15,0.91,0.38,-0.06,-2.81,-0.67,345,453,406,263,209
1589,0.15,0.91,0.39,1.22,-2.62,-2.08,342,449,403,264,205
1590,0.15,0.91,0.39,0.61,-2.38,-1.95,346,456,403,263,214
1591,0.15,0.91,0.4,-0.43,-2.69,-2.5,345,446,403,266,213
1592,0.16,0.91,0.39,2.99,-2.62,-2.75,346,453,405,266,211
1593,0.14,0.9,0.39,-1.83,-2.01,-2.08,345,452,404,266,212
1594,0.14,0.9,0.4,-2.75,-3.48,-2.38,347,452,399,266,208
1595,0.13,0.9,0.41,-1.95,-2.26,-3.48,347,455,400,264,209
1596,0.16,0.91,0.4,0.67,-1.95,-2.01,346,453,402,266,212
1597,0.14,0.91,0.41,0.79,-3.78,-2.81,349,448,401,264,210
1598,0.15,0.9,0.4,0.31,-4.15,-0.92,344,453,401,265,213
1599,0.15,0.9,0.41,2.62,-1.65,-3.42,342,450,401,266,212
1600,0.13,0.9,0.4,0.98,0.98,-4.39,346,450,407,267,215
1601,0.13,0.91,0.39,0.61,-2.99,-2.38,344,451,403,263,206
1602,0.13,0.9,0.4,0.12,-3.91,-1.53,344,448,400,267,214
1603,0.13,0.9,0.4,-0.98,-3.91,-2.01,344,450,405,267,210
1604,0.13,0.89,0.41,-1.53,-3.78,-1.77,346,450,404,265,213
1605,0.13,0.9,0.4,-3.11,-3.3,-4.39,346,442,403,263,213
1606,0.14,0.9,0.41,1.95,-3.78,-0.37,345,448,399,268,209
1607,0.14,0.89,0.41,1.04,-2.62,-1.71,345,450,399,267,210
1608,0.12,0.91,0.4,0.24,-3.6,-2.44,341,448,401,265,209
1609,0.13,0.91,0.41,-1.53,-2.69,-3.42,346,451,397,266,214
1610,0.12,0.9,0.42,-0.67,-4.76,-2.32,345,449,397,266,212
1611,0.12,0.88,0.42,-1.46,-1.28,-0.06,347,446,393,264,214
1612,0.15,0.85,0.44,-1.59,-7.32,-1.4,338,449,404,266,210
1613,0.15,0.87,0.45,-1.53,-4.15,-2.5,345,449,401,265,215
1614,0.14,0.88,0.45,0.24,-3.05,-1.65,341,449,400,266,212
1615,0.15,0.87,0.45,-1.16,-2.5,-0.37,346,449,400,267,212
1616,0.15,0.87,0.45,-5.74,-4.7,-3.48,345,447,397,265,214
1617,0.16,0.88,0.48,-3.17,-8.18,-2.99,347,450,399,267,211
1618,0.15,0.89,0.48,-4.52,-5.86,-3.54,346,449,399,267,215
1619,0.15,0.88,0.46,5.37,-5.92,-3.54,348,445,401,269,214
1620,0.15,0.87,0.49,-6.77,-11.54,-1.1,344,449,414,269,213
1621,0.18,0.85,0.48,1.34,-3.11,-1.28,347,448,397,266,212
1622,0.2,0.86,0.48,2.62,-3.05,-2.62,345,452,403,275,214
1623,0.19,0.86,0.48,-2.26,4.7,-2.62,344,454,400,270,212
1624,0.19,0.87,0.49,1.77,-3.91,0.49,346,449,401,269,217
1625,0.21,0.86,0.49,-4.27,-4.64,-2.56,343,449,401,269,214
1626,0.2,0.85,0.5,-0.43,-2.75,-2.99,347,450,403,269,214
1627,0.21,0.86,0.51,1.04,-2.56,-1.83,345,452,400,266,213
1628,0.2,0.85,0.51,2.26,-3.42,-2.38,347,449,399,263,222
1629,0.2,0.84,0.51,1.1,-2.08,-0.92,347,451,400,270,214
1630,0.21,0.84,0.52,2.2,-2.69,-2.2,348,454,397,269,213
1631,0.2,0.83,0.53,-2.62,-1.77,-1.89,344,450,402,269,214
1632,0.21,0.82,0.53,-1.95,-4.58,-4.39,348,447,401,268,216
1633,0.21,0.81,0.53,-0.73,-0.85,0.73,344,451,402,267,214
1634,0.2,0.82,0.55,-1.28,-2.56,-5.49,345,445,403,269,216
1635,0.2,0.81,0.56,-1.59,-3.05,-2.2,345,453,399,269,213
1636,0.2,0.79,0.56,1.53,-3.23,-2.44,345,451,401,267,216
1637,0.19,0.82,0.57,-0.18,-0.92,-2.81,345,453,400,271,217
1638,0.18,0.8,0.57,-0.12,-3.72,-2.26,348,450,403,268,232
1639,0.19,0.8,0.57,0.18,-2.08,-3.23,346,451,400,269,208
1640,0.2,0.8,0.58,0.0,-2.69,-1.53,344,450,400,270,211
1641,0.18,0.8,0.58,0.31,-2.69,-3.17,341,454,401,268,216
1642,0.19,0.79,0.58,0.43,-2.69,-2.38,345,445,399,270,213
1643,0.18,0.81,0.57,1.4,-4.15,-4.09,342,449,406,269,214
1644,0.17,0.82,0.55,5.19,-1.71,-3.78,347,450,400,268,216
1645,0.16,0.84,0.51,7.57,-1.95,-8.0,345,453,397,266,216
1646,0.15,0.84,0.42,9.09,-9.58,-4.52,344,449,401,268,217
1647,0.11,0.98,0.45,16.3,-1.04,-5.62,344,446,401,272,217
1648,0.12,0.89,0.37,-2.75,-5.55,1.89,341,449,402,268,223
1649,0.13,0.9,0.42,-5.31,-2.81,-2.08,341,454,400,270,215
1650,0.13,0.89,0.44,0.24,-4.58,-2.44,345,452,399,270,217
1651,0.14,0.88,0.45,-1.46,-3.05,-1.65,342,449,401,274,235
1652,0.14,0.86,0.47,-3.54,-2.81,-1.77,341,444,398,269,213
1653,0.14,0.87,0.48,-0.55,-4.09,-2.38,344,455,403,271,215
1654,0.14,0.86,0.48,0.0,-2.62,-1.77,344,454,399,265,216
1655,0.14,0.86,0.49,-1.53,-2.87,-1.83,346,450,402,271,217
1656,0.15,0.85,0.49,-0.85,-3.72,-1.71,344,454,397,271,214
1657,0.14,0.85,0.5,0.18,-2.14,-1.89,344,452,403,270,214
1658,0.15,0.85,0.5,-0.73,-3.11,-3.23,347,452,407,269,215
1659,0.15,0.86,0.51,-0.55,-3.23,-2.32,346,447,401,268,215
1660,0.14,0.85,0.5,2.93,-2.75,-2.75,346,444,402,271,217
1661,0.15,0.85,0.5,0.55,-1.89,-0.85,344,451,401,268,216
1662,0.14,0.85,0.49,-0.55,-2.5,-2.75,345,449,402,275,217
1663,0.14,0.85,0.5,-0.18,-3.42,-2.38,347,449,401,269,213
1664,0.15,0.85,0.51,-1.59,-2.26,-0.37,347,452,415,269,213
1665,0.15,0.84,0.51,0.49,-1.71,-1.4,342,453,399,268,218
1666,0.15,0.84,0.51,-0.79,-4.03,-2.01,348,452,399,269,214
1667,0.16,0.85,0.52,0.73,-1.4,-0.43,344,454,400,266,223
1668,0.17,0.83,0.51,0.55,-4.03,-2.5,345,454,400,270,213
1669,0.16,0.85,0.52,-0.73,-2.56,-2.08,348,452,400,270,215
1670,0.15,0.83,0.52,0.85,-3.3,-2.56,340,452,400,268,217
1671,0.17,0.85,0.52,-1.95,-3.85,-0.98,345,452,400,268,213
1672,0.17,0.83,0.52,0.24,-3.66,-1.34,343,450,398,269,216
1673,0.16,0.82,0.53,0.43,-2.56,-2.44,343,457,400,267,218
1674,0.17,0.83,0.53,-0.37,-2.38,-2.26,343,451,396,272,216
1675,0.19,0.84,0.54,0.98,-3.48,-1.1,341,453,402,271,216
1676,0.17,0.83,0.54,0.55,-2.26,-1.89,341,452,403,267,214
1677,0.17,0.82,0.54,0.37,-2.44,-3.05,348,453,400,268,218
1678,0.17,0.83,0.53,2.56,-2.75,-2.44,345,450,402,271,246
1679,0.16,0.84,0.52,4.94,-0.61,-3.42,345,447,403,272,217
1680,0.14,0.86,0.48,4.82,0.92,-2.81,343,449,403,269,216
1681,0.14,0.88,0.47,3.78,-3.36,-2.38,345,449,398,277,216
1682,0.14,0.89,0.46,1.77,-1.95,-1.89,344,449,399,271,215
1683,0.14,0.89,0.48,4.03,-2.75,-0.85,347,450,402,272,216
1684,0.15,0.85,0.44,-0.24,-0.73,-6.96,345,450,406,266,219
1685,0.13,0.88,0.46,-0.12,-4.58,0.18,342,454,400,269,219
1686,0.14,0.89,0.47,-2.2,-2.81,-1.95,344,452,401,272,216
1687,0.16,0.88,0.47,-0.31,-2.69,-2.75,340,454,399,274,217
1688,0.13,0.87,0.46,-2.99,-3.05,-5.25,347,452,399,270,216
1689,0.14,0.85,0.49,-0.92,-4.58,-2.32,346,451,403,273,215
1690,0.14,0.86,0.5,1.04,-3.36,-1.59,344,449,399,273,218
1691,0.14,0.85,0.49,0.37,-3.17,-2.69,347,449,403,270,217
1692,0.14,0.86,0.49,0.49,-1.89,-3.05,345,449,397,273,215
1693,0.14,0.87,0.49,2.56,-1.28,-3.66,347,452,399,269,218
1694,0.14,0.86,0.49,0.31,-5.68,-0.98,345,450,400,270,217
1695,0.13,0.88,0.47,0.67,-3.11,-1.71,343,448,397,273,217
1696,0.15,0.87,0.47,1.46,-3.42,-2.44,347,449,396,269,216
1697,0.15,0.89,0.47,2.38,-3.97,-3.05,347,454,402,270,215
1698,0.15,0.88,0.46,1.4,-3.11,-2.32,344,444,406,273,216
1699,0.16,0.88,0.45,3.54,-2.87,-2.01,347,444,403,274,219
1700,0.12,0.91,0.43,0.24,1.46,-7.32,347,453,405,269,218
1701,0.17,0.89,0.39,4.21,-5.92,-4.27,346,452,400,270,219
1702,0.18,0.9,0.4,-2.99,-10.07,-2.38,343,444,403,274,219
1703,0.09,0.94,0.41,-5.25,-6.77,-9.46,347,450,403,269,218
1704,0.1,0.86,0.43,-2.62,-10.19,-3.11,343,450,397,271,216
1705,0.1,0.92,0.39,2.44,-5.8,-2.81,344,457,397,268,219
1706,0.09,0.92,0.44,-2.14,1.53,-5.43,345,449,401,268,219
1707,0.08,0.88,0.43,3.11,-2.01,-1.65,346,449,400,266,219
1708,0.08,0.93,0.44,-0.24,-1.83,-2.87,340,449,400,272,219
1709,0.09,0.89,0.45,-0.73,-2.5,-2.32,345,451,401,271,219
1710,0.11,0.87,0.45,-0.61,-3.48,-2.08,340,450,402,270,226
1711,0.09,0.89,0.46,-0.55,-2.81,-1.65,347,451,403,273,218
1712,0.12,0.88,0.46,2.2,-2.44,0.67,343,453,402,273,219
1713,0.1,0.87,0.48,0.85,-1.89,-1.46,345,449,400,268,220
1714,0.11,0.88,0.47,-2.87,-4.82,-3.42,347,448,404,273,220
1715,0.1,0.86,0.47,-0.43,-3.42,0.92,344,447,401,274,207
1716,0.13,0.85,0.46,4.03,-6.04,-6.04,346,450,397,271,216
1717,0.1,0.88,0.47,1.34,-1.53,-2.26,345,453,400,268,216
1718,0.11,0.89,0.48,-0.67,-1.46,-1.04,344,445,397,274,218
1719,0.13,0.88,0.49,0.79,-2.99,-1.89,345,458,399,274,219
1720,0.17,0.89,0.46,-2.01,-5.98,-1.65,343,451,397,271,220
1721,0.14,0.86,0.48,2.08,-2.69,-0.85,344,452,401,275,220
1722,0.13,0.86,0.49,-1.83,-3.54,-4.09,344,448,403,272,217
1723,0.13,0.86,0.49,-1.22,-2.69,-3.17,342,448,401,271,219
1724,0.14,0.89,0.48,2.81,-2.93,-3.85,343,450,402,274,220
1725,0.14,0.87,0.44,17.4,-2.99,-2.75,343,454,401,275,220
1726,0.13,0.9,0.44,-0.12,-6.53,-0.92,345,452,400,271,218
1727,0.13,0.87,0.42,1.16,-7.45,-2.99,347,452,403,275,216
1728,0.13,0.91,0.43,3.97,-2.14,-2.75,344,449,401,269,215
1729,0.15,0.92,0.42,-2.26,-1.71,-1.22,344,449,401,273,219
1730,0.15,0.91,0.43,0.31,-3.78,-1.77,345,452,407,272,215
1731,0.13,0.9,0.43,-0.06,-4.64,-2.08,347,451,402,272,218
1732,0.13,0.89,0.43,-0.98,-2.2,-2.69,345,455,400,271,217
1733,0.15,0.9,0.43,-0.31,-2.5,-3.72,346,449,417,272,216
1734,0.15,0.9,0.44,2.2,-1.95,-1.4,344,451,400,272,218
1735,0.15,0.88,0.42,0.85,-1.28,-4.33,345,449,398,269,217
1736,0.14,0.9,0.43,-0.12,-2.56,-3.36,344,449,403,274,220
1737,0.16,0.91,0.43,1.22,-2.26,-2.44,344,448,400,275,219
1738,0.15,0.9,0.43,0.43,-2.14,-2.5,345,444,402,275,219
1739,0.15,0.9,0.43,1.71,-2.14,-1.71,347,449,397,274,218
1740,0.15,0.89,0.42,3.42,-5.37,-0.24,340,450,413,273,221
1741,0.16,0.89,0.43,1.46,-2.14,-1.71,345,453,400,273,215
1742,0.17,0.89,0.43,1.53,-3.42,-1.1,344,456,397,276,220
1743,0.21,0.93,0.43,1.83,-1.83,-0.12,346,449,402,273,218
1744,0.17,0.91,0.43,1.53,-0.73,-2.32,347,445,397,275,217
1745,0.19,0.89,0.42,3.48,-4.21,-2.99,341,447,396,273,218
1746,0.17,0.88,0.41,-1.28,-3.3,-3.54,344,449,401,274,220
1747,0.16,0.88,0.42,1.22,-2.26,-1.59,347,448,406,273,223
1748,0.16,0.89,0.41,1.16,-2.87,-5.49,346,448,400,275,220
1749,0.12,0.9,0.37,3.54,1.4,-9.83,347,443,400,273,220
1750,0.1,0.92,0.38,-0.18,-3.11,-2.75,341,449,409,275,217
1751,0.1,0.9,0.38,-0.92,-7.32,-1.95,346,449,400,272,221
1752,0.1,0.92,0.37,4.76,-3.66,-3.05,345,447,402,272,220
1753,0.08,0.93,0.38,-1.89,-0.67,-6.59,343,453,403,277,244
1754,0.05,0.92,0.38,2.5,-4.82,-5.68,342,449,399,282,218
1755,0.1,0.92,0.38,2.99,-3.3,-1.28,345,453,404,275,218
1756,0.09,0.92,0.41,-4.21,-6.59,-5.8,342,454,400,273,248
1757,0.07,0.93,0.4,-1.22,-2.5,-1.71,340,452,403,275,219
1758,0.09,0.92,0.41,1.1,-4.64,-2.14,340,448,402,274,218
1759,0.1,0.9,0.38,-2.56,-1.95,-4.64,343,449,401,276,219
1760,0.09,0.9,0.4,-0.79,-2.87,-2.5,342,445,400,273,217
1761,0.08,0.93,0.41,1.16,-4.09,-0.24,340,453,401,275,217
1762,0.08,0.91,0.41,-0.24,-2.14,-2.01,340,449,405,277,218
1763,0.09,0.91,0.4,-1.53,-3.3,-2.56,341,449,399,271,220
1764,0.08,0.91,0.41,0.55,-3.6,-1.65,342,461,404,274,216
1765,0.08,0.91,0.4,0.67,-2.69,-1.65,342,443,401,277,220
1766,0.1,0.91,0.41,-0.73,-3.54,-1.59,340,448,403,276,220
1767,0.1,0.91,0.4,0.0,-3.48,-2.56,341,448,401,277,216
1768,0.1,0.91,0.4,0.67,-3.11,-2.44,343,452,403,274,218
1769,0.1,0.91,0.4,-0.92,-3.97,-2.38,343,453,400,272,216
1770,0.11,0.9,0.4,0.49,-2.87,-1.77,345,449,399,276,228
1771,0.09,0.9,0.41,0.24,-3.66,-2.5,342,452,404,275,216
1772,0.11,0.9,0.4,1.83,-2.81,-0.49,345,448,400,273,230
1773,0.11,0.91,0.41,-0.37,-2.87,-3.54,342,445,400,274,218
1774,0.1,0.91,0.42,-1.95,-2.81,-0.98,342,446,403,275,220
1775,0.12,0.9,0.42,1.1,-4.64,-2.44,349,451,401,274,221
1776,0.11,0.9,0.42,-0.73,-2.87,-2.62,344,448,406,274,220
1777,0.12,0.91,0.43,5.43,-2.62,-2.2,342,446,401,274,221
1778,0.13,0.9,0.41,1.28,-2.44,-1.89,343,449,400,277,218
1779,0.11,0.9,0.41,-2.99,-2.93,-2.99,343,452,401,276,220
1780,0.11,0.89,0.41,-0.67,-2.08,-2.26,341,446,401,277,219
1781,0.17,0.92,0.43,1.53,-1.65,5.07,337,451,404,276,218
1782,0.16,0.9,0.42,1.16,-4.64,-4.88,344,450,403,274,218
1783,0.14,0.89,0.42,-1.71,-5.07,-2.56,338,449,403,278,224
1784,0.13,0.9,0.41,3.05,-3.3,-2.14,338,448,400,274,222
1785,0.12,0.9,0.4,0.61,-3.54,-3.54,346,449,397,275,216
1786,0.1,0.9,0.4,1.65,-2.14,-3.97,345,452,402,271,243
1787,0.11,0.91,0.39,0.85,-6.16,-8.3,342,445,401,274,220
1788,0.05,0.9,0.42,6.59,-6.96,1.4,343,447,397,274,221
1789,0.05,0.91,0.41,0.0,-4.03,-1.04,343,442,402,276,218
1790,0.06,0.9,0.41,-0.92,-3.54,-3.23,340,443,400,271,222
1791,0.06,0.9,0.43,-0.49,-3.48,-1.95,344,449,405,275,221
1792,0.07,0.92,0.41,-0.98,-3.17,-2.81,345,452,403,275,220
1793,0.05,0.92,0.42,-5.07,-1.83,-2.44,343,451,398,275,216
1794,0.08,0.92,0.46,2.62,-2.14,-0.06,344,449,400,277,218
1795,0.12,0.89,0.42,8.48,-5.25,5.43,343,444,400,275,252
1796,0.07,0.87,0.44,-0.49,-3.3,-2.75,341,451,400,275,217
1797,0.07,0.9,0.45,-1.22,-3.36,-2.62,343,450,400,272,219
1798,0.06,0.88,0.44,-0.49,-2.62,-1.34,342,448,399,278,220
1799,0.07,0.87,0.44,-1.59,-1.89,-2.62,342,444,400,274,221
1800,0.09,0.9,0.45,2.93,-2.87,-0.73,345,448,401,276,219
1801,0.09,0.88,0.45,0.61,-2.69,-3.97,340,449,402,275,222
1802,0.1,0.89,0.45,-1.22,-3.05,-3.17,343,453,398,274,222
1803,0.08,0.87,0.45,-0.12,-2.81,-2.32,343,451,400,282,220
1804,0.07,0.9,0.43,6.04,-3.48,-0.55,345,453,400,272,220
1805,0.09,0.88,0.43,1.04,-3.36,-2.56,344,450,401,275,221
1806,0.1,0.88,0.43,0.79,-2.14,-1.04,339,448,401,278,221
1807,0.09,0.89,0.44,1.22,-1.77,-1.59,342,452,408,277,227
1808,0.09,0.89,0.45,0.49,-3.54,-2.5,345,445,401,276,220
1809,0.1,0.89,0.45,-1.83,-3.54,-2.75,342,445,402,274,233
1810,0.1,0.91,0.44,1.65,-3.91,-1.77,348,448,401,272,220
1811,0.1,0.89,0.43,-0.43,-5.49,-1.71,346,448,402,277,220
1812,0.09,0.89,0.43,-0.98,-0.49,-3.48,340,449,397,277,220
1813,0.08,0.88,0.44,-3.11,4.21,-11.29,341,444,402,275,221
1814,0.06,0.87,0.45,1.83,-5.19,-2.87,346,443,400,278,219
1815,0.01,0.89,0.46,-2.2,-2.01,-7.2,343,449,398,275,220
1816,0.05,0.92,0.46,-0.06,-2.81,-1.16,344,458,400,276,219
1817,0.06,0.89,0.46,-0.61,-7.39,-5.86,343,447,401,281,217
1818,0.05,0.88,0.48,-0.18,-0.49,0.55,343,448,399,273,220
1819,0.07,0.89,0.48,2.75,-5.92,-2.08,344,449,403,278,218
1820,0.05,0.87,0.49,1.1,-5.19,0.0,350,449,400,274,221
1821,0.1,0.84,0.47,-3.17,-7.75,-2.5,344,450,400,274,218
1822,0.1,0.88,0.48,1.46,-2.62,-2.01,344,448,403,274,222
1823,0.14,0.9,0.47,5.8,-14.77,8.48,344,444,400,277,220
1824,0.1,0.87,0.47,-1.77,3.11,-11.72,343,452,401,278,222
1825,0.02,0.86,0.49,-1.34,-2.99,-2.14,342,449,394,277,221
1826,0.02,0.87,0.49,1.22,-1.95,-2.08,343,447,402,284,222
1827,0.02,0.85,0.5,-0.79,-1.28,-3.85,341,449,401,276,222
1828,0.03,0.87,0.49,-1.28,2.2,-8.0,344,447,397,276,218
1829,0.03,0.88,0.5,-0.18,-4.15,-1.16,343,449,400,279,221
1830,0.02,0.88,0.51,0.43,-4.03,-3.23,343,442,402,272,221
1831,0.02,0.88,0.51,0.49,-2.5,-1.89,342,448,404,280,219
1832,0.02,0.88,0.52,-1.53,-2.81,-2.56,344,444,397,278,236
1833,0.03,0.85,0.5,-0.73,-1.4,-3.54,344,444,400,273,223
1834,0.04,0.86,0.52,-0.73,-3.17,-2.75,344,446,402,279,221
1835,0.02,0.87,0.53,2.26,-1.71,-4.46,343,446,402,275,223
1836,0.03,0.85,0.5,3.48,-3.05,-2.26,345,448,402,275,220
1837,0.02,0.85,0.5,-2.44,-3.6,-2.93,342,450,401,283,221
1838,0.03,0.87,0.52,0.85,-3.6,-2.08,343,450,401,276,224
1839,0.04,0.86,0.5,-0.18,-2.69,0.37,346,453,403,279,211
1840,0.01,0.85,0.49,-0.06,-2.44,-5.43,344,450,403,277,222
1841,0.02,0.85,0.5,4.82,7.87,-1.71,344,446,397,274,218
1842,0.03,0.87,0.49,1.65,3.66,-11.05,346,443,403,277,218
1843,0.06,0.84,0.49,16.54,-9.16,-5.07,343,442,396,278,223
1844,0.01,0.94,0.39,-7.81,-3.05,-13.92,341,451,400,274,222
1845,-0.13,0.87,0.43,13.61,6.84,-8.06,338,447,403,275,231
1846,-0.01,0.91,0.41,8.67,-8.3,-1.89,345,443,401,276,218
1847,-0.08,0.88,0.44,-6.84,-1.71,-6.1,342,440,400,275,216
1848,-0.1,0.87,0.44,0.67,-4.27,-3.17,342,444,401,278,221
1849,-0.04,0.93,0.45,0.18,16.05,4.39,339,446,403,274,216
1850,0.05,0.94,0.39,-3.17,9.03,-0.18,344,443,403,278,235
1851,-0.04,0.81,0.47,-8.54,-6.35,4.33,340,447,401,278,219
1852,-0.0,0.92,0.47,-9.16,1.22,-1.22,342,438,402,274,216
1853,-0.01,0.9,0.46,0.06,-4.82,-5.07,346,446,401,276,219
1854,-0.03,0.89,0.47,4.33,-3.17,-1.28,344,448,401,279,222
1855,-0.01,0.85,0.49,-2.62,-5.55,-4.33,347,443,401,280,249
1856,0.0,0.85,0.5,3.48,-3.78,1.4,347,448,399,278,218
1857,0.05,0.91,0.45,8.97,-6.84,-3.42,343,444,404,276,222
1858,0.05,0.87,0.46,2.01,-3.66,-0.24,347,439,397,275,220
1859,0.06,0.89,0.47,-0.61,-2.99,-1.34,346,439,404,276,223
1860,0.05,0.87,0.49,2.5,-3.6,0.0,347,437,401,277,221
1861,0.05,0.88,0.49,-1.65,-5.07,-0.98,343,442,401,277,221
1862,0.05,0.87,0.5,-1.59,-3.85,-3.91,346,444,397,279,220
1863,0.04,0.87,0.5,-1.71,-1.4,-1.4,347,446,411,273,221
1864,0.07,0.86,0.5,0.0,-4.27,-3.11,345,443,398,275,221
1865,0.08,0.87,0.49,0.61,-3.48,0.06,341,444,402,278,222
1866,0.07,0.87,0.49,0.67,-4.58,-1.77,343,442,403,276,223
1867,0.08,0.86,0.49,0.55,-3.11,-2.81,348,442,400,277,219
1868,0.07,0.87,0.5,-1.28,-0.98,-4.7,344,444,401,286,220
1869,0.07,0.87,0.48,-0.12,-3.78,-1.46,345,442,401,275,223
1870,0.07,0.87,0.49,-0.06,-2.87,-2.75,347,442,399,280,222
1871,0.07,0.88,0.49,0.98,-1.53,-2.87,346,439,404,276,220
1872,0.07,0.88,0.5,0.79,-4.15,0.18,345,439,402,278,223
1873,0.09,0.87,0.5,-0.55,-2.87,-2.32,349,442,400,278,232
1874,0.06,0.87,0.49,0.43,-0.43,-2.2,346,446,402,280,220
1875,0.08,0.87,0.48,0.85,-4.09,-0.49,343,445,401,280,221
1876,0.08,0.87,0.48,-1.1,-3.97,-2.26,346,442,402,278,223
1877,0.08,0.87,0.49,-1.4,-2.14,-2.81,344,442,398,278,218
1878,0.09,0.87,0.49,0.92,-4.94,-2.08,345,442,401,280,221
1879,0.08,0.86,0.49,0.12,-2.56,-2.62,351,443,400,284,219
1880,0.07,0.87,0.49,1.34,-2.2,-2.08,348,445,403,278,223
1881,0.08,0.86,0.48,5.49,-1.16,-3.11,346,443,401,280,221
1882,0.07,0.87,0.48,2.14,-0.85,-3.23,346,441,404,278,222
1883,0.07,0.89,0.47,-1.95,-3.97,-5.92,344,444,401,277,220
1884,0.05,0.87,0.49,0.61,-3.85,-1.16,344,437,404,278,220
1885,0.06,0.87,0.48,0.85,-2.93,-4.21,345,446,400,279,220
1886,0.06,0.88,0.49,-1.34,-3.23,-1.53,345,446,401,278,223
1887,0.06,0.87,0.49,-0.31,-3.85,-1.34,338,444,406,278,221
1888,0.07,0.87,0.5,0.24,-4.64,-1.65,343,441,403,277,222
1889,0.07,0.86,0.49,-2.99,-3.23,-1.04,341,441,401,278,223
1890,0.07,0.85,0.51,0.06,-4.58,-3.36,345,439,400,278,223
1891,0.06,0.86,0.51,-0.67,-1.77,-4.64,345,438,406,274,224
1892,0.07,0.86,0.52,1.28,-2.38,-2.2,342,443,400,278,222
1893,0.03,0.85,0.51,-0.61,-0.73,-4.76,344,443,400,280,224
1894,0.04,0.87,0.5,1.1,0.0,-1.59,345,445,400,279,224
1895,0.03,0.86,0.5,-1.34,-4.33,-5.86,347,446,400,275,221
1896,0.01,0.88,0.5,4.94,0.18,-4.33,346,443,401,281,222
1897,0.02,0.88,0.5,-0.67,-2.08,-2.99,348,440,402,277,224
1898,-0.0,0.88,0.5,0.55,-3.54,-4.33,344,445,400,274,224
1899,0.0,0.87,0.5,-0.61,-6.1,-9.95,343,439,405,279,222
1900,-0.05,0.86,0.46,4.76,-3.42,-9.4,347,448,403,284,223
1901,-0.1,0.87,0.47,2.62,0.12,-9.28,345,448,404,280,221
1902,-0.1,0.9,0.51,-2.32,-8.97,-6.16,344,443,402,280,220
1903,-0.1,0.87,0.5,-3.11,-4.88,-5.0,345,442,403,277,219
1904,-0.11,0.87,0.5,0.12,-2.26,-1.53,343,442,400,278,223
1905,-0.08,0.85,0.49,0.37,-5.98,-0.31,346,445,398,278,220
1906,-0.08,0.85,0.49,-2.2,-2.81,-1.71,345,442,399,279,222
1907,-0.08,0.87,0.49,-0.49,-1.46,-1.59,345,444,397,281,223
1908,-0.08,0.87,0.49,0.55,-3.91,-3.23,347,446,400,275,228
1909,-0.07,0.89,0.49,0.49,-3.78,-1.16,346,446,399,281,221
1910,-0.08,0.86,0.47,-2.75,-3.3,-1.59,345,443,405,277,223
1911,-0.08,0.86,0.48,-2.32,-3.36,-2.14,345,443,398,280,221
1912,-0.08,0.86,0.49,-0.61,-2.81,-2.26,345,446,400,278,221
1913,-0.08,0.88,0.5,0.24,-2.87,-1.77,347,443,397,279,222
1914,-0.09,0.87,0.5,-0.06,-2.93,-2.26,343,443,396,280,220
1915,-0.08,0.87,0.49,-0.31,-2.14,-2.93,345,444,404,281,221
1916,-0.08,0.86,0.49,-0.73,-3.78,-3.36,344,437,402,279,224
1917,-0.07,0.88,0.5,-0.06,-2.93,-1.28,347,443,403,284,221
1918,-0.06,0.85,0.5,1.22,-5.0,0.24,347,443,399,270,221
1919,-0.03,0.86,0.49,0.0,-3.3,-1.95,344,442,398,281,221
1920,-0.06,0.86,0.51,-1.4,-3.85,-0.92,348,444,402,279,221
1921,-0.02,0.87,0.52,1.22,-3.11,0.43,347,444,399,279,221
1922,-0.03,0.87,0.51,-1.22,-2.81,-1.4,345,446,400,278,219
1923,-0.02,0.86,0.52,-0.37,-3.23,-4.33,345,443,401,276,222
1924,-0.03,0.85,0.52,1.46,-3.05,-2.08,345,445,399,278,222
1925,-0.02,0.85,0.51,0.61,-4.27,-1.95,348,447,403,281,220
1926,-0.04,0.87,0.51,0.61,-2.56,-2.44,346,443,404,279,217
1927,-0.04,0.85,0.51,2.32,-3.6,-0.31,345,440,399,275,221
1928,-0.02,0.86,0.49,1.46,-1.59,-3.66,348,446,397,280,221
1929,-0.02,0.87,0.49,2.32,-3.91,-2.93,345,443,399,277,222
1930,-0.01,0.89,0.48,4.7,-2.62,-0.49,346,443,404,278,223
1931,-0.0,0.88,0.47,-0.79,-5.31,-1.53,346,448,399,280,222
1932,0.01,0.89,0.49,-0.49,-2.26,-1.83,348,445,398,278,221
1933,-0.01,0.83,0.51,-4.33,-2.44,-3.23,342,446,399,278,221
1934,-0.05,0.82,0.48,8.85,1.46,-8.67,346,440,398,282,222
1935,-0.06,0.91,0.51,2.01,-10.44,-4.64,345,445,400,278,242
1936,-0.01,0.79,0.52,-10.93,-9.46,-5.31,347,445,403,282,222
1937,-0.03,0.88,0.5,5.98,-0.18,-1.53,344,444,400,279,224
1938,-0.03,0.91,0.48,-1.53,-4.46,0.85,345,449,398,285,230
1939,-0.03,0.89,0.5,-5.62,-4.21,-1.1,347,435,397,281,218
1940,-0.02,0.91,0.53,-4.09,-2.81,-8.48,345,449,396,278,225
1941,0.0,0.88,0.49,-5.37,-6.29,-6.77,345,448,401,282,218
1942,-0.02,0.89,0.46,13.31,8.24,-0.37,346,444,399,279,219
1943,0.01,0.86,0.47,-0.43,1.46,-3.36,342,440,403,281,222
1944,0.0,0.86,0.49,-2.32,-4.39,-2.14,346,441,400,278,222
1945,-0.03,0.9,0.49,0.49,-5.68,1.04,346,445,403,279,235
1946,-0.02,0.86,0.48,-7.02,-3.97,1.16,346,457,400,279,222
1947,0.01,0.85,0.49,-0.24,3.17,-1.95,347,446,401,280,221
1948,0.01,0.86,0.52,-1.1,-4.52,-2.62,347,444,400,278,224
1949,-0.0,0.88,0.5,4.21,-0.37,0.24,346,441,402,280,222
1950,0.0,0.86,0.5,-2.87,-3.36,-1.34,346,441,403,279,222
1951,0.0,0.88,0.5,-2.62,-2.5,-1.34,345,443,399,277,229
1952,0.03,0.85,0.48,1.71,-3.23,-0.55,348,446,400,280,224
1953,0.03,0.88,0.48,-5.62,-3.42,-3.6,348,441,400,281,222
1954,0.03,0.87,0.49,-0.31,-1.71,-0.43,342,443,403,281,222
1955,0.04,0.88,0.5,-1.04,-0.55,-3.05,345,443,400,278,223
1956,0.04,0.88,0.51,-3.91,-2.69,3.91,343,444,401,281,224
1957,0.08,0.88,0.52,0.18,-4.15,-6.53,350,443,402,278,222
1958,0.05,0.91,0.54,2.32,-3.11,-2.32,343,444,402,289,222
1959,0.03,0.86,0.5,0.24,-2.5,-4.03,349,447,403,279,225
1960,0.03,0.89,0.51,2.01,-3.11,-3.97,346,445,397,276,225
1961,0.05,0.86,0.51,-1.34,-2.2,-3.05,347,445,403,282,225
1962,0.06,0.88,0.51,4.27,-2.87,-1.46,345,441,398,278,224
1963,0.06,0.86,0.48,-8.18,-5.19,-0.79,349,440,402,281,223
1964,0.05,0.86,0.47,-3.23,-3.17,-1.65,346,447,402,278,222
1965,0.04,0.89,0.5,1.28,0.06,-2.14,344,440,402,281,221
1966,0.04,0.83,0.51,-6.77,-5.49,-7.51,354,445,400,281,224
1967,0.01,0.88,0.5,-2.14,-2.75,-2.01,343,446,400,278,222
1968,0.05,0.95,0.52,4.58,2.26,-4.64,340,443,398,278,221
1969,-0.0,0.86,0.49,-3.42,-7.39,-5.55,336,449,400,276,216
1970,-0.01,0.84,0.52,-2.26,-5.68,-0.67,336,450,405,280,222
1971,0.03,0.92,0.54,-9.89,-0.85,-6.59,338,440,400,275,223
1972,-0.0,0.82,0.53,1.16,2.44,-3.66,336,449,400,280,224
1973,0.04,0.85,0.52,1.22,0.67,-2.26,337,447,396,277,222
1974,0.02,0.87,0.55,-0.55,-2.38,-3.36,338,442,398,286,224
1975,0.01,0.85,0.55,1.71,-2.75,-1.34,339,448,400,280,223
1976,0.0,0.86,0.54,0.18,-2.75,-1.34,335,444,398,276,224
1977,0.01,0.84,0.53,-1.04,-5.68,-1.04,340,446,399,281,223
1978,0.03,0.84,0.55,0.24,-1.46,-2.75,338,444,402,281,222
1979,0.02,0.83,0.55,-0.85,-2.69,-2.69,340,444,399,279,222
1980,0.02,0.84,0.54,-1.83,-2.14,-2.32,340,442,399,280,220
1981,0.03,0.84,0.54,2.99,-2.69,-3.78,340,445,396,282,225
1982,0.03,0.84,0.54,3.48,-4.27,-0.31,341,442,400,277,222
1983,0.03,0.82,0.52,1.34,-1.59,-2.44,343,443,398,281,222
1984,0.04,0.84,0.53,0.12,-4.94,-2.2,341,435,398,283,221
1985,0.02,0.86,0.55,2.44,-2.69,-0.18,341,444,398,283,237
1986,0.03,0.83,0.54,-0.24,-2.87,-2.01,341,443,395,286,221
1987,0.04,0.84,0.55,-0.18,-3.3,-0.85,343,435,400,279,225
1988,0.03,0.85,0.54,-0.67,-2.75,-3.11,341,440,397,279,222
1989,0.04,0.86,0.54,-1.1,-1.28,-2.14,339,443,401,281,223
1990,0.03,0.84,0.55,-2.5,-3.05,-4.09,341,443,400,281,225
1991,0.02,0.85,0.56,0.79,-2.99,-1.34,344,434,400,277,224
1992,0.03,0.84,0.55,0.61,-4.64,-0.49,338,444,394,279,223
1993,0.03,0.85,0.56,-1.59,-2.69,-2.56,338,439,394,281,222
1994,0.02,0.82,0.56,0.85,-2.14,-2.5,343,434,397,280,226
1995,0.02,0.83,0.56,-1.65,-3.42,-1.77,342,439,398,279,248
1996,0.01,0.82,0.57,-0.49,-2.93,-1.53,341,441,400,282,225
1997,0.03,0.83,0.57,1.28,-3.17,-1.71,350,443,399,283,222
1998,0.04,0.82,0.56,1.53,-2.2,-1.95,341,439,397,281,223
1999,0.05,0.83,0.57,-0.61,-0.73,-3.66,343,439,396,280,229
2000,0.03,0.86,0.59,4.39,-2.44,-2.38,342,440,397,282,231
2001,0.04,0.81,0.58,0.06,-2.44,-0.79,342,439,396,282,256
2002,0.06,0.81,0.58,-1.28,-4.33,-2.08,338,441,397,282,221
2003,0.06,0.81,0.59,-2.62,-2.32,0.06,342,450,397,278,220
2004,0.06,0.81,0.59,1.59,-3.78,-0.24,348,440,397,279,223
2005,0.04,0.81,0.59,-1.89,-4.09,-2.75,340,437,397,281,224
2006,0.07,0.81,0.6,-0.43,-4.82,0.49,345,435,394,282,222
2007,0.05,0.8,0.59,-0.24,-2.75,-2.2,344,442,397,276,214
