,aX,aY,aZ,gX,gY,gZ,little,ring,middle,index,thumb
0,-0.19,-0.96,0.21,1.16,-3.54,-2.38,424,220,181,438,357
1,-0.16,-0.95,0.2,-1.22,-4.7,-3.3,424,221,184,440,359
2,-0.16,-0.95,0.26,0.98,-2.5,-3.91,422,220,185,436,361
3,-0.16,-0.96,0.19,-2.14,-2.14,-4.21,418,221,185,436,359
4,-0.18,-0.96,0.19,0.37,-1.22,-4.27,421,219,183,435,363
5,-0.17,-0.98,0.21,-1.95,-0.37,-3.17,422,222,184,437,358
6,-0.19,-0.96,0.22,2.38,-2.5,-0.43,418,221,186,435,358
7,-0.22,-0.96,0.22,-5.19,-4.7,3.91,417,222,187,440,360
8,-0.18,-0.96,0.21,0.18,-3.17,0.12,422,223,182,441,360
9,-0.18,-0.96,0.19,-1.16,-0.73,-1.34,419,228,184,436,356
10,-0.22,-0.95,0.2,1.04,-1.95,-2.69,423,223,184,439,359
11,-0.2,-0.95,0.2,1.53,-4.58,-5.37,421,222,183,435,361
12,-0.21,-0.95,0.15,-3.6,-8.73,0.49,421,220,187,444,360
13,-0.24,-0.95,0.22,0.73,-0.12,-0.31,421,224,188,440,358
14,-0.2,-0.94,0.14,-5.37,-4.46,-3.6,423,223,185,441,363
15,-0.15,-0.96,0.24,0.85,-2.93,-1.4,420,224,188,436,359
16,-0.21,-0.95,0.2,-2.69,-7.2,0.24,421,225,188,446,359
17,-0.19,-0.95,0.21,3.36,-4.15,-1.28,421,229,189,443,361
18,-0.22,-0.93,0.21,5.62,5.43,-14.28,419,225,191,438,364
19,-0.2,-0.95,0.21,2.44,-0.98,-0.79,420,224,189,439,359
20,-0.2,-0.95,0.2,3.3,-2.81,-0.61,418,226,187,437,365
21,-0.2,-0.94,0.2,-1.04,-3.91,-3.66,416,227,190,436,361
22,-0.22,-0.94,0.24,-0.61,-1.83,-1.46,424,228,190,441,360
23,-0.18,-0.95,0.24,2.56,-3.17,-3.48,417,231,189,446,361
24,-0.2,-0.94,0.22,1.4,-2.08,-2.5,421,230,189,445,363
25,-0.19,-0.95,0.25,0.18,-2.2,-2.5,422,231,189,439,357
26,-0.21,-0.93,0.23,-1.77,-2.62,-2.14,424,229,192,444,359
27,-0.21,-0.94,0.24,0.12,-2.62,-2.08,424,234,188,447,359
28,-0.22,-0.94,0.25,0.85,-2.81,-2.01,422,231,189,444,361
29,-0.2,-0.93,0.26,7.14,-0.73,-2.32,422,229,190,444,363
30,-0.19,-0.91,0.28,0.24,-1.1,-5.86,421,228,195,440,364
31,-0.16,-0.95,0.24,-2.26,0.85,-3.66,425,228,190,449,363
32,-0.19,-0.96,0.19,-4.82,1.1,-2.2,418,231,192,444,361
33,-0.19,-0.96,0.2,-3.66,-0.67,-5.55,423,232,189,449,362
34,-0.16,-0.96,0.21,-2.99,-2.44,-3.05,420,230,189,445,362
35,-0.17,-0.97,0.2,3.05,-3.78,-3.05,420,232,189,444,359
36,-0.2,-0.96,0.21,0.67,2.69,-2.26,421,231,190,446,361
37,-0.2,-0.96,0.22,-1.04,-6.29,-3.05,418,231,191,451,363
38,-0.18,-0.95,0.25,-0.06,-3.78,-1.65,417,230,191,446,362
39,-0.22,-0.95,0.28,6.47,-7.02,-5.49,421,229,190,448,361
40,-0.23,-0.94,0.22,2.14,-9.28,-3.36,424,233,190,446,361
41,-0.13,-0.94,0.24,-3.42,-3.17,-4.39,423,232,203,447,360
42,-0.17,-0.94,0.27,3.42,-2.75,-5.55,423,228,193,448,359
43,-0.18,-0.93,0.3,3.42,-6.84,-5.25,422,228,191,447,357
44,-0.19,-0.92,0.31,1.1,-0.18,-2.26,424,234,191,450,355
45,-0.19,-0.92,0.31,-0.67,-1.65,-3.42,422,226,190,450,359
46,-0.19,-0.93,0.31,0.43,-1.83,-3.42,418,233,193,448,364
47,-0.18,-0.92,0.3,-1.59,-1.34,-3.11,433,228,194,443,361
48,-0.23,-0.93,0.35,0.61,-2.87,-1.83,424,234,193,446,361
49,-0.18,-0.94,0.28,-0.55,-3.6,-3.97,422,233,195,441,365
50,-0.17,-0.94,0.24,-4.46,-5.98,-7.32,420,232,192,445,358
51,-0.15,-0.95,0.22,1.46,-4.82,-3.54,420,231,189,447,357
52,-0.18,-0.93,0.25,2.14,-4.15,-5.62,422,231,190,451,365
53,-0.19,-0.94,0.28,1.89,-1.59,-1.65,427,230,195,451,358
54,-0.18,-0.94,0.29,1.65,-2.93,-1.77,413,228,194,448,361
55,-0.17,-0.94,0.3,1.59,-2.75,-1.89,436,231,194,451,364
56,-0.19,-0.93,0.29,1.34,-3.66,-2.5,422,233,194,444,359
57,-0.21,-0.94,0.3,-0.85,-2.81,-2.38,421,235,196,447,358
58,-0.19,-0.94,0.3,0.06,-3.23,-2.81,421,231,194,443,363
59,-0.19,-0.93,0.29,-0.98,-3.91,-2.75,423,233,196,447,361
60,-0.2,-0.93,0.3,0.49,-1.46,-2.38,421,238,191,449,363
61,-0.19,-0.93,0.29,0.61,-2.01,-2.26,420,233,195,443,362
62,-0.19,-0.95,0.28,0.67,-3.91,-2.08,422,232,204,442,358
63,-0.2,-0.94,0.28,0.31,-3.36,-1.83,421,235,196,456,362
64,-0.19,-0.93,0.29,0.49,-3.11,-2.56,420,235,195,445,360
65,-0.19,-0.94,0.28,1.46,-1.83,-2.62,418,234,195,448,363
66,-0.2,-0.94,0.28,0.73,-3.05,-2.56,420,232,196,453,362
67,-0.21,-0.94,0.29,1.1,-3.36,-4.64,422,235,195,443,362
68,-0.18,-0.94,0.29,1.4,-5.25,-3.3,419,238,193,448,359
69,-0.18,-0.94,0.28,-0.92,-3.23,-2.69,416,235,196,448,361
70,-0.17,-0.94,0.27,-1.04,-3.11,-2.93,419,234,196,448,362
71,-0.18,-0.94,0.28,-0.43,-3.72,-2.75,419,237,195,445,363
72,-0.17,-0.94,0.28,0.06,-2.5,-1.95,420,237,194,454,361
73,-0.19,-0.93,0.32,-0.92,-4.27,-2.62,421,233,201,453,362
74,-0.17,-0.94,0.31,-0.06,-2.2,-3.05,419,239,196,449,361
75,-0.19,-0.94,0.33,-0.61,-2.5,-3.23,420,234,193,448,365
76,-0.18,-0.93,0.3,-2.08,-1.95,-2.69,421,233,196,454,362
77,-0.17,-0.94,0.3,-1.71,-1.95,-2.81,420,237,196,447,362
78,-0.19,-0.94,0.29,-0.18,-2.5,-2.69,420,237,195,450,363
79,-0.17,-0.94,0.28,-1.1,-2.5,-3.42,419,234,197,448,361
80,-0.18,-0.94,0.29,-0.79,-1.59,-2.26,422,233,197,448,362
81,-0.18,-0.94,0.28,1.16,-2.93,-2.5,420,235,198,448,362
82,-0.18,-0.95,0.3,3.11,-3.3,-3.36,418,237,195,450,358
83,-0.18,-0.94,0.3,1.4,-3.17,-1.53,419,235,195,451,363
84,-0.18,-0.94,0.3,0.92,-3.42,-2.01,419,238,193,452,362
85,-0.18,-0.94,0.3,-1.28,-2.62,-1.53,419,235,198,449,362
86,-0.19,-0.94,0.29,-0.37,-1.1,-1.4,421,238,200,444,360
87,-0.2,-0.93,0.27,2.2,-2.87,-2.5,420,240,196,451,360
88,-0.18,-0.94,0.31,-14.28,-27.16,2.87,422,235,199,450,360
89,0.0,-0.98,0.3,3.97,-33.33,-1.95,420,237,195,453,361
90,-0.17,-0.93,0.42,11.05,-5.07,8.3,422,239,197,454,360
91,-0.05,-0.97,0.19,3.72,-2.5,-6.04,421,233,198,452,363
92,-0.08,-0.98,0.15,-11.29,-8.06,-1.89,428,239,194,445,362
93,-0.17,-0.97,0.16,2.99,0.85,-4.88,417,238,201,450,361
94,-0.13,-0.96,0.2,-3.05,-1.16,-4.39,415,233,198,450,365
95,-0.06,-0.96,0.23,9.7,2.14,-1.83,415,238,203,441,362
96,-0.1,-0.98,0.3,19.9,23.38,-10.44,418,237,197,451,364
97,-0.19,-0.91,0.27,-3.72,5.62,5.25,419,238,195,450,364
98,-0.18,-0.94,0.27,-3.36,-3.17,-3.97,417,242,197,454,361
99,-0.16,-0.94,0.29,-1.16,-4.39,-2.87,425,238,197,454,362
100,-0.2,-0.94,0.23,0.31,5.49,-3.66,417,238,192,454,362
101,-0.19,-0.95,0.24,-1.77,-2.81,-1.77,419,240,199,450,361
102,-0.19,-0.95,0.24,-1.77,-1.95,-4.52,418,236,196,451,361
103,-0.18,-0.95,0.22,0.55,-2.69,-1.77,418,237,194,447,362
104,-0.15,-0.93,0.21,0.49,0.12,-3.66,412,234,200,455,360
105,-0.08,-0.96,0.16,-3.91,1.89,-9.09,412,236,196,451,364
106,-0.15,-0.96,0.17,20.08,-1.53,2.99,415,235,193,450,360
107,-0.14,-1.02,0.2,9.4,-2.81,4.58,415,240,196,450,357
108,-0.16,-0.94,0.35,7.57,-6.77,-17.58,423,242,197,450,359
109,-0.05,-0.92,0.34,0.0,1.22,8.06,416,240,194,445,362
110,-0.1,-0.95,0.3,9.16,-14.1,6.35,418,238,199,452,361
111,-0.06,-0.95,0.33,-4.03,-2.56,-1.04,416,235,200,448,359
112,-0.11,-0.95,0.3,-2.75,-2.99,-0.24,417,238,195,450,361
113,-0.16,-0.98,0.21,-20.94,-6.47,6.71,420,237,200,450,359
114,-0.16,-0.97,0.21,0.98,-5.37,1.53,418,237,198,452,364
115,-0.21,-0.96,0.21,1.46,-5.0,-2.81,424,238,197,443,361
116,-0.17,-0.96,0.27,-4.58,-1.83,-0.37,422,241,198,460,362
117,-0.17,-0.96,0.22,1.22,-5.25,-0.49,423,240,198,451,363
118,-0.16,-0.97,0.2,2.81,-4.76,-1.65,422,238,211,453,360
119,-0.17,-0.96,0.2,2.2,-2.87,-1.59,424,242,197,456,360
120,-0.16,-0.96,0.2,-1.22,-1.53,-5.98,425,241,197,451,357
121,-0.13,-0.96,0.22,3.3,-5.43,-1.4,421,239,200,453,359
122,-0.16,-0.96,0.24,2.2,-3.05,-2.5,420,240,199,450,362
123,-0.15,-0.96,0.21,-1.16,-2.69,-3.85,421,239,201,449,361
124,-0.16,-0.96,0.19,2.01,-2.14,-3.23,422,240,198,449,361
125,-0.17,-0.95,0.18,2.14,-1.04,-3.78,417,239,198,454,363
126,-0.17,-0.96,0.21,-1.28,-2.26,-6.84,424,242,196,446,363
127,-0.17,-0.96,0.19,-1.83,-2.26,-1.4,422,242,200,448,362
128,-0.16,-0.96,0.22,-0.61,-2.2,-3.97,419,241,199,449,359
129,-0.15,-0.97,0.21,-2.69,-1.16,-2.26,423,237,200,451,361
130,-0.16,-0.96,0.21,-0.61,-2.93,-1.83,421,238,200,449,359
131,-0.16,-0.96,0.19,0.55,-2.56,-2.81,422,239,196,453,362
132,-0.15,-0.96,0.19,0.37,-1.59,-2.26,428,240,198,449,361
133,-0.16,-0.97,0.2,-0.12,-3.54,-3.42,422,241,198,450,358
134,-0.14,-0.96,0.19,3.42,-2.93,-0.98,421,238,201,453,361
135,-0.18,-0.97,0.19,-0.31,-2.87,-2.01,418,239,198,449,358
136,-0.18,-0.95,0.21,-0.31,-4.46,-2.5,419,242,198,453,362
137,-0.14,-0.96,0.21,2.93,-1.95,-4.09,420,240,201,451,359
138,-0.16,-0.96,0.22,-2.69,-2.75,-2.38,422,240,195,453,361
139,-0.16,-0.96,0.19,-2.75,-2.5,-3.72,424,242,199,452,355
140,-0.15,-0.95,0.29,11.41,0.0,-7.63,421,240,201,449,357
141,-0.1,-0.96,0.2,-3.97,4.76,-6.47,421,242,200,447,359
142,-0.13,-0.95,0.23,5.43,2.69,-0.18,420,241,200,448,356
143,-0.14,-0.96,0.24,-4.88,-3.42,-2.62,422,240,204,451,361
144,-0.12,-0.96,0.19,0.37,-2.75,-3.54,422,238,201,453,360
145,-0.13,-0.95,0.19,0.98,-5.25,-2.26,424,240,199,450,356
146,-0.12,-0.97,0.23,-2.69,-2.01,-3.3,421,238,199,450,355
147,-0.13,-0.98,0.23,-3.48,-0.31,-3.05,418,239,201,445,355
148,-0.1,-0.96,0.17,0.55,-11.54,-2.87,417,242,201,453,361
149,-0.14,-0.96,0.2,0.55,0.61,-3.85,419,242,200,453,361
150,-0.13,-0.95,0.19,0.49,-2.56,-2.5,419,241,202,450,369
151,-0.13,-1.0,0.18,2.5,0.18,-3.11,419,243,199,449,362
152,-0.14,-0.96,0.21,2.87,-4.39,-1.59,420,243,199,453,362
153,-0.12,-0.97,0.19,0.98,-4.03,-3.78,419,241,198,450,363
154,-0.14,-0.96,0.21,0.49,-1.65,-3.05,426,238,200,454,362
155,-0.15,-0.96,0.2,1.16,-2.2,-0.98,419,242,201,449,362
156,-0.14,-0.96,0.19,1.46,-2.5,-2.2,421,250,201,453,363
157,-0.17,-0.97,0.22,-0.61,-5.49,-0.55,421,244,201,451,362
158,-0.16,-0.97,0.19,0.24,-3.66,-2.01,424,244,203,453,354
159,-0.14,-0.97,0.18,-0.67,-4.27,-3.3,421,245,201,450,357
160,-0.13,-0.97,0.2,-0.43,-3.72,-0.67,419,244,208,447,360
161,-0.14,-0.97,0.19,1.77,-3.3,-1.28,423,243,199,454,359
162,-0.14,-0.97,0.2,-0.61,-2.32,-2.01,420,244,199,454,361
163,-0.16,-0.96,0.19,0.24,-3.91,-2.2,421,246,206,451,361
164,-0.15,-0.96,0.25,0.24,-5.92,-3.85,417,244,201,451,358
165,-0.15,-0.97,0.19,-6.04,-12.39,-3.11,421,247,201,452,360
166,-0.13,-0.98,0.15,-4.7,-5.62,-0.43,422,247,202,455,358
167,-0.13,-0.97,0.16,0.43,-4.7,2.14,420,244,201,452,357
168,-0.14,-0.97,0.16,-0.61,-1.53,-1.59,421,242,200,457,363
169,-0.16,-0.97,0.21,-3.36,-4.21,-2.93,419,246,201,450,359
170,-0.13,-0.98,0.19,-3.85,-1.65,-3.72,420,243,204,446,366
171,-0.09,-0.97,0.09,3.97,-6.47,-4.76,422,245,203,450,360
172,0.05,-0.91,0.17,39.43,2.38,-26.18,419,243,200,455,360
173,0.07,-0.93,0.38,6.59,-12.63,-15.08,419,244,201,451,360
174,0.11,-1.1,0.31,-12.33,6.77,-4.88,417,244,204,455,358
175,0.25,-0.92,0.4,0.31,4.94,-18.25,418,244,201,445,359
176,0.14,-0.92,0.43,3.36,-1.1,-1.34,418,243,201,448,357
177,0.12,-0.86,0.33,-12.08,2.69,2.75,444,243,201,446,361
178,0.26,-0.87,0.47,0.85,-4.88,5.31,417,246,205,452,363
179,0.19,-0.88,0.45,-3.91,-1.89,2.93,416,246,203,452,360
180,0.13,-0.92,0.46,-7.45,-13.18,0.73,416,247,205,450,361
181,0.17,-0.9,0.47,5.8,-0.37,-6.04,418,245,205,449,357
182,0.18,-0.88,0.42,-0.61,-8.18,-2.81,427,246,202,446,361
183,0.18,-0.87,0.47,8.73,0.85,-4.15,413,246,204,451,358
184,0.14,-0.84,0.56,8.54,12.02,4.27,412,245,203,452,360
185,0.07,-0.86,0.48,-3.54,1.28,3.91,413,242,205,453,359
186,0.01,-0.86,0.49,5.43,-2.01,-4.58,415,246,199,456,361
187,0.01,-0.85,0.47,2.93,-8.54,-4.76,416,249,203,452,358
188,0.04,-0.84,0.48,1.77,-8.97,-5.68,417,245,203,451,362
189,0.07,-0.86,0.51,-1.59,-2.69,-2.32,417,249,202,455,361
190,0.03,-0.87,0.54,-5.19,-3.72,-7.63,415,248,204,447,360
191,0.1,-0.88,0.45,-10.25,3.36,-11.96,420,249,205,451,361
192,0.1,-0.9,0.41,-2.56,-4.46,-1.89,414,247,204,449,361
193,0.09,-0.91,0.41,3.05,-1.71,-1.53,414,246,205,452,361
194,0.07,-0.9,0.41,0.67,-3.6,-0.73,417,246,204,451,361
195,0.1,-0.9,0.41,0.92,-4.64,-5.19,415,247,201,451,361
196,0.07,-0.9,0.43,0.24,-0.31,-0.85,416,248,202,455,361
197,0.04,-0.91,0.42,-8.0,-2.32,3.54,417,246,205,454,361
198,-0.02,-0.94,0.35,-10.01,-4.09,4.33,420,245,203,453,363
199,-0.02,-0.95,0.28,-5.43,-5.0,-0.12,417,247,206,450,373
200,-0.01,-0.95,0.3,1.46,-6.41,-0.37,419,249,202,451,361
201,0.0,-0.95,0.29,2.81,4.46,-4.03,420,247,204,452,359
202,-0.01,-0.95,0.27,-2.32,-0.79,-3.05,418,246,205,450,357
203,-0.01,-0.95,0.31,-0.85,-7.87,-3.91,417,249,200,454,361
204,0.07,-0.96,0.3,-3.97,-6.29,-1.83,418,247,200,453,361
205,0.01,-0.95,0.28,-2.5,-4.94,-0.31,417,245,204,446,361
206,0.02,-0.96,0.29,-1.95,1.89,-3.42,418,250,205,456,360
207,-0.01,-0.96,0.26,-3.11,-0.18,-4.88,414,248,200,455,360
208,-0.01,-0.96,0.27,-1.71,-1.16,-3.17,418,257,210,449,360
209,0.02,-0.96,0.28,-0.31,-0.49,-1.34,418,250,203,454,358
210,-0.0,-0.96,0.27,-1.46,-2.08,-0.55,417,250,201,450,359
211,-0.05,-0.97,0.3,-3.3,9.83,7.2,421,249,203,451,358
212,-0.14,-0.96,0.24,-6.29,0.24,5.55,418,247,200,454,360
213,-0.17,-0.96,0.18,0.18,-0.85,3.6,421,247,201,457,361
214,-0.22,-0.97,0.23,-0.12,-6.53,-6.59,420,260,203,454,363
215,-0.15,-0.95,0.2,-0.37,-7.2,-1.28,446,249,205,452,357
216,-0.19,-0.97,0.22,1.4,-12.7,-2.75,421,250,202,449,360
217,-0.11,-0.97,0.19,3.97,0.31,-8.42,418,250,200,454,363
218,-0.13,-0.97,0.2,-0.67,-5.07,-5.49,419,249,200,451,360
219,-0.08,-0.98,0.18,-4.09,-5.13,-4.15,419,249,203,455,358
220,-0.1,-0.98,0.15,-4.7,-3.17,-2.44,418,247,203,450,361
221,-0.09,-0.98,0.15,-0.55,-2.75,-2.62,414,248,206,452,362
222,-0.11,-0.97,0.18,7.63,-1.16,6.77,418,250,201,447,362
223,-0.15,-0.95,0.22,-1.77,-4.82,5.62,414,249,205,460,360
224,-0.16,-0.95,0.2,5.37,-2.62,9.16,418,250,204,455,361
225,-0.27,-0.94,0.21,10.01,-1.95,-3.72,419,246,202,447,358
226,-0.18,-0.95,0.24,1.46,-1.89,-4.7,429,249,201,451,363
227,-0.19,-0.95,0.23,-1.16,-4.21,-1.89,416,248,205,454,365
228,-0.2,-0.96,0.22,-4.15,-1.1,-1.53,419,247,202,450,357
229,-0.2,-0.95,0.19,-1.1,-2.2,-2.08,418,248,203,446,362
230,-0.21,-0.97,0.15,-23.8,2.32,1.16,419,246,216,451,360
231,-0.22,-0.94,0.07,1.77,-6.65,-0.24,418,248,201,455,359
232,-0.25,-0.96,0.05,3.11,-6.29,-1.34,418,247,203,454,362
233,-0.25,-0.96,0.07,-1.22,-2.01,-3.17,419,247,202,463,361
234,-0.25,-0.96,0.09,1.34,-2.87,-3.17,419,249,204,450,358
235,-0.25,-0.96,0.07,-4.09,-0.85,-4.94,418,250,203,445,358
236,-0.23,-0.96,0.07,0.61,-2.93,-2.93,420,245,206,453,358
237,-0.21,-0.97,0.08,0.12,-3.66,-5.43,422,248,201,452,360
238,-0.21,-0.98,0.1,-0.79,1.22,-3.85,419,248,202,449,359
239,-0.22,-0.97,0.1,0.61,0.0,-1.46,419,249,202,448,360
240,-0.2,-0.97,0.07,-0.92,-3.05,-3.91,417,251,206,455,359
241,-0.2,-0.97,0.08,1.4,-2.44,-3.05,422,249,202,449,358
242,-0.17,-0.97,0.1,3.6,-3.91,-4.09,421,248,204,455,359
243,-0.2,-0.97,0.1,-0.73,-2.93,-2.32,421,245,206,456,357
244,-0.19,-0.97,0.07,-4.46,-1.89,-5.55,418,250,201,454,360
245,-0.19,-0.97,0.08,1.83,-5.07,-2.44,418,251,203,448,359
246,-0.19,-0.97,0.1,2.81,-3.05,-2.26,420,248,205,450,356
247,-0.19,-0.97,0.09,-0.06,-3.05,-2.14,418,247,203,450,359
248,-0.2,-0.97,0.12,2.32,-3.72,-1.89,417,247,203,452,359
249,-0.18,-0.98,0.11,0.73,-1.83,-2.56,419,248,207,452,357
250,-0.19,-0.97,0.09,-0.37,-2.81,-2.2,418,248,204,455,359
251,-0.17,-0.98,0.13,2.81,-0.37,-3.97,420,248,204,455,359
252,-0.18,-0.98,0.13,0.79,-2.5,-1.34,429,249,203,455,359
253,-0.17,-0.96,0.08,0.67,-1.34,-3.3,417,245,211,450,357
254,-0.18,-0.97,0.11,0.55,-1.95,-2.99,420,251,204,446,358
255,-0.19,-0.97,0.12,0.92,-3.23,-2.32,420,251,207,451,360
256,-0.19,-0.97,0.13,-0.06,-2.38,-2.32,422,254,199,447,360
257,-0.19,-0.97,0.13,1.65,-3.72,-3.72,420,249,201,447,363
258,-0.2,-0.98,0.13,-2.62,-1.46,-2.81,418,246,203,447,361
259,-0.17,-0.97,0.14,1.1,-0.37,-3.72,419,249,203,451,361
260,-0.19,-0.94,0.15,1.22,-3.23,-0.55,420,248,202,447,361
261,-0.21,-0.97,0.12,-3.78,-4.15,-2.38,419,250,204,450,360
262,-0.18,-0.97,0.13,1.95,-4.15,-1.71,418,251,204,455,357
263,-0.18,-0.97,0.12,1.89,-4.27,-2.38,419,246,207,450,360
264,-0.18,-0.97,0.1,3.3,-4.09,-1.83,419,252,207,451,360
265,-0.19,-0.97,0.1,3.54,-4.33,-1.46,420,247,201,452,358
266,-0.17,-0.97,0.1,2.99,-2.93,-3.91,419,248,203,451,360
267,-0.17,-0.98,0.12,-2.38,-2.99,-1.4,419,248,205,451,356
268,-0.18,-0.97,0.1,1.89,-3.78,-2.44,420,250,202,451,357
269,-0.18,-0.97,0.1,1.95,-4.09,-2.81,417,251,207,445,359
270,-0.18,-0.98,0.1,-0.24,-6.29,-2.69,420,248,210,455,357
271,-0.17,-0.97,0.11,1.65,-2.99,-1.71,417,252,203,451,362
272,-0.18,-0.97,0.1,0.37,-2.99,-2.2,419,252,204,452,362
273,-0.18,-0.97,0.09,0.67,-2.56,-2.5,420,255,215,454,360
274,-0.17,-0.97,0.12,0.24,-1.89,-2.93,419,250,206,445,357
275,-0.17,-0.96,0.09,0.85,-3.05,-2.87,419,247,205,450,361
276,-0.16,-0.99,0.11,2.01,-3.72,-1.83,417,251,206,455,360
277,-0.18,-0.97,0.12,0.43,-4.03,-3.11,416,253,202,450,360
278,-0.18,-0.96,0.11,0.73,-3.3,-2.01,419,248,205,447,357
279,-0.17,-0.98,0.11,-0.37,-2.08,-2.38,418,247,208,453,356
280,-0.17,-0.97,0.12,0.06,-2.14,-2.14,419,248,209,454,359
281,-0.2,-0.98,0.12,8.85,-1.65,-4.03,417,249,212,454,360
282,-0.17,-0.97,0.14,20.57,-2.99,-5.8,420,250,217,455,361
283,-0.16,-0.97,0.19,2.01,-2.69,-2.62,425,249,207,449,363
284,-0.15,-0.99,0.22,-1.28,-1.89,-2.26,419,249,216,454,363
285,-0.18,-1.13,0.09,1.16,-0.49,-1.89,413,250,205,451,359
286,-0.17,-0.94,0.15,1.83,-3.91,-1.77,415,250,204,452,362
287,-0.17,-0.97,0.16,-2.99,-2.32,-3.6,421,252,207,453,363
288,-0.17,-0.97,0.17,-0.37,-2.69,-3.91,418,254,206,448,365
289,-0.15,-0.97,0.17,1.65,-3.3,-2.87,418,248,208,451,361
290,-0.16,-0.96,0.17,-0.79,-2.93,-2.62,415,251,206,455,362
291,-0.15,-0.97,0.17,2.01,-3.91,-2.2,417,250,206,453,363
292,-0.16,-0.97,0.16,-1.77,-2.81,-3.17,417,268,205,451,365
293,-0.18,-0.96,0.18,-1.22,-2.62,-3.72,418,253,206,454,360
294,-0.17,-0.97,0.17,1.65,-2.62,-3.11,414,252,207,452,361
295,-0.17,-0.96,0.18,2.2,-2.93,-3.23,417,247,203,451,363
296,-0.16,-0.96,0.19,1.28,-3.23,-2.44,420,254,203,453,365
297,-0.17,-0.97,0.18,2.26,-2.01,-3.36,417,252,208,452,365
298,-0.17,-0.96,0.19,-0.06,-2.2,-2.5,417,251,208,448,365
299,-0.16,-0.95,0.19,1.28,-3.85,-2.87,419,254,202,450,360
300,-0.15,-0.97,0.17,-0.18,-5.0,-1.83,423,251,204,452,363
301,-0.16,-0.97,0.17,1.71,-3.54,-1.04,419,252,204,447,363
302,-0.16,-0.97,0.17,0.61,-2.99,-2.2,417,253,208,457,364
303,-0.16,-0.97,0.18,0.61,-3.97,-2.01,416,251,207,453,363
304,-0.16,-0.97,0.18,0.24,-3.85,-3.36,416,250,208,456,363
305,-0.15,-0.96,0.18,2.62,-3.48,-3.72,421,253,206,449,366
306,-0.15,-0.97,0.21,0.92,-2.44,-2.69,415,254,205,453,363
307,-0.15,-0.96,0.19,-0.61,-2.2,-3.23,456,255,208,453,360
308,-0.17,-0.97,0.2,-0.43,-3.66,-2.2,415,251,208,453,363
309,-0.17,-0.96,0.19,-1.16,-2.2,-2.5,418,252,205,452,364
310,-0.16,-0.96,0.19,-0.24,-1.4,-2.69,419,254,203,449,359
311,-0.17,-0.96,0.19,-0.55,-2.69,-2.93,420,252,205,453,363
312,-0.16,-0.96,0.19,0.73,-3.3,-3.85,416,251,218,449,365
313,-0.16,-0.97,0.2,0.12,-3.72,-2.69,416,251,209,448,361
314,-0.17,-0.97,0.2,0.49,-4.39,-3.48,418,249,208,450,362
315,-0.16,-0.97,0.2,-0.06,-1.77,-2.75,418,249,207,453,365
316,-0.14,-0.94,0.18,-1.28,-4.27,-2.56,419,253,207,457,359
317,-0.15,-0.95,0.19,-3.48,-3.48,-2.5,413,253,206,454,363
318,-0.16,-0.97,0.19,1.77,-2.75,-2.26,412,254,206,457,366
319,-0.17,-0.97,0.18,0.79,-1.71,-1.83,418,253,209,452,364
320,-0.16,-0.96,0.17,1.53,-4.15,-3.36,418,253,210,451,366
321,-0.15,-0.96,0.18,1.59,-4.27,-3.3,416,254,206,453,361
322,-0.15,-0.97,0.18,1.46,-3.11,-3.23,414,251,207,453,363
323,-0.16,-0.97,0.2,-0.67,-2.2,-2.75,416,252,208,456,365
324,-0.16,-0.97,0.18,0.79,-1.89,-1.71,422,252,207,457,365
325,-0.17,-0.97,0.18,0.31,-2.62,-2.44,415,255,206,469,362
326,-0.16,-0.96,0.17,0.12,-2.87,-2.75,412,252,209,452,363
327,-0.16,-0.97,0.17,0.79,-3.97,-2.2,416,251,206,452,364
328,-0.16,-0.97,0.18,0.85,-3.23,-3.97,414,255,206,453,365
329,-0.15,-0.97,0.19,2.14,-3.42,-2.56,420,252,206,452,361
330,-0.15,-0.98,0.19,2.26,-3.78,-2.44,409,248,206,452,367
331,-0.15,-0.97,0.19,0.61,-2.32,-2.5,453,254,207,456,360
332,-0.16,-0.96,0.19,0.49,-2.56,-2.44,416,253,209,452,364
333,-0.16,-0.97,0.18,-0.98,-2.62,-2.2,416,254,205,451,365
334,-0.16,-0.97,0.18,0.31,-2.01,-2.69,414,251,205,453,360
335,-0.16,-0.97,0.17,0.24,-2.32,-2.5,418,253,206,455,365
336,-0.17,-0.97,0.17,0.0,-2.69,-2.87,417,254,207,448,363
337,-0.16,-0.97,0.18,1.71,-4.33,-2.93,420,251,209,456,366
338,-0.15,-0.97,0.18,0.79,-3.78,-2.75,416,251,214,449,364
339,-0.16,-0.97,0.19,1.22,-3.72,-2.75,413,252,205,456,364
340,-0.15,-0.97,0.19,-0.31,-1.89,-2.81,418,250,206,451,362
341,-0.15,-0.97,0.18,0.0,-2.56,-2.26,416,249,206,455,359
342,-0.17,-0.96,0.19,-0.24,-1.77,-2.44,418,251,208,454,372
343,-0.15,-0.97,0.18,2.01,-2.26,-3.23,417,250,206,456,363
344,-0.16,-0.97,0.17,-0.24,-2.81,-2.5,416,249,208,453,365
345,-0.16,-0.96,0.17,-1.1,-2.5,-2.75,416,251,204,448,366
346,-0.17,-0.97,0.17,2.81,-3.78,-2.56,418,255,206,450,362
347,-0.15,-0.97,0.17,1.16,-3.6,-3.42,415,252,209,453,363
348,-0.15,-0.97,0.19,0.85,-3.17,-2.99,417,253,212,448,364
349,-0.16,-0.97,0.18,0.98,-2.87,-2.75,424,255,206,453,361
350,-0.16,-0.96,0.18,-1.16,-2.44,-2.08,418,254,206,449,360
351,-0.17,-0.99,0.17,-0.67,-2.32,-1.34,416,251,205,450,361
352,-0.16,-0.96,0.18,-0.37,-2.5,-3.17,416,255,208,453,364
353,-0.17,-0.97,0.18,0.0,-2.75,-2.56,418,251,206,452,364
354,-0.16,-0.97,0.17,0.73,-3.72,-2.75,417,252,208,451,364
355,-0.16,-0.96,0.18,1.04,-3.85,-3.36,416,251,210,451,361
356,-0.16,-0.98,0.18,1.16,-2.81,-2.81,416,253,209,446,364
357,-0.14,-0.97,0.18,0.12,-3.11,-2.69,419,252,208,453,364
358,-0.15,-0.96,0.18,-1.4,-2.2,-2.75,415,254,207,453,371
359,-0.16,-0.97,0.18,1.1,-3.11,-2.38,417,251,209,454,364
360,-0.16,-0.97,0.18,-0.06,-3.42,-2.32,414,252,209,451,363
361,-0.16,-0.97,0.17,0.12,-3.23,-2.14,409,254,209,455,364
362,-0.16,-0.96,0.16,0.49,-2.93,-2.5,417,254,207,452,364
363,-0.16,-0.96,0.17,0.67,-3.05,-3.05,416,252,210,456,364
364,-0.15,-0.98,0.18,0.92,-2.99,-3.3,415,254,209,453,364
365,-0.14,-0.97,0.18,0.85,-1.71,-3.48,416,254,207,453,363
366,-0.15,-0.99,0.15,1.28,-1.89,-3.3,416,252,206,446,362
367,-0.16,-0.96,0.17,-0.31,-3.17,-1.53,416,253,207,451,368
368,-0.15,-0.97,0.17,0.55,-3.42,-2.14,413,253,207,453,361
369,-0.16,-0.97,0.17,0.55,-3.17,-2.32,416,250,211,456,363
370,-0.15,-0.97,0.16,0.61,-2.26,-2.08,418,254,204,455,364
371,-0.16,-0.97,0.16,1.46,-3.6,-2.93,417,255,207,453,367
372,-0.16,-0.97,0.17,0.79,-3.36,-3.23,422,254,207,456,360
373,-0.15,-0.97,0.17,0.61,-3.36,-2.99,415,255,210,450,364
374,-0.15,-0.97,0.18,0.24,-2.2,-2.38,417,254,209,449,364
375,-0.15,-0.97,0.16,-0.24,-2.44,-2.81,420,251,206,447,364
376,-0.16,-0.96,0.16,-0.12,-3.11,-2.81,416,252,207,452,355
377,-0.16,-0.98,0.16,-0.24,-3.05,-1.83,416,258,206,455,365
378,-0.16,-0.97,0.16,0.98,-3.05,-2.32,416,258,208,452,365
379,-0.16,-0.96,0.16,0.55,-2.87,-2.62,416,252,209,452,363
380,-0.16,-0.97,0.17,0.67,-2.08,-1.95,416,255,207,455,364
381,-0.15,-0.97,0.18,0.06,-3.54,-3.23,416,253,207,451,364
382,-0.15,-0.97,0.18,0.61,-2.38,-3.11,412,252,208,454,362
383,-0.15,-0.98,0.17,0.73,-2.99,-2.5,419,255,209,449,362
384,-0.15,-0.97,0.18,-0.49,-2.69,-2.44,417,251,210,453,364
385,-0.16,-0.99,0.17,1.1,-3.11,-2.26,415,257,208,456,363
386,-0.15,-0.96,0.18,0.67,-4.15,-2.01,418,251,207,452,364
387,-0.16,-0.96,0.17,0.85,-2.87,-2.08,415,253,203,452,363
388,-0.15,-0.99,0.15,-1.04,-2.32,-2.93,415,255,206,456,363
389,-0.14,-0.97,0.19,0.49,-2.14,-2.99,415,251,210,453,366
390,-0.16,-0.96,0.18,-0.49,-2.44,-2.62,417,253,209,448,370
391,-0.16,-0.97,0.17,-2.32,-2.44,-1.71,414,255,204,454,363
392,-0.16,-0.97,0.17,-2.01,-0.18,-1.95,408,260,204,453,363
393,-0.17,-0.98,0.15,-0.43,-2.87,-2.56,428,256,209,455,365
394,-0.17,-0.97,0.14,0.12,-3.11,-2.75,415,253,206,449,360
395,-0.15,-0.97,0.14,0.67,-3.6,-3.23,416,257,209,450,363
396,-0.15,-0.97,0.16,-0.18,-2.62,-3.36,417,256,208,455,361
397,-0.12,-1.0,0.19,5.37,-0.73,-0.79,413,254,206,452,363
398,-0.14,-0.97,0.18,-1.95,-2.62,-2.69,415,257,209,455,367
399,-0.15,-0.96,0.17,-0.73,-2.75,-4.21,415,254,209,446,364
400,-0.17,-0.97,0.18,1.04,-3.36,-2.26,416,254,208,453,363
401,-0.15,-0.97,0.18,4.7,-4.15,-2.2,416,257,207,446,361
402,-0.12,-0.97,0.26,6.96,-2.56,-0.06,417,255,206,450,363
403,-0.14,-0.96,0.24,0.31,-1.95,-2.14,417,254,207,463,363
404,-0.17,-0.97,0.25,0.67,-2.5,-1.65,416,257,208,456,361
405,-0.13,-0.98,0.23,-5.55,-2.69,-5.07,418,255,204,453,361
406,-0.15,-0.95,0.19,-0.12,-3.42,-1.46,434,255,208,456,359
407,-0.15,-0.97,0.23,-0.98,-4.09,-3.11,418,256,205,449,364
408,-0.14,-0.97,0.22,0.37,-4.64,-4.09,417,256,207,453,364
409,-0.15,-0.97,0.19,-5.43,-6.1,-0.12,417,255,208,453,365
410,-0.15,-0.97,0.21,2.08,-2.32,-3.11,421,254,209,448,363
411,-0.16,-0.97,0.2,0.31,-4.21,-2.81,415,257,203,458,364
412,-0.13,-0.97,0.17,-0.06,-3.78,-2.93,417,259,204,457,359
413,-0.13,-0.96,0.18,-0.49,-3.05,-1.22,423,259,205,453,360
414,-0.15,-0.97,0.17,-1.65,-2.5,-2.56,414,259,207,458,363
415,-0.15,-0.97,0.16,-1.28,-3.3,-2.38,414,257,205,450,361
416,-0.17,-0.97,0.15,0.61,-3.11,-2.75,411,254,208,456,363
417,-0.16,-0.97,0.16,0.73,-3.05,-2.5,414,259,207,453,359
418,-0.15,-0.97,0.15,0.49,-2.75,-3.11,417,255,204,453,360
419,-0.15,-0.97,0.16,1.65,-3.6,-2.81,417,258,210,454,363
420,-0.15,-0.98,0.17,0.55,-3.17,-4.03,414,255,206,457,363
421,-0.15,-0.97,0.18,-0.24,-1.95,-2.32,413,253,209,453,365
422,-0.15,-0.96,0.17,0.18,-2.32,-1.71,415,256,207,456,363
423,-0.16,-0.96,0.17,-0.18,-2.32,-2.56,416,255,206,455,363
424,-0.16,-0.98,0.17,-0.06,-2.81,-2.5,414,258,207,453,363
425,-0.17,-0.96,0.17,-0.92,-1.71,-2.62,414,259,205,453,363
426,-0.15,-0.97,0.15,-1.22,-4.58,-1.04,415,258,208,453,363
427,-0.16,-0.97,0.15,0.0,-3.36,-2.44,417,257,207,449,364
428,-0.15,-0.97,0.17,2.81,-3.91,-3.05,417,258,207,453,361
429,-0.15,-0.97,0.17,0.43,-3.48,-3.97,412,253,208,454,356
430,-0.14,-0.98,0.17,-1.28,-2.26,-2.14,416,254,206,457,366
431,-0.15,-0.97,0.16,15.56,-3.23,-2.38,413,257,208,457,366
432,-0.15,-0.97,0.16,-1.34,-1.46,-3.36,414,254,210,457,362
433,-0.16,-0.97,0.16,-0.12,-1.34,-2.69,424,256,208,465,363
434,-0.14,-0.97,0.15,-0.73,-2.08,-2.69,412,260,204,454,363
435,-0.17,-0.97,0.15,-0.18,-1.65,-2.69,413,258,209,454,365
436,-0.16,-0.97,0.13,1.46,-3.72,-2.69,412,255,210,453,364
437,-0.15,-0.97,0.15,1.65,-3.48,-3.11,415,256,209,449,361
438,-0.14,-0.97,0.17,0.55,-3.48,-2.75,410,256,206,452,364
439,-0.14,-0.97,0.16,-0.31,-2.08,-2.01,415,255,209,456,365
440,-0.15,-0.97,0.15,0.06,-2.69,-2.14,414,255,207,449,363
441,-0.15,-0.97,0.16,-2.62,-3.3,-2.01,412,259,208,454,362
442,-0.15,-0.97,0.14,-0.18,-3.85,-2.38,412,257,209,456,363
443,-0.15,-0.97,0.15,0.37,-3.36,-3.11,413,259,210,458,363
444,-0.15,-0.97,0.15,2.26,-1.71,-5.07,413,257,207,454,363
445,-0.15,-0.97,0.16,1.04,-4.76,-2.99,411,257,206,454,364
446,-0.15,-0.97,0.17,-0.12,-2.38,-2.44,414,257,206,458,363
447,-0.14,-0.97,0.18,0.24,-2.87,-1.77,414,259,210,454,366
448,-0.16,-0.97,0.17,0.18,-2.5,-1.95,413,258,210,457,365
449,-0.15,-0.97,0.17,-0.37,-2.93,-2.56,416,256,209,456,365
450,-0.16,-0.97,0.16,-0.43,-2.56,-2.81,414,260,210,455,366
451,-0.16,-0.97,0.16,0.55,-2.93,-2.69,413,259,207,453,362
452,-0.16,-0.97,0.17,0.67,-2.99,-3.3,413,256,205,457,364
453,-0.15,-0.97,0.18,1.83,-4.03,-2.93,414,256,210,458,363
454,-0.15,-0.97,0.18,0.92,-2.5,-1.71,414,258,205,452,364
455,-0.15,-0.97,0.17,0.43,-2.62,-1.77,410,256,209,451,365
456,-0.14,-0.97,0.16,-0.55,-2.56,-2.62,410,256,203,454,361
457,-0.15,-0.97,0.15,-0.31,-3.17,-2.08,416,260,207,458,375
458,-0.15,-0.96,0.14,0.0,-2.62,-3.36,413,257,207,453,362
459,-0.16,-0.97,0.16,0.31,-3.3,-2.99,415,259,211,461,364
460,-0.16,-0.97,0.18,1.4,-3.54,-2.38,414,255,211,457,362
461,-0.15,-0.97,0.18,0.85,-2.93,-3.48,413,259,209,465,365
462,-0.15,-0.97,0.17,0.73,-3.17,-2.26,413,260,210,453,366
463,-0.16,-0.97,0.16,0.18,-2.87,-1.59,421,254,207,453,360
464,-0.16,-0.97,0.16,0.73,-3.48,-2.14,414,258,210,449,366
465,-0.17,-0.97,0.16,0.06,-3.05,-1.89,414,256,211,451,363
466,-0.16,-0.97,0.15,0.37,-2.69,-2.44,415,255,210,450,366
467,-0.16,-0.97,0.16,0.61,-3.23,-2.5,410,257,210,452,365
468,-0.16,-0.97,0.16,0.92,-3.36,-2.69,415,259,207,450,365
469,-0.16,-0.97,0.17,1.04,-3.3,-3.42,412,255,210,449,365
470,-0.15,-0.97,0.17,-0.49,-3.42,-2.56,413,257,212,452,365
471,-0.16,-0.97,0.18,0.31,-2.26,-2.62,413,259,206,454,366
472,-0.15,-0.97,0.16,2.26,-2.56,-2.87,413,259,211,452,367
473,-0.16,-0.97,0.17,1.4,-2.81,-2.26,413,260,210,450,362
474,-0.15,-0.97,0.18,2.87,-4.09,-1.1,411,258,207,454,362
475,-0.17,-0.97,0.17,1.77,-2.44,-1.53,412,257,205,458,364
476,-0.15,-0.98,0.15,-0.18,-2.62,-4.21,413,255,208,455,364
477,-0.15,-0.98,0.18,-0.79,-2.62,-3.97,417,257,210,455,365
478,-0.16,-0.97,0.19,-1.53,-1.1,-3.23,414,259,210,454,368
479,-0.17,-0.96,0.16,-0.18,-3.11,-2.5,436,257,207,457,360
480,-0.16,-0.98,0.16,0.92,-3.78,-2.01,412,257,205,455,366
481,-0.14,-0.96,0.15,1.1,-2.01,-2.99,413,260,206,455,365
482,-0.14,-0.97,0.16,1.95,-2.62,-2.56,413,253,206,456,366
483,-0.17,-0.97,0.19,1.83,-2.87,-1.65,414,260,210,456,363
484,-0.16,-0.97,0.16,0.31,-2.56,-2.26,425,257,209,455,361
485,-0.16,-0.97,0.17,0.98,-2.5,-2.81,412,259,210,450,360
486,-0.16,-0.97,0.18,1.46,-4.64,-2.32,411,257,211,453,366
487,-0.16,-0.97,0.17,2.44,-4.09,-2.93,414,258,210,458,364
488,-0.16,-0.97,0.17,1.16,-3.3,-2.62,408,258,206,460,366
489,-0.15,-0.97,0.17,-0.43,-1.83,-2.62,412,257,211,454,364
490,-0.14,-0.97,0.15,-4.88,-2.5,-2.62,412,261,205,454,362
491,-0.17,-0.97,0.17,-1.22,-3.17,-1.34,410,260,209,454,365
492,-0.18,-0.97,0.15,1.71,-2.38,-3.11,413,257,212,453,365
493,-0.15,-0.97,0.15,-2.69,-2.75,-2.38,410,257,209,454,363
494,-0.15,-0.97,0.14,1.16,-2.56,-2.01,413,260,207,459,365
495,-0.16,-0.97,0.16,0.92,-3.11,-2.38,412,256,207,458,360
496,-0.16,-0.97,0.17,1.16,-3.42,-3.3,409,257,206,449,361
497,-0.15,-0.96,0.16,0.49,-1.71,-3.17,412,259,207,453,364
498,-0.16,-0.97,0.16,2.69,-2.32,-1.95,408,259,207,453,366
499,-0.18,-0.98,0.21,2.2,8.24,-4.82,412,260,210,454,363
500,-0.12,-0.98,0.14,-8.48,-1.4,-3.17,411,258,209,458,362
501,-0.19,-0.96,0.12,6.35,1.71,-4.82,413,261,207,446,363
502,-0.14,-0.98,0.14,3.72,0.37,-3.72,416,257,204,456,361
503,-0.15,-0.97,0.14,-2.38,-4.46,-2.32,415,258,210,457,363
504,-0.15,-0.98,0.12,0.67,-3.78,-3.54,413,262,207,457,363
505,-0.14,-0.98,0.12,0.49,-3.05,-1.83,413,257,206,456,361
506,-0.15,-0.98,0.13,-0.61,-3.3,-2.62,415,260,209,457,370
507,-0.15,-0.98,0.12,1.34,-3.17,-2.38,413,264,211,457,362
508,-0.13,-0.99,0.1,-0.67,-3.23,-3.17,413,260,211,454,361
509,-0.14,-0.97,0.11,-0.18,-3.91,-1.89,415,259,205,451,361
510,-0.16,-0.97,0.13,0.98,-2.32,-2.08,414,260,207,458,364
511,-0.15,-0.99,0.12,1.1,-2.81,-1.46,411,258,208,454,363
512,-0.15,-0.99,0.12,0.79,-3.11,-3.3,413,259,209,458,362
513,-0.15,-0.98,0.13,1.16,-2.44,-2.93,412,258,208,457,364
514,-0.19,-0.96,0.21,1.16,-3.54,-2.38,424,220,181,438,357
515,-0.16,-0.95,0.2,-1.22,-4.7,-3.3,424,221,184,440,359
516,-0.16,-0.95,0.26,0.98,-2.5,-3.91,422,220,185,436,361
517,-0.16,-0.96,0.19,-2.14,-2.14,-4.21,418,221,185,436,359
518,-0.18,-0.96,0.19,0.37,-1.22,-4.27,421,219,183,435,363
519,-0.17,-0.98,0.21,-1.95,-0.37,-3.17,422,222,184,437,358
520,-0.19,-0.96,0.22,2.38,-2.5,-0.43,418,221,186,435,358
521,-0.22,-0.96,0.22,-5.19,-4.7,3.91,417,222,187,440,360
522,-0.18,-0.96,0.21,0.18,-3.17,0.12,422,223,182,441,360
523,-0.18,-0.96,0.19,-1.16,-0.73,-1.34,419,228,184,436,356
524,-0.22,-0.95,0.2,1.04,-1.95,-2.69,423,223,184,439,359
525,-0.2,-0.95,0.2,1.53,-4.58,-5.37,421,222,183,435,361
526,-0.21,-0.95,0.15,-3.6,-8.73,0.49,421,220,187,444,360
527,-0.24,-0.95,0.22,0.73,-0.12,-0.31,421,224,188,440,358
528,-0.2,-0.94,0.14,-5.37,-4.46,-3.6,423,223,185,441,363
529,-0.15,-0.96,0.24,0.85,-2.93,-1.4,420,224,188,436,359
530,-0.21,-0.95,0.2,-2.69,-7.2,0.24,421,225,188,446,359
531,-0.19,-0.95,0.21,3.36,-4.15,-1.28,421,229,189,443,361
532,-0.22,-0.93,0.21,5.62,5.43,-14.28,419,225,191,438,364
533,-0.2,-0.95,0.21,2.44,-0.98,-0.79,420,224,189,439,359
534,-0.2,-0.95,0.2,3.3,-2.81,-0.61,418,226,187,437,365
535,-0.2,-0.94,0.2,-1.04,-3.91,-3.66,416,227,190,436,361
536,-0.22,-0.94,0.24,-0.61,-1.83,-1.46,424,228,190,441,360
537,-0.18,-0.95,0.24,2.56,-3.17,-3.48,417,231,189,446,361
538,-0.2,-0.94,0.22,1.4,-2.08,-2.5,421,230,189,445,363
539,-0.19,-0.95,0.25,0.18,-2.2,-2.5,422,231,189,439,357
540,-0.21,-0.93,0.23,-1.77,-2.62,-2.14,424,229,192,444,359
541,-0.21,-0.94,0.24,0.12,-2.62,-2.08,424,234,188,447,359
542,-0.22,-0.94,0.25,0.85,-2.81,-2.01,422,231,189,444,361
543,-0.2,-0.93,0.26,7.14,-0.73,-2.32,422,229,190,444,363
544,-0.19,-0.91,0.28,0.24,-1.1,-5.86,421,228,195,440,364
545,-0.16,-0.95,0.24,-2.26,0.85,-3.66,425,228,190,449,363
546,-0.19,-0.96,0.19,-4.82,1.1,-2.2,418,231,192,444,361
547,-0.19,-0.96,0.2,-3.66,-0.67,-5.55,423,232,189,449,362
548,-0.16,-0.96,0.21,-2.99,-2.44,-3.05,420,230,189,445,362
549,-0.17,-0.97,0.2,3.05,-3.78,-3.05,420,232,189,444,359
550,-0.2,-0.96,0.21,0.67,2.69,-2.26,421,231,190,446,361
551,-0.2,-0.96,0.22,-1.04,-6.29,-3.05,418,231,191,451,363
552,-0.18,-0.95,0.25,-0.06,-3.78,-1.65,417,230,191,446,362
553,-0.22,-0.95,0.28,6.47,-7.02,-5.49,421,229,190,448,361
554,-0.23,-0.94,0.22,2.14,-9.28,-3.36,424,233,190,446,361
555,-0.13,-0.94,0.24,-3.42,-3.17,-4.39,423,232,203,447,360
556,-0.17,-0.94,0.27,3.42,-2.75,-5.55,423,228,193,448,359
557,-0.18,-0.93,0.3,3.42,-6.84,-5.25,422,228,191,447,357
558,-0.19,-0.92,0.31,1.1,-0.18,-2.26,424,234,191,450,355
559,-0.19,-0.92,0.31,-0.67,-1.65,-3.42,422,226,190,450,359
560,-0.19,-0.93,0.31,0.43,-1.83,-3.42,418,233,193,448,364
561,-0.18,-0.92,0.3,-1.59,-1.34,-3.11,433,228,194,443,361
562,-0.23,-0.93,0.35,0.61,-2.87,-1.83,424,234,193,446,361
563,-0.18,-0.94,0.28,-0.55,-3.6,-3.97,422,233,195,441,365
564,-0.17,-0.94,0.24,-4.46,-5.98,-7.32,420,232,192,445,358
565,-0.15,-0.95,0.22,1.46,-4.82,-3.54,420,231,189,447,357
566,-0.18,-0.93,0.25,2.14,-4.15,-5.62,422,231,190,451,365
567,-0.19,-0.94,0.28,1.89,-1.59,-1.65,427,230,195,451,358
568,-0.18,-0.94,0.29,1.65,-2.93,-1.77,413,228,194,448,361
569,-0.17,-0.94,0.3,1.59,-2.75,-1.89,436,231,194,451,364
570,-0.19,-0.93,0.29,1.34,-3.66,-2.5,422,233,194,444,359
571,-0.21,-0.94,0.3,-0.85,-2.81,-2.38,421,235,196,447,358
572,-0.19,-0.94,0.3,0.06,-3.23,-2.81,421,231,194,443,363
573,-0.19,-0.93,0.29,-0.98,-3.91,-2.75,423,233,196,447,361
574,-0.2,-0.93,0.3,0.49,-1.46,-2.38,421,238,191,449,363
575,-0.19,-0.93,0.29,0.61,-2.01,-2.26,420,233,195,443,362
576,-0.19,-0.95,0.28,0.67,-3.91,-2.08,422,232,204,442,358
577,-0.2,-0.94,0.28,0.31,-3.36,-1.83,421,235,196,456,362
578,-0.19,-0.93,0.29,0.49,-3.11,-2.56,420,235,195,445,360
579,-0.19,-0.94,0.28,1.46,-1.83,-2.62,418,234,195,448,363
580,-0.2,-0.94,0.28,0.73,-3.05,-2.56,420,232,196,453,362
581,-0.21,-0.94,0.29,1.1,-3.36,-4.64,422,235,195,443,362
582,-0.18,-0.94,0.29,1.4,-5.25,-3.3,419,238,193,448,359
583,-0.18,-0.94,0.28,-0.92,-3.23,-2.69,416,235,196,448,361
584,-0.17,-0.94,0.27,-1.04,-3.11,-2.93,419,234,196,448,362
585,-0.18,-0.94,0.28,-0.43,-3.72,-2.75,419,237,195,445,363
586,-0.17,-0.94,0.28,0.06,-2.5,-1.95,420,237,194,454,361
587,-0.19,-0.93,0.32,-0.92,-4.27,-2.62,421,233,201,453,362
588,-0.17,-0.94,0.31,-0.06,-2.2,-3.05,419,239,196,449,361
589,-0.19,-0.94,0.33,-0.61,-2.5,-3.23,420,234,193,448,365
590,-0.18,-0.93,0.3,-2.08,-1.95,-2.69,421,233,196,454,362
591,-0.17,-0.94,0.3,-1.71,-1.95,-2.81,420,237,196,447,362
592,-0.19,-0.94,0.29,-0.18,-2.5,-2.69,420,237,195,450,363
593,-0.17,-0.94,0.28,-1.1,-2.5,-3.42,419,234,197,448,361
594,-0.18,-0.94,0.29,-0.79,-1.59,-2.26,422,233,197,448,362
595,-0.18,-0.94,0.28,1.16,-2.93,-2.5,420,235,198,448,362
596,-0.18,-0.95,0.3,3.11,-3.3,-3.36,418,237,195,450,358
597,-0.18,-0.94,0.3,1.4,-3.17,-1.53,419,235,195,451,363
598,-0.18,-0.94,0.3,0.92,-3.42,-2.01,419,238,193,452,362
599,-0.18,-0.94,0.3,-1.28,-2.62,-1.53,419,235,198,449,362
600,-0.19,-0.94,0.29,-0.37,-1.1,-1.4,421,238,200,444,360
601,-0.2,-0.93,0.27,2.2,-2.87,-2.5,420,240,196,451,360
602,-0.18,-0.94,0.31,-14.28,-27.16,2.87,422,235,199,450,360
603,0.0,-0.98,0.3,3.97,-33.33,-1.95,420,237,195,453,361
604,-0.17,-0.93,0.42,11.05,-5.07,8.3,422,239,197,454,360
605,-0.05,-0.97,0.19,3.72,-2.5,-6.04,421,233,198,452,363
606,-0.08,-0.98,0.15,-11.29,-8.06,-1.89,428,239,194,445,362
607,-0.17,-0.97,0.16,2.99,0.85,-4.88,417,238,201,450,361
608,-0.13,-0.96,0.2,-3.05,-1.16,-4.39,415,233,198,450,365
609,-0.06,-0.96,0.23,9.7,2.14,-1.83,415,238,203,441,362
610,-0.1,-0.98,0.3,19.9,23.38,-10.44,418,237,197,451,364
611,-0.19,-0.91,0.27,-3.72,5.62,5.25,419,238,195,450,364
612,-0.18,-0.94,0.27,-3.36,-3.17,-3.97,417,242,197,454,361
613,-0.16,-0.94,0.29,-1.16,-4.39,-2.87,425,238,197,454,362
614,-0.2,-0.94,0.23,0.31,5.49,-3.66,417,238,192,454,362
615,-0.19,-0.95,0.24,-1.77,-2.81,-1.77,419,240,199,450,361
616,-0.19,-0.95,0.24,-1.77,-1.95,-4.52,418,236,196,451,361
617,-0.18,-0.95,0.22,0.55,-2.69,-1.77,418,237,194,447,362
618,-0.15,-0.93,0.21,0.49,0.12,-3.66,412,234,200,455,360
619,-0.08,-0.96,0.16,-3.91,1.89,-9.09,412,236,196,451,364
620,-0.15,-0.96,0.17,20.08,-1.53,2.99,415,235,193,450,360
621,-0.14,-1.02,0.2,9.4,-2.81,4.58,415,240,196,450,357
622,-0.16,-0.94,0.35,7.57,-6.77,-17.58,423,242,197,450,359
623,-0.05,-0.92,0.34,0.0,1.22,8.06,416,240,194,445,362
624,-0.1,-0.95,0.3,9.16,-14.1,6.35,418,238,199,452,361
625,-0.06,-0.95,0.33,-4.03,-2.56,-1.04,416,235,200,448,359
626,-0.11,-0.95,0.3,-2.75,-2.99,-0.24,417,238,195,450,361
627,-0.16,-0.98,0.21,-20.94,-6.47,6.71,420,237,200,450,359
628,-0.16,-0.97,0.21,0.98,-5.37,1.53,418,237,198,452,364
629,-0.21,-0.96,0.21,1.46,-5.0,-2.81,424,238,197,443,361
630,-0.17,-0.96,0.27,-4.58,-1.83,-0.37,422,241,198,460,362
631,-0.17,-0.96,0.22,1.22,-5.25,-0.49,423,240,198,451,363
632,-0.16,-0.97,0.2,2.81,-4.76,-1.65,422,238,211,453,360
633,-0.17,-0.96,0.2,2.2,-2.87,-1.59,424,242,197,456,360
634,-0.16,-0.96,0.2,-1.22,-1.53,-5.98,425,241,197,451,357
635,-0.13,-0.96,0.22,3.3,-5.43,-1.4,421,239,200,453,359
636,-0.16,-0.96,0.24,2.2,-3.05,-2.5,420,240,199,450,362
637,-0.15,-0.96,0.21,-1.16,-2.69,-3.85,421,239,201,449,361
638,-0.16,-0.96,0.19,2.01,-2.14,-3.23,422,240,198,449,361
639,-0.17,-0.95,0.18,2.14,-1.04,-3.78,417,239,198,454,363
640,-0.17,-0.96,0.21,-1.28,-2.26,-6.84,424,242,196,446,363
641,-0.17,-0.96,0.19,-1.83,-2.26,-1.4,422,242,200,448,362
642,-0.16,-0.96,0.22,-0.61,-2.2,-3.97,419,241,199,449,359
643,-0.15,-0.97,0.21,-2.69,-1.16,-2.26,423,237,200,451,361
644,-0.16,-0.96,0.21,-0.61,-2.93,-1.83,421,238,200,449,359
645,-0.16,-0.96,0.19,0.55,-2.56,-2.81,422,239,196,453,362
646,-0.15,-0.96,0.19,0.37,-1.59,-2.26,428,240,198,449,361
647,-0.16,-0.97,0.2,-0.12,-3.54,-3.42,422,241,198,450,358
648,-0.14,-0.96,0.19,3.42,-2.93,-0.98,421,238,201,453,361
649,-0.18,-0.97,0.19,-0.31,-2.87,-2.01,418,239,198,449,358
650,-0.18,-0.95,0.21,-0.31,-4.46,-2.5,419,242,198,453,362
651,-0.14,-0.96,0.21,2.93,-1.95,-4.09,420,240,201,451,359
652,-0.16,-0.96,0.22,-2.69,-2.75,-2.38,422,240,195,453,361
653,-0.16,-0.96,0.19,-2.75,-2.5,-3.72,424,242,199,452,355
654,-0.15,-0.95,0.29,11.41,0.0,-7.63,421,240,201,449,357
655,-0.1,-0.96,0.2,-3.97,4.76,-6.47,421,242,200,447,359
656,-0.13,-0.95,0.23,5.43,2.69,-0.18,420,241,200,448,356
657,-0.14,-0.96,0.24,-4.88,-3.42,-2.62,422,240,204,451,361
658,-0.12,-0.96,0.19,0.37,-2.75,-3.54,422,238,201,453,360
659,-0.13,-0.95,0.19,0.98,-5.25,-2.26,424,240,199,450,356
660,-0.12,-0.97,0.23,-2.69,-2.01,-3.3,421,238,199,450,355
661,-0.13,-0.98,0.23,-3.48,-0.31,-3.05,418,239,201,445,355
662,-0.1,-0.96,0.17,0.55,-11.54,-2.87,417,242,201,453,361
663,-0.14,-0.96,0.2,0.55,0.61,-3.85,419,242,200,453,361
664,-0.13,-0.95,0.19,0.49,-2.56,-2.5,419,241,202,450,369
665,-0.13,-1.0,0.18,2.5,0.18,-3.11,419,243,199,449,362
666,-0.14,-0.96,0.21,2.87,-4.39,-1.59,420,243,199,453,362
667,-0.12,-0.97,0.19,0.98,-4.03,-3.78,419,241,198,450,363
668,-0.14,-0.96,0.21,0.49,-1.65,-3.05,426,238,200,454,362
669,-0.15,-0.96,0.2,1.16,-2.2,-0.98,419,242,201,449,362
670,-0.14,-0.96,0.19,1.46,-2.5,-2.2,421,250,201,453,363
671,-0.17,-0.97,0.22,-0.61,-5.49,-0.55,421,244,201,451,362
672,-0.16,-0.97,0.19,0.24,-3.66,-2.01,424,244,203,453,354
673,-0.14,-0.97,0.18,-0.67,-4.27,-3.3,421,245,201,450,357
674,-0.13,-0.97,0.2,-0.43,-3.72,-0.67,419,244,208,447,360
675,-0.14,-0.97,0.19,1.77,-3.3,-1.28,423,243,199,454,359
676,-0.14,-0.97,0.2,-0.61,-2.32,-2.01,420,244,199,454,361
677,-0.16,-0.96,0.19,0.24,-3.91,-2.2,421,246,206,451,361
678,-0.15,-0.96,0.25,0.24,-5.92,-3.85,417,244,201,451,358
679,-0.15,-0.97,0.19,-6.04,-12.39,-3.11,421,247,201,452,360
680,-0.13,-0.98,0.15,-4.7,-5.62,-0.43,422,247,202,455,358
681,-0.13,-0.97,0.16,0.43,-4.7,2.14,420,244,201,452,357
682,-0.14,-0.97,0.16,-0.61,-1.53,-1.59,421,242,200,457,363
683,-0.16,-0.97,0.21,-3.36,-4.21,-2.93,419,246,201,450,359
684,-0.13,-0.98,0.19,-3.85,-1.65,-3.72,420,243,204,446,366
685,-0.09,-0.97,0.09,3.97,-6.47,-4.76,422,245,203,450,360
686,0.05,-0.91,0.17,39.43,2.38,-26.18,419,243,200,455,360
687,0.07,-0.93,0.38,6.59,-12.63,-15.08,419,244,201,451,360
688,0.11,-1.1,0.31,-12.33,6.77,-4.88,417,244,204,455,358
689,0.25,-0.92,0.4,0.31,4.94,-18.25,418,244,201,445,359
690,0.14,-0.92,0.43,3.36,-1.1,-1.34,418,243,201,448,357
691,0.12,-0.86,0.33,-12.08,2.69,2.75,444,243,201,446,361
692,0.26,-0.87,0.47,0.85,-4.88,5.31,417,246,205,452,363
693,0.19,-0.88,0.45,-3.91,-1.89,2.93,416,246,203,452,360
694,0.13,-0.92,0.46,-7.45,-13.18,0.73,416,247,205,450,361
695,0.17,-0.9,0.47,5.8,-0.37,-6.04,418,245,205,449,357
696,0.18,-0.88,0.42,-0.61,-8.18,-2.81,427,246,202,446,361
697,0.18,-0.87,0.47,8.73,0.85,-4.15,413,246,204,451,358
698,0.14,-0.84,0.56,8.54,12.02,4.27,412,245,203,452,360
699,0.07,-0.86,0.48,-3.54,1.28,3.91,413,242,205,453,359
700,0.01,-0.86,0.49,5.43,-2.01,-4.58,415,246,199,456,361
701,0.01,-0.85,0.47,2.93,-8.54,-4.76,416,249,203,452,358
702,0.04,-0.84,0.48,1.77,-8.97,-5.68,417,245,203,451,362
703,0.07,-0.86,0.51,-1.59,-2.69,-2.32,417,249,202,455,361
704,0.03,-0.87,0.54,-5.19,-3.72,-7.63,415,248,204,447,360
705,0.1,-0.88,0.45,-10.25,3.36,-11.96,420,249,205,451,361
706,0.1,-0.9,0.41,-2.56,-4.46,-1.89,414,247,204,449,361
707,0.09,-0.91,0.41,3.05,-1.71,-1.53,414,246,205,452,361
708,0.07,-0.9,0.41,0.67,-3.6,-0.73,417,246,204,451,361
709,0.1,-0.9,0.41,0.92,-4.64,-5.19,415,247,201,451,361
710,0.07,-0.9,0.43,0.24,-0.31,-0.85,416,248,202,455,361
711,0.04,-0.91,0.42,-8.0,-2.32,3.54,417,246,205,454,361
712,-0.02,-0.94,0.35,-10.01,-4.09,4.33,420,245,203,453,363
713,-0.02,-0.95,0.28,-5.43,-5.0,-0.12,417,247,206,450,373
714,-0.01,-0.95,0.3,1.46,-6.41,-0.37,419,249,202,451,361
715,0.0,-0.95,0.29,2.81,4.46,-4.03,420,247,204,452,359
716,-0.01,-0.95,0.27,-2.32,-0.79,-3.05,418,246,205,450,357
717,-0.01,-0.95,0.31,-0.85,-7.87,-3.91,417,249,200,454,361
718,0.07,-0.96,0.3,-3.97,-6.29,-1.83,418,247,200,453,361
719,0.01,-0.95,0.28,-2.5,-4.94,-0.31,417,245,204,446,361
720,0.02,-0.96,0.29,-1.95,1.89,-3.42,418,250,205,456,360
721,-0.01,-0.96,0.26,-3.11,-0.18,-4.88,414,248,200,455,360
722,-0.01,-0.96,0.27,-1.71,-1.16,-3.17,418,257,210,449,360
723,0.02,-0.96,0.28,-0.31,-0.49,-1.34,418,250,203,454,358
724,-0.0,-0.96,0.27,-1.46,-2.08,-0.55,417,250,201,450,359
725,-0.05,-0.97,0.3,-3.3,9.83,7.2,421,249,203,451,358
726,-0.14,-0.96,0.24,-6.29,0.24,5.55,418,247,200,454,360
727,-0.17,-0.96,0.18,0.18,-0.85,3.6,421,247,201,457,361
728,-0.22,-0.97,0.23,-0.12,-6.53,-6.59,420,260,203,454,363
729,-0.15,-0.95,0.2,-0.37,-7.2,-1.28,446,249,205,452,357
730,-0.19,-0.97,0.22,1.4,-12.7,-2.75,421,250,202,449,360
731,-0.11,-0.97,0.19,3.97,0.31,-8.42,418,250,200,454,363
732,-0.13,-0.97,0.2,-0.67,-5.07,-5.49,419,249,200,451,360
733,-0.08,-0.98,0.18,-4.09,-5.13,-4.15,419,249,203,455,358
734,-0.1,-0.98,0.15,-4.7,-3.17,-2.44,418,247,203,450,361
735,-0.09,-0.98,0.15,-0.55,-2.75,-2.62,414,248,206,452,362
736,-0.11,-0.97,0.18,7.63,-1.16,6.77,418,250,201,447,362
737,-0.15,-0.95,0.22,-1.77,-4.82,5.62,414,249,205,460,360
738,-0.16,-0.95,0.2,5.37,-2.62,9.16,418,250,204,455,361
739,-0.27,-0.94,0.21,10.01,-1.95,-3.72,419,246,202,447,358
740,-0.18,-0.95,0.24,1.46,-1.89,-4.7,429,249,201,451,363
741,-0.19,-0.95,0.23,-1.16,-4.21,-1.89,416,248,205,454,365
742,-0.2,-0.96,0.22,-4.15,-1.1,-1.53,419,247,202,450,357
743,-0.2,-0.95,0.19,-1.1,-2.2,-2.08,418,248,203,446,362
744,-0.21,-0.97,0.15,-23.8,2.32,1.16,419,246,216,451,360
745,-0.22,-0.94,0.07,1.77,-6.65,-0.24,418,248,201,455,359
746,-0.25,-0.96,0.05,3.11,-6.29,-1.34,418,247,203,454,362
747,-0.25,-0.96,0.07,-1.22,-2.01,-3.17,419,247,202,463,361
748,-0.25,-0.96,0.09,1.34,-2.87,-3.17,419,249,204,450,358
749,-0.25,-0.96,0.07,-4.09,-0.85,-4.94,418,250,203,445,358
750,-0.23,-0.96,0.07,0.61,-2.93,-2.93,420,245,206,453,358
751,-0.21,-0.97,0.08,0.12,-3.66,-5.43,422,248,201,452,360
752,-0.21,-0.98,0.1,-0.79,1.22,-3.85,419,248,202,449,359
753,-0.22,-0.97,0.1,0.61,0.0,-1.46,419,249,202,448,360
754,-0.2,-0.97,0.07,-0.92,-3.05,-3.91,417,251,206,455,359
755,-0.2,-0.97,0.08,1.4,-2.44,-3.05,422,249,202,449,358
756,-0.17,-0.97,0.1,3.6,-3.91,-4.09,421,248,204,455,359
757,-0.2,-0.97,0.1,-0.73,-2.93,-2.32,421,245,206,456,357
758,-0.19,-0.97,0.07,-4.46,-1.89,-5.55,418,250,201,454,360
759,-0.19,-0.97,0.08,1.83,-5.07,-2.44,418,251,203,448,359
760,-0.19,-0.97,0.1,2.81,-3.05,-2.26,420,248,205,450,356
761,-0.19,-0.97,0.09,-0.06,-3.05,-2.14,418,247,203,450,359
762,-0.2,-0.97,0.12,2.32,-3.72,-1.89,417,247,203,452,359
763,-0.18,-0.98,0.11,0.73,-1.83,-2.56,419,248,207,452,357
764,-0.19,-0.97,0.09,-0.37,-2.81,-2.2,418,248,204,455,359
765,-0.17,-0.98,0.13,2.81,-0.37,-3.97,420,248,204,455,359
766,-0.18,-0.98,0.13,0.79,-2.5,-1.34,429,249,203,455,359
767,-0.17,-0.96,0.08,0.67,-1.34,-3.3,417,245,211,450,357
768,-0.18,-0.97,0.11,0.55,-1.95,-2.99,420,251,204,446,358
769,-0.19,-0.97,0.12,0.92,-3.23,-2.32,420,251,207,451,360
770,-0.19,-0.97,0.13,-0.06,-2.38,-2.32,422,254,199,447,360
771,-0.19,-0.97,0.13,1.65,-3.72,-3.72,420,249,201,447,363
772,-0.2,-0.98,0.13,-2.62,-1.46,-2.81,418,246,203,447,361
773,-0.17,-0.97,0.14,1.1,-0.37,-3.72,419,249,203,451,361
774,-0.19,-0.94,0.15,1.22,-3.23,-0.55,420,248,202,447,361
775,-0.21,-0.97,0.12,-3.78,-4.15,-2.38,419,250,204,450,360
776,-0.18,-0.97,0.13,1.95,-4.15,-1.71,418,251,204,455,357
777,-0.18,-0.97,0.12,1.89,-4.27,-2.38,419,246,207,450,360
778,-0.18,-0.97,0.1,3.3,-4.09,-1.83,419,252,207,451,360
779,-0.19,-0.97,0.1,3.54,-4.33,-1.46,420,247,201,452,358
780,-0.17,-0.97,0.1,2.99,-2.93,-3.91,419,248,203,451,360
781,-0.17,-0.98,0.12,-2.38,-2.99,-1.4,419,248,205,451,356
782,-0.18,-0.97,0.1,1.89,-3.78,-2.44,420,250,202,451,357
783,-0.18,-0.97,0.1,1.95,-4.09,-2.81,417,251,207,445,359
784,-0.18,-0.98,0.1,-0.24,-6.29,-2.69,420,248,210,455,357
785,-0.17,-0.97,0.11,1.65,-2.99,-1.71,417,252,203,451,362
786,-0.18,-0.97,0.1,0.37,-2.99,-2.2,419,252,204,452,362
787,-0.18,-0.97,0.09,0.67,-2.56,-2.5,420,255,215,454,360
788,-0.17,-0.97,0.12,0.24,-1.89,-2.93,419,250,206,445,357
789,-0.17,-0.96,0.09,0.85,-3.05,-2.87,419,247,205,450,361
790,-0.16,-0.99,0.11,2.01,-3.72,-1.83,417,251,206,455,360
791,-0.18,-0.97,0.12,0.43,-4.03,-3.11,416,253,202,450,360
792,-0.18,-0.96,0.11,0.73,-3.3,-2.01,419,248,205,447,357
793,-0.17,-0.98,0.11,-0.37,-2.08,-2.38,418,247,208,453,356
794,-0.17,-0.97,0.12,0.06,-2.14,-2.14,419,248,209,454,359
795,-0.2,-0.98,0.12,8.85,-1.65,-4.03,417,249,212,454,360
796,-0.17,-0.97,0.14,20.57,-2.99,-5.8,420,250,217,455,361
797,-0.16,-0.97,0.19,2.01,-2.69,-2.62,425,249,207,449,363
798,-0.15,-0.99,0.22,-1.28,-1.89,-2.26,419,249,216,454,363
799,-0.18,-1.13,0.09,1.16,-0.49,-1.89,413,250,205,451,359
800,-0.17,-0.94,0.15,1.83,-3.91,-1.77,415,250,204,452,362
801,-0.17,-0.97,0.16,-2.99,-2.32,-3.6,421,252,207,453,363
802,-0.17,-0.97,0.17,-0.37,-2.69,-3.91,418,254,206,448,365
803,-0.15,-0.97,0.17,1.65,-3.3,-2.87,418,248,208,451,361
804,-0.16,-0.96,0.17,-0.79,-2.93,-2.62,415,251,206,455,362
805,-0.15,-0.97,0.17,2.01,-3.91,-2.2,417,250,206,453,363
806,-0.16,-0.97,0.16,-1.77,-2.81,-3.17,417,268,205,451,365
807,-0.18,-0.96,0.18,-1.22,-2.62,-3.72,418,253,206,454,360
808,-0.17,-0.97,0.17,1.65,-2.62,-3.11,414,252,207,452,361
809,-0.17,-0.96,0.18,2.2,-2.93,-3.23,417,247,203,451,363
810,-0.16,-0.96,0.19,1.28,-3.23,-2.44,420,254,203,453,365
811,-0.17,-0.97,0.18,2.26,-2.01,-3.36,417,252,208,452,365
812,-0.17,-0.96,0.19,-0.06,-2.2,-2.5,417,251,208,448,365
813,-0.16,-0.95,0.19,1.28,-3.85,-2.87,419,254,202,450,360
814,-0.15,-0.97,0.17,-0.18,-5.0,-1.83,423,251,204,452,363
815,-0.16,-0.97,0.17,1.71,-3.54,-1.04,419,252,204,447,363
816,-0.16,-0.97,0.17,0.61,-2.99,-2.2,417,253,208,457,364
817,-0.16,-0.97,0.18,0.61,-3.97,-2.01,416,251,207,453,363
818,-0.16,-0.97,0.18,0.24,-3.85,-3.36,416,250,208,456,363
819,-0.15,-0.96,0.18,2.62,-3.48,-3.72,421,253,206,449,366
820,-0.15,-0.97,0.21,0.92,-2.44,-2.69,415,254,205,453,363
821,-0.15,-0.96,0.19,-0.61,-2.2,-3.23,456,255,208,453,360
822,-0.17,-0.97,0.2,-0.43,-3.66,-2.2,415,251,208,453,363
823,-0.17,-0.96,0.19,-1.16,-2.2,-2.5,418,252,205,452,364
824,-0.16,-0.96,0.19,-0.24,-1.4,-2.69,419,254,203,449,359
825,-0.17,-0.96,0.19,-0.55,-2.69,-2.93,420,252,205,453,363
826,-0.16,-0.96,0.19,0.73,-3.3,-3.85,416,251,218,449,365
827,-0.16,-0.97,0.2,0.12,-3.72,-2.69,416,251,209,448,361
828,-0.17,-0.97,0.2,0.49,-4.39,-3.48,418,249,208,450,362
829,-0.16,-0.97,0.2,-0.06,-1.77,-2.75,418,249,207,453,365
830,-0.14,-0.94,0.18,-1.28,-4.27,-2.56,419,253,207,457,359
831,-0.15,-0.95,0.19,-3.48,-3.48,-2.5,413,253,206,454,363
832,-0.16,-0.97,0.19,1.77,-2.75,-2.26,412,254,206,457,366
833,-0.17,-0.97,0.18,0.79,-1.71,-1.83,418,253,209,452,364
834,-0.16,-0.96,0.17,1.53,-4.15,-3.36,418,253,210,451,366
835,-0.15,-0.96,0.18,1.59,-4.27,-3.3,416,254,206,453,361
836,-0.15,-0.97,0.18,1.46,-3.11,-3.23,414,251,207,453,363
837,-0.16,-0.97,0.2,-0.67,-2.2,-2.75,416,252,208,456,365
838,-0.16,-0.97,0.18,0.79,-1.89,-1.71,422,252,207,457,365
839,-0.17,-0.97,0.18,0.31,-2.62,-2.44,415,255,206,469,362
840,-0.16,-0.96,0.17,0.12,-2.87,-2.75,412,252,209,452,363
841,-0.16,-0.97,0.17,0.79,-3.97,-2.2,416,251,206,452,364
842,-0.16,-0.97,0.18,0.85,-3.23,-3.97,414,255,206,453,365
843,-0.15,-0.97,0.19,2.14,-3.42,-2.56,420,252,206,452,361
844,-0.15,-0.98,0.19,2.26,-3.78,-2.44,409,248,206,452,367
845,-0.15,-0.97,0.19,0.61,-2.32,-2.5,453,254,207,456,360
846,-0.16,-0.96,0.19,0.49,-2.56,-2.44,416,253,209,452,364
847,-0.16,-0.97,0.18,-0.98,-2.62,-2.2,416,254,205,451,365
848,-0.16,-0.97,0.18,0.31,-2.01,-2.69,414,251,205,453,360
849,-0.16,-0.97,0.17,0.24,-2.32,-2.5,418,253,206,455,365
850,-0.17,-0.97,0.17,0.0,-2.69,-2.87,417,254,207,448,363
851,-0.16,-0.97,0.18,1.71,-4.33,-2.93,420,251,209,456,366
852,-0.15,-0.97,0.18,0.79,-3.78,-2.75,416,251,214,449,364
853,-0.16,-0.97,0.19,1.22,-3.72,-2.75,413,252,205,456,364
854,-0.15,-0.97,0.19,-0.31,-1.89,-2.81,418,250,206,451,362
855,-0.15,-0.97,0.18,0.0,-2.56,-2.26,416,249,206,455,359
856,-0.17,-0.96,0.19,-0.24,-1.77,-2.44,418,251,208,454,372
857,-0.15,-0.97,0.18,2.01,-2.26,-3.23,417,250,206,456,363
858,-0.16,-0.97,0.17,-0.24,-2.81,-2.5,416,249,208,453,365
859,-0.16,-0.96,0.17,-1.1,-2.5,-2.75,416,251,204,448,366
860,-0.17,-0.97,0.17,2.81,-3.78,-2.56,418,255,206,450,362
861,-0.15,-0.97,0.17,1.16,-3.6,-3.42,415,252,209,453,363
862,-0.15,-0.97,0.19,0.85,-3.17,-2.99,417,253,212,448,364
863,-0.16,-0.97,0.18,0.98,-2.87,-2.75,424,255,206,453,361
864,-0.16,-0.96,0.18,-1.16,-2.44,-2.08,418,254,206,449,360
865,-0.17,-0.99,0.17,-0.67,-2.32,-1.34,416,251,205,450,361
866,-0.16,-0.96,0.18,-0.37,-2.5,-3.17,416,255,208,453,364
867,-0.17,-0.97,0.18,0.0,-2.75,-2.56,418,251,206,452,364
868,-0.16,-0.97,0.17,0.73,-3.72,-2.75,417,252,208,451,364
869,-0.16,-0.96,0.18,1.04,-3.85,-3.36,416,251,210,451,361
870,-0.16,-0.98,0.18,1.16,-2.81,-2.81,416,253,209,446,364
871,-0.14,-0.97,0.18,0.12,-3.11,-2.69,419,252,208,453,364
872,-0.15,-0.96,0.18,-1.4,-2.2,-2.75,415,254,207,453,371
873,-0.16,-0.97,0.18,1.1,-3.11,-2.38,417,251,209,454,364
874,-0.16,-0.97,0.18,-0.06,-3.42,-2.32,414,252,209,451,363
875,-0.16,-0.97,0.17,0.12,-3.23,-2.14,409,254,209,455,364
876,-0.16,-0.96,0.16,0.49,-2.93,-2.5,417,254,207,452,364
877,-0.16,-0.96,0.17,0.67,-3.05,-3.05,416,252,210,456,364
878,-0.15,-0.98,0.18,0.92,-2.99,-3.3,415,254,209,453,364
879,-0.14,-0.97,0.18,0.85,-1.71,-3.48,416,254,207,453,363
880,-0.15,-0.99,0.15,1.28,-1.89,-3.3,416,252,206,446,362
881,-0.16,-0.96,0.17,-0.31,-3.17,-1.53,416,253,207,451,368
882,-0.15,-0.97,0.17,0.55,-3.42,-2.14,413,253,207,453,361
883,-0.16,-0.97,0.17,0.55,-3.17,-2.32,416,250,211,456,363
884,-0.15,-0.97,0.16,0.61,-2.26,-2.08,418,254,204,455,364
885,-0.16,-0.97,0.16,1.46,-3.6,-2.93,417,255,207,453,367
886,-0.16,-0.97,0.17,0.79,-3.36,-3.23,422,254,207,456,360
887,-0.15,-0.97,0.17,0.61,-3.36,-2.99,415,255,210,450,364
888,-0.15,-0.97,0.18,0.24,-2.2,-2.38,417,254,209,449,364
889,-0.15,-0.97,0.16,-0.24,-2.44,-2.81,420,251,206,447,364
890,-0.16,-0.96,0.16,-0.12,-3.11,-2.81,416,252,207,452,355
891,-0.16,-0.98,0.16,-0.24,-3.05,-1.83,416,258,206,455,365
892,-0.16,-0.97,0.16,0.98,-3.05,-2.32,416,258,208,452,365
893,-0.16,-0.96,0.16,0.55,-2.87,-2.62,416,252,209,452,363
894,-0.16,-0.97,0.17,0.67,-2.08,-1.95,416,255,207,455,364
895,-0.15,-0.97,0.18,0.06,-3.54,-3.23,416,253,207,451,364
896,-0.15,-0.97,0.18,0.61,-2.38,-3.11,412,252,208,454,362
897,-0.15,-0.98,0.17,0.73,-2.99,-2.5,419,255,209,449,362
898,-0.15,-0.97,0.18,-0.49,-2.69,-2.44,417,251,210,453,364
899,-0.16,-0.99,0.17,1.1,-3.11,-2.26,415,257,208,456,363
900,-0.15,-0.96,0.18,0.67,-4.15,-2.01,418,251,207,452,364
901,-0.16,-0.96,0.17,0.85,-2.87,-2.08,415,253,203,452,363
902,-0.15,-0.99,0.15,-1.04,-2.32,-2.93,415,255,206,456,363
903,-0.14,-0.97,0.19,0.49,-2.14,-2.99,415,251,210,453,366
904,-0.16,-0.96,0.18,-0.49,-2.44,-2.62,417,253,209,448,370
905,-0.16,-0.97,0.17,-2.32,-2.44,-1.71,414,255,204,454,363
906,-0.16,-0.97,0.17,-2.01,-0.18,-1.95,408,260,204,453,363
907,-0.17,-0.98,0.15,-0.43,-2.87,-2.56,428,256,209,455,365
908,-0.17,-0.97,0.14,0.12,-3.11,-2.75,415,253,206,449,360
909,-0.15,-0.97,0.14,0.67,-3.6,-3.23,416,257,209,450,363
910,-0.15,-0.97,0.16,-0.18,-2.62,-3.36,417,256,208,455,361
911,-0.12,-1.0,0.19,5.37,-0.73,-0.79,413,254,206,452,363
912,-0.14,-0.97,0.18,-1.95,-2.62,-2.69,415,257,209,455,367
913,-0.15,-0.96,0.17,-0.73,-2.75,-4.21,415,254,209,446,364
914,-0.17,-0.97,0.18,1.04,-3.36,-2.26,416,254,208,453,363
915,-0.15,-0.97,0.18,4.7,-4.15,-2.2,416,257,207,446,361
916,-0.12,-0.97,0.26,6.96,-2.56,-0.06,417,255,206,450,363
917,-0.14,-0.96,0.24,0.31,-1.95,-2.14,417,254,207,463,363
918,-0.17,-0.97,0.25,0.67,-2.5,-1.65,416,257,208,456,361
919,-0.13,-0.98,0.23,-5.55,-2.69,-5.07,418,255,204,453,361
920,-0.15,-0.95,0.19,-0.12,-3.42,-1.46,434,255,208,456,359
921,-0.15,-0.97,0.23,-0.98,-4.09,-3.11,418,256,205,449,364
922,-0.14,-0.97,0.22,0.37,-4.64,-4.09,417,256,207,453,364
923,-0.15,-0.97,0.19,-5.43,-6.1,-0.12,417,255,208,453,365
924,-0.15,-0.97,0.21,2.08,-2.32,-3.11,421,254,209,448,363
925,-0.16,-0.97,0.2,0.31,-4.21,-2.81,415,257,203,458,364
926,-0.13,-0.97,0.17,-0.06,-3.78,-2.93,417,259,204,457,359
927,-0.13,-0.96,0.18,-0.49,-3.05,-1.22,423,259,205,453,360
928,-0.15,-0.97,0.17,-1.65,-2.5,-2.56,414,259,207,458,363
929,-0.15,-0.97,0.16,-1.28,-3.3,-2.38,414,257,205,450,361
930,-0.17,-0.97,0.15,0.61,-3.11,-2.75,411,254,208,456,363
931,-0.16,-0.97,0.16,0.73,-3.05,-2.5,414,259,207,453,359
932,-0.15,-0.97,0.15,0.49,-2.75,-3.11,417,255,204,453,360
933,-0.15,-0.97,0.16,1.65,-3.6,-2.81,417,258,210,454,363
934,-0.15,-0.98,0.17,0.55,-3.17,-4.03,414,255,206,457,363
935,-0.15,-0.97,0.18,-0.24,-1.95,-2.32,413,253,209,453,365
936,-0.15,-0.96,0.17,0.18,-2.32,-1.71,415,256,207,456,363
937,-0.16,-0.96,0.17,-0.18,-2.32,-2.56,416,255,206,455,363
938,-0.16,-0.98,0.17,-0.06,-2.81,-2.5,414,258,207,453,363
939,-0.17,-0.96,0.17,-0.92,-1.71,-2.62,414,259,205,453,363
940,-0.15,-0.97,0.15,-1.22,-4.58,-1.04,415,258,208,453,363
941,-0.16,-0.97,0.15,0.0,-3.36,-2.44,417,257,207,449,364
942,-0.15,-0.97,0.17,2.81,-3.91,-3.05,417,258,207,453,361
943,-0.15,-0.97,0.17,0.43,-3.48,-3.97,412,253,208,454,356
944,-0.14,-0.98,0.17,-1.28,-2.26,-2.14,416,254,206,457,366
945,-0.15,-0.97,0.16,15.56,-3.23,-2.38,413,257,208,457,366
946,-0.15,-0.97,0.16,-1.34,-1.46,-3.36,414,254,210,457,362
947,-0.16,-0.97,0.16,-0.12,-1.34,-2.69,424,256,208,465,363
948,-0.14,-0.97,0.15,-0.73,-2.08,-2.69,412,260,204,454,363
949,-0.17,-0.97,0.15,-0.18,-1.65,-2.69,413,258,209,454,365
950,-0.16,-0.97,0.13,1.46,-3.72,-2.69,412,255,210,453,364
951,-0.15,-0.97,0.15,1.65,-3.48,-3.11,415,256,209,449,361
952,-0.14,-0.97,0.17,0.55,-3.48,-2.75,410,256,206,452,364
953,-0.14,-0.97,0.16,-0.31,-2.08,-2.01,415,255,209,456,365
954,-0.15,-0.97,0.15,0.06,-2.69,-2.14,414,255,207,449,363
955,-0.15,-0.97,0.16,-2.62,-3.3,-2.01,412,259,208,454,362
956,-0.15,-0.97,0.14,-0.18,-3.85,-2.38,412,257,209,456,363
957,-0.15,-0.97,0.15,0.37,-3.36,-3.11,413,259,210,458,363
958,-0.15,-0.97,0.15,2.26,-1.71,-5.07,413,257,207,454,363
959,-0.15,-0.97,0.16,1.04,-4.76,-2.99,411,257,206,454,364
960,-0.15,-0.97,0.17,-0.12,-2.38,-2.44,414,257,206,458,363
961,-0.14,-0.97,0.18,0.24,-2.87,-1.77,414,259,210,454,366
962,-0.16,-0.97,0.17,0.18,-2.5,-1.95,413,258,210,457,365
963,-0.15,-0.97,0.17,-0.37,-2.93,-2.56,416,256,209,456,365
964,-0.16,-0.97,0.16,-0.43,-2.56,-2.81,414,260,210,455,366
965,-0.16,-0.97,0.16,0.55,-2.93,-2.69,413,259,207,453,362
966,-0.16,-0.97,0.17,0.67,-2.99,-3.3,413,256,205,457,364
967,-0.15,-0.97,0.18,1.83,-4.03,-2.93,414,256,210,458,363
968,-0.15,-0.97,0.18,0.92,-2.5,-1.71,414,258,205,452,364
969,-0.15,-0.97,0.17,0.43,-2.62,-1.77,410,256,209,451,365
970,-0.14,-0.97,0.16,-0.55,-2.56,-2.62,410,256,203,454,361
971,-0.15,-0.97,0.15,-0.31,-3.17,-2.08,416,260,207,458,375
972,-0.15,-0.96,0.14,0.0,-2.62,-3.36,413,257,207,453,362
973,-0.16,-0.97,0.16,0.31,-3.3,-2.99,415,259,211,461,364
974,-0.16,-0.97,0.18,1.4,-3.54,-2.38,414,255,211,457,362
975,-0.15,-0.97,0.18,0.85,-2.93,-3.48,413,259,209,465,365
976,-0.15,-0.97,0.17,0.73,-3.17,-2.26,413,260,210,453,366
977,-0.16,-0.97,0.16,0.18,-2.87,-1.59,421,254,207,453,360
978,-0.16,-0.97,0.16,0.73,-3.48,-2.14,414,258,210,449,366
979,-0.17,-0.97,0.16,0.06,-3.05,-1.89,414,256,211,451,363
980,-0.16,-0.97,0.15,0.37,-2.69,-2.44,415,255,210,450,366
981,-0.16,-0.97,0.16,0.61,-3.23,-2.5,410,257,210,452,365
982,-0.16,-0.97,0.16,0.92,-3.36,-2.69,415,259,207,450,365
983,-0.16,-0.97,0.17,1.04,-3.3,-3.42,412,255,210,449,365
984,-0.15,-0.97,0.17,-0.49,-3.42,-2.56,413,257,212,452,365
985,-0.16,-0.97,0.18,0.31,-2.26,-2.62,413,259,206,454,366
986,-0.15,-0.97,0.16,2.26,-2.56,-2.87,413,259,211,452,367
987,-0.16,-0.97,0.17,1.4,-2.81,-2.26,413,260,210,450,362
988,-0.15,-0.97,0.18,2.87,-4.09,-1.1,411,258,207,454,362
989,-0.17,-0.97,0.17,1.77,-2.44,-1.53,412,257,205,458,364
990,-0.15,-0.98,0.15,-0.18,-2.62,-4.21,413,255,208,455,364
991,-0.15,-0.98,0.18,-0.79,-2.62,-3.97,417,257,210,455,365
992,-0.16,-0.97,0.19,-1.53,-1.1,-3.23,414,259,210,454,368
993,-0.17,-0.96,0.16,-0.18,-3.11,-2.5,436,257,207,457,360
994,-0.16,-0.98,0.16,0.92,-3.78,-2.01,412,257,205,455,366
995,-0.14,-0.96,0.15,1.1,-2.01,-2.99,413,260,206,455,365
996,-0.14,-0.97,0.16,1.95,-2.62,-2.56,413,253,206,456,366
997,-0.17,-0.97,0.19,1.83,-2.87,-1.65,414,260,210,456,363
998,-0.16,-0.97,0.16,0.31,-2.56,-2.26,425,257,209,455,361
999,-0.16,-0.97,0.17,0.98,-2.5,-2.81,412,259,210,450,360
1000,-0.16,-0.97,0.18,1.46,-4.64,-2.32,411,257,211,453,366
1001,-0.16,-0.97,0.17,2.44,-4.09,-2.93,414,258,210,458,364
1002,-0.16,-0.97,0.17,1.16,-3.3,-2.62,408,258,206,460,366
1003,-0.15,-0.97,0.17,-0.43,-1.83,-2.62,412,257,211,454,364
1004,-0.14,-0.97,0.15,-4.88,-2.5,-2.62,412,261,205,454,362
1005,-0.17,-0.97,0.17,-1.22,-3.17,-1.34,410,260,209,454,365
1006,-0.18,-0.97,0.15,1.71,-2.38,-3.11,413,257,212,453,365
1007,-0.15,-0.97,0.15,-2.69,-2.75,-2.38,410,257,209,454,363
1008,-0.15,-0.97,0.14,1.16,-2.56,-2.01,413,260,207,459,365
1009,-0.16,-0.97,0.16,0.92,-3.11,-2.38,412,256,207,458,360
1010,-0.16,-0.97,0.17,1.16,-3.42,-3.3,409,257,206,449,361
1011,-0.15,-0.96,0.16,0.49,-1.71,-3.17,412,259,207,453,364
1012,-0.16,-0.97,0.16,2.69,-2.32,-1.95,408,259,207,453,366
1013,-0.18,-0.98,0.21,2.2,8.24,-4.82,412,260,210,454,363
1014,-0.12,-0.98,0.14,-8.48,-1.4,-3.17,411,258,209,458,362
1015,-0.19,-0.96,0.12,6.35,1.71,-4.82,413,261,207,446,363
1016,-0.14,-0.98,0.14,3.72,0.37,-3.72,416,257,204,456,361
1017,-0.15,-0.97,0.14,-2.38,-4.46,-2.32,415,258,210,457,363
1018,-0.15,-0.98,0.12,0.67,-3.78,-3.54,413,262,207,457,363
1019,-0.14,-0.98,0.12,0.49,-3.05,-1.83,413,257,206,456,361
1020,-0.15,-0.98,0.13,-0.61,-3.3,-2.62,415,260,209,457,370
1021,-0.15,-0.98,0.12,1.34,-3.17,-2.38,413,264,211,457,362
1022,-0.13,-0.99,0.1,-0.67,-3.23,-3.17,413,260,211,454,361
1023,-0.14,-0.97,0.11,-0.18,-3.91,-1.89,415,259,205,451,361
1024,-0.16,-0.97,0.13,0.98,-2.32,-2.08,414,260,207,458,364
1025,-0.15,-0.99,0.12,1.1,-2.81,-1.46,411,258,208,454,363
1026,-0.15,-0.99,0.12,0.79,-3.11,-3.3,413,259,209,458,362
1027,-0.15,-0.98,0.13,1.16,-2.44,-2.93,412,258,208,457,364
1028,-0.19,-0.96,0.21,1.16,-3.54,-2.38,424,220,181,438,357
1029,-0.16,-0.95,0.2,-1.22,-4.7,-3.3,424,221,184,440,359
1030,-0.16,-0.95,0.26,0.98,-2.5,-3.91,422,220,185,436,361
1031,-0.16,-0.96,0.19,-2.14,-2.14,-4.21,418,221,185,436,359
1032,-0.18,-0.96,0.19,0.37,-1.22,-4.27,421,219,183,435,363
1033,-0.17,-0.98,0.21,-1.95,-0.37,-3.17,422,222,184,437,358
1034,-0.19,-0.96,0.22,2.38,-2.5,-0.43,418,221,186,435,358
1035,-0.22,-0.96,0.22,-5.19,-4.7,3.91,417,222,187,440,360
1036,-0.18,-0.96,0.21,0.18,-3.17,0.12,422,223,182,441,360
1037,-0.18,-0.96,0.19,-1.16,-0.73,-1.34,419,228,184,436,356
1038,-0.22,-0.95,0.2,1.04,-1.95,-2.69,423,223,184,439,359
1039,-0.2,-0.95,0.2,1.53,-4.58,-5.37,421,222,183,435,361
1040,-0.21,-0.95,0.15,-3.6,-8.73,0.49,421,220,187,444,360
1041,-0.24,-0.95,0.22,0.73,-0.12,-0.31,421,224,188,440,358
1042,-0.2,-0.94,0.14,-5.37,-4.46,-3.6,423,223,185,441,363
1043,-0.15,-0.96,0.24,0.85,-2.93,-1.4,420,224,188,436,359
1044,-0.21,-0.95,0.2,-2.69,-7.2,0.24,421,225,188,446,359
1045,-0.19,-0.95,0.21,3.36,-4.15,-1.28,421,229,189,443,361
1046,-0.22,-0.93,0.21,5.62,5.43,-14.28,419,225,191,438,364
1047,-0.2,-0.95,0.21,2.44,-0.98,-0.79,420,224,189,439,359
1048,-0.2,-0.95,0.2,3.3,-2.81,-0.61,418,226,187,437,365
1049,-0.2,-0.94,0.2,-1.04,-3.91,-3.66,416,227,190,436,361
1050,-0.22,-0.94,0.24,-0.61,-1.83,-1.46,424,228,190,441,360
1051,-0.18,-0.95,0.24,2.56,-3.17,-3.48,417,231,189,446,361
1052,-0.2,-0.94,0.22,1.4,-2.08,-2.5,421,230,189,445,363
1053,-0.19,-0.95,0.25,0.18,-2.2,-2.5,422,231,189,439,357
1054,-0.21,-0.93,0.23,-1.77,-2.62,-2.14,424,229,192,444,359
1055,-0.21,-0.94,0.24,0.12,-2.62,-2.08,424,234,188,447,359
1056,-0.22,-0.94,0.25,0.85,-2.81,-2.01,422,231,189,444,361
1057,-0.2,-0.93,0.26,7.14,-0.73,-2.32,422,229,190,444,363
1058,-0.19,-0.91,0.28,0.24,-1.1,-5.86,421,228,195,440,364
1059,-0.16,-0.95,0.24,-2.26,0.85,-3.66,425,228,190,449,363
1060,-0.19,-0.96,0.19,-4.82,1.1,-2.2,418,231,192,444,361
1061,-0.19,-0.96,0.2,-3.66,-0.67,-5.55,423,232,189,449,362
1062,-0.16,-0.96,0.21,-2.99,-2.44,-3.05,420,230,189,445,362
1063,-0.17,-0.97,0.2,3.05,-3.78,-3.05,420,232,189,444,359
1064,-0.2,-0.96,0.21,0.67,2.69,-2.26,421,231,190,446,361
1065,-0.2,-0.96,0.22,-1.04,-6.29,-3.05,418,231,191,451,363
1066,-0.18,-0.95,0.25,-0.06,-3.78,-1.65,417,230,191,446,362
1067,-0.22,-0.95,0.28,6.47,-7.02,-5.49,421,229,190,448,361
1068,-0.23,-0.94,0.22,2.14,-9.28,-3.36,424,233,190,446,361
1069,-0.13,-0.94,0.24,-3.42,-3.17,-4.39,423,232,203,447,360
1070,-0.17,-0.94,0.27,3.42,-2.75,-5.55,423,228,193,448,359
1071,-0.18,-0.93,0.3,3.42,-6.84,-5.25,422,228,191,447,357
1072,-0.19,-0.92,0.31,1.1,-0.18,-2.26,424,234,191,450,355
1073,-0.19,-0.92,0.31,-0.67,-1.65,-3.42,422,226,190,450,359
1074,-0.19,-0.93,0.31,0.43,-1.83,-3.42,418,233,193,448,364
1075,-0.18,-0.92,0.3,-1.59,-1.34,-3.11,433,228,194,443,361
1076,-0.23,-0.93,0.35,0.61,-2.87,-1.83,424,234,193,446,361
1077,-0.18,-0.94,0.28,-0.55,-3.6,-3.97,422,233,195,441,365
1078,-0.17,-0.94,0.24,-4.46,-5.98,-7.32,420,232,192,445,358
1079,-0.15,-0.95,0.22,1.46,-4.82,-3.54,420,231,189,447,357
1080,-0.18,-0.93,0.25,2.14,-4.15,-5.62,422,231,190,451,365
1081,-0.19,-0.94,0.28,1.89,-1.59,-1.65,427,230,195,451,358
1082,-0.18,-0.94,0.29,1.65,-2.93,-1.77,413,228,194,448,361
1083,-0.17,-0.94,0.3,1.59,-2.75,-1.89,436,231,194,451,364
1084,-0.19,-0.93,0.29,1.34,-3.66,-2.5,422,233,194,444,359
1085,-0.21,-0.94,0.3,-0.85,-2.81,-2.38,421,235,196,447,358
1086,-0.19,-0.94,0.3,0.06,-3.23,-2.81,421,231,194,443,363
1087,-0.19,-0.93,0.29,-0.98,-3.91,-2.75,423,233,196,447,361
1088,-0.2,-0.93,0.3,0.49,-1.46,-2.38,421,238,191,449,363
1089,-0.19,-0.93,0.29,0.61,-2.01,-2.26,420,233,195,443,362
1090,-0.19,-0.95,0.28,0.67,-3.91,-2.08,422,232,204,442,358
1091,-0.2,-0.94,0.28,0.31,-3.36,-1.83,421,235,196,456,362
1092,-0.19,-0.93,0.29,0.49,-3.11,-2.56,420,235,195,445,360
1093,-0.19,-0.94,0.28,1.46,-1.83,-2.62,418,234,195,448,363
1094,-0.2,-0.94,0.28,0.73,-3.05,-2.56,420,232,196,453,362
1095,-0.21,-0.94,0.29,1.1,-3.36,-4.64,422,235,195,443,362
1096,-0.18,-0.94,0.29,1.4,-5.25,-3.3,419,238,193,448,359
1097,-0.18,-0.94,0.28,-0.92,-3.23,-2.69,416,235,196,448,361
1098,-0.17,-0.94,0.27,-1.04,-3.11,-2.93,419,234,196,448,362
1099,-0.18,-0.94,0.28,-0.43,-3.72,-2.75,419,237,195,445,363
1100,-0.17,-0.94,0.28,0.06,-2.5,-1.95,420,237,194,454,361
1101,-0.19,-0.93,0.32,-0.92,-4.27,-2.62,421,233,201,453,362
1102,-0.17,-0.94,0.31,-0.06,-2.2,-3.05,419,239,196,449,361
1103,-0.19,-0.94,0.33,-0.61,-2.5,-3.23,420,234,193,448,365
1104,-0.18,-0.93,0.3,-2.08,-1.95,-2.69,421,233,196,454,362
1105,-0.17,-0.94,0.3,-1.71,-1.95,-2.81,420,237,196,447,362
1106,-0.19,-0.94,0.29,-0.18,-2.5,-2.69,420,237,195,450,363
1107,-0.17,-0.94,0.28,-1.1,-2.5,-3.42,419,234,197,448,361
1108,-0.18,-0.94,0.29,-0.79,-1.59,-2.26,422,233,197,448,362
1109,-0.18,-0.94,0.28,1.16,-2.93,-2.5,420,235,198,448,362
1110,-0.18,-0.95,0.3,3.11,-3.3,-3.36,418,237,195,450,358
1111,-0.18,-0.94,0.3,1.4,-3.17,-1.53,419,235,195,451,363
1112,-0.18,-0.94,0.3,0.92,-3.42,-2.01,419,238,193,452,362
1113,-0.18,-0.94,0.3,-1.28,-2.62,-1.53,419,235,198,449,362
1114,-0.19,-0.94,0.29,-0.37,-1.1,-1.4,421,238,200,444,360
1115,-0.2,-0.93,0.27,2.2,-2.87,-2.5,420,240,196,451,360
1116,-0.18,-0.94,0.31,-14.28,-27.16,2.87,422,235,199,450,360
1117,0.0,-0.98,0.3,3.97,-33.33,-1.95,420,237,195,453,361
1118,-0.17,-0.93,0.42,11.05,-5.07,8.3,422,239,197,454,360
1119,-0.05,-0.97,0.19,3.72,-2.5,-6.04,421,233,198,452,363
1120,-0.08,-0.98,0.15,-11.29,-8.06,-1.89,428,239,194,445,362
1121,-0.17,-0.97,0.16,2.99,0.85,-4.88,417,238,201,450,361
1122,-0.13,-0.96,0.2,-3.05,-1.16,-4.39,415,233,198,450,365
1123,-0.06,-0.96,0.23,9.7,2.14,-1.83,415,238,203,441,362
1124,-0.1,-0.98,0.3,19.9,23.38,-10.44,418,237,197,451,364
1125,-0.19,-0.91,0.27,-3.72,5.62,5.25,419,238,195,450,364
1126,-0.18,-0.94,0.27,-3.36,-3.17,-3.97,417,242,197,454,361
1127,-0.16,-0.94,0.29,-1.16,-4.39,-2.87,425,238,197,454,362
1128,-0.2,-0.94,0.23,0.31,5.49,-3.66,417,238,192,454,362
1129,-0.19,-0.95,0.24,-1.77,-2.81,-1.77,419,240,199,450,361
1130,-0.19,-0.95,0.24,-1.77,-1.95,-4.52,418,236,196,451,361
1131,-0.18,-0.95,0.22,0.55,-2.69,-1.77,418,237,194,447,362
1132,-0.15,-0.93,0.21,0.49,0.12,-3.66,412,234,200,455,360
1133,-0.08,-0.96,0.16,-3.91,1.89,-9.09,412,236,196,451,364
1134,-0.15,-0.96,0.17,20.08,-1.53,2.99,415,235,193,450,360
1135,-0.14,-1.02,0.2,9.4,-2.81,4.58,415,240,196,450,357
1136,-0.16,-0.94,0.35,7.57,-6.77,-17.58,423,242,197,450,359
1137,-0.05,-0.92,0.34,0.0,1.22,8.06,416,240,194,445,362
1138,-0.1,-0.95,0.3,9.16,-14.1,6.35,418,238,199,452,361
1139,-0.06,-0.95,0.33,-4.03,-2.56,-1.04,416,235,200,448,359
1140,-0.11,-0.95,0.3,-2.75,-2.99,-0.24,417,238,195,450,361
1141,-0.16,-0.98,0.21,-20.94,-6.47,6.71,420,237,200,450,359
1142,-0.16,-0.97,0.21,0.98,-5.37,1.53,418,237,198,452,364
1143,-0.21,-0.96,0.21,1.46,-5.0,-2.81,424,238,197,443,361
1144,-0.17,-0.96,0.27,-4.58,-1.83,-0.37,422,241,198,460,362
1145,-0.17,-0.96,0.22,1.22,-5.25,-0.49,423,240,198,451,363
1146,-0.16,-0.97,0.2,2.81,-4.76,-1.65,422,238,211,453,360
1147,-0.17,-0.96,0.2,2.2,-2.87,-1.59,424,242,197,456,360
1148,-0.16,-0.96,0.2,-1.22,-1.53,-5.98,425,241,197,451,357
1149,-0.13,-0.96,0.22,3.3,-5.43,-1.4,421,239,200,453,359
1150,-0.16,-0.96,0.24,2.2,-3.05,-2.5,420,240,199,450,362
1151,-0.15,-0.96,0.21,-1.16,-2.69,-3.85,421,239,201,449,361
1152,-0.16,-0.96,0.19,2.01,-2.14,-3.23,422,240,198,449,361
1153,-0.17,-0.95,0.18,2.14,-1.04,-3.78,417,239,198,454,363
1154,-0.17,-0.96,0.21,-1.28,-2.26,-6.84,424,242,196,446,363
1155,-0.17,-0.96,0.19,-1.83,-2.26,-1.4,422,242,200,448,362
1156,-0.16,-0.96,0.22,-0.61,-2.2,-3.97,419,241,199,449,359
1157,-0.15,-0.97,0.21,-2.69,-1.16,-2.26,423,237,200,451,361
1158,-0.16,-0.96,0.21,-0.61,-2.93,-1.83,421,238,200,449,359
1159,-0.16,-0.96,0.19,0.55,-2.56,-2.81,422,239,196,453,362
1160,-0.15,-0.96,0.19,0.37,-1.59,-2.26,428,240,198,449,361
1161,-0.16,-0.97,0.2,-0.12,-3.54,-3.42,422,241,198,450,358
1162,-0.14,-0.96,0.19,3.42,-2.93,-0.98,421,238,201,453,361
1163,-0.18,-0.97,0.19,-0.31,-2.87,-2.01,418,239,198,449,358
1164,-0.18,-0.95,0.21,-0.31,-4.46,-2.5,419,242,198,453,362
1165,-0.14,-0.96,0.21,2.93,-1.95,-4.09,420,240,201,451,359
1166,-0.16,-0.96,0.22,-2.69,-2.75,-2.38,422,240,195,453,361
1167,-0.16,-0.96,0.19,-2.75,-2.5,-3.72,424,242,199,452,355
1168,-0.15,-0.95,0.29,11.41,0.0,-7.63,421,240,201,449,357
1169,-0.1,-0.96,0.2,-3.97,4.76,-6.47,421,242,200,447,359
1170,-0.13,-0.95,0.23,5.43,2.69,-0.18,420,241,200,448,356
1171,-0.14,-0.96,0.24,-4.88,-3.42,-2.62,422,240,204,451,361
1172,-0.12,-0.96,0.19,0.37,-2.75,-3.54,422,238,201,453,360
1173,-0.13,-0.95,0.19,0.98,-5.25,-2.26,424,240,199,450,356
1174,-0.12,-0.97,0.23,-2.69,-2.01,-3.3,421,238,199,450,355
1175,-0.13,-0.98,0.23,-3.48,-0.31,-3.05,418,239,201,445,355
1176,-0.1,-0.96,0.17,0.55,-11.54,-2.87,417,242,201,453,361
1177,-0.14,-0.96,0.2,0.55,0.61,-3.85,419,242,200,453,361
1178,-0.13,-0.95,0.19,0.49,-2.56,-2.5,419,241,202,450,369
1179,-0.13,-1.0,0.18,2.5,0.18,-3.11,419,243,199,449,362
1180,-0.14,-0.96,0.21,2.87,-4.39,-1.59,420,243,199,453,362
1181,-0.12,-0.97,0.19,0.98,-4.03,-3.78,419,241,198,450,363
1182,-0.14,-0.96,0.21,0.49,-1.65,-3.05,426,238,200,454,362
1183,-0.15,-0.96,0.2,1.16,-2.2,-0.98,419,242,201,449,362
1184,-0.14,-0.96,0.19,1.46,-2.5,-2.2,421,250,201,453,363
1185,-0.17,-0.97,0.22,-0.61,-5.49,-0.55,421,244,201,451,362
1186,-0.16,-0.97,0.19,0.24,-3.66,-2.01,424,244,203,453,354
1187,-0.14,-0.97,0.18,-0.67,-4.27,-3.3,421,245,201,450,357
1188,-0.13,-0.97,0.2,-0.43,-3.72,-0.67,419,244,208,447,360
1189,-0.14,-0.97,0.19,1.77,-3.3,-1.28,423,243,199,454,359
1190,-0.14,-0.97,0.2,-0.61,-2.32,-2.01,420,244,199,454,361
1191,-0.16,-0.96,0.19,0.24,-3.91,-2.2,421,246,206,451,361
1192,-0.15,-0.96,0.25,0.24,-5.92,-3.85,417,244,201,451,358
1193,-0.15,-0.97,0.19,-6.04,-12.39,-3.11,421,247,201,452,360
1194,-0.13,-0.98,0.15,-4.7,-5.62,-0.43,422,247,202,455,358
1195,-0.13,-0.97,0.16,0.43,-4.7,2.14,420,244,201,452,357
1196,-0.14,-0.97,0.16,-0.61,-1.53,-1.59,421,242,200,457,363
1197,-0.16,-0.97,0.21,-3.36,-4.21,-2.93,419,246,201,450,359
1198,-0.13,-0.98,0.19,-3.85,-1.65,-3.72,420,243,204,446,366
1199,-0.09,-0.97,0.09,3.97,-6.47,-4.76,422,245,203,450,360
1200,0.05,-0.91,0.17,39.43,2.38,-26.18,419,243,200,455,360
1201,0.07,-0.93,0.38,6.59,-12.63,-15.08,419,244,201,451,360
1202,0.11,-1.1,0.31,-12.33,6.77,-4.88,417,244,204,455,358
1203,0.25,-0.92,0.4,0.31,4.94,-18.25,418,244,201,445,359
1204,0.14,-0.92,0.43,3.36,-1.1,-1.34,418,243,201,448,357
1205,0.12,-0.86,0.33,-12.08,2.69,2.75,444,243,201,446,361
1206,0.26,-0.87,0.47,0.85,-4.88,5.31,417,246,205,452,363
1207,0.19,-0.88,0.45,-3.91,-1.89,2.93,416,246,203,452,360
1208,0.13,-0.92,0.46,-7.45,-13.18,0.73,416,247,205,450,361
1209,0.17,-0.9,0.47,5.8,-0.37,-6.04,418,245,205,449,357
1210,0.18,-0.88,0.42,-0.61,-8.18,-2.81,427,246,202,446,361
1211,0.18,-0.87,0.47,8.73,0.85,-4.15,413,246,204,451,358
1212,0.14,-0.84,0.56,8.54,12.02,4.27,412,245,203,452,360
1213,0.07,-0.86,0.48,-3.54,1.28,3.91,413,242,205,453,359
1214,0.01,-0.86,0.49,5.43,-2.01,-4.58,415,246,199,456,361
1215,0.01,-0.85,0.47,2.93,-8.54,-4.76,416,249,203,452,358
1216,0.04,-0.84,0.48,1.77,-8.97,-5.68,417,245,203,451,362
1217,0.07,-0.86,0.51,-1.59,-2.69,-2.32,417,249,202,455,361
1218,0.03,-0.87,0.54,-5.19,-3.72,-7.63,415,248,204,447,360
1219,0.1,-0.88,0.45,-10.25,3.36,-11.96,420,249,205,451,361
1220,0.1,-0.9,0.41,-2.56,-4.46,-1.89,414,247,204,449,361
1221,0.09,-0.91,0.41,3.05,-1.71,-1.53,414,246,205,452,361
1222,0.07,-0.9,0.41,0.67,-3.6,-0.73,417,246,204,451,361
1223,0.1,-0.9,0.41,0.92,-4.64,-5.19,415,247,201,451,361
1224,0.07,-0.9,0.43,0.24,-0.31,-0.85,416,248,202,455,361
1225,0.04,-0.91,0.42,-8.0,-2.32,3.54,417,246,205,454,361
1226,-0.02,-0.94,0.35,-10.01,-4.09,4.33,420,245,203,453,363
1227,-0.02,-0.95,0.28,-5.43,-5.0,-0.12,417,247,206,450,373
1228,-0.01,-0.95,0.3,1.46,-6.41,-0.37,419,249,202,451,361
1229,0.0,-0.95,0.29,2.81,4.46,-4.03,420,247,204,452,359
1230,-0.01,-0.95,0.27,-2.32,-0.79,-3.05,418,246,205,450,357
1231,-0.01,-0.95,0.31,-0.85,-7.87,-3.91,417,249,200,454,361
1232,0.07,-0.96,0.3,-3.97,-6.29,-1.83,418,247,200,453,361
1233,0.01,-0.95,0.28,-2.5,-4.94,-0.31,417,245,204,446,361
1234,0.02,-0.96,0.29,-1.95,1.89,-3.42,418,250,205,456,360
1235,-0.01,-0.96,0.26,-3.11,-0.18,-4.88,414,248,200,455,360
1236,-0.01,-0.96,0.27,-1.71,-1.16,-3.17,418,257,210,449,360
1237,0.02,-0.96,0.28,-0.31,-0.49,-1.34,418,250,203,454,358
1238,-0.0,-0.96,0.27,-1.46,-2.08,-0.55,417,250,201,450,359
1239,-0.05,-0.97,0.3,-3.3,9.83,7.2,421,249,203,451,358
1240,-0.14,-0.96,0.24,-6.29,0.24,5.55,418,247,200,454,360
1241,-0.17,-0.96,0.18,0.18,-0.85,3.6,421,247,201,457,361
1242,-0.22,-0.97,0.23,-0.12,-6.53,-6.59,420,260,203,454,363
1243,-0.15,-0.95,0.2,-0.37,-7.2,-1.28,446,249,205,452,357
1244,-0.19,-0.97,0.22,1.4,-12.7,-2.75,421,250,202,449,360
1245,-0.11,-0.97,0.19,3.97,0.31,-8.42,418,250,200,454,363
1246,-0.13,-0.97,0.2,-0.67,-5.07,-5.49,419,249,200,451,360
1247,-0.08,-0.98,0.18,-4.09,-5.13,-4.15,419,249,203,455,358
1248,-0.1,-0.98,0.15,-4.7,-3.17,-2.44,418,247,203,450,361
1249,-0.09,-0.98,0.15,-0.55,-2.75,-2.62,414,248,206,452,362
1250,-0.11,-0.97,0.18,7.63,-1.16,6.77,418,250,201,447,362
1251,-0.15,-0.95,0.22,-1.77,-4.82,5.62,414,249,205,460,360
1252,-0.16,-0.95,0.2,5.37,-2.62,9.16,418,250,204,455,361
1253,-0.27,-0.94,0.21,10.01,-1.95,-3.72,419,246,202,447,358
1254,-0.18,-0.95,0.24,1.46,-1.89,-4.7,429,249,201,451,363
1255,-0.19,-0.95,0.23,-1.16,-4.21,-1.89,416,248,205,454,365
1256,-0.2,-0.96,0.22,-4.15,-1.1,-1.53,419,247,202,450,357
1257,-0.2,-0.95,0.19,-1.1,-2.2,-2.08,418,248,203,446,362
1258,-0.21,-0.97,0.15,-23.8,2.32,1.16,419,246,216,451,360
1259,-0.22,-0.94,0.07,1.77,-6.65,-0.24,418,248,201,455,359
1260,-0.25,-0.96,0.05,3.11,-6.29,-1.34,418,247,203,454,362
1261,-0.25,-0.96,0.07,-1.22,-2.01,-3.17,419,247,202,463,361
1262,-0.25,-0.96,0.09,1.34,-2.87,-3.17,419,249,204,450,358
1263,-0.25,-0.96,0.07,-4.09,-0.85,-4.94,418,250,203,445,358
1264,-0.23,-0.96,0.07,0.61,-2.93,-2.93,420,245,206,453,358
1265,-0.21,-0.97,0.08,0.12,-3.66,-5.43,422,248,201,452,360
1266,-0.21,-0.98,0.1,-0.79,1.22,-3.85,419,248,202,449,359
1267,-0.22,-0.97,0.1,0.61,0.0,-1.46,419,249,202,448,360
1268,-0.2,-0.97,0.07,-0.92,-3.05,-3.91,417,251,206,455,359
1269,-0.2,-0.97,0.08,1.4,-2.44,-3.05,422,249,202,449,358
1270,-0.17,-0.97,0.1,3.6,-3.91,-4.09,421,248,204,455,359
1271,-0.2,-0.97,0.1,-0.73,-2.93,-2.32,421,245,206,456,357
1272,-0.19,-0.97,0.07,-4.46,-1.89,-5.55,418,250,201,454,360
1273,-0.19,-0.97,0.08,1.83,-5.07,-2.44,418,251,203,448,359
1274,-0.19,-0.97,0.1,2.81,-3.05,-2.26,420,248,205,450,356
1275,-0.19,-0.97,0.09,-0.06,-3.05,-2.14,418,247,203,450,359
1276,-0.2,-0.97,0.12,2.32,-3.72,-1.89,417,247,203,452,359
1277,-0.18,-0.98,0.11,0.73,-1.83,-2.56,419,248,207,452,357
1278,-0.19,-0.97,0.09,-0.37,-2.81,-2.2,418,248,204,455,359
1279,-0.17,-0.98,0.13,2.81,-0.37,-3.97,420,248,204,455,359
1280,-0.18,-0.98,0.13,0.79,-2.5,-1.34,429,249,203,455,359
1281,-0.17,-0.96,0.08,0.67,-1.34,-3.3,417,245,211,450,357
1282,-0.18,-0.97,0.11,0.55,-1.95,-2.99,420,251,204,446,358
1283,-0.19,-0.97,0.12,0.92,-3.23,-2.32,420,251,207,451,360
1284,-0.19,-0.97,0.13,-0.06,-2.38,-2.32,422,254,199,447,360
1285,-0.19,-0.97,0.13,1.65,-3.72,-3.72,420,249,201,447,363
1286,-0.2,-0.98,0.13,-2.62,-1.46,-2.81,418,246,203,447,361
1287,-0.17,-0.97,0.14,1.1,-0.37,-3.72,419,249,203,451,361
1288,-0.19,-0.94,0.15,1.22,-3.23,-0.55,420,248,202,447,361
1289,-0.21,-0.97,0.12,-3.78,-4.15,-2.38,419,250,204,450,360
1290,-0.18,-0.97,0.13,1.95,-4.15,-1.71,418,251,204,455,357
1291,-0.18,-0.97,0.12,1.89,-4.27,-2.38,419,246,207,450,360
1292,-0.18,-0.97,0.1,3.3,-4.09,-1.83,419,252,207,451,360
1293,-0.19,-0.97,0.1,3.54,-4.33,-1.46,420,247,201,452,358
1294,-0.17,-0.97,0.1,2.99,-2.93,-3.91,419,248,203,451,360
1295,-0.17,-0.98,0.12,-2.38,-2.99,-1.4,419,248,205,451,356
1296,-0.18,-0.97,0.1,1.89,-3.78,-2.44,420,250,202,451,357
1297,-0.18,-0.97,0.1,1.95,-4.09,-2.81,417,251,207,445,359
1298,-0.18,-0.98,0.1,-0.24,-6.29,-2.69,420,248,210,455,357
1299,-0.17,-0.97,0.11,1.65,-2.99,-1.71,417,252,203,451,362
1300,-0.18,-0.97,0.1,0.37,-2.99,-2.2,419,252,204,452,362
1301,-0.18,-0.97,0.09,0.67,-2.56,-2.5,420,255,215,454,360
1302,-0.17,-0.97,0.12,0.24,-1.89,-2.93,419,250,206,445,357
1303,-0.17,-0.96,0.09,0.85,-3.05,-2.87,419,247,205,450,361
1304,-0.16,-0.99,0.11,2.01,-3.72,-1.83,417,251,206,455,360
1305,-0.18,-0.97,0.12,0.43,-4.03,-3.11,416,253,202,450,360
1306,-0.18,-0.96,0.11,0.73,-3.3,-2.01,419,248,205,447,357
1307,-0.17,-0.98,0.11,-0.37,-2.08,-2.38,418,247,208,453,356
1308,-0.17,-0.97,0.12,0.06,-2.14,-2.14,419,248,209,454,359
1309,-0.2,-0.98,0.12,8.85,-1.65,-4.03,417,249,212,454,360
1310,-0.17,-0.97,0.14,20.57,-2.99,-5.8,420,250,217,455,361
1311,-0.16,-0.97,0.19,2.01,-2.69,-2.62,425,249,207,449,363
1312,-0.15,-0.99,0.22,-1.28,-1.89,-2.26,419,249,216,454,363
1313,-0.18,-1.13,0.09,1.16,-0.49,-1.89,413,250,205,451,359
1314,-0.17,-0.94,0.15,1.83,-3.91,-1.77,415,250,204,452,362
1315,-0.17,-0.97,0.16,-2.99,-2.32,-3.6,421,252,207,453,363
1316,-0.17,-0.97,0.17,-0.37,-2.69,-3.91,418,254,206,448,365
1317,-0.15,-0.97,0.17,1.65,-3.3,-2.87,418,248,208,451,361
1318,-0.16,-0.96,0.17,-0.79,-2.93,-2.62,415,251,206,455,362
1319,-0.15,-0.97,0.17,2.01,-3.91,-2.2,417,250,206,453,363
1320,-0.16,-0.97,0.16,-1.77,-2.81,-3.17,417,268,205,451,365
1321,-0.18,-0.96,0.18,-1.22,-2.62,-3.72,418,253,206,454,360
1322,-0.17,-0.97,0.17,1.65,-2.62,-3.11,414,252,207,452,361
1323,-0.17,-0.96,0.18,2.2,-2.93,-3.23,417,247,203,451,363
1324,-0.16,-0.96,0.19,1.28,-3.23,-2.44,420,254,203,453,365
1325,-0.17,-0.97,0.18,2.26,-2.01,-3.36,417,252,208,452,365
1326,-0.17,-0.96,0.19,-0.06,-2.2,-2.5,417,251,208,448,365
1327,-0.16,-0.95,0.19,1.28,-3.85,-2.87,419,254,202,450,360
1328,-0.15,-0.97,0.17,-0.18,-5.0,-1.83,423,251,204,452,363
1329,-0.16,-0.97,0.17,1.71,-3.54,-1.04,419,252,204,447,363
1330,-0.16,-0.97,0.17,0.61,-2.99,-2.2,417,253,208,457,364
1331,-0.16,-0.97,0.18,0.61,-3.97,-2.01,416,251,207,453,363
1332,-0.16,-0.97,0.18,0.24,-3.85,-3.36,416,250,208,456,363
1333,-0.15,-0.96,0.18,2.62,-3.48,-3.72,421,253,206,449,366
1334,-0.15,-0.97,0.21,0.92,-2.44,-2.69,415,254,205,453,363
1335,-0.15,-0.96,0.19,-0.61,-2.2,-3.23,456,255,208,453,360
1336,-0.17,-0.97,0.2,-0.43,-3.66,-2.2,415,251,208,453,363
1337,-0.17,-0.96,0.19,-1.16,-2.2,-2.5,418,252,205,452,364
1338,-0.16,-0.96,0.19,-0.24,-1.4,-2.69,419,254,203,449,359
1339,-0.17,-0.96,0.19,-0.55,-2.69,-2.93,420,252,205,453,363
1340,-0.16,-0.96,0.19,0.73,-3.3,-3.85,416,251,218,449,365
1341,-0.16,-0.97,0.2,0.12,-3.72,-2.69,416,251,209,448,361
1342,-0.17,-0.97,0.2,0.49,-4.39,-3.48,418,249,208,450,362
1343,-0.16,-0.97,0.2,-0.06,-1.77,-2.75,418,249,207,453,365
1344,-0.14,-0.94,0.18,-1.28,-4.27,-2.56,419,253,207,457,359
1345,-0.15,-0.95,0.19,-3.48,-3.48,-2.5,413,253,206,454,363
1346,-0.16,-0.97,0.19,1.77,-2.75,-2.26,412,254,206,457,366
1347,-0.17,-0.97,0.18,0.79,-1.71,-1.83,418,253,209,452,364
1348,-0.16,-0.96,0.17,1.53,-4.15,-3.36,418,253,210,451,366
1349,-0.15,-0.96,0.18,1.59,-4.27,-3.3,416,254,206,453,361
1350,-0.15,-0.97,0.18,1.46,-3.11,-3.23,414,251,207,453,363
1351,-0.16,-0.97,0.2,-0.67,-2.2,-2.75,416,252,208,456,365
1352,-0.16,-0.97,0.18,0.79,-1.89,-1.71,422,252,207,457,365
1353,-0.17,-0.97,0.18,0.31,-2.62,-2.44,415,255,206,469,362
1354,-0.16,-0.96,0.17,0.12,-2.87,-2.75,412,252,209,452,363
1355,-0.16,-0.97,0.17,0.79,-3.97,-2.2,416,251,206,452,364
1356,-0.16,-0.97,0.18,0.85,-3.23,-3.97,414,255,206,453,365
1357,-0.15,-0.97,0.19,2.14,-3.42,-2.56,420,252,206,452,361
1358,-0.15,-0.98,0.19,2.26,-3.78,-2.44,409,248,206,452,367
1359,-0.15,-0.97,0.19,0.61,-2.32,-2.5,453,254,207,456,360
1360,-0.16,-0.96,0.19,0.49,-2.56,-2.44,416,253,209,452,364
1361,-0.16,-0.97,0.18,-0.98,-2.62,-2.2,416,254,205,451,365
1362,-0.16,-0.97,0.18,0.31,-2.01,-2.69,414,251,205,453,360
1363,-0.16,-0.97,0.17,0.24,-2.32,-2.5,418,253,206,455,365
1364,-0.17,-0.97,0.17,0.0,-2.69,-2.87,417,254,207,448,363
1365,-0.16,-0.97,0.18,1.71,-4.33,-2.93,420,251,209,456,366
1366,-0.15,-0.97,0.18,0.79,-3.78,-2.75,416,251,214,449,364
1367,-0.16,-0.97,0.19,1.22,-3.72,-2.75,413,252,205,456,364
1368,-0.15,-0.97,0.19,-0.31,-1.89,-2.81,418,250,206,451,362
1369,-0.15,-0.97,0.18,0.0,-2.56,-2.26,416,249,206,455,359
1370,-0.17,-0.96,0.19,-0.24,-1.77,-2.44,418,251,208,454,372
1371,-0.15,-0.97,0.18,2.01,-2.26,-3.23,417,250,206,456,363
1372,-0.16,-0.97,0.17,-0.24,-2.81,-2.5,416,249,208,453,365
1373,-0.16,-0.96,0.17,-1.1,-2.5,-2.75,416,251,204,448,366
1374,-0.17,-0.97,0.17,2.81,-3.78,-2.56,418,255,206,450,362
1375,-0.15,-0.97,0.17,1.16,-3.6,-3.42,415,252,209,453,363
1376,-0.15,-0.97,0.19,0.85,-3.17,-2.99,417,253,212,448,364
1377,-0.16,-0.97,0.18,0.98,-2.87,-2.75,424,255,206,453,361
1378,-0.16,-0.96,0.18,-1.16,-2.44,-2.08,418,254,206,449,360
1379,-0.17,-0.99,0.17,-0.67,-2.32,-1.34,416,251,205,450,361
1380,-0.16,-0.96,0.18,-0.37,-2.5,-3.17,416,255,208,453,364
1381,-0.17,-0.97,0.18,0.0,-2.75,-2.56,418,251,206,452,364
1382,-0.16,-0.97,0.17,0.73,-3.72,-2.75,417,252,208,451,364
1383,-0.16,-0.96,0.18,1.04,-3.85,-3.36,416,251,210,451,361
1384,-0.16,-0.98,0.18,1.16,-2.81,-2.81,416,253,209,446,364
1385,-0.14,-0.97,0.18,0.12,-3.11,-2.69,419,252,208,453,364
1386,-0.15,-0.96,0.18,-1.4,-2.2,-2.75,415,254,207,453,371
1387,-0.16,-0.97,0.18,1.1,-3.11,-2.38,417,251,209,454,364
1388,-0.16,-0.97,0.18,-0.06,-3.42,-2.32,414,252,209,451,363
1389,-0.16,-0.97,0.17,0.12,-3.23,-2.14,409,254,209,455,364
1390,-0.16,-0.96,0.16,0.49,-2.93,-2.5,417,254,207,452,364
1391,-0.16,-0.96,0.17,0.67,-3.05,-3.05,416,252,210,456,364
1392,-0.15,-0.98,0.18,0.92,-2.99,-3.3,415,254,209,453,364
1393,-0.14,-0.97,0.18,0.85,-1.71,-3.48,416,254,207,453,363
1394,-0.15,-0.99,0.15,1.28,-1.89,-3.3,416,252,206,446,362
1395,-0.16,-0.96,0.17,-0.31,-3.17,-1.53,416,253,207,451,368
1396,-0.15,-0.97,0.17,0.55,-3.42,-2.14,413,253,207,453,361
1397,-0.16,-0.97,0.17,0.55,-3.17,-2.32,416,250,211,456,363
1398,-0.15,-0.97,0.16,0.61,-2.26,-2.08,418,254,204,455,364
1399,-0.16,-0.97,0.16,1.46,-3.6,-2.93,417,255,207,453,367
1400,-0.16,-0.97,0.17,0.79,-3.36,-3.23,422,254,207,456,360
1401,-0.15,-0.97,0.17,0.61,-3.36,-2.99,415,255,210,450,364
1402,-0.15,-0.97,0.18,0.24,-2.2,-2.38,417,254,209,449,364
1403,-0.15,-0.97,0.16,-0.24,-2.44,-2.81,420,251,206,447,364
1404,-0.16,-0.96,0.16,-0.12,-3.11,-2.81,416,252,207,452,355
1405,-0.16,-0.98,0.16,-0.24,-3.05,-1.83,416,258,206,455,365
1406,-0.16,-0.97,0.16,0.98,-3.05,-2.32,416,258,208,452,365
1407,-0.16,-0.96,0.16,0.55,-2.87,-2.62,416,252,209,452,363
1408,-0.16,-0.97,0.17,0.67,-2.08,-1.95,416,255,207,455,364
1409,-0.15,-0.97,0.18,0.06,-3.54,-3.23,416,253,207,451,364
1410,-0.15,-0.97,0.18,0.61,-2.38,-3.11,412,252,208,454,362
1411,-0.15,-0.98,0.17,0.73,-2.99,-2.5,419,255,209,449,362
1412,-0.15,-0.97,0.18,-0.49,-2.69,-2.44,417,251,210,453,364
1413,-0.16,-0.99,0.17,1.1,-3.11,-2.26,415,257,208,456,363
1414,-0.15,-0.96,0.18,0.67,-4.15,-2.01,418,251,207,452,364
1415,-0.16,-0.96,0.17,0.85,-2.87,-2.08,415,253,203,452,363
1416,-0.15,-0.99,0.15,-1.04,-2.32,-2.93,415,255,206,456,363
1417,-0.14,-0.97,0.19,0.49,-2.14,-2.99,415,251,210,453,366
1418,-0.16,-0.96,0.18,-0.49,-2.44,-2.62,417,253,209,448,370
1419,-0.16,-0.97,0.17,-2.32,-2.44,-1.71,414,255,204,454,363
1420,-0.16,-0.97,0.17,-2.01,-0.18,-1.95,408,260,204,453,363
1421,-0.17,-0.98,0.15,-0.43,-2.87,-2.56,428,256,209,455,365
1422,-0.17,-0.97,0.14,0.12,-3.11,-2.75,415,253,206,449,360
1423,-0.15,-0.97,0.14,0.67,-3.6,-3.23,416,257,209,450,363
1424,-0.15,-0.97,0.16,-0.18,-2.62,-3.36,417,256,208,455,361
1425,-0.12,-1.0,0.19,5.37,-0.73,-0.79,413,254,206,452,363
1426,-0.14,-0.97,0.18,-1.95,-2.62,-2.69,415,257,209,455,367
1427,-0.15,-0.96,0.17,-0.73,-2.75,-4.21,415,254,209,446,364
1428,-0.17,-0.97,0.18,1.04,-3.36,-2.26,416,254,208,453,363
1429,-0.15,-0.97,0.18,4.7,-4.15,-2.2,416,257,207,446,361
1430,-0.12,-0.97,0.26,6.96,-2.56,-0.06,417,255,206,450,363
1431,-0.14,-0.96,0.24,0.31,-1.95,-2.14,417,254,207,463,363
1432,-0.17,-0.97,0.25,0.67,-2.5,-1.65,416,257,208,456,361
1433,-0.13,-0.98,0.23,-5.55,-2.69,-5.07,418,255,204,453,361
1434,-0.15,-0.95,0.19,-0.12,-3.42,-1.46,434,255,208,456,359
1435,-0.15,-0.97,0.23,-0.98,-4.09,-3.11,418,256,205,449,364
1436,-0.14,-0.97,0.22,0.37,-4.64,-4.09,417,256,207,453,364
1437,-0.15,-0.97,0.19,-5.43,-6.1,-0.12,417,255,208,453,365
1438,-0.15,-0.97,0.21,2.08,-2.32,-3.11,421,254,209,448,363
1439,-0.16,-0.97,0.2,0.31,-4.21,-2.81,415,257,203,458,364
1440,-0.13,-0.97,0.17,-0.06,-3.78,-2.93,417,259,204,457,359
1441,-0.13,-0.96,0.18,-0.49,-3.05,-1.22,423,259,205,453,360
1442,-0.15,-0.97,0.17,-1.65,-2.5,-2.56,414,259,207,458,363
1443,-0.15,-0.97,0.16,-1.28,-3.3,-2.38,414,257,205,450,361
1444,-0.17,-0.97,0.15,0.61,-3.11,-2.75,411,254,208,456,363
1445,-0.16,-0.97,0.16,0.73,-3.05,-2.5,414,259,207,453,359
1446,-0.15,-0.97,0.15,0.49,-2.75,-3.11,417,255,204,453,360
1447,-0.15,-0.97,0.16,1.65,-3.6,-2.81,417,258,210,454,363
1448,-0.15,-0.98,0.17,0.55,-3.17,-4.03,414,255,206,457,363
1449,-0.15,-0.97,0.18,-0.24,-1.95,-2.32,413,253,209,453,365
1450,-0.15,-0.96,0.17,0.18,-2.32,-1.71,415,256,207,456,363
1451,-0.16,-0.96,0.17,-0.18,-2.32,-2.56,416,255,206,455,363
1452,-0.16,-0.98,0.17,-0.06,-2.81,-2.5,414,258,207,453,363
1453,-0.17,-0.96,0.17,-0.92,-1.71,-2.62,414,259,205,453,363
1454,-0.15,-0.97,0.15,-1.22,-4.58,-1.04,415,258,208,453,363
1455,-0.16,-0.97,0.15,0.0,-3.36,-2.44,417,257,207,449,364
1456,-0.15,-0.97,0.17,2.81,-3.91,-3.05,417,258,207,453,361
1457,-0.15,-0.97,0.17,0.43,-3.48,-3.97,412,253,208,454,356
1458,-0.14,-0.98,0.17,-1.28,-2.26,-2.14,416,254,206,457,366
1459,-0.15,-0.97,0.16,15.56,-3.23,-2.38,413,257,208,457,366
1460,-0.15,-0.97,0.16,-1.34,-1.46,-3.36,414,254,210,457,362
1461,-0.16,-0.97,0.16,-0.12,-1.34,-2.69,424,256,208,465,363
1462,-0.14,-0.97,0.15,-0.73,-2.08,-2.69,412,260,204,454,363
1463,-0.17,-0.97,0.15,-0.18,-1.65,-2.69,413,258,209,454,365
1464,-0.16,-0.97,0.13,1.46,-3.72,-2.69,412,255,210,453,364
1465,-0.15,-0.97,0.15,1.65,-3.48,-3.11,415,256,209,449,361
1466,-0.14,-0.97,0.17,0.55,-3.48,-2.75,410,256,206,452,364
1467,-0.14,-0.97,0.16,-0.31,-2.08,-2.01,415,255,209,456,365
1468,-0.15,-0.97,0.15,0.06,-2.69,-2.14,414,255,207,449,363
1469,-0.15,-0.97,0.16,-2.62,-3.3,-2.01,412,259,208,454,362
1470,-0.15,-0.97,0.14,-0.18,-3.85,-2.38,412,257,209,456,363
1471,-0.15,-0.97,0.15,0.37,-3.36,-3.11,413,259,210,458,363
1472,-0.15,-0.97,0.15,2.26,-1.71,-5.07,413,257,207,454,363
1473,-0.15,-0.97,0.16,1.04,-4.76,-2.99,411,257,206,454,364
1474,-0.15,-0.97,0.17,-0.12,-2.38,-2.44,414,257,206,458,363
1475,-0.14,-0.97,0.18,0.24,-2.87,-1.77,414,259,210,454,366
1476,-0.16,-0.97,0.17,0.18,-2.5,-1.95,413,258,210,457,365
1477,-0.15,-0.97,0.17,-0.37,-2.93,-2.56,416,256,209,456,365
1478,-0.16,-0.97,0.16,-0.43,-2.56,-2.81,414,260,210,455,366
1479,-0.16,-0.97,0.16,0.55,-2.93,-2.69,413,259,207,453,362
1480,-0.16,-0.97,0.17,0.67,-2.99,-3.3,413,256,205,457,364
1481,-0.15,-0.97,0.18,1.83,-4.03,-2.93,414,256,210,458,363
1482,-0.15,-0.97,0.18,0.92,-2.5,-1.71,414,258,205,452,364
1483,-0.15,-0.97,0.17,0.43,-2.62,-1.77,410,256,209,451,365
1484,-0.14,-0.97,0.16,-0.55,-2.56,-2.62,410,256,203,454,361
1485,-0.15,-0.97,0.15,-0.31,-3.17,-2.08,416,260,207,458,375
1486,-0.15,-0.96,0.14,0.0,-2.62,-3.36,413,257,207,453,362
1487,-0.16,-0.97,0.16,0.31,-3.3,-2.99,415,259,211,461,364
1488,-0.16,-0.97,0.18,1.4,-3.54,-2.38,414,255,211,457,362
1489,-0.15,-0.97,0.18,0.85,-2.93,-3.48,413,259,209,465,365
1490,-0.15,-0.97,0.17,0.73,-3.17,-2.26,413,260,210,453,366
1491,-0.16,-0.97,0.16,0.18,-2.87,-1.59,421,254,207,453,360
1492,-0.16,-0.97,0.16,0.73,-3.48,-2.14,414,258,210,449,366
1493,-0.17,-0.97,0.16,0.06,-3.05,-1.89,414,256,211,451,363
1494,-0.16,-0.97,0.15,0.37,-2.69,-2.44,415,255,210,450,366
1495,-0.16,-0.97,0.16,0.61,-3.23,-2.5,410,257,210,452,365
1496,-0.16,-0.97,0.16,0.92,-3.36,-2.69,415,259,207,450,365
1497,-0.16,-0.97,0.17,1.04,-3.3,-3.42,412,255,210,449,365
1498,-0.15,-0.97,0.17,-0.49,-3.42,-2.56,413,257,212,452,365
1499,-0.16,-0.97,0.18,0.31,-2.26,-2.62,413,259,206,454,366
1500,-0.15,-0.97,0.16,2.26,-2.56,-2.87,413,259,211,452,367
1501,-0.16,-0.97,0.17,1.4,-2.81,-2.26,413,260,210,450,362
1502,-0.15,-0.97,0.18,2.87,-4.09,-1.1,411,258,207,454,362
1503,-0.17,-0.97,0.17,1.77,-2.44,-1.53,412,257,205,458,364
1504,-0.15,-0.98,0.15,-0.18,-2.62,-4.21,413,255,208,455,364
1505,-0.15,-0.98,0.18,-0.79,-2.62,-3.97,417,257,210,455,365
1506,-0.16,-0.97,0.19,-1.53,-1.1,-3.23,414,259,210,454,368
1507,-0.17,-0.96,0.16,-0.18,-3.11,-2.5,436,257,207,457,360
1508,-0.16,-0.98,0.16,0.92,-3.78,-2.01,412,257,205,455,366
1509,-0.14,-0.96,0.15,1.1,-2.01,-2.99,413,260,206,455,365
1510,-0.14,-0.97,0.16,1.95,-2.62,-2.56,413,253,206,456,366
1511,-0.17,-0.97,0.19,1.83,-2.87,-1.65,414,260,210,456,363
1512,-0.16,-0.97,0.16,0.31,-2.56,-2.26,425,257,209,455,361
1513,-0.16,-0.97,0.17,0.98,-2.5,-2.81,412,259,210,450,360
1514,-0.16,-0.97,0.18,1.46,-4.64,-2.32,411,257,211,453,366
1515,-0.16,-0.97,0.17,2.44,-4.09,-2.93,414,258,210,458,364
1516,-0.16,-0.97,0.17,1.16,-3.3,-2.62,408,258,206,460,366
1517,-0.15,-0.97,0.17,-0.43,-1.83,-2.62,412,257,211,454,364
1518,-0.14,-0.97,0.15,-4.88,-2.5,-2.62,412,261,205,454,362
1519,-0.17,-0.97,0.17,-1.22,-3.17,-1.34,410,260,209,454,365
1520,-0.18,-0.97,0.15,1.71,-2.38,-3.11,413,257,212,453,365
1521,-0.15,-0.97,0.15,-2.69,-2.75,-2.38,410,257,209,454,363
1522,-0.15,-0.97,0.14,1.16,-2.56,-2.01,413,260,207,459,365
1523,-0.16,-0.97,0.16,0.92,-3.11,-2.38,412,256,207,458,360
1524,-0.16,-0.97,0.17,1.16,-3.42,-3.3,409,257,206,449,361
1525,-0.15,-0.96,0.16,0.49,-1.71,-3.17,412,259,207,453,364
1526,-0.16,-0.97,0.16,2.69,-2.32,-1.95,408,259,207,453,366
1527,-0.18,-0.98,0.21,2.2,8.24,-4.82,412,260,210,454,363
1528,-0.12,-0.98,0.14,-8.48,-1.4,-3.17,411,258,209,458,362
1529,-0.19,-0.96,0.12,6.35,1.71,-4.82,413,261,207,446,363
1530,-0.14,-0.98,0.14,3.72,0.37,-3.72,416,257,204,456,361
1531,-0.15,-0.97,0.14,-2.38,-4.46,-2.32,415,258,210,457,363
1532,-0.15,-0.98,0.12,0.67,-3.78,-3.54,413,262,207,457,363
1533,-0.14,-0.98,0.12,0.49,-3.05,-1.83,413,257,206,456,361
1534,-0.15,-0.98,0.13,-0.61,-3.3,-2.62,415,260,209,457,370
1535,-0.15,-0.98,0.12,1.34,-3.17,-2.38,413,264,211,457,362
1536,-0.13,-0.99,0.1,-0.67,-3.23,-3.17,413,260,211,454,361
1537,-0.14,-0.97,0.11,-0.18,-3.91,-1.89,415,259,205,451,361
1538,-0.16,-0.97,0.13,0.98,-2.32,-2.08,414,260,207,458,364
1539,-0.15,-0.99,0.12,1.1,-2.81,-1.46,411,258,208,454,363
1540,-0.15,-0.99,0.12,0.79,-3.11,-3.3,413,259,209,458,362
1541,-0.15,-0.98,0.13,1.16,-2.44,-2.93,412,258,208,457,364
1542,-0.19,-0.96,0.21,1.16,-3.54,-2.38,424,220,181,438,357
1543,-0.16,-0.95,0.2,-1.22,-4.7,-3.3,424,221,184,440,359
1544,-0.16,-0.95,0.26,0.98,-2.5,-3.91,422,220,185,436,361
1545,-0.16,-0.96,0.19,-2.14,-2.14,-4.21,418,221,185,436,359
1546,-0.18,-0.96,0.19,0.37,-1.22,-4.27,421,219,183,435,363
1547,-0.17,-0.98,0.21,-1.95,-0.37,-3.17,422,222,184,437,358
1548,-0.19,-0.96,0.22,2.38,-2.5,-0.43,418,221,186,435,358
1549,-0.22,-0.96,0.22,-5.19,-4.7,3.91,417,222,187,440,360
1550,-0.18,-0.96,0.21,0.18,-3.17,0.12,422,223,182,441,360
1551,-0.18,-0.96,0.19,-1.16,-0.73,-1.34,419,228,184,436,356
1552,-0.22,-0.95,0.2,1.04,-1.95,-2.69,423,223,184,439,359
1553,-0.2,-0.95,0.2,1.53,-4.58,-5.37,421,222,183,435,361
1554,-0.21,-0.95,0.15,-3.6,-8.73,0.49,421,220,187,444,360
1555,-0.24,-0.95,0.22,0.73,-0.12,-0.31,421,224,188,440,358
1556,-0.2,-0.94,0.14,-5.37,-4.46,-3.6,423,223,185,441,363
1557,-0.15,-0.96,0.24,0.85,-2.93,-1.4,420,224,188,436,359
1558,-0.21,-0.95,0.2,-2.69,-7.2,0.24,421,225,188,446,359
1559,-0.19,-0.95,0.21,3.36,-4.15,-1.28,421,229,189,443,361
1560,-0.22,-0.93,0.21,5.62,5.43,-14.28,419,225,191,438,364
1561,-0.2,-0.95,0.21,2.44,-0.98,-0.79,420,224,189,439,359
1562,-0.2,-0.95,0.2,3.3,-2.81,-0.61,418,226,187,437,365
1563,-0.2,-0.94,0.2,-1.04,-3.91,-3.66,416,227,190,436,361
1564,-0.22,-0.94,0.24,-0.61,-1.83,-1.46,424,228,190,441,360
1565,-0.18,-0.95,0.24,2.56,-3.17,-3.48,417,231,189,446,361
1566,-0.2,-0.94,0.22,1.4,-2.08,-2.5,421,230,189,445,363
1567,-0.19,-0.95,0.25,0.18,-2.2,-2.5,422,231,189,439,357
1568,-0.21,-0.93,0.23,-1.77,-2.62,-2.14,424,229,192,444,359
1569,-0.21,-0.94,0.24,0.12,-2.62,-2.08,424,234,188,447,359
1570,-0.22,-0.94,0.25,0.85,-2.81,-2.01,422,231,189,444,361
1571,-0.2,-0.93,0.26,7.14,-0.73,-2.32,422,229,190,444,363
1572,-0.19,-0.91,0.28,0.24,-1.1,-5.86,421,228,195,440,364
1573,-0.16,-0.95,0.24,-2.26,0.85,-3.66,425,228,190,449,363
1574,-0.19,-0.96,0.19,-4.82,1.1,-2.2,418,231,192,444,361
1575,-0.19,-0.96,0.2,-3.66,-0.67,-5.55,423,232,189,449,362
1576,-0.16,-0.96,0.21,-2.99,-2.44,-3.05,420,230,189,445,362
1577,-0.17,-0.97,0.2,3.05,-3.78,-3.05,420,232,189,444,359
1578,-0.2,-0.96,0.21,0.67,2.69,-2.26,421,231,190,446,361
1579,-0.2,-0.96,0.22,-1.04,-6.29,-3.05,418,231,191,451,363
1580,-0.18,-0.95,0.25,-0.06,-3.78,-1.65,417,230,191,446,362
1581,-0.22,-0.95,0.28,6.47,-7.02,-5.49,421,229,190,448,361
1582,-0.23,-0.94,0.22,2.14,-9.28,-3.36,424,233,190,446,361
1583,-0.13,-0.94,0.24,-3.42,-3.17,-4.39,423,232,203,447,360
1584,-0.17,-0.94,0.27,3.42,-2.75,-5.55,423,228,193,448,359
1585,-0.18,-0.93,0.3,3.42,-6.84,-5.25,422,228,191,447,357
1586,-0.19,-0.92,0.31,1.1,-0.18,-2.26,424,234,191,450,355
1587,-0.19,-0.92,0.31,-0.67,-1.65,-3.42,422,226,190,450,359
1588,-0.19,-0.93,0.31,0.43,-1.83,-3.42,418,233,193,448,364
1589,-0.18,-0.92,0.3,-1.59,-1.34,-3.11,433,228,194,443,361
1590,-0.23,-0.93,0.35,0.61,-2.87,-1.83,424,234,193,446,361
1591,-0.18,-0.94,0.28,-0.55,-3.6,-3.97,422,233,195,441,365
1592,-0.17,-0.94,0.24,-4.46,-5.98,-7.32,420,232,192,445,358
1593,-0.15,-0.95,0.22,1.46,-4.82,-3.54,420,231,189,447,357
1594,-0.18,-0.93,0.25,2.14,-4.15,-5.62,422,231,190,451,365
1595,-0.19,-0.94,0.28,1.89,-1.59,-1.65,427,230,195,451,358
1596,-0.18,-0.94,0.29,1.65,-2.93,-1.77,413,228,194,448,361
1597,-0.17,-0.94,0.3,1.59,-2.75,-1.89,436,231,194,451,364
1598,-0.19,-0.93,0.29,1.34,-3.66,-2.5,422,233,194,444,359
1599,-0.21,-0.94,0.3,-0.85,-2.81,-2.38,421,235,196,447,358
1600,-0.19,-0.94,0.3,0.06,-3.23,-2.81,421,231,194,443,363
1601,-0.19,-0.93,0.29,-0.98,-3.91,-2.75,423,233,196,447,361
1602,-0.2,-0.93,0.3,0.49,-1.46,-2.38,421,238,191,449,363
1603,-0.19,-0.93,0.29,0.61,-2.01,-2.26,420,233,195,443,362
1604,-0.19,-0.95,0.28,0.67,-3.91,-2.08,422,232,204,442,358
1605,-0.2,-0.94,0.28,0.31,-3.36,-1.83,421,235,196,456,362
1606,-0.19,-0.93,0.29,0.49,-3.11,-2.56,420,235,195,445,360
1607,-0.19,-0.94,0.28,1.46,-1.83,-2.62,418,234,195,448,363
1608,-0.2,-0.94,0.28,0.73,-3.05,-2.56,420,232,196,453,362
1609,-0.21,-0.94,0.29,1.1,-3.36,-4.64,422,235,195,443,362
1610,-0.18,-0.94,0.29,1.4,-5.25,-3.3,419,238,193,448,359
1611,-0.18,-0.94,0.28,-0.92,-3.23,-2.69,416,235,196,448,361
1612,-0.17,-0.94,0.27,-1.04,-3.11,-2.93,419,234,196,448,362
1613,-0.18,-0.94,0.28,-0.43,-3.72,-2.75,419,237,195,445,363
1614,-0.17,-0.94,0.28,0.06,-2.5,-1.95,420,237,194,454,361
1615,-0.19,-0.93,0.32,-0.92,-4.27,-2.62,421,233,201,453,362
1616,-0.17,-0.94,0.31,-0.06,-2.2,-3.05,419,239,196,449,361
1617,-0.19,-0.94,0.33,-0.61,-2.5,-3.23,420,234,193,448,365
1618,-0.18,-0.93,0.3,-2.08,-1.95,-2.69,421,233,196,454,362
1619,-0.17,-0.94,0.3,-1.71,-1.95,-2.81,420,237,196,447,362
1620,-0.19,-0.94,0.29,-0.18,-2.5,-2.69,420,237,195,450,363
1621,-0.17,-0.94,0.28,-1.1,-2.5,-3.42,419,234,197,448,361
1622,-0.18,-0.94,0.29,-0.79,-1.59,-2.26,422,233,197,448,362
1623,-0.18,-0.94,0.28,1.16,-2.93,-2.5,420,235,198,448,362
1624,-0.18,-0.95,0.3,3.11,-3.3,-3.36,418,237,195,450,358
1625,-0.18,-0.94,0.3,1.4,-3.17,-1.53,419,235,195,451,363
1626,-0.18,-0.94,0.3,0.92,-3.42,-2.01,419,238,193,452,362
1627,-0.18,-0.94,0.3,-1.28,-2.62,-1.53,419,235,198,449,362
1628,-0.19,-0.94,0.29,-0.37,-1.1,-1.4,421,238,200,444,360
1629,-0.2,-0.93,0.27,2.2,-2.87,-2.5,420,240,196,451,360
1630,-0.18,-0.94,0.31,-14.28,-27.16,2.87,422,235,199,450,360
1631,0.0,-0.98,0.3,3.97,-33.33,-1.95,420,237,195,453,361
1632,-0.17,-0.93,0.42,11.05,-5.07,8.3,422,239,197,454,360
1633,-0.05,-0.97,0.19,3.72,-2.5,-6.04,421,233,198,452,363
1634,-0.08,-0.98,0.15,-11.29,-8.06,-1.89,428,239,194,445,362
1635,-0.17,-0.97,0.16,2.99,0.85,-4.88,417,238,201,450,361
1636,-0.13,-0.96,0.2,-3.05,-1.16,-4.39,415,233,198,450,365
1637,-0.06,-0.96,0.23,9.7,2.14,-1.83,415,238,203,441,362
1638,-0.1,-0.98,0.3,19.9,23.38,-10.44,418,237,197,451,364
1639,-0.19,-0.91,0.27,-3.72,5.62,5.25,419,238,195,450,364
1640,-0.18,-0.94,0.27,-3.36,-3.17,-3.97,417,242,197,454,361
1641,-0.16,-0.94,0.29,-1.16,-4.39,-2.87,425,238,197,454,362
1642,-0.2,-0.94,0.23,0.31,5.49,-3.66,417,238,192,454,362
1643,-0.19,-0.95,0.24,-1.77,-2.81,-1.77,419,240,199,450,361
1644,-0.19,-0.95,0.24,-1.77,-1.95,-4.52,418,236,196,451,361
1645,-0.18,-0.95,0.22,0.55,-2.69,-1.77,418,237,194,447,362
1646,-0.15,-0.93,0.21,0.49,0.12,-3.66,412,234,200,455,360
1647,-0.08,-0.96,0.16,-3.91,1.89,-9.09,412,236,196,451,364
1648,-0.15,-0.96,0.17,20.08,-1.53,2.99,415,235,193,450,360
1649,-0.14,-1.02,0.2,9.4,-2.81,4.58,415,240,196,450,357
1650,-0.16,-0.94,0.35,7.57,-6.77,-17.58,423,242,197,450,359
1651,-0.05,-0.92,0.34,0.0,1.22,8.06,416,240,194,445,362
1652,-0.1,-0.95,0.3,9.16,-14.1,6.35,418,238,199,452,361
1653,-0.06,-0.95,0.33,-4.03,-2.56,-1.04,416,235,200,448,359
1654,-0.11,-0.95,0.3,-2.75,-2.99,-0.24,417,238,195,450,361
1655,-0.16,-0.98,0.21,-20.94,-6.47,6.71,420,237,200,450,359
1656,-0.16,-0.97,0.21,0.98,-5.37,1.53,418,237,198,452,364
1657,-0.21,-0.96,0.21,1.46,-5.0,-2.81,424,238,197,443,361
1658,-0.17,-0.96,0.27,-4.58,-1.83,-0.37,422,241,198,460,362
1659,-0.17,-0.96,0.22,1.22,-5.25,-0.49,423,240,198,451,363
1660,-0.16,-0.97,0.2,2.81,-4.76,-1.65,422,238,211,453,360
1661,-0.17,-0.96,0.2,2.2,-2.87,-1.59,424,242,197,456,360
1662,-0.16,-0.96,0.2,-1.22,-1.53,-5.98,425,241,197,451,357
1663,-0.13,-0.96,0.22,3.3,-5.43,-1.4,421,239,200,453,359
1664,-0.16,-0.96,0.24,2.2,-3.05,-2.5,420,240,199,450,362
1665,-0.15,-0.96,0.21,-1.16,-2.69,-3.85,421,239,201,449,361
1666,-0.16,-0.96,0.19,2.01,-2.14,-3.23,422,240,198,449,361
1667,-0.17,-0.95,0.18,2.14,-1.04,-3.78,417,239,198,454,363
1668,-0.17,-0.96,0.21,-1.28,-2.26,-6.84,424,242,196,446,363
1669,-0.17,-0.96,0.19,-1.83,-2.26,-1.4,422,242,200,448,362
1670,-0.16,-0.96,0.22,-0.61,-2.2,-3.97,419,241,199,449,359
1671,-0.15,-0.97,0.21,-2.69,-1.16,-2.26,423,237,200,451,361
1672,-0.16,-0.96,0.21,-0.61,-2.93,-1.83,421,238,200,449,359
1673,-0.16,-0.96,0.19,0.55,-2.56,-2.81,422,239,196,453,362
1674,-0.15,-0.96,0.19,0.37,-1.59,-2.26,428,240,198,449,361
1675,-0.16,-0.97,0.2,-0.12,-3.54,-3.42,422,241,198,450,358
1676,-0.14,-0.96,0.19,3.42,-2.93,-0.98,421,238,201,453,361
1677,-0.18,-0.97,0.19,-0.31,-2.87,-2.01,418,239,198,449,358
1678,-0.18,-0.95,0.21,-0.31,-4.46,-2.5,419,242,198,453,362
1679,-0.14,-0.96,0.21,2.93,-1.95,-4.09,420,240,201,451,359
1680,-0.16,-0.96,0.22,-2.69,-2.75,-2.38,422,240,195,453,361
1681,-0.16,-0.96,0.19,-2.75,-2.5,-3.72,424,242,199,452,355
1682,-0.15,-0.95,0.29,11.41,0.0,-7.63,421,240,201,449,357
1683,-0.1,-0.96,0.2,-3.97,4.76,-6.47,421,242,200,447,359
1684,-0.13,-0.95,0.23,5.43,2.69,-0.18,420,241,200,448,356
1685,-0.14,-0.96,0.24,-4.88,-3.42,-2.62,422,240,204,451,361
1686,-0.12,-0.96,0.19,0.37,-2.75,-3.54,422,238,201,453,360
1687,-0.13,-0.95,0.19,0.98,-5.25,-2.26,424,240,199,450,356
1688,-0.12,-0.97,0.23,-2.69,-2.01,-3.3,421,238,199,450,355
1689,-0.13,-0.98,0.23,-3.48,-0.31,-3.05,418,239,201,445,355
1690,-0.1,-0.96,0.17,0.55,-11.54,-2.87,417,242,201,453,361
1691,-0.14,-0.96,0.2,0.55,0.61,-3.85,419,242,200,453,361
1692,-0.13,-0.95,0.19,0.49,-2.56,-2.5,419,241,202,450,369
1693,-0.13,-1.0,0.18,2.5,0.18,-3.11,419,243,199,449,362
1694,-0.14,-0.96,0.21,2.87,-4.39,-1.59,420,243,199,453,362
1695,-0.12,-0.97,0.19,0.98,-4.03,-3.78,419,241,198,450,363
1696,-0.14,-0.96,0.21,0.49,-1.65,-3.05,426,238,200,454,362
1697,-0.15,-0.96,0.2,1.16,-2.2,-0.98,419,242,201,449,362
1698,-0.14,-0.96,0.19,1.46,-2.5,-2.2,421,250,201,453,363
1699,-0.17,-0.97,0.22,-0.61,-5.49,-0.55,421,244,201,451,362
1700,-0.16,-0.97,0.19,0.24,-3.66,-2.01,424,244,203,453,354
1701,-0.14,-0.97,0.18,-0.67,-4.27,-3.3,421,245,201,450,357
1702,-0.13,-0.97,0.2,-0.43,-3.72,-0.67,419,244,208,447,360
1703,-0.14,-0.97,0.19,1.77,-3.3,-1.28,423,243,199,454,359
1704,-0.14,-0.97,0.2,-0.61,-2.32,-2.01,420,244,199,454,361
1705,-0.16,-0.96,0.19,0.24,-3.91,-2.2,421,246,206,451,361
1706,-0.15,-0.96,0.25,0.24,-5.92,-3.85,417,244,201,451,358
1707,-0.15,-0.97,0.19,-6.04,-12.39,-3.11,421,247,201,452,360
1708,-0.13,-0.98,0.15,-4.7,-5.62,-0.43,422,247,202,455,358
1709,-0.13,-0.97,0.16,0.43,-4.7,2.14,420,244,201,452,357
1710,-0.14,-0.97,0.16,-0.61,-1.53,-1.59,421,242,200,457,363
1711,-0.16,-0.97,0.21,-3.36,-4.21,-2.93,419,246,201,450,359
1712,-0.13,-0.98,0.19,-3.85,-1.65,-3.72,420,243,204,446,366
1713,-0.09,-0.97,0.09,3.97,-6.47,-4.76,422,245,203,450,360
1714,0.05,-0.91,0.17,39.43,2.38,-26.18,419,243,200,455,360
1715,0.07,-0.93,0.38,6.59,-12.63,-15.08,419,244,201,451,360
1716,0.11,-1.1,0.31,-12.33,6.77,-4.88,417,244,204,455,358
1717,0.25,-0.92,0.4,0.31,4.94,-18.25,418,244,201,445,359
1718,0.14,-0.92,0.43,3.36,-1.1,-1.34,418,243,201,448,357
1719,0.12,-0.86,0.33,-12.08,2.69,2.75,444,243,201,446,361
1720,0.26,-0.87,0.47,0.85,-4.88,5.31,417,246,205,452,363
1721,0.19,-0.88,0.45,-3.91,-1.89,2.93,416,246,203,452,360
1722,0.13,-0.92,0.46,-7.45,-13.18,0.73,416,247,205,450,361
1723,0.17,-0.9,0.47,5.8,-0.37,-6.04,418,245,205,449,357
1724,0.18,-0.88,0.42,-0.61,-8.18,-2.81,427,246,202,446,361
1725,0.18,-0.87,0.47,8.73,0.85,-4.15,413,246,204,451,358
1726,0.14,-0.84,0.56,8.54,12.02,4.27,412,245,203,452,360
1727,0.07,-0.86,0.48,-3.54,1.28,3.91,413,242,205,453,359
1728,0.01,-0.86,0.49,5.43,-2.01,-4.58,415,246,199,456,361
1729,0.01,-0.85,0.47,2.93,-8.54,-4.76,416,249,203,452,358
1730,0.04,-0.84,0.48,1.77,-8.97,-5.68,417,245,203,451,362
1731,0.07,-0.86,0.51,-1.59,-2.69,-2.32,417,249,202,455,361
1732,0.03,-0.87,0.54,-5.19,-3.72,-7.63,415,248,204,447,360
1733,0.1,-0.88,0.45,-10.25,3.36,-11.96,420,249,205,451,361
1734,0.1,-0.9,0.41,-2.56,-4.46,-1.89,414,247,204,449,361
1735,0.09,-0.91,0.41,3.05,-1.71,-1.53,414,246,205,452,361
1736,0.07,-0.9,0.41,0.67,-3.6,-0.73,417,246,204,451,361
1737,0.1,-0.9,0.41,0.92,-4.64,-5.19,415,247,201,451,361
1738,0.07,-0.9,0.43,0.24,-0.31,-0.85,416,248,202,455,361
1739,0.04,-0.91,0.42,-8.0,-2.32,3.54,417,246,205,454,361
1740,-0.02,-0.94,0.35,-10.01,-4.09,4.33,420,245,203,453,363
1741,-0.02,-0.95,0.28,-5.43,-5.0,-0.12,417,247,206,450,373
1742,-0.01,-0.95,0.3,1.46,-6.41,-0.37,419,249,202,451,361
1743,0.0,-0.95,0.29,2.81,4.46,-4.03,420,247,204,452,359
1744,-0.01,-0.95,0.27,-2.32,-0.79,-3.05,418,246,205,450,357
1745,-0.01,-0.95,0.31,-0.85,-7.87,-3.91,417,249,200,454,361
1746,0.07,-0.96,0.3,-3.97,-6.29,-1.83,418,247,200,453,361
1747,0.01,-0.95,0.28,-2.5,-4.94,-0.31,417,245,204,446,361
1748,0.02,-0.96,0.29,-1.95,1.89,-3.42,418,250,205,456,360
1749,-0.01,-0.96,0.26,-3.11,-0.18,-4.88,414,248,200,455,360
1750,-0.01,-0.96,0.27,-1.71,-1.16,-3.17,418,257,210,449,360
1751,0.02,-0.96,0.28,-0.31,-0.49,-1.34,418,250,203,454,358
1752,-0.0,-0.96,0.27,-1.46,-2.08,-0.55,417,250,201,450,359
1753,-0.05,-0.97,0.3,-3.3,9.83,7.2,421,249,203,451,358
1754,-0.14,-0.96,0.24,-6.29,0.24,5.55,418,247,200,454,360
1755,-0.17,-0.96,0.18,0.18,-0.85,3.6,421,247,201,457,361
1756,-0.22,-0.97,0.23,-0.12,-6.53,-6.59,420,260,203,454,363
1757,-0.15,-0.95,0.2,-0.37,-7.2,-1.28,446,249,205,452,357
1758,-0.19,-0.97,0.22,1.4,-12.7,-2.75,421,250,202,449,360
1759,-0.11,-0.97,0.19,3.97,0.31,-8.42,418,250,200,454,363
1760,-0.13,-0.97,0.2,-0.67,-5.07,-5.49,419,249,200,451,360
1761,-0.08,-0.98,0.18,-4.09,-5.13,-4.15,419,249,203,455,358
1762,-0.1,-0.98,0.15,-4.7,-3.17,-2.44,418,247,203,450,361
1763,-0.09,-0.98,0.15,-0.55,-2.75,-2.62,414,248,206,452,362
1764,-0.11,-0.97,0.18,7.63,-1.16,6.77,418,250,201,447,362
1765,-0.15,-0.95,0.22,-1.77,-4.82,5.62,414,249,205,460,360
1766,-0.16,-0.95,0.2,5.37,-2.62,9.16,418,250,204,455,361
1767,-0.27,-0.94,0.21,10.01,-1.95,-3.72,419,246,202,447,358
1768,-0.18,-0.95,0.24,1.46,-1.89,-4.7,429,249,201,451,363
1769,-0.19,-0.95,0.23,-1.16,-4.21,-1.89,416,248,205,454,365
1770,-0.2,-0.96,0.22,-4.15,-1.1,-1.53,419,247,202,450,357
1771,-0.2,-0.95,0.19,-1.1,-2.2,-2.08,418,248,203,446,362
1772,-0.21,-0.97,0.15,-23.8,2.32,1.16,419,246,216,451,360
1773,-0.22,-0.94,0.07,1.77,-6.65,-0.24,418,248,201,455,359
1774,-0.25,-0.96,0.05,3.11,-6.29,-1.34,418,247,203,454,362
1775,-0.25,-0.96,0.07,-1.22,-2.01,-3.17,419,247,202,463,361
1776,-0.25,-0.96,0.09,1.34,-2.87,-3.17,419,249,204,450,358
1777,-0.25,-0.96,0.07,-4.09,-0.85,-4.94,418,250,203,445,358
1778,-0.23,-0.96,0.07,0.61,-2.93,-2.93,420,245,206,453,358
1779,-0.21,-0.97,0.08,0.12,-3.66,-5.43,422,248,201,452,360
1780,-0.21,-0.98,0.1,-0.79,1.22,-3.85,419,248,202,449,359
1781,-0.22,-0.97,0.1,0.61,0.0,-1.46,419,249,202,448,360
1782,-0.2,-0.97,0.07,-0.92,-3.05,-3.91,417,251,206,455,359
1783,-0.2,-0.97,0.08,1.4,-2.44,-3.05,422,249,202,449,358
1784,-0.17,-0.97,0.1,3.6,-3.91,-4.09,421,248,204,455,359
1785,-0.2,-0.97,0.1,-0.73,-2.93,-2.32,421,245,206,456,357
1786,-0.19,-0.97,0.07,-4.46,-1.89,-5.55,418,250,201,454,360
1787,-0.19,-0.97,0.08,1.83,-5.07,-2.44,418,251,203,448,359
1788,-0.19,-0.97,0.1,2.81,-3.05,-2.26,420,248,205,450,356
1789,-0.19,-0.97,0.09,-0.06,-3.05,-2.14,418,247,203,450,359
1790,-0.2,-0.97,0.12,2.32,-3.72,-1.89,417,247,203,452,359
1791,-0.18,-0.98,0.11,0.73,-1.83,-2.56,419,248,207,452,357
1792,-0.19,-0.97,0.09,-0.37,-2.81,-2.2,418,248,204,455,359
1793,-0.17,-0.98,0.13,2.81,-0.37,-3.97,420,248,204,455,359
1794,-0.18,-0.98,0.13,0.79,-2.5,-1.34,429,249,203,455,359
1795,-0.17,-0.96,0.08,0.67,-1.34,-3.3,417,245,211,450,357
1796,-0.18,-0.97,0.11,0.55,-1.95,-2.99,420,251,204,446,358
1797,-0.19,-0.97,0.12,0.92,-3.23,-2.32,420,251,207,451,360
1798,-0.19,-0.97,0.13,-0.06,-2.38,-2.32,422,254,199,447,360
1799,-0.19,-0.97,0.13,1.65,-3.72,-3.72,420,249,201,447,363
1800,-0.2,-0.98,0.13,-2.62,-1.46,-2.81,418,246,203,447,361
1801,-0.17,-0.97,0.14,1.1,-0.37,-3.72,419,249,203,451,361
1802,-0.19,-0.94,0.15,1.22,-3.23,-0.55,420,248,202,447,361
1803,-0.21,-0.97,0.12,-3.78,-4.15,-2.38,419,250,204,450,360
1804,-0.18,-0.97,0.13,1.95,-4.15,-1.71,418,251,204,455,357
1805,-0.18,-0.97,0.12,1.89,-4.27,-2.38,419,246,207,450,360
1806,-0.18,-0.97,0.1,3.3,-4.09,-1.83,419,252,207,451,360
1807,-0.19,-0.97,0.1,3.54,-4.33,-1.46,420,247,201,452,358
1808,-0.17,-0.97,0.1,2.99,-2.93,-3.91,419,248,203,451,360
1809,-0.17,-0.98,0.12,-2.38,-2.99,-1.4,419,248,205,451,356
1810,-0.18,-0.97,0.1,1.89,-3.78,-2.44,420,250,202,451,357
1811,-0.18,-0.97,0.1,1.95,-4.09,-2.81,417,251,207,445,359
1812,-0.18,-0.98,0.1,-0.24,-6.29,-2.69,420,248,210,455,357
1813,-0.17,-0.97,0.11,1.65,-2.99,-1.71,417,252,203,451,362
1814,-0.18,-0.97,0.1,0.37,-2.99,-2.2,419,252,204,452,362
1815,-0.18,-0.97,0.09,0.67,-2.56,-2.5,420,255,215,454,360
1816,-0.17,-0.97,0.12,0.24,-1.89,-2.93,419,250,206,445,357
1817,-0.17,-0.96,0.09,0.85,-3.05,-2.87,419,247,205,450,361
1818,-0.16,-0.99,0.11,2.01,-3.72,-1.83,417,251,206,455,360
1819,-0.18,-0.97,0.12,0.43,-4.03,-3.11,416,253,202,450,360
1820,-0.18,-0.96,0.11,0.73,-3.3,-2.01,419,248,205,447,357
1821,-0.17,-0.98,0.11,-0.37,-2.08,-2.38,418,247,208,453,356
1822,-0.17,-0.97,0.12,0.06,-2.14,-2.14,419,248,209,454,359
1823,-0.2,-0.98,0.12,8.85,-1.65,-4.03,417,249,212,454,360
1824,-0.17,-0.97,0.14,20.57,-2.99,-5.8,420,250,217,455,361
1825,-0.16,-0.97,0.19,2.01,-2.69,-2.62,425,249,207,449,363
1826,-0.15,-0.99,0.22,-1.28,-1.89,-2.26,419,249,216,454,363
1827,-0.18,-1.13,0.09,1.16,-0.49,-1.89,413,250,205,451,359
1828,-0.17,-0.94,0.15,1.83,-3.91,-1.77,415,250,204,452,362
1829,-0.17,-0.97,0.16,-2.99,-2.32,-3.6,421,252,207,453,363
1830,-0.17,-0.97,0.17,-0.37,-2.69,-3.91,418,254,206,448,365
1831,-0.15,-0.97,0.17,1.65,-3.3,-2.87,418,248,208,451,361
1832,-0.16,-0.96,0.17,-0.79,-2.93,-2.62,415,251,206,455,362
1833,-0.15,-0.97,0.17,2.01,-3.91,-2.2,417,250,206,453,363
1834,-0.16,-0.97,0.16,-1.77,-2.81,-3.17,417,268,205,451,365
1835,-0.18,-0.96,0.18,-1.22,-2.62,-3.72,418,253,206,454,360
1836,-0.17,-0.97,0.17,1.65,-2.62,-3.11,414,252,207,452,361
1837,-0.17,-0.96,0.18,2.2,-2.93,-3.23,417,247,203,451,363
1838,-0.16,-0.96,0.19,1.28,-3.23,-2.44,420,254,203,453,365
1839,-0.17,-0.97,0.18,2.26,-2.01,-3.36,417,252,208,452,365
1840,-0.17,-0.96,0.19,-0.06,-2.2,-2.5,417,251,208,448,365
1841,-0.16,-0.95,0.19,1.28,-3.85,-2.87,419,254,202,450,360
1842,-0.15,-0.97,0.17,-0.18,-5.0,-1.83,423,251,204,452,363
1843,-0.16,-0.97,0.17,1.71,-3.54,-1.04,419,252,204,447,363
1844,-0.16,-0.97,0.17,0.61,-2.99,-2.2,417,253,208,457,364
1845,-0.16,-0.97,0.18,0.61,-3.97,-2.01,416,251,207,453,363
1846,-0.16,-0.97,0.18,0.24,-3.85,-3.36,416,250,208,456,363
1847,-0.15,-0.96,0.18,2.62,-3.48,-3.72,421,253,206,449,366
1848,-0.15,-0.97,0.21,0.92,-2.44,-2.69,415,254,205,453,363
1849,-0.15,-0.96,0.19,-0.61,-2.2,-3.23,456,255,208,453,360
1850,-0.17,-0.97,0.2,-0.43,-3.66,-2.2,415,251,208,453,363
1851,-0.17,-0.96,0.19,-1.16,-2.2,-2.5,418,252,205,452,364
1852,-0.16,-0.96,0.19,-0.24,-1.4,-2.69,419,254,203,449,359
1853,-0.17,-0.96,0.19,-0.55,-2.69,-2.93,420,252,205,453,363
1854,-0.16,-0.96,0.19,0.73,-3.3,-3.85,416,251,218,449,365
1855,-0.16,-0.97,0.2,0.12,-3.72,-2.69,416,251,209,448,361
1856,-0.17,-0.97,0.2,0.49,-4.39,-3.48,418,249,208,450,362
1857,-0.16,-0.97,0.2,-0.06,-1.77,-2.75,418,249,207,453,365
1858,-0.14,-0.94,0.18,-1.28,-4.27,-2.56,419,253,207,457,359
1859,-0.15,-0.95,0.19,-3.48,-3.48,-2.5,413,253,206,454,363
1860,-0.16,-0.97,0.19,1.77,-2.75,-2.26,412,254,206,457,366
1861,-0.17,-0.97,0.18,0.79,-1.71,-1.83,418,253,209,452,364
1862,-0.16,-0.96,0.17,1.53,-4.15,-3.36,418,253,210,451,366
1863,-0.15,-0.96,0.18,1.59,-4.27,-3.3,416,254,206,453,361
1864,-0.15,-0.97,0.18,1.46,-3.11,-3.23,414,251,207,453,363
1865,-0.16,-0.97,0.2,-0.67,-2.2,-2.75,416,252,208,456,365
1866,-0.16,-0.97,0.18,0.79,-1.89,-1.71,422,252,207,457,365
1867,-0.17,-0.97,0.18,0.31,-2.62,-2.44,415,255,206,469,362
1868,-0.16,-0.96,0.17,0.12,-2.87,-2.75,412,252,209,452,363
1869,-0.16,-0.97,0.17,0.79,-3.97,-2.2,416,251,206,452,364
1870,-0.16,-0.97,0.18,0.85,-3.23,-3.97,414,255,206,453,365
1871,-0.15,-0.97,0.19,2.14,-3.42,-2.56,420,252,206,452,361
1872,-0.15,-0.98,0.19,2.26,-3.78,-2.44,409,248,206,452,367
1873,-0.15,-0.97,0.19,0.61,-2.32,-2.5,453,254,207,456,360
1874,-0.16,-0.96,0.19,0.49,-2.56,-2.44,416,253,209,452,364
1875,-0.16,-0.97,0.18,-0.98,-2.62,-2.2,416,254,205,451,365
1876,-0.16,-0.97,0.18,0.31,-2.01,-2.69,414,251,205,453,360
1877,-0.16,-0.97,0.17,0.24,-2.32,-2.5,418,253,206,455,365
1878,-0.17,-0.97,0.17,0.0,-2.69,-2.87,417,254,207,448,363
1879,-0.16,-0.97,0.18,1.71,-4.33,-2.93,420,251,209,456,366
1880,-0.15,-0.97,0.18,0.79,-3.78,-2.75,416,251,214,449,364
1881,-0.16,-0.97,0.19,1.22,-3.72,-2.75,413,252,205,456,364
1882,-0.15,-0.97,0.19,-0.31,-1.89,-2.81,418,250,206,451,362
1883,-0.15,-0.97,0.18,0.0,-2.56,-2.26,416,249,206,455,359
1884,-0.17,-0.96,0.19,-0.24,-1.77,-2.44,418,251,208,454,372
1885,-0.15,-0.97,0.18,2.01,-2.26,-3.23,417,250,206,456,363
1886,-0.16,-0.97,0.17,-0.24,-2.81,-2.5,416,249,208,453,365
1887,-0.16,-0.96,0.17,-1.1,-2.5,-2.75,416,251,204,448,366
1888,-0.17,-0.97,0.17,2.81,-3.78,-2.56,418,255,206,450,362
1889,-0.15,-0.97,0.17,1.16,-3.6,-3.42,415,252,209,453,363
1890,-0.15,-0.97,0.19,0.85,-3.17,-2.99,417,253,212,448,364
1891,-0.16,-0.97,0.18,0.98,-2.87,-2.75,424,255,206,453,361
1892,-0.16,-0.96,0.18,-1.16,-2.44,-2.08,418,254,206,449,360
1893,-0.17,-0.99,0.17,-0.67,-2.32,-1.34,416,251,205,450,361
1894,-0.16,-0.96,0.18,-0.37,-2.5,-3.17,416,255,208,453,364
1895,-0.17,-0.97,0.18,0.0,-2.75,-2.56,418,251,206,452,364
1896,-0.16,-0.97,0.17,0.73,-3.72,-2.75,417,252,208,451,364
1897,-0.16,-0.96,0.18,1.04,-3.85,-3.36,416,251,210,451,361
1898,-0.16,-0.98,0.18,1.16,-2.81,-2.81,416,253,209,446,364
1899,-0.14,-0.97,0.18,0.12,-3.11,-2.69,419,252,208,453,364
1900,-0.15,-0.96,0.18,-1.4,-2.2,-2.75,415,254,207,453,371
1901,-0.16,-0.97,0.18,1.1,-3.11,-2.38,417,251,209,454,364
1902,-0.16,-0.97,0.18,-0.06,-3.42,-2.32,414,252,209,451,363
1903,-0.16,-0.97,0.17,0.12,-3.23,-2.14,409,254,209,455,364
1904,-0.16,-0.96,0.16,0.49,-2.93,-2.5,417,254,207,452,364
1905,-0.16,-0.96,0.17,0.67,-3.05,-3.05,416,252,210,456,364
1906,-0.15,-0.98,0.18,0.92,-2.99,-3.3,415,254,209,453,364
1907,-0.14,-0.97,0.18,0.85,-1.71,-3.48,416,254,207,453,363
1908,-0.15,-0.99,0.15,1.28,-1.89,-3.3,416,252,206,446,362
1909,-0.16,-0.96,0.17,-0.31,-3.17,-1.53,416,253,207,451,368
1910,-0.15,-0.97,0.17,0.55,-3.42,-2.14,413,253,207,453,361
1911,-0.16,-0.97,0.17,0.55,-3.17,-2.32,416,250,211,456,363
1912,-0.15,-0.97,0.16,0.61,-2.26,-2.08,418,254,204,455,364
1913,-0.16,-0.97,0.16,1.46,-3.6,-2.93,417,255,207,453,367
1914,-0.16,-0.97,0.17,0.79,-3.36,-3.23,422,254,207,456,360
1915,-0.15,-0.97,0.17,0.61,-3.36,-2.99,415,255,210,450,364
1916,-0.15,-0.97,0.18,0.24,-2.2,-2.38,417,254,209,449,364
1917,-0.15,-0.97,0.16,-0.24,-2.44,-2.81,420,251,206,447,364
1918,-0.16,-0.96,0.16,-0.12,-3.11,-2.81,416,252,207,452,355
1919,-0.16,-0.98,0.16,-0.24,-3.05,-1.83,416,258,206,455,365
1920,-0.16,-0.97,0.16,0.98,-3.05,-2.32,416,258,208,452,365
1921,-0.16,-0.96,0.16,0.55,-2.87,-2.62,416,252,209,452,363
1922,-0.16,-0.97,0.17,0.67,-2.08,-1.95,416,255,207,455,364
1923,-0.15,-0.97,0.18,0.06,-3.54,-3.23,416,253,207,451,364
1924,-0.15,-0.97,0.18,0.61,-2.38,-3.11,412,252,208,454,362
1925,-0.15,-0.98,0.17,0.73,-2.99,-2.5,419,255,209,449,362
1926,-0.15,-0.97,0.18,-0.49,-2.69,-2.44,417,251,210,453,364
1927,-0.16,-0.99,0.17,1.1,-3.11,-2.26,415,257,208,456,363
1928,-0.15,-0.96,0.18,0.67,-4.15,-2.01,418,251,207,452,364
1929,-0.16,-0.96,0.17,0.85,-2.87,-2.08,415,253,203,452,363
1930,-0.15,-0.99,0.15,-1.04,-2.32,-2.93,415,255,206,456,363
1931,-0.14,-0.97,0.19,0.49,-2.14,-2.99,415,251,210,453,366
1932,-0.16,-0.96,0.18,-0.49,-2.44,-2.62,417,253,209,448,370
1933,-0.16,-0.97,0.17,-2.32,-2.44,-1.71,414,255,204,454,363
1934,-0.16,-0.97,0.17,-2.01,-0.18,-1.95,408,260,204,453,363
1935,-0.17,-0.98,0.15,-0.43,-2.87,-2.56,428,256,209,455,365
1936,-0.17,-0.97,0.14,0.12,-3.11,-2.75,415,253,206,449,360
1937,-0.15,-0.97,0.14,0.67,-3.6,-3.23,416,257,209,450,363
1938,-0.15,-0.97,0.16,-0.18,-2.62,-3.36,417,256,208,455,361
1939,-0.12,-1.0,0.19,5.37,-0.73,-0.79,413,254,206,452,363
1940,-0.14,-0.97,0.18,-1.95,-2.62,-2.69,415,257,209,455,367
1941,-0.15,-0.96,0.17,-0.73,-2.75,-4.21,415,254,209,446,364
1942,-0.17,-0.97,0.18,1.04,-3.36,-2.26,416,254,208,453,363
1943,-0.15,-0.97,0.18,4.7,-4.15,-2.2,416,257,207,446,361
1944,-0.12,-0.97,0.26,6.96,-2.56,-0.06,417,255,206,450,363
1945,-0.14,-0.96,0.24,0.31,-1.95,-2.14,417,254,207,463,363
1946,-0.17,-0.97,0.25,0.67,-2.5,-1.65,416,257,208,456,361
1947,-0.13,-0.98,0.23,-5.55,-2.69,-5.07,418,255,204,453,361
1948,-0.15,-0.95,0.19,-0.12,-3.42,-1.46,434,255,208,456,359
1949,-0.15,-0.97,0.23,-0.98,-4.09,-3.11,418,256,205,449,364
1950,-0.14,-0.97,0.22,0.37,-4.64,-4.09,417,256,207,453,364
1951,-0.15,-0.97,0.19,-5.43,-6.1,-0.12,417,255,208,453,365
1952,-0.15,-0.97,0.21,2.08,-2.32,-3.11,421,254,209,448,363
1953,-0.16,-0.97,0.2,0.31,-4.21,-2.81,415,257,203,458,364
1954,-0.13,-0.97,0.17,-0.06,-3.78,-2.93,417,259,204,457,359
1955,-0.13,-0.96,0.18,-0.49,-3.05,-1.22,423,259,205,453,360
1956,-0.15,-0.97,0.17,-1.65,-2.5,-2.56,414,259,207,458,363
1957,-0.15,-0.97,0.16,-1.28,-3.3,-2.38,414,257,205,450,361
1958,-0.17,-0.97,0.15,0.61,-3.11,-2.75,411,254,208,456,363
1959,-0.16,-0.97,0.16,0.73,-3.05,-2.5,414,259,207,453,359
1960,-0.15,-0.97,0.15,0.49,-2.75,-3.11,417,255,204,453,360
1961,-0.15,-0.97,0.16,1.65,-3.6,-2.81,417,258,210,454,363
1962,-0.15,-0.98,0.17,0.55,-3.17,-4.03,414,255,206,457,363
1963,-0.15,-0.97,0.18,-0.24,-1.95,-2.32,413,253,209,453,365
1964,-0.15,-0.96,0.17,0.18,-2.32,-1.71,415,256,207,456,363
1965,-0.16,-0.96,0.17,-0.18,-2.32,-2.56,416,255,206,455,363
1966,-0.16,-0.98,0.17,-0.06,-2.81,-2.5,414,258,207,453,363
1967,-0.17,-0.96,0.17,-0.92,-1.71,-2.62,414,259,205,453,363
1968,-0.15,-0.97,0.15,-1.22,-4.58,-1.04,415,258,208,453,363
1969,-0.16,-0.97,0.15,0.0,-3.36,-2.44,417,257,207,449,364
1970,-0.15,-0.97,0.17,2.81,-3.91,-3.05,417,258,207,453,361
1971,-0.15,-0.97,0.17,0.43,-3.48,-3.97,412,253,208,454,356
1972,-0.14,-0.98,0.17,-1.28,-2.26,-2.14,416,254,206,457,366
1973,-0.15,-0.97,0.16,15.56,-3.23,-2.38,413,257,208,457,366
1974,-0.15,-0.97,0.16,-1.34,-1.46,-3.36,414,254,210,457,362
1975,-0.16,-0.97,0.16,-0.12,-1.34,-2.69,424,256,208,465,363
1976,-0.14,-0.97,0.15,-0.73,-2.08,-2.69,412,260,204,454,363
1977,-0.17,-0.97,0.15,-0.18,-1.65,-2.69,413,258,209,454,365
1978,-0.16,-0.97,0.13,1.46,-3.72,-2.69,412,255,210,453,364
1979,-0.15,-0.97,0.15,1.65,-3.48,-3.11,415,256,209,449,361
1980,-0.14,-0.97,0.17,0.55,-3.48,-2.75,410,256,206,452,364
1981,-0.14,-0.97,0.16,-0.31,-2.08,-2.01,415,255,209,456,365
1982,-0.15,-0.97,0.15,0.06,-2.69,-2.14,414,255,207,449,363
1983,-0.15,-0.97,0.16,-2.62,-3.3,-2.01,412,259,208,454,362
1984,-0.15,-0.97,0.14,-0.18,-3.85,-2.38,412,257,209,456,363
1985,-0.15,-0.97,0.15,0.37,-3.36,-3.11,413,259,210,458,363
1986,-0.15,-0.97,0.15,2.26,-1.71,-5.07,413,257,207,454,363
1987,-0.15,-0.97,0.16,1.04,-4.76,-2.99,411,257,206,454,364
1988,-0.15,-0.97,0.17,-0.12,-2.38,-2.44,414,257,206,458,363
1989,-0.14,-0.97,0.18,0.24,-2.87,-1.77,414,259,210,454,366
1990,-0.16,-0.97,0.17,0.18,-2.5,-1.95,413,258,210,457,365
1991,-0.15,-0.97,0.17,-0.37,-2.93,-2.56,416,256,209,456,365
1992,-0.16,-0.97,0.16,-0.43,-2.56,-2.81,414,260,210,455,366
1993,-0.16,-0.97,0.16,0.55,-2.93,-2.69,413,259,207,453,362
1994,-0.16,-0.97,0.17,0.67,-2.99,-3.3,413,256,205,457,364
1995,-0.15,-0.97,0.18,1.83,-4.03,-2.93,414,256,210,458,363
1996,-0.15,-0.97,0.18,0.92,-2.5,-1.71,414,258,205,452,364
1997,-0.15,-0.97,0.17,0.43,-2.62,-1.77,410,256,209,451,365
1998,-0.14,-0.97,0.16,-0.55,-2.56,-2.62,410,256,203,454,361
1999,-0.15,-0.97,0.15,-0.31,-3.17,-2.08,416,260,207,458,375
2000,-0.15,-0.96,0.14,0.0,-2.62,-3.36,413,257,207,453,362
2001,-0.16,-0.97,0.16,0.31,-3.3,-2.99,415,259,211,461,364
2002,-0.16,-0.97,0.18,1.4,-3.54,-2.38,414,255,211,457,362
2003,-0.15,-0.97,0.18,0.85,-2.93,-3.48,413,259,209,465,365
2004,-0.15,-0.97,0.17,0.73,-3.17,-2.26,413,260,210,453,366
2005,-0.16,-0.97,0.16,0.18,-2.87,-1.59,421,254,207,453,360
2006,-0.16,-0.97,0.16,0.73,-3.48,-2.14,414,258,210,449,366
2007,-0.17,-0.97,0.16,0.06,-3.05,-1.89,414,256,211,451,363
2008,-0.16,-0.97,0.15,0.37,-2.69,-2.44,415,255,210,450,366
2009,-0.16,-0.97,0.16,0.61,-3.23,-2.5,410,257,210,452,365
2010,-0.16,-0.97,0.16,0.92,-3.36,-2.69,415,259,207,450,365
2011,-0.16,-0.97,0.17,1.04,-3.3,-3.42,412,255,210,449,365
2012,-0.15,-0.97,0.17,-0.49,-3.42,-2.56,413,257,212,452,365
2013,-0.16,-0.97,0.18,0.31,-2.26,-2.62,413,259,206,454,366
2014,-0.15,-0.97,0.16,2.26,-2.56,-2.87,413,259,211,452,367
2015,-0.16,-0.97,0.17,1.4,-2.81,-2.26,413,260,210,450,362
2016,-0.15,-0.97,0.18,2.87,-4.09,-1.1,411,258,207,454,362
2017,-0.17,-0.97,0.17,1.77,-2.44,-1.53,412,257,205,458,364
2018,-0.15,-0.98,0.15,-0.18,-2.62,-4.21,413,255,208,455,364
2019,-0.15,-0.98,0.18,-0.79,-2.62,-3.97,417,257,210,455,365
2020,-0.16,-0.97,0.19,-1.53,-1.1,-3.23,414,259,210,454,368
2021,-0.17,-0.96,0.16,-0.18,-3.11,-2.5,436,257,207,457,360
2022,-0.16,-0.98,0.16,0.92,-3.78,-2.01,412,257,205,455,366
2023,-0.14,-0.96,0.15,1.1,-2.01,-2.99,413,260,206,455,365
2024,-0.14,-0.97,0.16,1.95,-2.62,-2.56,413,253,206,456,366
2025,-0.17,-0.97,0.19,1.83,-2.87,-1.65,414,260,210,456,363
2026,-0.16,-0.97,0.16,0.31,-2.56,-2.26,425,257,209,455,361
2027,-0.16,-0.97,0.17,0.98,-2.5,-2.81,412,259,210,450,360
2028,-0.16,-0.97,0.18,1.46,-4.64,-2.32,411,257,211,453,366
2029,-0.16,-0.97,0.17,2.44,-4.09,-2.93,414,258,210,458,364
2030,-0.16,-0.97,0.17,1.16,-3.3,-2.62,408,258,206,460,366
2031,-0.15,-0.97,0.17,-0.43,-1.83,-2.62,412,257,211,454,364
2032,-0.14,-0.97,0.15,-4.88,-2.5,-2.62,412,261,205,454,362
2033,-0.17,-0.97,0.17,-1.22,-3.17,-1.34,410,260,209,454,365
2034,-0.18,-0.97,0.15,1.71,-2.38,-3.11,413,257,212,453,365
2035,-0.15,-0.97,0.15,-2.69,-2.75,-2.38,410,257,209,454,363
2036,-0.15,-0.97,0.14,1.16,-2.56,-2.01,413,260,207,459,365
2037,-0.16,-0.97,0.16,0.92,-3.11,-2.38,412,256,207,458,360
2038,-0.16,-0.97,0.17,1.16,-3.42,-3.3,409,257,206,449,361
2039,-0.15,-0.96,0.16,0.49,-1.71,-3.17,412,259,207,453,364
2040,-0.16,-0.97,0.16,2.69,-2.32,-1.95,408,259,207,453,366
2041,-0.18,-0.98,0.21,2.2,8.24,-4.82,412,260,210,454,363
2042,-0.12,-0.98,0.14,-8.48,-1.4,-3.17,411,258,209,458,362
2043,-0.19,-0.96,0.12,6.35,1.71,-4.82,413,261,207,446,363
2044,-0.14,-0.98,0.14,3.72,0.37,-3.72,416,257,204,456,361
2045,-0.15,-0.97,0.14,-2.38,-4.46,-2.32,415,258,210,457,363
2046,-0.15,-0.98,0.12,0.67,-3.78,-3.54,413,262,207,457,363
2047,-0.14,-0.98,0.12,0.49,-3.05,-1.83,413,257,206,456,361
2048,-0.15,-0.98,0.13,-0.61,-3.3,-2.62,415,260,209,457,370
2049,-0.15,-0.98,0.12,1.34,-3.17,-2.38,413,264,211,457,362
2050,-0.13,-0.99,0.1,-0.67,-3.23,-3.17,413,260,211,454,361
2051,-0.14,-0.97,0.11,-0.18,-3.91,-1.89,415,259,205,451,361
2052,-0.16,-0.97,0.13,0.98,-2.32,-2.08,414,260,207,458,364
2053,-0.15,-0.99,0.12,1.1,-2.81,-1.46,411,258,208,454,363
2054,-0.15,-0.99,0.12,0.79,-3.11,-3.3,413,259,209,458,362
2055,-0.15,-0.98,0.13,1.16,-2.44,-2.93,412,258,208,457,364
