,aX,aY,aZ,gX,gY,gZ,little,ring,middle,index,thumb
0,-0.07,-0.99,0.15,-1.59,-5.55,-4.09,164,246,420,447,338
1,-0.07,-0.98,0.12,1.1,-8.42,-4.33,173,251,419,446,335
2,-0.07,-0.98,0.11,-3.17,-1.22,-3.17,171,248,418,439,337
3,-0.07,-0.98,0.22,13.85,9.28,-2.14,177,252,420,448,330
4,-0.1,-0.99,0.16,-0.61,17.58,2.38,170,253,419,445,340
5,-0.1,-0.98,0.14,-0.06,-7.57,-3.48,174,255,418,447,337
6,-0.11,-0.99,0.16,3.36,-5.0,-2.32,170,255,411,442,339
7,-0.09,-0.99,0.15,-1.46,-8.54,-3.97,173,257,415,449,340
8,-0.09,-0.99,0.17,0.06,-4.21,-0.73,174,254,415,447,336
9,-0.08,-0.98,0.16,1.65,-3.78,-1.46,177,248,414,452,336
10,-0.07,-0.97,0.23,10.19,-4.09,-3.97,176,260,419,445,337
11,-0.07,-0.98,0.22,1.59,-2.87,-1.53,174,247,420,466,336
12,-0.08,-0.97,0.22,-0.67,-3.11,-3.11,175,254,423,449,339
13,-0.09,-0.97,0.21,-1.46,-0.55,-2.01,183,261,418,447,336
14,-0.06,-0.97,0.23,1.95,-7.57,-2.2,183,257,418,452,339
15,-0.1,-0.98,0.21,-2.87,-6.84,-2.14,168,258,420,452,340
16,-0.07,-0.96,0.22,29.97,-7.75,-5.86,212,258,415,449,341
17,-0.11,-0.97,0.27,-5.49,-5.0,-3.36,177,258,422,450,339
18,-0.05,-0.97,0.22,4.76,-7.02,-1.34,176,260,419,447,337
19,-0.08,-0.96,0.24,-1.46,-2.14,-3.91,179,260,418,450,338
20,-0.07,-0.96,0.24,2.44,-0.92,-3.17,178,260,411,448,341
21,-0.07,-0.97,0.26,0.43,-1.53,-3.78,171,254,416,441,338
22,-0.06,-0.96,0.25,-0.18,-2.56,-2.38,181,262,413,450,339
23,-0.06,-0.96,0.25,1.46,-3.36,-2.56,177,256,409,451,338
24,-0.07,-0.96,0.26,-1.28,-1.28,-3.36,177,257,413,449,340
25,-0.08,-0.96,0.25,0.0,-2.62,-3.54,179,261,413,455,339
26,-0.06,-0.96,0.26,0.12,-2.08,-3.97,178,251,415,455,342
27,-0.05,-0.96,0.25,-0.31,-3.91,-2.69,172,258,416,452,339
28,-0.05,-0.97,0.24,0.55,-4.88,-2.26,196,262,415,450,342
29,-0.05,-0.97,0.25,-1.1,-0.43,-2.87,176,252,409,449,338
30,-0.06,-0.97,0.23,0.24,-4.39,-1.59,171,259,413,464,338
31,-0.04,-0.96,0.23,-0.98,-1.53,-3.54,179,262,413,451,342
32,-0.06,-0.97,0.25,0.79,-3.6,-2.5,177,258,413,448,338
33,-0.05,-0.96,0.32,-2.62,1.16,-8.91,184,260,415,450,341
34,-0.05,-0.97,0.21,3.36,-6.53,0.43,179,262,411,451,338
35,-0.04,-0.97,0.24,5.19,-6.35,-2.81,180,260,412,444,337
36,-0.01,-0.97,0.23,2.93,-4.27,-2.01,181,254,413,448,341
37,-0.02,-0.97,0.27,5.74,-3.11,-2.56,180,262,408,453,339
38,-0.0,-0.96,0.28,5.49,-3.78,0.24,185,259,410,457,335
39,-0.04,-0.97,0.28,-0.79,0.12,-3.17,174,262,404,450,340
40,-0.07,-0.97,0.25,0.55,-2.56,-3.6,173,262,412,450,340
41,-0.05,-0.96,0.24,0.92,-2.38,-8.0,176,259,411,443,339
42,-0.04,-1.0,0.27,1.4,1.95,-1.28,181,261,413,444,341
43,-0.06,-0.96,0.22,1.53,-0.61,-2.32,181,264,421,452,338
44,-0.06,-0.94,0.23,3.11,0.61,-3.05,178,263,419,454,338
45,-0.09,-0.97,0.28,-1.34,7.32,3.05,180,262,418,448,345
46,-0.05,-0.96,0.25,-3.72,-10.13,-2.38,179,264,416,449,346
47,-0.09,-0.98,0.18,-9.46,-3.11,-7.51,177,264,417,451,348
48,-0.06,-0.98,0.18,-2.32,-6.71,-1.28,184,258,414,452,342
49,-0.05,-0.98,0.15,-2.75,-0.73,-1.65,185,261,412,452,346
50,-0.13,-0.99,0.15,4.33,-18.25,6.71,183,260,414,451,348
51,0.01,-0.97,0.19,-5.37,2.38,-3.36,187,265,417,451,363
52,-0.02,-1.0,0.15,-24.05,-5.13,-13.61,212,275,385,445,371
53,0.03,-0.98,0.03,-5.62,5.98,-4.94,170,239,246,427,329
54,0.03,-0.98,0.17,17.88,6.16,7.2,166,255,392,443,323
55,-0.0,-0.95,0.24,4.76,-4.58,0.37,171,256,407,439,326
56,-0.05,-0.94,0.26,3.85,7.2,3.42,217,257,406,446,323
57,-0.1,-0.96,0.28,-3.6,-14.22,5.13,173,256,414,438,329
58,-0.03,-0.96,0.23,-9.64,2.38,-12.88,179,254,413,448,334
59,-0.09,-0.97,0.26,0.31,2.62,-14.34,182,251,411,452,332
60,-0.05,-0.98,0.16,4.7,-6.84,0.85,179,256,412,445,332
61,-0.03,-0.98,0.18,-0.06,-10.93,-3.11,177,260,410,446,332
62,-0.04,-0.98,0.16,-8.06,-4.09,-2.69,177,257,412,452,333
63,-0.08,-1.01,0.11,-6.96,-0.43,-4.52,178,261,414,447,333
64,-0.03,-0.99,0.14,4.88,0.67,-7.2,176,258,413,453,333
65,-0.07,-0.97,0.22,11.05,-3.36,0.55,179,260,413,445,335
66,-0.1,-0.98,0.27,-4.15,0.24,0.79,178,257,415,452,339
67,-0.05,-0.97,0.2,2.38,0.73,-8.97,177,252,418,450,333
68,-0.06,-0.98,0.2,-5.13,0.12,0.55,179,259,412,453,337
69,-0.01,-0.95,0.29,0.24,-0.24,-13.61,177,256,412,450,338
70,-0.09,-0.97,0.29,8.24,-10.62,2.93,180,259,413,446,335
71,0.01,-0.98,0.16,-0.43,-7.39,-7.87,179,258,410,451,335
72,0.03,-1.0,0.16,0.55,-4.15,-4.21,180,257,410,454,337
73,0.02,-0.98,0.13,2.93,-2.01,-1.16,181,261,404,452,337
74,0.03,-0.98,0.15,10.68,-1.04,-1.83,180,259,408,449,336
75,0.02,-0.97,0.22,5.0,2.69,-6.59,181,264,414,457,338
76,0.01,-0.96,0.19,-3.78,1.59,-2.5,183,257,414,450,341
77,-0.03,-0.98,0.27,-10.99,9.22,-1.34,180,258,419,454,334
78,-0.05,-0.98,0.22,-5.98,8.91,4.39,201,259,419,456,340
79,0.01,-0.97,0.18,6.71,-3.05,-4.33,184,257,420,454,336
80,-0.02,-0.97,0.2,-0.06,-4.39,-0.73,186,257,421,455,339
81,-0.04,-0.98,0.23,5.25,-7.63,0.43,187,259,423,452,338
82,-0.06,-0.97,0.26,-0.06,-10.8,0.0,183,259,423,455,332
83,-0.08,-0.97,0.29,0.0,-7.32,-2.75,180,262,418,456,329
84,-0.04,-0.96,0.27,-1.16,-17.27,-7.08,182,259,420,450,340
85,-0.02,-0.97,0.26,1.59,-7.26,-0.92,184,261,417,449,341
86,-0.02,-0.95,0.3,1.4,-4.21,-5.07,183,256,420,453,346
87,-0.0,-0.96,0.25,4.46,-3.97,-1.22,181,261,420,445,341
88,-0.02,-0.96,0.3,-1.46,-1.04,-2.81,211,259,418,449,342
89,-0.01,-0.96,0.27,0.12,-3.36,-4.76,183,261,420,457,337
90,-0.02,-0.96,0.31,1.77,-3.85,-2.81,185,261,419,448,347
91,-0.02,-0.96,0.28,-0.98,-3.72,-2.81,175,265,415,455,335
92,-0.0,-0.95,0.27,1.28,-4.03,-2.62,185,261,418,445,340
93,-0.02,-0.95,0.28,2.5,-1.65,-2.32,187,260,423,454,341
94,-0.02,-0.94,0.28,2.99,-3.97,-2.62,187,260,421,459,342
95,-0.03,-0.95,0.3,1.04,-3.17,-2.5,182,257,414,456,339
96,-0.03,-0.96,0.31,-0.31,-3.6,-2.08,185,259,418,457,339
97,-0.02,-0.95,0.3,3.72,-7.51,-3.3,182,257,414,452,344
98,-0.02,-0.95,0.31,1.34,-3.66,-2.32,184,266,420,456,342
99,-0.01,-0.96,0.3,1.1,-2.5,-2.2,184,268,419,455,340
100,-0.01,-0.95,0.3,-1.16,-2.81,-2.62,175,260,419,457,342
101,-0.01,-0.95,0.3,-0.49,-2.01,-3.17,184,262,418,454,345
102,-0.02,-0.96,0.3,-0.37,-2.69,-2.62,181,262,417,455,341
103,0.0,-0.95,0.3,-0.55,-1.53,-3.72,222,258,420,454,340
104,-0.0,-0.95,0.29,-1.53,-1.34,-4.33,182,262,420,460,343
105,-0.02,-0.96,0.31,0.85,-3.23,-2.81,182,262,416,457,344
106,-0.01,-0.95,0.31,0.06,-2.69,-2.81,184,260,412,454,343
107,-0.02,-0.95,0.32,2.2,-3.3,-2.44,188,262,415,459,341
108,-0.02,-0.94,0.3,5.25,-2.08,-1.65,181,263,419,459,342
109,-0.02,-0.94,0.31,2.69,-2.32,-1.46,182,261,422,459,336
110,-0.03,-0.94,0.32,0.73,-2.5,-2.38,189,263,417,464,341
111,-0.03,-0.94,0.3,-2.01,2.44,-1.4,182,265,417,456,343
112,-0.05,-0.94,0.3,0.31,-3.72,-3.42,183,257,415,450,341
113,-0.04,-0.94,0.32,0.73,-2.99,-2.44,173,259,418,457,337
114,-0.06,-0.94,0.32,0.79,-2.87,-2.08,182,262,418,456,340
115,-0.05,-0.95,0.3,-1.65,-1.65,-1.71,180,257,412,456,341
116,-0.06,-0.95,0.31,-0.18,-2.62,-2.69,186,260,419,459,341
117,-0.05,-0.95,0.31,0.79,-3.48,-2.26,181,262,420,460,339
118,-0.06,-0.95,0.31,0.55,-3.05,-2.62,183,264,414,458,340
119,-0.06,-0.95,0.31,0.73,-3.48,-2.69,185,264,413,453,337
120,-0.05,-0.95,0.31,0.0,-2.26,-2.56,181,269,417,458,341
121,-0.05,-0.94,0.3,0.79,-3.54,-2.2,186,258,416,456,337
122,-0.06,-0.94,0.31,0.37,-3.42,-2.99,185,257,417,457,339
123,-0.06,-0.95,0.31,0.73,-2.99,-2.69,186,261,417,453,342
124,-0.06,-0.95,0.33,-2.69,-6.29,-2.38,181,259,415,455,340
125,-0.05,-0.96,0.31,-0.43,-5.62,-1.65,184,262,419,451,340
126,-0.05,-0.95,0.29,-0.67,-0.92,-3.36,186,263,417,455,344
127,-0.05,-0.95,0.3,1.4,-4.52,-3.11,179,269,416,456,347
128,-0.06,-0.95,0.3,0.73,-2.62,-1.4,187,261,415,453,338
129,-0.07,-0.95,0.31,2.01,-2.87,-2.08,187,259,415,456,350
130,-0.05,-0.95,0.3,-0.12,-2.14,-2.08,188,263,419,457,346
131,-0.06,-0.95,0.3,1.04,-3.54,-2.08,181,264,418,452,343
132,-0.06,-0.95,0.31,1.34,-2.32,-2.26,182,261,412,458,342
133,-0.06,-0.96,0.3,0.18,-3.97,-1.71,187,256,411,462,339
134,-0.11,-0.95,0.33,0.61,-3.48,-2.2,186,261,417,451,349
135,-0.11,-0.94,0.36,1.1,-0.98,-3.3,182,260,415,462,344
136,-0.09,-0.93,0.35,0.18,-2.26,-2.87,187,264,417,461,346
137,-0.1,-0.94,0.35,1.89,-2.62,-2.5,206,263,411,456,340
138,-0.09,-0.94,0.34,0.12,-3.23,-3.17,193,259,415,456,343
139,-0.09,-0.94,0.34,0.18,-2.14,-3.11,184,258,415,458,341
140,-0.09,-0.94,0.34,1.53,-3.05,-2.26,186,258,415,454,340
141,-0.08,-0.93,0.34,2.08,-2.69,-1.89,183,267,414,458,335
142,-0.1,-0.94,0.34,-0.43,-2.14,-3.97,183,263,416,454,345
143,-0.08,-0.94,0.34,0.0,-3.3,-2.81,188,273,417,458,339
144,-0.09,-0.94,0.35,0.12,-2.32,-2.56,187,265,415,454,343
145,-0.08,-0.93,0.34,0.67,-3.36,-2.87,185,263,413,460,340
146,-0.09,-0.94,0.34,-0.31,-2.75,-2.44,180,265,414,461,340
147,-0.1,-0.94,0.35,-0.18,-2.38,-2.75,188,261,418,458,341
148,-0.08,-0.94,0.34,0.18,-2.56,-2.93,183,265,415,457,334
149,-0.08,-0.94,0.35,0.12,-2.81,-2.38,185,263,417,460,339
150,-0.08,-0.93,0.34,1.4,-3.3,-2.56,188,263,416,456,345
151,-0.1,-0.94,0.34,-0.37,-2.56,-2.99,184,260,414,455,344
152,-0.09,-0.94,0.34,0.61,-2.62,-2.62,186,262,414,456,346
153,-0.08,-0.94,0.34,0.18,-3.23,-2.5,190,261,408,456,340
154,-0.09,-0.94,0.34,0.0,-3.17,-2.32,183,260,413,456,343
155,-0.09,-0.94,0.34,0.31,-3.17,-2.56,184,261,415,458,341
156,-0.09,-0.94,0.34,0.18,-2.56,-2.93,188,266,415,458,344
157,-0.09,-0.94,0.34,-0.24,-3.17,-2.93,186,258,413,456,344
158,-0.09,-0.94,0.32,0.85,-2.01,-2.5,187,259,412,453,347
159,-0.09,-0.94,0.33,0.24,-2.81,-2.87,189,263,413,457,342
160,-0.08,-0.95,0.34,0.67,-3.3,-2.69,182,261,417,474,339
161,-0.08,-0.94,0.33,0.98,-3.78,-2.01,215,258,414,458,343
162,-0.1,-0.93,0.35,1.89,-3.78,-1.22,183,267,411,461,342
163,-0.08,-0.93,0.36,2.99,-4.94,-1.04,184,261,416,461,339
164,-0.08,-0.93,0.35,-2.81,-1.71,-3.72,187,264,412,458,344
165,-0.1,-0.94,0.35,-0.79,-1.89,-3.54,180,254,410,452,342
166,-0.09,-0.94,0.35,-0.61,-2.2,-3.66,186,263,410,459,344
167,-0.1,-0.94,0.34,-0.92,-2.14,-3.23,184,259,414,454,340
168,-0.08,-0.94,0.35,-0.06,-2.32,-2.56,188,258,412,455,341
169,-0.09,-0.94,0.34,-0.24,-3.3,-2.87,208,260,412,463,344
170,-0.09,-0.94,0.34,0.55,-2.81,-2.62,187,264,415,453,344
171,-0.08,-0.93,0.34,1.83,-4.7,-1.34,179,257,413,456,345
172,-0.08,-0.93,0.36,3.91,-3.78,-1.65,186,263,413,456,343
173,-0.07,-0.92,0.34,-2.93,-4.52,-3.05,192,264,414,461,346
174,-0.09,-0.93,0.34,0.98,-2.14,-2.99,184,261,416,458,344
175,-0.08,-0.93,0.34,-0.85,-2.5,-3.36,186,259,420,453,341
176,-0.09,-0.94,0.34,1.04,-3.42,-1.95,185,264,411,460,346
177,-0.08,-0.94,0.34,0.37,-2.69,-3.11,183,262,416,460,341
178,-0.09,-0.94,0.34,0.55,-2.99,-2.2,185,263,415,457,340
179,-0.09,-0.94,0.34,0.0,-2.32,-2.44,191,263,412,458,345
180,-0.08,-0.93,0.33,1.04,-2.93,-2.87,186,260,413,457,343
181,-0.07,-0.94,0.31,-1.16,-3.05,-2.87,188,271,418,457,343
182,-0.07,-0.95,0.31,2.01,-4.88,-2.08,185,262,412,457,344
183,-0.09,-0.95,0.33,1.53,-2.99,-2.38,175,267,414,456,344
184,-0.07,-0.95,0.32,0.06,-3.42,-2.99,184,260,415,457,344
185,-0.05,-0.94,0.29,0.85,-5.86,-2.99,189,264,414,462,345
186,-0.06,-0.94,0.32,1.71,-5.13,-1.22,186,265,412,456,343
187,-0.07,-0.94,0.34,1.1,-3.48,-2.69,188,260,410,457,347
188,-0.03,-0.94,0.32,1.77,-1.28,-4.21,186,262,413,456,343
189,-0.05,-0.95,0.33,1.95,-1.95,-2.56,187,261,414,457,339
190,-0.05,-0.94,0.31,-0.49,-2.81,-2.69,180,266,413,458,345
191,-0.05,-0.94,0.34,0.67,-2.99,-2.5,187,269,409,453,342
192,-0.06,-0.93,0.33,-0.31,-2.99,-2.93,183,274,414,460,346
193,-0.07,-0.95,0.34,-0.55,-1.95,-3.78,189,260,415,455,343
194,-0.06,-0.94,0.33,0.06,-4.58,-3.05,186,267,412,452,346
195,-0.07,-0.95,0.33,-0.12,-2.2,-2.75,187,264,408,452,346
196,-0.07,-0.95,0.34,0.85,-2.93,-2.38,189,253,412,457,339
197,-0.06,-0.95,0.32,-2.2,-2.08,-3.05,184,264,407,463,345
198,-0.05,-0.94,0.31,-0.24,-2.32,-2.5,187,260,409,459,344
199,-0.07,-0.95,0.32,1.16,-2.5,-2.5,187,264,410,456,347
200,-0.07,-0.95,0.32,1.1,-1.53,-2.75,184,265,416,457,341
201,-0.07,-0.95,0.32,1.1,-3.6,-2.08,184,261,411,456,346
202,-0.07,-0.95,0.34,0.61,-3.85,-2.38,179,262,409,456,344
203,-0.07,-0.95,0.32,-0.18,-1.77,-2.93,186,267,409,458,343
204,-0.06,-0.94,0.32,1.34,-3.66,-1.53,190,265,412,458,345
205,-0.06,-0.94,0.34,0.85,-1.53,-2.69,186,266,408,459,343
206,-0.06,-0.94,0.31,-0.61,-3.3,-3.23,185,259,407,456,340
207,-0.06,-0.94,0.33,0.55,-2.99,-2.75,187,263,411,458,349
208,-0.08,-0.95,0.31,-4.88,-2.75,-1.04,186,261,410,458,341
209,-0.07,-0.94,0.34,3.3,-4.09,-1.22,187,263,408,457,345
210,-0.07,-0.95,0.32,0.43,-4.46,-1.59,188,264,406,458,342
211,-0.07,-0.95,0.34,1.71,-15.87,-4.76,188,261,408,458,338
212,-0.06,-0.95,0.32,-0.55,-3.91,-1.77,192,263,405,457,344
213,-0.05,-0.95,0.32,-0.98,-2.69,-2.32,178,262,411,456,338
214,-0.05,-0.95,0.31,2.01,-2.69,-2.32,191,267,403,451,345
215,-0.04,-0.94,0.31,0.18,-2.62,-2.99,189,274,410,456,348
216,-0.05,-0.94,0.32,0.06,-2.81,-3.66,185,264,404,457,346
217,-0.04,-0.95,0.31,0.24,-1.77,-3.23,187,265,408,457,345
218,-0.06,-0.95,0.34,-2.5,-3.17,-2.99,189,267,409,457,345
219,-0.05,-0.95,0.29,0.79,-2.5,-3.05,186,260,413,456,343
220,-0.04,-0.95,0.29,-1.22,-2.08,-2.81,182,268,411,452,343
221,-0.04,-0.96,0.31,-0.06,-3.17,-1.77,188,274,417,460,344
222,-0.04,-0.96,0.27,0.98,-1.53,-2.93,188,265,404,451,346
223,-0.06,-0.95,0.34,3.85,-4.76,-0.37,189,267,411,456,347
224,-0.07,-0.95,0.31,0.24,-2.56,-2.81,185,260,411,455,346
225,-0.03,-0.95,0.29,-2.2,-0.85,-5.31,185,266,408,457,345
226,-0.05,-0.95,0.31,-1.4,-1.83,-3.91,182,264,409,462,338
227,-0.06,-0.96,0.31,1.22,-4.33,-1.71,182,260,407,460,343
228,-0.05,-0.95,0.3,0.31,-2.44,-2.93,187,266,411,458,345
229,-0.06,-0.95,0.3,-0.73,-2.69,-2.75,188,265,408,461,340
230,-0.06,-0.95,0.3,0.06,-2.32,-2.56,192,263,407,457,342
231,-0.05,-0.95,0.3,0.67,-3.78,-2.75,191,262,416,459,347
232,-0.04,-0.96,0.31,1.59,-3.36,-1.65,191,266,412,458,344
233,-0.05,-0.96,0.31,-0.49,-2.32,-2.87,191,262,409,462,339
234,-0.04,-0.94,0.29,0.61,-2.81,-3.11,185,265,410,460,344
235,-0.05,-0.95,0.3,-1.4,-2.69,-2.93,187,267,411,460,345
236,-0.06,-0.95,0.3,1.4,-2.99,-2.75,190,266,409,457,344
237,-0.06,-0.95,0.31,1.04,-3.6,-1.71,188,268,411,462,346
238,-0.05,-0.97,0.3,2.99,-7.51,-3.3,189,265,405,453,346
239,-0.04,-0.95,0.32,1.77,-9.58,-1.59,188,264,409,455,344
240,-0.01,-0.95,0.3,2.87,-6.29,-0.31,189,263,409,452,347
241,-0.02,-0.96,0.25,-5.13,-0.92,-7.08,183,266,405,461,344
242,-0.03,-0.96,0.27,-4.09,-4.27,-2.44,188,258,405,455,337
243,-0.02,-0.96,0.28,-0.55,-1.34,-3.66,190,267,409,455,344
244,-0.01,-0.97,0.26,-2.93,0.49,-4.52,189,264,410,460,349
245,0.0,-0.97,0.2,-4.15,0.12,-2.01,186,267,408,457,346
246,-0.02,-0.98,0.27,6.77,-2.5,0.0,185,266,406,455,352
247,-0.01,-0.96,0.29,4.15,0.61,-2.93,188,264,410,458,348
248,-0.05,-0.96,0.32,-1.59,-5.98,-1.22,185,268,411,452,347
249,-0.06,-0.96,0.33,0.61,-6.23,-2.14,183,257,409,459,345
250,-0.04,-0.96,0.32,-2.32,-5.25,-3.36,184,263,407,461,346
251,-0.03,-0.96,0.34,0.24,-0.85,-2.26,186,263,407,454,343
252,-0.02,-0.97,0.34,1.53,-2.81,-3.72,182,264,407,458,347
253,-0.02,-0.95,0.32,1.22,-2.44,-3.23,189,269,403,456,343
254,-0.03,-0.95,0.32,0.43,-2.62,-2.99,183,267,410,462,343
255,-0.02,-0.95,0.33,0.06,-3.17,-2.69,190,265,405,455,343
256,-0.04,-0.95,0.34,-0.18,-3.72,-2.32,187,266,406,462,343
257,-0.04,-0.95,0.33,0.24,-4.09,-2.81,188,262,405,459,342
258,-0.04,-0.95,0.32,-1.53,-2.87,-2.38,186,266,406,456,344
259,-0.03,-0.94,0.36,6.04,-3.42,-0.31,186,263,404,457,343
260,-0.03,-0.94,0.35,0.98,-1.46,-4.09,186,267,406,452,342
261,-0.04,-0.93,0.37,1.71,-3.3,-0.43,187,268,405,458,344
262,-0.03,-0.93,0.31,1.95,-3.05,-0.61,189,265,409,460,343
263,-0.04,-0.92,0.37,8.06,-8.54,1.71,188,264,404,449,345
264,-0.05,-0.91,0.37,-6.47,-2.32,-5.13,188,267,405,455,343
265,-0.03,-0.92,0.4,-3.36,-2.26,-4.64,182,268,404,457,338
266,-0.03,-0.92,0.38,-1.59,-0.92,-2.26,187,268,406,460,342
267,-0.05,-0.94,0.35,-1.53,-1.59,-1.77,188,266,404,461,342
268,-0.06,-0.93,0.37,0.31,-3.48,-2.69,190,265,420,460,345
269,-0.06,-0.94,0.35,1.4,-3.05,-2.5,190,267,406,456,349
270,-0.05,-0.94,0.34,-2.2,-2.38,-3.23,187,267,406,459,341
271,-0.06,-0.95,0.35,1.28,-2.93,-1.04,189,267,406,458,339
272,-0.04,-0.95,0.33,-1.95,-2.14,-4.46,185,267,410,457,344
273,-0.05,-0.94,0.31,-2.93,-5.25,-2.2,189,264,403,463,346
274,-0.04,-0.94,0.35,1.46,-3.97,-4.03,191,261,404,457,341
275,-0.03,-0.94,0.34,-1.71,-3.91,-3.78,187,271,405,453,344
276,-0.04,-0.96,0.32,0.0,-2.26,-2.26,187,254,401,461,341
277,-0.03,-0.94,0.29,-2.5,-2.44,-3.3,189,261,402,459,345
278,-0.04,-0.95,0.34,-0.98,-2.81,-1.95,186,262,407,457,344
279,-0.04,-0.95,0.3,1.89,-3.23,-0.49,190,264,403,456,346
280,-0.04,-0.95,0.32,-0.24,-5.74,-0.49,186,262,400,459,345
281,-0.06,-0.94,0.35,2.87,-0.79,-1.46,188,266,409,463,345
282,-0.05,-0.93,0.35,2.93,-3.36,-0.67,192,265,407,456,344
283,-0.05,-0.94,0.35,-0.49,-1.71,-2.81,189,271,405,459,346
284,-0.05,-0.94,0.35,-1.16,1.71,-4.76,187,268,406,457,344
285,-0.03,-0.93,0.34,2.75,3.6,-5.8,186,263,402,455,344
286,0.01,-0.94,0.32,0.98,4.76,-9.22,186,263,407,457,349
287,-0.0,-0.94,0.34,-11.47,5.8,-13.0,188,268,406,458,344
288,0.02,-0.95,0.29,-3.3,-5.25,-5.07,189,270,411,458,343
289,0.02,-0.96,0.27,-2.87,-8.42,-1.34,186,264,411,459,345
290,0.01,-0.95,0.28,3.78,-1.89,1.1,192,269,405,457,339
291,-0.0,-0.96,0.3,5.25,-3.3,0.24,188,265,403,458,342
292,-0.02,-0.94,0.32,1.04,-1.46,-1.4,186,265,400,453,347
293,-0.02,-0.95,0.33,5.8,-2.56,-0.92,187,267,404,458,347
294,-0.03,-0.94,0.32,-0.43,-2.62,-2.99,183,266,404,446,345
295,-0.06,-0.95,0.36,2.32,-4.94,-0.92,190,264,399,452,344
296,-0.05,-0.94,0.33,2.44,-3.42,-1.59,188,266,404,460,343
297,-0.05,-0.94,0.34,-0.61,-2.44,-2.87,188,259,403,456,345
298,-0.04,-0.94,0.33,-0.24,-3.17,-2.75,179,267,402,457,346
299,-0.04,-0.95,0.3,-2.26,-2.5,-2.87,188,266,406,457,345
300,-0.04,-0.95,0.31,2.08,-2.87,-1.77,190,267,405,460,344
301,-0.03,-0.94,0.33,1.4,-2.99,-3.97,189,269,398,454,346
302,-0.04,-0.95,0.33,0.73,-2.87,-2.44,193,270,404,461,348
303,-0.04,-0.95,0.33,0.12,-2.5,-2.5,193,266,405,458,343
304,-0.04,-0.95,0.32,-0.79,-2.44,-3.23,194,260,404,455,347
305,-0.05,-0.96,0.32,-0.12,-3.23,-2.44,189,264,401,456,344
306,-0.04,-0.95,0.32,-0.37,-3.66,-2.2,189,267,403,453,344
307,-0.04,-0.95,0.34,1.77,-3.42,-2.44,191,267,407,456,349
308,-0.05,-0.95,0.33,0.0,-2.81,-3.36,189,264,405,455,345
309,-0.04,-0.95,0.34,0.12,-2.62,-2.38,188,264,406,452,343
310,-0.04,-0.95,0.29,0.73,-3.36,-1.77,189,259,403,457,345
311,-0.06,-0.95,0.29,0.24,-4.27,2.75,188,263,405,452,346
312,-0.05,-0.95,0.31,-5.13,-3.48,-4.7,193,265,405,456,346
313,-0.05,-0.96,0.31,-2.08,-1.46,-3.48,186,268,405,460,342
314,-0.02,-0.95,0.3,1.89,-4.94,-0.18,191,262,405,461,345
315,-0.02,-0.94,0.29,1.59,-4.82,-1.59,190,265,398,460,341
316,-0.02,-0.94,0.3,1.71,-4.64,-1.28,188,268,405,463,346
317,-0.05,-0.96,0.32,0.0,-2.32,-2.62,187,268,403,459,346
318,-0.03,-0.95,0.32,-1.22,-2.69,-3.66,192,263,401,455,344
319,-0.03,-0.96,0.29,2.44,-1.22,-3.48,193,268,405,452,343
320,-0.04,-0.95,0.32,4.46,-4.27,0.18,191,268,404,461,344
321,-0.04,-0.96,0.31,1.71,-0.92,-3.48,184,259,402,457,345
322,-0.04,-0.95,0.31,-0.55,-3.05,-2.14,187,264,404,458,344
323,-0.04,-0.95,0.31,4.03,-2.38,-4.52,192,268,401,457,343
324,-0.04,-0.95,0.33,-1.53,-4.03,-1.22,190,271,407,457,345
325,-0.04,-0.94,0.34,0.06,-2.5,-1.1,191,268,402,456,341
326,-0.04,-0.95,0.34,-2.44,-3.36,-3.17,195,265,403,462,345
327,-0.04,-0.94,0.32,2.44,-4.03,-0.92,190,264,403,458,341
328,-0.04,-0.94,0.34,-0.12,-2.62,-3.48,191,268,403,462,346
329,-0.04,-0.94,0.33,0.18,-2.56,-2.44,188,269,404,460,344
330,-0.04,-0.94,0.34,-1.22,-0.67,-4.39,188,266,399,457,340
331,-0.05,-0.95,0.34,0.37,-3.05,-2.62,181,267,402,456,347
332,-0.03,-0.95,0.34,-0.49,-2.62,-2.87,193,267,403,460,346
333,-0.08,-0.9,0.37,0.37,-2.62,-0.37,190,269,405,458,356
334,-0.03,-0.95,0.32,0.67,-2.93,-2.75,201,266,404,454,344
335,-0.05,-0.95,0.32,-3.48,-0.37,-3.85,191,266,406,462,347
336,-0.03,-0.95,0.31,0.37,-2.32,-1.83,203,266,406,459,343
337,-0.04,-0.95,0.32,0.37,-2.99,-2.69,190,266,405,459,346
338,-0.05,-0.95,0.33,1.28,-3.42,-1.95,192,270,403,455,356
339,-0.06,-0.96,0.3,0.12,-2.75,-3.11,198,261,404,456,344
340,-0.05,-0.94,0.31,-1.34,-3.17,-2.87,203,261,403,458,347
341,-0.04,-0.95,0.31,-0.55,-2.2,-2.99,190,267,401,457,346
342,-0.05,-0.96,0.31,-0.06,-1.95,-3.05,194,266,404,459,348
343,-0.05,-0.95,0.31,0.12,-2.2,-2.93,190,267,402,458,346
344,-0.05,-0.96,0.3,-0.49,-2.32,-2.38,189,265,401,458,343
345,-0.05,-0.95,0.31,-1.04,-2.38,-3.54,189,269,402,458,347
346,-0.06,-0.95,0.31,1.28,-2.93,-2.93,191,265,401,457,343
347,-0.05,-0.94,0.33,0.98,-4.64,-1.22,191,266,398,461,345
348,-0.05,-0.94,0.31,0.12,-3.36,-2.5,193,263,397,457,345
349,-0.05,-0.94,0.31,-0.37,-1.34,-3.3,187,267,400,453,344
350,-0.07,-0.95,0.32,-3.48,-2.5,-3.17,186,262,401,455,345
351,-0.05,-0.95,0.3,-3.48,-2.62,-2.93,189,268,402,461,342
352,-0.05,-0.96,0.28,1.34,-2.38,-2.2,187,278,400,456,345
353,-0.05,-0.95,0.3,0.61,-3.11,-2.5,186,269,403,456,344
354,-0.04,-0.95,0.32,4.94,-3.91,-2.2,187,264,401,455,347
355,-0.06,-0.95,0.28,0.37,-3.72,-2.08,190,265,402,458,351
356,-0.05,-0.95,0.3,1.89,-2.2,-1.95,190,266,399,454,347
357,-0.06,-0.95,0.31,-0.31,-1.89,-3.85,195,271,406,457,344
358,-0.05,-0.95,0.3,-0.12,-2.08,-3.48,193,266,404,461,344
359,-0.08,-0.95,0.34,-0.98,-2.93,-3.17,193,265,404,456,343
360,-0.07,-0.94,0.33,0.92,-4.21,-1.83,192,269,407,454,347
361,-0.07,-0.94,0.31,0.49,-4.33,-2.26,198,266,401,458,347
362,-0.07,-0.95,0.34,4.09,-2.14,-1.34,192,266,403,454,347
363,-0.04,-0.94,0.39,1.59,-4.09,-2.14,197,268,403,455,348
364,-0.04,-0.94,0.31,2.14,-4.88,-3.17,194,274,399,461,345
365,-0.08,-0.92,0.41,3.91,-2.01,-5.07,200,269,402,457,344
366,-0.05,-0.94,0.33,-0.92,-8.54,-5.74,193,269,403,454,345
367,-0.04,-0.96,0.38,2.32,1.59,1.65,195,266,402,458,345
368,-0.07,-0.93,0.35,0.55,-0.85,-4.03,195,266,400,455,343
369,-0.07,-0.95,0.36,2.81,-1.83,-1.46,192,265,406,458,345
370,-0.06,-0.94,0.33,-0.12,-2.81,-3.36,195,266,406,455,348
371,-0.05,-0.93,0.33,0.24,-3.3,-3.23,194,271,409,458,340
372,-0.07,-0.93,0.34,0.31,-2.32,-2.38,198,267,400,462,350
373,-0.06,-0.93,0.34,1.53,-1.89,-3.23,197,268,401,457,348
374,-0.07,-0.94,0.35,0.98,-3.6,-2.01,195,266,398,458,344
375,-0.07,-0.93,0.34,-0.98,-2.32,-2.32,195,270,402,453,346
376,-0.06,-0.93,0.34,1.46,-3.17,-2.93,194,268,403,456,348
377,-0.08,-0.94,0.35,-0.92,-2.2,-2.99,192,268,402,462,344
378,-0.07,-0.94,0.33,-2.93,-4.21,-1.83,196,269,403,458,343
379,-0.03,-0.93,0.32,3.3,-4.27,-1.95,192,265,400,458,348
380,-0.05,-0.94,0.32,-0.55,-2.32,-3.36,197,266,401,459,344
381,-0.07,-0.94,0.34,2.01,-3.36,-2.62,194,264,400,458,345
382,-0.07,-0.94,0.36,-0.92,-2.01,-2.62,200,266,404,461,345
383,-0.06,-0.94,0.35,-0.55,-2.5,-3.05,193,266,403,460,348
384,-0.07,-0.93,0.35,0.43,-2.62,-2.44,199,264,399,454,347
385,-0.06,-0.93,0.35,0.12,-2.69,-2.75,196,269,398,457,344
386,-0.07,-0.93,0.35,1.04,-2.81,-2.75,195,266,401,452,350
387,-0.07,-0.94,0.34,-0.12,-3.3,-2.99,192,263,411,452,348
388,-0.07,-0.93,0.34,0.92,-4.88,-2.56,189,268,399,461,339
389,-0.08,-0.94,0.34,-3.42,-1.1,-4.03,196,262,406,458,345
390,-0.08,-0.95,0.33,-1.04,-1.95,-2.69,193,268,408,447,346
391,-0.06,-0.95,0.32,-2.56,-4.52,-3.3,201,267,406,455,343
392,-0.06,-0.96,0.32,0.43,-6.23,-4.46,188,266,408,446,345
393,-0.06,-0.94,0.31,-1.89,-2.62,-2.87,196,265,409,454,345
394,-0.06,-0.94,0.32,-0.92,-2.69,-2.81,198,273,404,454,346
395,-0.05,-0.95,0.31,1.53,-5.07,-3.72,212,266,406,454,343
396,-0.07,-0.95,0.32,-0.12,-2.93,-1.16,195,261,404,451,342
397,-0.07,-0.94,0.3,-0.55,-3.11,-3.11,185,264,407,457,345
398,-0.04,-0.94,0.31,0.37,-3.6,-3.36,194,264,408,453,347
399,-0.07,-0.95,0.34,-1.89,0.67,-1.71,183,265,410,454,346
400,-0.04,-0.93,0.33,0.98,-6.1,-0.73,187,267,410,451,345
401,-0.05,-0.95,0.34,0.0,1.1,0.73,187,268,411,454,340
402,-0.06,-0.94,0.34,-0.43,-3.48,-3.48,197,271,413,457,346
403,-0.07,-0.94,0.33,-0.06,-3.11,-3.05,195,263,407,451,345
404,-0.08,-0.95,0.34,0.85,-2.14,-3.6,192,272,410,449,347
405,-0.08,-0.95,0.29,2.08,-5.68,-2.14,192,269,410,450,342
406,-0.06,-0.94,0.31,0.85,-3.72,-2.5,190,265,408,459,339
407,-0.06,-0.94,0.31,0.37,-3.97,-2.87,195,267,408,452,343
408,-0.08,-0.94,0.33,0.67,-2.62,-2.69,192,268,410,453,353
409,-0.07,-0.94,0.33,1.89,-4.39,-1.83,194,266,405,456,344
410,-0.07,-0.94,0.32,0.67,-2.56,-2.56,195,265,406,452,344
411,-0.08,-0.94,0.33,0.49,-2.56,-2.32,194,261,410,454,347
412,-0.08,-0.94,0.32,0.12,-1.71,-2.5,194,265,409,459,346
413,-0.07,-0.94,0.32,-0.12,-1.77,-2.56,192,267,411,455,348
414,-0.07,-0.94,0.33,1.1,-3.78,-2.44,197,267,406,459,340
415,-0.05,-0.94,0.32,0.85,-3.17,-2.26,196,268,409,459,344
416,-0.06,-0.95,0.32,-0.49,-2.87,-2.5,184,266,405,455,349
417,-0.06,-0.94,0.32,0.37,-2.2,-3.05,198,266,409,454,346
418,-0.06,-0.94,0.31,0.55,-2.75,-3.42,195,267,409,455,345
419,-0.08,-0.94,0.32,-2.2,-2.08,-3.85,194,272,407,454,348
420,-0.07,-0.95,0.33,-0.12,-2.69,-2.56,195,270,408,451,350
421,-0.06,-0.95,0.32,0.79,-2.62,-2.56,185,270,407,453,348
422,-0.07,-0.95,0.32,0.43,-2.32,-2.81,197,267,408,453,345
423,-0.06,-0.94,0.32,-0.37,-2.81,-3.05,194,268,408,458,346
424,-0.06,-0.94,0.32,-0.24,-3.23,-3.23,192,269,403,457,343
425,-0.08,-0.94,0.31,-0.55,-3.17,-2.81,197,268,410,454,347
426,-0.06,-0.95,0.31,0.37,-3.91,-2.5,193,264,405,458,345
427,-0.06,-0.94,0.33,0.55,-2.5,-1.89,194,269,411,456,345
428,-0.06,-0.95,0.31,1.04,-2.69,-2.69,200,266,408,461,355
429,-0.06,-0.93,0.32,-0.24,-3.17,-3.66,193,267,407,457,347
430,-0.07,-0.94,0.35,-2.08,-3.17,-1.53,196,268,408,461,342
431,-0.06,-0.95,0.31,0.92,-3.66,-2.62,196,270,408,456,345
432,-0.07,-0.94,0.31,-0.31,-2.69,-3.17,197,265,411,458,347
433,-0.06,-0.94,0.31,0.79,-3.23,-2.69,193,268,406,459,346
434,-0.06,-0.95,0.31,0.73,-3.91,-2.38,194,268,407,459,344
435,-0.07,-0.95,0.31,1.4,-3.97,-2.81,185,269,411,454,343
436,-0.06,-0.95,0.3,0.49,-2.93,-2.69,194,263,412,458,347
437,-0.07,-0.94,0.32,-0.12,-2.38,-2.14,196,267,423,458,345
438,-0.06,-0.94,0.33,-0.24,-2.69,-2.56,193,271,405,458,349
439,-0.07,-0.95,0.32,1.59,-3.11,-2.44,188,265,407,460,346
440,-0.07,-0.94,0.33,0.06,-2.93,-2.5,199,266,410,456,348
441,-0.06,-0.94,0.32,0.37,-3.3,-2.87,196,266,412,462,350
442,-0.06,-0.95,0.31,0.79,-3.6,-2.99,195,266,406,461,346
443,-0.07,-0.95,0.31,-0.49,-2.69,-3.17,196,270,409,457,342
444,-0.07,-0.94,0.31,-0.73,-2.87,-3.11,196,270,411,456,347
445,-0.07,-0.94,0.32,0.06,-2.5,-2.44,196,268,409,455,348
446,-0.06,-0.95,0.31,-1.46,-1.95,-2.93,190,268,403,462,348
447,-0.07,-0.94,0.31,0.49,-3.78,-2.75,193,271,407,457,345
448,-0.07,-0.96,0.31,0.37,-2.75,-2.81,194,268,407,463,348
449,-0.07,-0.95,0.31,-1.04,-1.4,-3.11,195,267,403,455,348
450,-0.07,-0.94,0.31,-0.12,-2.75,-2.2,192,269,407,456,347
451,-0.07,-0.95,0.3,0.67,-4.76,-1.95,194,261,407,459,344
452,-0.07,-0.95,0.33,-1.16,-2.62,-1.77,198,272,403,460,349
453,-0.09,-0.94,0.31,2.01,-2.14,-2.56,197,273,409,456,345
454,-0.07,-0.94,0.31,-1.46,-1.65,-3.66,196,275,407,457,344
455,-0.07,-0.94,0.33,-3.54,1.83,-6.16,190,268,408,453,347
456,-0.07,-0.94,0.3,-0.73,-2.44,-4.39,196,262,408,461,348
457,-0.06,-0.95,0.32,6.47,-7.32,-5.13,197,267,410,457,346
458,-0.06,-0.94,0.35,-2.75,-0.55,-1.46,201,265,404,458,341
459,-0.06,-0.94,0.33,-0.55,-3.6,-2.62,198,267,408,461,347
460,-0.07,-0.94,0.33,2.99,-7.75,-4.03,197,270,410,456,350
461,-0.07,-0.94,0.34,-1.89,0.73,-1.28,197,264,404,456,348
462,-0.09,-0.95,0.32,-0.61,-4.46,-2.44,198,270,406,461,350
463,-0.04,-0.94,0.32,0.55,-3.17,-2.5,194,267,404,460,345
464,-0.06,-0.94,0.32,0.79,-2.32,-2.44,189,269,405,456,344
465,-0.07,-0.94,0.32,-1.95,-3.17,-3.66,195,270,406,456,349
466,-0.08,-0.94,0.33,0.98,-3.78,-1.46,194,270,406,452,350
467,-0.05,-0.94,0.32,0.55,-1.95,-2.99,190,267,407,461,346
468,-0.07,-0.94,0.34,1.71,-3.36,-1.65,196,272,408,454,350
469,-0.06,-0.94,0.33,1.59,-3.3,-2.08,194,268,405,457,347
470,-0.08,-0.95,0.32,1.04,-3.05,-1.83,194,269,407,457,346
471,-0.09,-0.95,0.35,0.79,-3.85,-2.99,200,258,404,449,350
472,-0.06,-0.94,0.35,1.28,-4.94,-1.77,193,267,408,455,349
473,-0.08,-0.93,0.33,-0.37,-2.99,-2.99,196,266,404,458,348
474,-0.06,-0.93,0.32,-1.28,-2.87,-3.3,194,268,405,461,347
475,-0.07,-0.95,0.33,-0.12,-2.5,-2.75,196,270,405,457,349
476,-0.06,-0.94,0.33,0.61,-2.93,-2.81,194,266,404,456,356
477,-0.07,-0.94,0.32,-1.83,-1.71,-2.81,194,267,407,456,344
478,-0.06,-0.95,0.32,-2.14,-2.26,-3.42,193,264,403,457,349
479,-0.07,-0.94,0.33,-0.98,-3.23,-1.4,204,267,405,467,347
480,-0.07,-0.95,0.33,-0.55,-1.53,-3.54,195,270,403,457,353
481,-0.06,-0.94,0.33,0.0,-2.81,-2.26,195,272,405,452,349
482,-0.07,-0.95,0.32,0.79,-3.17,-2.26,200,272,404,459,347
483,-0.07,-0.94,0.32,0.43,-3.17,-2.38,194,272,405,456,350
484,-0.07,-0.95,0.32,1.04,-2.81,-2.5,196,268,406,456,346
485,-0.07,-0.94,0.33,0.73,-2.81,-2.99,198,272,407,456,350
486,-0.07,-0.94,0.32,0.18,-3.17,-2.2,198,275,407,458,344
487,-0.07,-0.94,0.33,0.67,-2.32,-2.87,194,269,407,459,348
488,-0.08,-0.94,0.32,0.49,-1.53,-4.52,196,271,404,452,348
489,-0.07,-0.95,0.32,0.0,-3.36,-2.5,195,270,400,452,353
490,-0.08,-0.94,0.33,0.43,-3.23,-2.99,194,265,405,456,346
491,-0.07,-0.94,0.33,-0.06,-2.26,-3.3,198,266,402,454,346
492,-0.07,-0.94,0.33,1.28,-3.66,-2.08,194,269,405,454,348
493,-0.07,-0.95,0.32,0.55,-3.11,-2.69,194,269,408,449,349
494,-0.07,-0.95,0.32,0.43,-3.17,-2.69,196,271,400,451,346
495,-0.07,-0.94,0.32,0.67,-3.11,-2.01,197,271,404,456,347
496,-0.08,-0.94,0.32,1.4,-3.66,-2.2,193,269,406,453,347
497,-0.08,-0.94,0.32,-0.37,-2.81,-2.93,200,272,398,460,347
498,-0.08,-0.95,0.32,0.12,-3.05,-2.44,187,273,406,455,348
499,-0.07,-0.94,0.33,-0.24,-3.05,-3.48,193,273,401,458,349
500,-0.07,-0.95,0.34,0.67,-2.69,-2.2,200,268,405,455,344
501,-0.08,-0.94,0.32,-0.73,-2.87,-2.93,195,274,409,467,346
502,-0.07,-0.94,0.33,1.04,-3.11,-2.69,197,267,403,457,347
503,-0.07,-0.94,0.31,0.0,-3.05,-2.26,195,269,403,456,347
504,-0.07,-0.94,0.31,-0.18,-3.78,-3.72,199,273,406,461,349
505,-0.03,-0.8,0.41,70.86,-23.74,2.38,317,353,393,458,377
506,0.15,-0.84,0.73,33.45,-8.36,-6.9,408,423,376,445,395
507,0.29,-0.25,0.97,63.05,21.67,-31.07,403,436,377,440,383
508,0.16,-0.28,0.99,-15.63,-2.5,-4.7,382,447,353,410,372
509,0.19,-0.32,0.93,-2.32,15.01,-8.24,376,443,333,395,328
510,0.19,-0.32,0.95,1.71,-4.76,1.22,365,434,330,389,314
511,0.16,-0.25,0.93,4.58,-3.17,-3.72,360,438,327,398,335
512,-0.07,-0.99,0.15,-1.59,-5.55,-4.09,164,246,420,447,338
513,-0.07,-0.98,0.12,1.1,-8.42,-4.33,173,251,419,446,335
514,-0.07,-0.98,0.11,-3.17,-1.22,-3.17,171,248,418,439,337
515,-0.07,-0.98,0.22,13.85,9.28,-2.14,177,252,420,448,330
516,-0.1,-0.99,0.16,-0.61,17.58,2.38,170,253,419,445,340
517,-0.1,-0.98,0.14,-0.06,-7.57,-3.48,174,255,418,447,337
518,-0.11,-0.99,0.16,3.36,-5.0,-2.32,170,255,411,442,339
519,-0.09,-0.99,0.15,-1.46,-8.54,-3.97,173,257,415,449,340
520,-0.09,-0.99,0.17,0.06,-4.21,-0.73,174,254,415,447,336
521,-0.08,-0.98,0.16,1.65,-3.78,-1.46,177,248,414,452,336
522,-0.07,-0.97,0.23,10.19,-4.09,-3.97,176,260,419,445,337
523,-0.07,-0.98,0.22,1.59,-2.87,-1.53,174,247,420,466,336
524,-0.08,-0.97,0.22,-0.67,-3.11,-3.11,175,254,423,449,339
525,-0.09,-0.97,0.21,-1.46,-0.55,-2.01,183,261,418,447,336
526,-0.06,-0.97,0.23,1.95,-7.57,-2.2,183,257,418,452,339
527,-0.1,-0.98,0.21,-2.87,-6.84,-2.14,168,258,420,452,340
528,-0.07,-0.96,0.22,29.97,-7.75,-5.86,212,258,415,449,341
529,-0.11,-0.97,0.27,-5.49,-5.0,-3.36,177,258,422,450,339
530,-0.05,-0.97,0.22,4.76,-7.02,-1.34,176,260,419,447,337
531,-0.08,-0.96,0.24,-1.46,-2.14,-3.91,179,260,418,450,338
532,-0.07,-0.96,0.24,2.44,-0.92,-3.17,178,260,411,448,341
533,-0.07,-0.97,0.26,0.43,-1.53,-3.78,171,254,416,441,338
534,-0.06,-0.96,0.25,-0.18,-2.56,-2.38,181,262,413,450,339
535,-0.06,-0.96,0.25,1.46,-3.36,-2.56,177,256,409,451,338
536,-0.07,-0.96,0.26,-1.28,-1.28,-3.36,177,257,413,449,340
537,-0.08,-0.96,0.25,0.0,-2.62,-3.54,179,261,413,455,339
538,-0.06,-0.96,0.26,0.12,-2.08,-3.97,178,251,415,455,342
539,-0.05,-0.96,0.25,-0.31,-3.91,-2.69,172,258,416,452,339
540,-0.05,-0.97,0.24,0.55,-4.88,-2.26,196,262,415,450,342
541,-0.05,-0.97,0.25,-1.1,-0.43,-2.87,176,252,409,449,338
542,-0.06,-0.97,0.23,0.24,-4.39,-1.59,171,259,413,464,338
543,-0.04,-0.96,0.23,-0.98,-1.53,-3.54,179,262,413,451,342
544,-0.06,-0.97,0.25,0.79,-3.6,-2.5,177,258,413,448,338
545,-0.05,-0.96,0.32,-2.62,1.16,-8.91,184,260,415,450,341
546,-0.05,-0.97,0.21,3.36,-6.53,0.43,179,262,411,451,338
547,-0.04,-0.97,0.24,5.19,-6.35,-2.81,180,260,412,444,337
548,-0.01,-0.97,0.23,2.93,-4.27,-2.01,181,254,413,448,341
549,-0.02,-0.97,0.27,5.74,-3.11,-2.56,180,262,408,453,339
550,-0.0,-0.96,0.28,5.49,-3.78,0.24,185,259,410,457,335
551,-0.04,-0.97,0.28,-0.79,0.12,-3.17,174,262,404,450,340
552,-0.07,-0.97,0.25,0.55,-2.56,-3.6,173,262,412,450,340
553,-0.05,-0.96,0.24,0.92,-2.38,-8.0,176,259,411,443,339
554,-0.04,-1.0,0.27,1.4,1.95,-1.28,181,261,413,444,341
555,-0.06,-0.96,0.22,1.53,-0.61,-2.32,181,264,421,452,338
556,-0.06,-0.94,0.23,3.11,0.61,-3.05,178,263,419,454,338
557,-0.09,-0.97,0.28,-1.34,7.32,3.05,180,262,418,448,345
558,-0.05,-0.96,0.25,-3.72,-10.13,-2.38,179,264,416,449,346
559,-0.09,-0.98,0.18,-9.46,-3.11,-7.51,177,264,417,451,348
560,-0.06,-0.98,0.18,-2.32,-6.71,-1.28,184,258,414,452,342
561,-0.05,-0.98,0.15,-2.75,-0.73,-1.65,185,261,412,452,346
562,-0.13,-0.99,0.15,4.33,-18.25,6.71,183,260,414,451,348
563,0.01,-0.97,0.19,-5.37,2.38,-3.36,187,265,417,451,363
564,-0.02,-1.0,0.15,-24.05,-5.13,-13.61,212,275,385,445,371
565,0.03,-0.98,0.03,-5.62,5.98,-4.94,170,239,246,427,329
566,0.03,-0.98,0.17,17.88,6.16,7.2,166,255,392,443,323
567,-0.0,-0.95,0.24,4.76,-4.58,0.37,171,256,407,439,326
568,-0.05,-0.94,0.26,3.85,7.2,3.42,217,257,406,446,323
569,-0.1,-0.96,0.28,-3.6,-14.22,5.13,173,256,414,438,329
570,-0.03,-0.96,0.23,-9.64,2.38,-12.88,179,254,413,448,334
571,-0.09,-0.97,0.26,0.31,2.62,-14.34,182,251,411,452,332
572,-0.05,-0.98,0.16,4.7,-6.84,0.85,179,256,412,445,332
573,-0.03,-0.98,0.18,-0.06,-10.93,-3.11,177,260,410,446,332
574,-0.04,-0.98,0.16,-8.06,-4.09,-2.69,177,257,412,452,333
575,-0.08,-1.01,0.11,-6.96,-0.43,-4.52,178,261,414,447,333
576,-0.03,-0.99,0.14,4.88,0.67,-7.2,176,258,413,453,333
577,-0.07,-0.97,0.22,11.05,-3.36,0.55,179,260,413,445,335
578,-0.1,-0.98,0.27,-4.15,0.24,0.79,178,257,415,452,339
579,-0.05,-0.97,0.2,2.38,0.73,-8.97,177,252,418,450,333
580,-0.06,-0.98,0.2,-5.13,0.12,0.55,179,259,412,453,337
581,-0.01,-0.95,0.29,0.24,-0.24,-13.61,177,256,412,450,338
582,-0.09,-0.97,0.29,8.24,-10.62,2.93,180,259,413,446,335
583,0.01,-0.98,0.16,-0.43,-7.39,-7.87,179,258,410,451,335
584,0.03,-1.0,0.16,0.55,-4.15,-4.21,180,257,410,454,337
585,0.02,-0.98,0.13,2.93,-2.01,-1.16,181,261,404,452,337
586,0.03,-0.98,0.15,10.68,-1.04,-1.83,180,259,408,449,336
587,0.02,-0.97,0.22,5.0,2.69,-6.59,181,264,414,457,338
588,0.01,-0.96,0.19,-3.78,1.59,-2.5,183,257,414,450,341
589,-0.03,-0.98,0.27,-10.99,9.22,-1.34,180,258,419,454,334
590,-0.05,-0.98,0.22,-5.98,8.91,4.39,201,259,419,456,340
591,0.01,-0.97,0.18,6.71,-3.05,-4.33,184,257,420,454,336
592,-0.02,-0.97,0.2,-0.06,-4.39,-0.73,186,257,421,455,339
593,-0.04,-0.98,0.23,5.25,-7.63,0.43,187,259,423,452,338
594,-0.06,-0.97,0.26,-0.06,-10.8,0.0,183,259,423,455,332
595,-0.08,-0.97,0.29,0.0,-7.32,-2.75,180,262,418,456,329
596,-0.04,-0.96,0.27,-1.16,-17.27,-7.08,182,259,420,450,340
597,-0.02,-0.97,0.26,1.59,-7.26,-0.92,184,261,417,449,341
598,-0.02,-0.95,0.3,1.4,-4.21,-5.07,183,256,420,453,346
599,-0.0,-0.96,0.25,4.46,-3.97,-1.22,181,261,420,445,341
600,-0.02,-0.96,0.3,-1.46,-1.04,-2.81,211,259,418,449,342
601,-0.01,-0.96,0.27,0.12,-3.36,-4.76,183,261,420,457,337
602,-0.02,-0.96,0.31,1.77,-3.85,-2.81,185,261,419,448,347
603,-0.02,-0.96,0.28,-0.98,-3.72,-2.81,175,265,415,455,335
604,-0.0,-0.95,0.27,1.28,-4.03,-2.62,185,261,418,445,340
605,-0.02,-0.95,0.28,2.5,-1.65,-2.32,187,260,423,454,341
606,-0.02,-0.94,0.28,2.99,-3.97,-2.62,187,260,421,459,342
607,-0.03,-0.95,0.3,1.04,-3.17,-2.5,182,257,414,456,339
608,-0.03,-0.96,0.31,-0.31,-3.6,-2.08,185,259,418,457,339
609,-0.02,-0.95,0.3,3.72,-7.51,-3.3,182,257,414,452,344
610,-0.02,-0.95,0.31,1.34,-3.66,-2.32,184,266,420,456,342
611,-0.01,-0.96,0.3,1.1,-2.5,-2.2,184,268,419,455,340
612,-0.01,-0.95,0.3,-1.16,-2.81,-2.62,175,260,419,457,342
613,-0.01,-0.95,0.3,-0.49,-2.01,-3.17,184,262,418,454,345
614,-0.02,-0.96,0.3,-0.37,-2.69,-2.62,181,262,417,455,341
615,0.0,-0.95,0.3,-0.55,-1.53,-3.72,222,258,420,454,340
616,-0.0,-0.95,0.29,-1.53,-1.34,-4.33,182,262,420,460,343
617,-0.02,-0.96,0.31,0.85,-3.23,-2.81,182,262,416,457,344
618,-0.01,-0.95,0.31,0.06,-2.69,-2.81,184,260,412,454,343
619,-0.02,-0.95,0.32,2.2,-3.3,-2.44,188,262,415,459,341
620,-0.02,-0.94,0.3,5.25,-2.08,-1.65,181,263,419,459,342
621,-0.02,-0.94,0.31,2.69,-2.32,-1.46,182,261,422,459,336
622,-0.03,-0.94,0.32,0.73,-2.5,-2.38,189,263,417,464,341
623,-0.03,-0.94,0.3,-2.01,2.44,-1.4,182,265,417,456,343
624,-0.05,-0.94,0.3,0.31,-3.72,-3.42,183,257,415,450,341
625,-0.04,-0.94,0.32,0.73,-2.99,-2.44,173,259,418,457,337
626,-0.06,-0.94,0.32,0.79,-2.87,-2.08,182,262,418,456,340
627,-0.05,-0.95,0.3,-1.65,-1.65,-1.71,180,257,412,456,341
628,-0.06,-0.95,0.31,-0.18,-2.62,-2.69,186,260,419,459,341
629,-0.05,-0.95,0.31,0.79,-3.48,-2.26,181,262,420,460,339
630,-0.06,-0.95,0.31,0.55,-3.05,-2.62,183,264,414,458,340
631,-0.06,-0.95,0.31,0.73,-3.48,-2.69,185,264,413,453,337
632,-0.05,-0.95,0.31,0.0,-2.26,-2.56,181,269,417,458,341
633,-0.05,-0.94,0.3,0.79,-3.54,-2.2,186,258,416,456,337
634,-0.06,-0.94,0.31,0.37,-3.42,-2.99,185,257,417,457,339
635,-0.06,-0.95,0.31,0.73,-2.99,-2.69,186,261,417,453,342
636,-0.06,-0.95,0.33,-2.69,-6.29,-2.38,181,259,415,455,340
637,-0.05,-0.96,0.31,-0.43,-5.62,-1.65,184,262,419,451,340
638,-0.05,-0.95,0.29,-0.67,-0.92,-3.36,186,263,417,455,344
639,-0.05,-0.95,0.3,1.4,-4.52,-3.11,179,269,416,456,347
640,-0.06,-0.95,0.3,0.73,-2.62,-1.4,187,261,415,453,338
641,-0.07,-0.95,0.31,2.01,-2.87,-2.08,187,259,415,456,350
642,-0.05,-0.95,0.3,-0.12,-2.14,-2.08,188,263,419,457,346
643,-0.06,-0.95,0.3,1.04,-3.54,-2.08,181,264,418,452,343
644,-0.06,-0.95,0.31,1.34,-2.32,-2.26,182,261,412,458,342
645,-0.06,-0.96,0.3,0.18,-3.97,-1.71,187,256,411,462,339
646,-0.11,-0.95,0.33,0.61,-3.48,-2.2,186,261,417,451,349
647,-0.11,-0.94,0.36,1.1,-0.98,-3.3,182,260,415,462,344
648,-0.09,-0.93,0.35,0.18,-2.26,-2.87,187,264,417,461,346
649,-0.1,-0.94,0.35,1.89,-2.62,-2.5,206,263,411,456,340
650,-0.09,-0.94,0.34,0.12,-3.23,-3.17,193,259,415,456,343
651,-0.09,-0.94,0.34,0.18,-2.14,-3.11,184,258,415,458,341
652,-0.09,-0.94,0.34,1.53,-3.05,-2.26,186,258,415,454,340
653,-0.08,-0.93,0.34,2.08,-2.69,-1.89,183,267,414,458,335
654,-0.1,-0.94,0.34,-0.43,-2.14,-3.97,183,263,416,454,345
655,-0.08,-0.94,0.34,0.0,-3.3,-2.81,188,273,417,458,339
656,-0.09,-0.94,0.35,0.12,-2.32,-2.56,187,265,415,454,343
657,-0.08,-0.93,0.34,0.67,-3.36,-2.87,185,263,413,460,340
658,-0.09,-0.94,0.34,-0.31,-2.75,-2.44,180,265,414,461,340
659,-0.1,-0.94,0.35,-0.18,-2.38,-2.75,188,261,418,458,341
660,-0.08,-0.94,0.34,0.18,-2.56,-2.93,183,265,415,457,334
661,-0.08,-0.94,0.35,0.12,-2.81,-2.38,185,263,417,460,339
662,-0.08,-0.93,0.34,1.4,-3.3,-2.56,188,263,416,456,345
663,-0.1,-0.94,0.34,-0.37,-2.56,-2.99,184,260,414,455,344
664,-0.09,-0.94,0.34,0.61,-2.62,-2.62,186,262,414,456,346
665,-0.08,-0.94,0.34,0.18,-3.23,-2.5,190,261,408,456,340
666,-0.09,-0.94,0.34,0.0,-3.17,-2.32,183,260,413,456,343
667,-0.09,-0.94,0.34,0.31,-3.17,-2.56,184,261,415,458,341
668,-0.09,-0.94,0.34,0.18,-2.56,-2.93,188,266,415,458,344
669,-0.09,-0.94,0.34,-0.24,-3.17,-2.93,186,258,413,456,344
670,-0.09,-0.94,0.32,0.85,-2.01,-2.5,187,259,412,453,347
671,-0.09,-0.94,0.33,0.24,-2.81,-2.87,189,263,413,457,342
672,-0.08,-0.95,0.34,0.67,-3.3,-2.69,182,261,417,474,339
673,-0.08,-0.94,0.33,0.98,-3.78,-2.01,215,258,414,458,343
674,-0.1,-0.93,0.35,1.89,-3.78,-1.22,183,267,411,461,342
675,-0.08,-0.93,0.36,2.99,-4.94,-1.04,184,261,416,461,339
676,-0.08,-0.93,0.35,-2.81,-1.71,-3.72,187,264,412,458,344
677,-0.1,-0.94,0.35,-0.79,-1.89,-3.54,180,254,410,452,342
678,-0.09,-0.94,0.35,-0.61,-2.2,-3.66,186,263,410,459,344
679,-0.1,-0.94,0.34,-0.92,-2.14,-3.23,184,259,414,454,340
680,-0.08,-0.94,0.35,-0.06,-2.32,-2.56,188,258,412,455,341
681,-0.09,-0.94,0.34,-0.24,-3.3,-2.87,208,260,412,463,344
682,-0.09,-0.94,0.34,0.55,-2.81,-2.62,187,264,415,453,344
683,-0.08,-0.93,0.34,1.83,-4.7,-1.34,179,257,413,456,345
684,-0.08,-0.93,0.36,3.91,-3.78,-1.65,186,263,413,456,343
685,-0.07,-0.92,0.34,-2.93,-4.52,-3.05,192,264,414,461,346
686,-0.09,-0.93,0.34,0.98,-2.14,-2.99,184,261,416,458,344
687,-0.08,-0.93,0.34,-0.85,-2.5,-3.36,186,259,420,453,341
688,-0.09,-0.94,0.34,1.04,-3.42,-1.95,185,264,411,460,346
689,-0.08,-0.94,0.34,0.37,-2.69,-3.11,183,262,416,460,341
690,-0.09,-0.94,0.34,0.55,-2.99,-2.2,185,263,415,457,340
691,-0.09,-0.94,0.34,0.0,-2.32,-2.44,191,263,412,458,345
692,-0.08,-0.93,0.33,1.04,-2.93,-2.87,186,260,413,457,343
693,-0.07,-0.94,0.31,-1.16,-3.05,-2.87,188,271,418,457,343
694,-0.07,-0.95,0.31,2.01,-4.88,-2.08,185,262,412,457,344
695,-0.09,-0.95,0.33,1.53,-2.99,-2.38,175,267,414,456,344
696,-0.07,-0.95,0.32,0.06,-3.42,-2.99,184,260,415,457,344
697,-0.05,-0.94,0.29,0.85,-5.86,-2.99,189,264,414,462,345
698,-0.06,-0.94,0.32,1.71,-5.13,-1.22,186,265,412,456,343
699,-0.07,-0.94,0.34,1.1,-3.48,-2.69,188,260,410,457,347
700,-0.03,-0.94,0.32,1.77,-1.28,-4.21,186,262,413,456,343
701,-0.05,-0.95,0.33,1.95,-1.95,-2.56,187,261,414,457,339
702,-0.05,-0.94,0.31,-0.49,-2.81,-2.69,180,266,413,458,345
703,-0.05,-0.94,0.34,0.67,-2.99,-2.5,187,269,409,453,342
704,-0.06,-0.93,0.33,-0.31,-2.99,-2.93,183,274,414,460,346
705,-0.07,-0.95,0.34,-0.55,-1.95,-3.78,189,260,415,455,343
706,-0.06,-0.94,0.33,0.06,-4.58,-3.05,186,267,412,452,346
707,-0.07,-0.95,0.33,-0.12,-2.2,-2.75,187,264,408,452,346
708,-0.07,-0.95,0.34,0.85,-2.93,-2.38,189,253,412,457,339
709,-0.06,-0.95,0.32,-2.2,-2.08,-3.05,184,264,407,463,345
710,-0.05,-0.94,0.31,-0.24,-2.32,-2.5,187,260,409,459,344
711,-0.07,-0.95,0.32,1.16,-2.5,-2.5,187,264,410,456,347
712,-0.07,-0.95,0.32,1.1,-1.53,-2.75,184,265,416,457,341
713,-0.07,-0.95,0.32,1.1,-3.6,-2.08,184,261,411,456,346
714,-0.07,-0.95,0.34,0.61,-3.85,-2.38,179,262,409,456,344
715,-0.07,-0.95,0.32,-0.18,-1.77,-2.93,186,267,409,458,343
716,-0.06,-0.94,0.32,1.34,-3.66,-1.53,190,265,412,458,345
717,-0.06,-0.94,0.34,0.85,-1.53,-2.69,186,266,408,459,343
718,-0.06,-0.94,0.31,-0.61,-3.3,-3.23,185,259,407,456,340
719,-0.06,-0.94,0.33,0.55,-2.99,-2.75,187,263,411,458,349
720,-0.08,-0.95,0.31,-4.88,-2.75,-1.04,186,261,410,458,341
721,-0.07,-0.94,0.34,3.3,-4.09,-1.22,187,263,408,457,345
722,-0.07,-0.95,0.32,0.43,-4.46,-1.59,188,264,406,458,342
723,-0.07,-0.95,0.34,1.71,-15.87,-4.76,188,261,408,458,338
724,-0.06,-0.95,0.32,-0.55,-3.91,-1.77,192,263,405,457,344
725,-0.05,-0.95,0.32,-0.98,-2.69,-2.32,178,262,411,456,338
726,-0.05,-0.95,0.31,2.01,-2.69,-2.32,191,267,403,451,345
727,-0.04,-0.94,0.31,0.18,-2.62,-2.99,189,274,410,456,348
728,-0.05,-0.94,0.32,0.06,-2.81,-3.66,185,264,404,457,346
729,-0.04,-0.95,0.31,0.24,-1.77,-3.23,187,265,408,457,345
730,-0.06,-0.95,0.34,-2.5,-3.17,-2.99,189,267,409,457,345
731,-0.05,-0.95,0.29,0.79,-2.5,-3.05,186,260,413,456,343
732,-0.04,-0.95,0.29,-1.22,-2.08,-2.81,182,268,411,452,343
733,-0.04,-0.96,0.31,-0.06,-3.17,-1.77,188,274,417,460,344
734,-0.04,-0.96,0.27,0.98,-1.53,-2.93,188,265,404,451,346
735,-0.06,-0.95,0.34,3.85,-4.76,-0.37,189,267,411,456,347
736,-0.07,-0.95,0.31,0.24,-2.56,-2.81,185,260,411,455,346
737,-0.03,-0.95,0.29,-2.2,-0.85,-5.31,185,266,408,457,345
738,-0.05,-0.95,0.31,-1.4,-1.83,-3.91,182,264,409,462,338
739,-0.06,-0.96,0.31,1.22,-4.33,-1.71,182,260,407,460,343
740,-0.05,-0.95,0.3,0.31,-2.44,-2.93,187,266,411,458,345
741,-0.06,-0.95,0.3,-0.73,-2.69,-2.75,188,265,408,461,340
742,-0.06,-0.95,0.3,0.06,-2.32,-2.56,192,263,407,457,342
743,-0.05,-0.95,0.3,0.67,-3.78,-2.75,191,262,416,459,347
744,-0.04,-0.96,0.31,1.59,-3.36,-1.65,191,266,412,458,344
745,-0.05,-0.96,0.31,-0.49,-2.32,-2.87,191,262,409,462,339
746,-0.04,-0.94,0.29,0.61,-2.81,-3.11,185,265,410,460,344
747,-0.05,-0.95,0.3,-1.4,-2.69,-2.93,187,267,411,460,345
748,-0.06,-0.95,0.3,1.4,-2.99,-2.75,190,266,409,457,344
749,-0.06,-0.95,0.31,1.04,-3.6,-1.71,188,268,411,462,346
750,-0.05,-0.97,0.3,2.99,-7.51,-3.3,189,265,405,453,346
751,-0.04,-0.95,0.32,1.77,-9.58,-1.59,188,264,409,455,344
752,-0.01,-0.95,0.3,2.87,-6.29,-0.31,189,263,409,452,347
753,-0.02,-0.96,0.25,-5.13,-0.92,-7.08,183,266,405,461,344
754,-0.03,-0.96,0.27,-4.09,-4.27,-2.44,188,258,405,455,337
755,-0.02,-0.96,0.28,-0.55,-1.34,-3.66,190,267,409,455,344
756,-0.01,-0.97,0.26,-2.93,0.49,-4.52,189,264,410,460,349
757,0.0,-0.97,0.2,-4.15,0.12,-2.01,186,267,408,457,346
758,-0.02,-0.98,0.27,6.77,-2.5,0.0,185,266,406,455,352
759,-0.01,-0.96,0.29,4.15,0.61,-2.93,188,264,410,458,348
760,-0.05,-0.96,0.32,-1.59,-5.98,-1.22,185,268,411,452,347
761,-0.06,-0.96,0.33,0.61,-6.23,-2.14,183,257,409,459,345
762,-0.04,-0.96,0.32,-2.32,-5.25,-3.36,184,263,407,461,346
763,-0.03,-0.96,0.34,0.24,-0.85,-2.26,186,263,407,454,343
764,-0.02,-0.97,0.34,1.53,-2.81,-3.72,182,264,407,458,347
765,-0.02,-0.95,0.32,1.22,-2.44,-3.23,189,269,403,456,343
766,-0.03,-0.95,0.32,0.43,-2.62,-2.99,183,267,410,462,343
767,-0.02,-0.95,0.33,0.06,-3.17,-2.69,190,265,405,455,343
768,-0.04,-0.95,0.34,-0.18,-3.72,-2.32,187,266,406,462,343
769,-0.04,-0.95,0.33,0.24,-4.09,-2.81,188,262,405,459,342
770,-0.04,-0.95,0.32,-1.53,-2.87,-2.38,186,266,406,456,344
771,-0.03,-0.94,0.36,6.04,-3.42,-0.31,186,263,404,457,343
772,-0.03,-0.94,0.35,0.98,-1.46,-4.09,186,267,406,452,342
773,-0.04,-0.93,0.37,1.71,-3.3,-0.43,187,268,405,458,344
774,-0.03,-0.93,0.31,1.95,-3.05,-0.61,189,265,409,460,343
775,-0.04,-0.92,0.37,8.06,-8.54,1.71,188,264,404,449,345
776,-0.05,-0.91,0.37,-6.47,-2.32,-5.13,188,267,405,455,343
777,-0.03,-0.92,0.4,-3.36,-2.26,-4.64,182,268,404,457,338
778,-0.03,-0.92,0.38,-1.59,-0.92,-2.26,187,268,406,460,342
779,-0.05,-0.94,0.35,-1.53,-1.59,-1.77,188,266,404,461,342
780,-0.06,-0.93,0.37,0.31,-3.48,-2.69,190,265,420,460,345
781,-0.06,-0.94,0.35,1.4,-3.05,-2.5,190,267,406,456,349
782,-0.05,-0.94,0.34,-2.2,-2.38,-3.23,187,267,406,459,341
783,-0.06,-0.95,0.35,1.28,-2.93,-1.04,189,267,406,458,339
784,-0.04,-0.95,0.33,-1.95,-2.14,-4.46,185,267,410,457,344
785,-0.05,-0.94,0.31,-2.93,-5.25,-2.2,189,264,403,463,346
786,-0.04,-0.94,0.35,1.46,-3.97,-4.03,191,261,404,457,341
787,-0.03,-0.94,0.34,-1.71,-3.91,-3.78,187,271,405,453,344
788,-0.04,-0.96,0.32,0.0,-2.26,-2.26,187,254,401,461,341
789,-0.03,-0.94,0.29,-2.5,-2.44,-3.3,189,261,402,459,345
790,-0.04,-0.95,0.34,-0.98,-2.81,-1.95,186,262,407,457,344
791,-0.04,-0.95,0.3,1.89,-3.23,-0.49,190,264,403,456,346
792,-0.04,-0.95,0.32,-0.24,-5.74,-0.49,186,262,400,459,345
793,-0.06,-0.94,0.35,2.87,-0.79,-1.46,188,266,409,463,345
794,-0.05,-0.93,0.35,2.93,-3.36,-0.67,192,265,407,456,344
795,-0.05,-0.94,0.35,-0.49,-1.71,-2.81,189,271,405,459,346
796,-0.05,-0.94,0.35,-1.16,1.71,-4.76,187,268,406,457,344
797,-0.03,-0.93,0.34,2.75,3.6,-5.8,186,263,402,455,344
798,0.01,-0.94,0.32,0.98,4.76,-9.22,186,263,407,457,349
799,-0.0,-0.94,0.34,-11.47,5.8,-13.0,188,268,406,458,344
800,0.02,-0.95,0.29,-3.3,-5.25,-5.07,189,270,411,458,343
801,0.02,-0.96,0.27,-2.87,-8.42,-1.34,186,264,411,459,345
802,0.01,-0.95,0.28,3.78,-1.89,1.1,192,269,405,457,339
803,-0.0,-0.96,0.3,5.25,-3.3,0.24,188,265,403,458,342
804,-0.02,-0.94,0.32,1.04,-1.46,-1.4,186,265,400,453,347
805,-0.02,-0.95,0.33,5.8,-2.56,-0.92,187,267,404,458,347
806,-0.03,-0.94,0.32,-0.43,-2.62,-2.99,183,266,404,446,345
807,-0.06,-0.95,0.36,2.32,-4.94,-0.92,190,264,399,452,344
808,-0.05,-0.94,0.33,2.44,-3.42,-1.59,188,266,404,460,343
809,-0.05,-0.94,0.34,-0.61,-2.44,-2.87,188,259,403,456,345
810,-0.04,-0.94,0.33,-0.24,-3.17,-2.75,179,267,402,457,346
811,-0.04,-0.95,0.3,-2.26,-2.5,-2.87,188,266,406,457,345
812,-0.04,-0.95,0.31,2.08,-2.87,-1.77,190,267,405,460,344
813,-0.03,-0.94,0.33,1.4,-2.99,-3.97,189,269,398,454,346
814,-0.04,-0.95,0.33,0.73,-2.87,-2.44,193,270,404,461,348
815,-0.04,-0.95,0.33,0.12,-2.5,-2.5,193,266,405,458,343
816,-0.04,-0.95,0.32,-0.79,-2.44,-3.23,194,260,404,455,347
817,-0.05,-0.96,0.32,-0.12,-3.23,-2.44,189,264,401,456,344
818,-0.04,-0.95,0.32,-0.37,-3.66,-2.2,189,267,403,453,344
819,-0.04,-0.95,0.34,1.77,-3.42,-2.44,191,267,407,456,349
820,-0.05,-0.95,0.33,0.0,-2.81,-3.36,189,264,405,455,345
821,-0.04,-0.95,0.34,0.12,-2.62,-2.38,188,264,406,452,343
822,-0.04,-0.95,0.29,0.73,-3.36,-1.77,189,259,403,457,345
823,-0.06,-0.95,0.29,0.24,-4.27,2.75,188,263,405,452,346
824,-0.05,-0.95,0.31,-5.13,-3.48,-4.7,193,265,405,456,346
825,-0.05,-0.96,0.31,-2.08,-1.46,-3.48,186,268,405,460,342
826,-0.02,-0.95,0.3,1.89,-4.94,-0.18,191,262,405,461,345
827,-0.02,-0.94,0.29,1.59,-4.82,-1.59,190,265,398,460,341
828,-0.02,-0.94,0.3,1.71,-4.64,-1.28,188,268,405,463,346
829,-0.05,-0.96,0.32,0.0,-2.32,-2.62,187,268,403,459,346
830,-0.03,-0.95,0.32,-1.22,-2.69,-3.66,192,263,401,455,344
831,-0.03,-0.96,0.29,2.44,-1.22,-3.48,193,268,405,452,343
832,-0.04,-0.95,0.32,4.46,-4.27,0.18,191,268,404,461,344
833,-0.04,-0.96,0.31,1.71,-0.92,-3.48,184,259,402,457,345
834,-0.04,-0.95,0.31,-0.55,-3.05,-2.14,187,264,404,458,344
835,-0.04,-0.95,0.31,4.03,-2.38,-4.52,192,268,401,457,343
836,-0.04,-0.95,0.33,-1.53,-4.03,-1.22,190,271,407,457,345
837,-0.04,-0.94,0.34,0.06,-2.5,-1.1,191,268,402,456,341
838,-0.04,-0.95,0.34,-2.44,-3.36,-3.17,195,265,403,462,345
839,-0.04,-0.94,0.32,2.44,-4.03,-0.92,190,264,403,458,341
840,-0.04,-0.94,0.34,-0.12,-2.62,-3.48,191,268,403,462,346
841,-0.04,-0.94,0.33,0.18,-2.56,-2.44,188,269,404,460,344
842,-0.04,-0.94,0.34,-1.22,-0.67,-4.39,188,266,399,457,340
843,-0.05,-0.95,0.34,0.37,-3.05,-2.62,181,267,402,456,347
844,-0.03,-0.95,0.34,-0.49,-2.62,-2.87,193,267,403,460,346
845,-0.08,-0.9,0.37,0.37,-2.62,-0.37,190,269,405,458,356
846,-0.03,-0.95,0.32,0.67,-2.93,-2.75,201,266,404,454,344
847,-0.05,-0.95,0.32,-3.48,-0.37,-3.85,191,266,406,462,347
848,-0.03,-0.95,0.31,0.37,-2.32,-1.83,203,266,406,459,343
849,-0.04,-0.95,0.32,0.37,-2.99,-2.69,190,266,405,459,346
850,-0.05,-0.95,0.33,1.28,-3.42,-1.95,192,270,403,455,356
851,-0.06,-0.96,0.3,0.12,-2.75,-3.11,198,261,404,456,344
852,-0.05,-0.94,0.31,-1.34,-3.17,-2.87,203,261,403,458,347
853,-0.04,-0.95,0.31,-0.55,-2.2,-2.99,190,267,401,457,346
854,-0.05,-0.96,0.31,-0.06,-1.95,-3.05,194,266,404,459,348
855,-0.05,-0.95,0.31,0.12,-2.2,-2.93,190,267,402,458,346
856,-0.05,-0.96,0.3,-0.49,-2.32,-2.38,189,265,401,458,343
857,-0.05,-0.95,0.31,-1.04,-2.38,-3.54,189,269,402,458,347
858,-0.06,-0.95,0.31,1.28,-2.93,-2.93,191,265,401,457,343
859,-0.05,-0.94,0.33,0.98,-4.64,-1.22,191,266,398,461,345
860,-0.05,-0.94,0.31,0.12,-3.36,-2.5,193,263,397,457,345
861,-0.05,-0.94,0.31,-0.37,-1.34,-3.3,187,267,400,453,344
862,-0.07,-0.95,0.32,-3.48,-2.5,-3.17,186,262,401,455,345
863,-0.05,-0.95,0.3,-3.48,-2.62,-2.93,189,268,402,461,342
864,-0.05,-0.96,0.28,1.34,-2.38,-2.2,187,278,400,456,345
865,-0.05,-0.95,0.3,0.61,-3.11,-2.5,186,269,403,456,344
866,-0.04,-0.95,0.32,4.94,-3.91,-2.2,187,264,401,455,347
867,-0.06,-0.95,0.28,0.37,-3.72,-2.08,190,265,402,458,351
868,-0.05,-0.95,0.3,1.89,-2.2,-1.95,190,266,399,454,347
869,-0.06,-0.95,0.31,-0.31,-1.89,-3.85,195,271,406,457,344
870,-0.05,-0.95,0.3,-0.12,-2.08,-3.48,193,266,404,461,344
871,-0.08,-0.95,0.34,-0.98,-2.93,-3.17,193,265,404,456,343
872,-0.07,-0.94,0.33,0.92,-4.21,-1.83,192,269,407,454,347
873,-0.07,-0.94,0.31,0.49,-4.33,-2.26,198,266,401,458,347
874,-0.07,-0.95,0.34,4.09,-2.14,-1.34,192,266,403,454,347
875,-0.04,-0.94,0.39,1.59,-4.09,-2.14,197,268,403,455,348
876,-0.04,-0.94,0.31,2.14,-4.88,-3.17,194,274,399,461,345
877,-0.08,-0.92,0.41,3.91,-2.01,-5.07,200,269,402,457,344
878,-0.05,-0.94,0.33,-0.92,-8.54,-5.74,193,269,403,454,345
879,-0.04,-0.96,0.38,2.32,1.59,1.65,195,266,402,458,345
880,-0.07,-0.93,0.35,0.55,-0.85,-4.03,195,266,400,455,343
881,-0.07,-0.95,0.36,2.81,-1.83,-1.46,192,265,406,458,345
882,-0.06,-0.94,0.33,-0.12,-2.81,-3.36,195,266,406,455,348
883,-0.05,-0.93,0.33,0.24,-3.3,-3.23,194,271,409,458,340
884,-0.07,-0.93,0.34,0.31,-2.32,-2.38,198,267,400,462,350
885,-0.06,-0.93,0.34,1.53,-1.89,-3.23,197,268,401,457,348
886,-0.07,-0.94,0.35,0.98,-3.6,-2.01,195,266,398,458,344
887,-0.07,-0.93,0.34,-0.98,-2.32,-2.32,195,270,402,453,346
888,-0.06,-0.93,0.34,1.46,-3.17,-2.93,194,268,403,456,348
889,-0.08,-0.94,0.35,-0.92,-2.2,-2.99,192,268,402,462,344
890,-0.07,-0.94,0.33,-2.93,-4.21,-1.83,196,269,403,458,343
891,-0.03,-0.93,0.32,3.3,-4.27,-1.95,192,265,400,458,348
892,-0.05,-0.94,0.32,-0.55,-2.32,-3.36,197,266,401,459,344
893,-0.07,-0.94,0.34,2.01,-3.36,-2.62,194,264,400,458,345
894,-0.07,-0.94,0.36,-0.92,-2.01,-2.62,200,266,404,461,345
895,-0.06,-0.94,0.35,-0.55,-2.5,-3.05,193,266,403,460,348
896,-0.07,-0.93,0.35,0.43,-2.62,-2.44,199,264,399,454,347
897,-0.06,-0.93,0.35,0.12,-2.69,-2.75,196,269,398,457,344
898,-0.07,-0.93,0.35,1.04,-2.81,-2.75,195,266,401,452,350
899,-0.07,-0.94,0.34,-0.12,-3.3,-2.99,192,263,411,452,348
900,-0.07,-0.93,0.34,0.92,-4.88,-2.56,189,268,399,461,339
901,-0.08,-0.94,0.34,-3.42,-1.1,-4.03,196,262,406,458,345
902,-0.08,-0.95,0.33,-1.04,-1.95,-2.69,193,268,408,447,346
903,-0.06,-0.95,0.32,-2.56,-4.52,-3.3,201,267,406,455,343
904,-0.06,-0.96,0.32,0.43,-6.23,-4.46,188,266,408,446,345
905,-0.06,-0.94,0.31,-1.89,-2.62,-2.87,196,265,409,454,345
906,-0.06,-0.94,0.32,-0.92,-2.69,-2.81,198,273,404,454,346
907,-0.05,-0.95,0.31,1.53,-5.07,-3.72,212,266,406,454,343
908,-0.07,-0.95,0.32,-0.12,-2.93,-1.16,195,261,404,451,342
909,-0.07,-0.94,0.3,-0.55,-3.11,-3.11,185,264,407,457,345
910,-0.04,-0.94,0.31,0.37,-3.6,-3.36,194,264,408,453,347
911,-0.07,-0.95,0.34,-1.89,0.67,-1.71,183,265,410,454,346
912,-0.04,-0.93,0.33,0.98,-6.1,-0.73,187,267,410,451,345
913,-0.05,-0.95,0.34,0.0,1.1,0.73,187,268,411,454,340
914,-0.06,-0.94,0.34,-0.43,-3.48,-3.48,197,271,413,457,346
915,-0.07,-0.94,0.33,-0.06,-3.11,-3.05,195,263,407,451,345
916,-0.08,-0.95,0.34,0.85,-2.14,-3.6,192,272,410,449,347
917,-0.08,-0.95,0.29,2.08,-5.68,-2.14,192,269,410,450,342
918,-0.06,-0.94,0.31,0.85,-3.72,-2.5,190,265,408,459,339
919,-0.06,-0.94,0.31,0.37,-3.97,-2.87,195,267,408,452,343
920,-0.08,-0.94,0.33,0.67,-2.62,-2.69,192,268,410,453,353
921,-0.07,-0.94,0.33,1.89,-4.39,-1.83,194,266,405,456,344
922,-0.07,-0.94,0.32,0.67,-2.56,-2.56,195,265,406,452,344
923,-0.08,-0.94,0.33,0.49,-2.56,-2.32,194,261,410,454,347
924,-0.08,-0.94,0.32,0.12,-1.71,-2.5,194,265,409,459,346
925,-0.07,-0.94,0.32,-0.12,-1.77,-2.56,192,267,411,455,348
926,-0.07,-0.94,0.33,1.1,-3.78,-2.44,197,267,406,459,340
927,-0.05,-0.94,0.32,0.85,-3.17,-2.26,196,268,409,459,344
928,-0.06,-0.95,0.32,-0.49,-2.87,-2.5,184,266,405,455,349
929,-0.06,-0.94,0.32,0.37,-2.2,-3.05,198,266,409,454,346
930,-0.06,-0.94,0.31,0.55,-2.75,-3.42,195,267,409,455,345
931,-0.08,-0.94,0.32,-2.2,-2.08,-3.85,194,272,407,454,348
932,-0.07,-0.95,0.33,-0.12,-2.69,-2.56,195,270,408,451,350
933,-0.06,-0.95,0.32,0.79,-2.62,-2.56,185,270,407,453,348
934,-0.07,-0.95,0.32,0.43,-2.32,-2.81,197,267,408,453,345
935,-0.06,-0.94,0.32,-0.37,-2.81,-3.05,194,268,408,458,346
936,-0.06,-0.94,0.32,-0.24,-3.23,-3.23,192,269,403,457,343
937,-0.08,-0.94,0.31,-0.55,-3.17,-2.81,197,268,410,454,347
938,-0.06,-0.95,0.31,0.37,-3.91,-2.5,193,264,405,458,345
939,-0.06,-0.94,0.33,0.55,-2.5,-1.89,194,269,411,456,345
940,-0.06,-0.95,0.31,1.04,-2.69,-2.69,200,266,408,461,355
941,-0.06,-0.93,0.32,-0.24,-3.17,-3.66,193,267,407,457,347
942,-0.07,-0.94,0.35,-2.08,-3.17,-1.53,196,268,408,461,342
943,-0.06,-0.95,0.31,0.92,-3.66,-2.62,196,270,408,456,345
944,-0.07,-0.94,0.31,-0.31,-2.69,-3.17,197,265,411,458,347
945,-0.06,-0.94,0.31,0.79,-3.23,-2.69,193,268,406,459,346
946,-0.06,-0.95,0.31,0.73,-3.91,-2.38,194,268,407,459,344
947,-0.07,-0.95,0.31,1.4,-3.97,-2.81,185,269,411,454,343
948,-0.06,-0.95,0.3,0.49,-2.93,-2.69,194,263,412,458,347
949,-0.07,-0.94,0.32,-0.12,-2.38,-2.14,196,267,423,458,345
950,-0.06,-0.94,0.33,-0.24,-2.69,-2.56,193,271,405,458,349
951,-0.07,-0.95,0.32,1.59,-3.11,-2.44,188,265,407,460,346
952,-0.07,-0.94,0.33,0.06,-2.93,-2.5,199,266,410,456,348
953,-0.06,-0.94,0.32,0.37,-3.3,-2.87,196,266,412,462,350
954,-0.06,-0.95,0.31,0.79,-3.6,-2.99,195,266,406,461,346
955,-0.07,-0.95,0.31,-0.49,-2.69,-3.17,196,270,409,457,342
956,-0.07,-0.94,0.31,-0.73,-2.87,-3.11,196,270,411,456,347
957,-0.07,-0.94,0.32,0.06,-2.5,-2.44,196,268,409,455,348
958,-0.06,-0.95,0.31,-1.46,-1.95,-2.93,190,268,403,462,348
959,-0.07,-0.94,0.31,0.49,-3.78,-2.75,193,271,407,457,345
960,-0.07,-0.96,0.31,0.37,-2.75,-2.81,194,268,407,463,348
961,-0.07,-0.95,0.31,-1.04,-1.4,-3.11,195,267,403,455,348
962,-0.07,-0.94,0.31,-0.12,-2.75,-2.2,192,269,407,456,347
963,-0.07,-0.95,0.3,0.67,-4.76,-1.95,194,261,407,459,344
964,-0.07,-0.95,0.33,-1.16,-2.62,-1.77,198,272,403,460,349
965,-0.09,-0.94,0.31,2.01,-2.14,-2.56,197,273,409,456,345
966,-0.07,-0.94,0.31,-1.46,-1.65,-3.66,196,275,407,457,344
967,-0.07,-0.94,0.33,-3.54,1.83,-6.16,190,268,408,453,347
968,-0.07,-0.94,0.3,-0.73,-2.44,-4.39,196,262,408,461,348
969,-0.06,-0.95,0.32,6.47,-7.32,-5.13,197,267,410,457,346
970,-0.06,-0.94,0.35,-2.75,-0.55,-1.46,201,265,404,458,341
971,-0.06,-0.94,0.33,-0.55,-3.6,-2.62,198,267,408,461,347
972,-0.07,-0.94,0.33,2.99,-7.75,-4.03,197,270,410,456,350
973,-0.07,-0.94,0.34,-1.89,0.73,-1.28,197,264,404,456,348
974,-0.09,-0.95,0.32,-0.61,-4.46,-2.44,198,270,406,461,350
975,-0.04,-0.94,0.32,0.55,-3.17,-2.5,194,267,404,460,345
976,-0.06,-0.94,0.32,0.79,-2.32,-2.44,189,269,405,456,344
977,-0.07,-0.94,0.32,-1.95,-3.17,-3.66,195,270,406,456,349
978,-0.08,-0.94,0.33,0.98,-3.78,-1.46,194,270,406,452,350
979,-0.05,-0.94,0.32,0.55,-1.95,-2.99,190,267,407,461,346
980,-0.07,-0.94,0.34,1.71,-3.36,-1.65,196,272,408,454,350
981,-0.06,-0.94,0.33,1.59,-3.3,-2.08,194,268,405,457,347
982,-0.08,-0.95,0.32,1.04,-3.05,-1.83,194,269,407,457,346
983,-0.09,-0.95,0.35,0.79,-3.85,-2.99,200,258,404,449,350
984,-0.06,-0.94,0.35,1.28,-4.94,-1.77,193,267,408,455,349
985,-0.08,-0.93,0.33,-0.37,-2.99,-2.99,196,266,404,458,348
986,-0.06,-0.93,0.32,-1.28,-2.87,-3.3,194,268,405,461,347
987,-0.07,-0.95,0.33,-0.12,-2.5,-2.75,196,270,405,457,349
988,-0.06,-0.94,0.33,0.61,-2.93,-2.81,194,266,404,456,356
989,-0.07,-0.94,0.32,-1.83,-1.71,-2.81,194,267,407,456,344
990,-0.06,-0.95,0.32,-2.14,-2.26,-3.42,193,264,403,457,349
991,-0.07,-0.94,0.33,-0.98,-3.23,-1.4,204,267,405,467,347
992,-0.07,-0.95,0.33,-0.55,-1.53,-3.54,195,270,403,457,353
993,-0.06,-0.94,0.33,0.0,-2.81,-2.26,195,272,405,452,349
994,-0.07,-0.95,0.32,0.79,-3.17,-2.26,200,272,404,459,347
995,-0.07,-0.94,0.32,0.43,-3.17,-2.38,194,272,405,456,350
996,-0.07,-0.95,0.32,1.04,-2.81,-2.5,196,268,406,456,346
997,-0.07,-0.94,0.33,0.73,-2.81,-2.99,198,272,407,456,350
998,-0.07,-0.94,0.32,0.18,-3.17,-2.2,198,275,407,458,344
999,-0.07,-0.94,0.33,0.67,-2.32,-2.87,194,269,407,459,348
1000,-0.08,-0.94,0.32,0.49,-1.53,-4.52,196,271,404,452,348
1001,-0.07,-0.95,0.32,0.0,-3.36,-2.5,195,270,400,452,353
1002,-0.08,-0.94,0.33,0.43,-3.23,-2.99,194,265,405,456,346
1003,-0.07,-0.94,0.33,-0.06,-2.26,-3.3,198,266,402,454,346
1004,-0.07,-0.94,0.33,1.28,-3.66,-2.08,194,269,405,454,348
1005,-0.07,-0.95,0.32,0.55,-3.11,-2.69,194,269,408,449,349
1006,-0.07,-0.95,0.32,0.43,-3.17,-2.69,196,271,400,451,346
1007,-0.07,-0.94,0.32,0.67,-3.11,-2.01,197,271,404,456,347
1008,-0.08,-0.94,0.32,1.4,-3.66,-2.2,193,269,406,453,347
1009,-0.08,-0.94,0.32,-0.37,-2.81,-2.93,200,272,398,460,347
1010,-0.08,-0.95,0.32,0.12,-3.05,-2.44,187,273,406,455,348
1011,-0.07,-0.94,0.33,-0.24,-3.05,-3.48,193,273,401,458,349
1012,-0.07,-0.95,0.34,0.67,-2.69,-2.2,200,268,405,455,344
1013,-0.08,-0.94,0.32,-0.73,-2.87,-2.93,195,274,409,467,346
1014,-0.07,-0.94,0.33,1.04,-3.11,-2.69,197,267,403,457,347
1015,-0.07,-0.94,0.31,0.0,-3.05,-2.26,195,269,403,456,347
1016,-0.07,-0.94,0.31,-0.18,-3.78,-3.72,199,273,406,461,349
1017,-0.03,-0.8,0.41,70.86,-23.74,2.38,317,353,393,458,377
1018,0.15,-0.84,0.73,33.45,-8.36,-6.9,408,423,376,445,395
1019,0.29,-0.25,0.97,63.05,21.67,-31.07,403,436,377,440,383
1020,0.16,-0.28,0.99,-15.63,-2.5,-4.7,382,447,353,410,372
1021,0.19,-0.32,0.93,-2.32,15.01,-8.24,376,443,333,395,328
1022,0.19,-0.32,0.95,1.71,-4.76,1.22,365,434,330,389,314
1023,0.16,-0.25,0.93,4.58,-3.17,-3.72,360,438,327,398,335
1024,-0.07,-0.99,0.15,-1.59,-5.55,-4.09,164,246,420,447,338
1025,-0.07,-0.98,0.12,1.1,-8.42,-4.33,173,251,419,446,335
1026,-0.07,-0.98,0.11,-3.17,-1.22,-3.17,171,248,418,439,337
1027,-0.07,-0.98,0.22,13.85,9.28,-2.14,177,252,420,448,330
1028,-0.1,-0.99,0.16,-0.61,17.58,2.38,170,253,419,445,340
1029,-0.1,-0.98,0.14,-0.06,-7.57,-3.48,174,255,418,447,337
1030,-0.11,-0.99,0.16,3.36,-5.0,-2.32,170,255,411,442,339
1031,-0.09,-0.99,0.15,-1.46,-8.54,-3.97,173,257,415,449,340
1032,-0.09,-0.99,0.17,0.06,-4.21,-0.73,174,254,415,447,336
1033,-0.08,-0.98,0.16,1.65,-3.78,-1.46,177,248,414,452,336
1034,-0.07,-0.97,0.23,10.19,-4.09,-3.97,176,260,419,445,337
1035,-0.07,-0.98,0.22,1.59,-2.87,-1.53,174,247,420,466,336
1036,-0.08,-0.97,0.22,-0.67,-3.11,-3.11,175,254,423,449,339
1037,-0.09,-0.97,0.21,-1.46,-0.55,-2.01,183,261,418,447,336
1038,-0.06,-0.97,0.23,1.95,-7.57,-2.2,183,257,418,452,339
1039,-0.1,-0.98,0.21,-2.87,-6.84,-2.14,168,258,420,452,340
1040,-0.07,-0.96,0.22,29.97,-7.75,-5.86,212,258,415,449,341
1041,-0.11,-0.97,0.27,-5.49,-5.0,-3.36,177,258,422,450,339
1042,-0.05,-0.97,0.22,4.76,-7.02,-1.34,176,260,419,447,337
1043,-0.08,-0.96,0.24,-1.46,-2.14,-3.91,179,260,418,450,338
1044,-0.07,-0.96,0.24,2.44,-0.92,-3.17,178,260,411,448,341
1045,-0.07,-0.97,0.26,0.43,-1.53,-3.78,171,254,416,441,338
1046,-0.06,-0.96,0.25,-0.18,-2.56,-2.38,181,262,413,450,339
1047,-0.06,-0.96,0.25,1.46,-3.36,-2.56,177,256,409,451,338
1048,-0.07,-0.96,0.26,-1.28,-1.28,-3.36,177,257,413,449,340
1049,-0.08,-0.96,0.25,0.0,-2.62,-3.54,179,261,413,455,339
1050,-0.06,-0.96,0.26,0.12,-2.08,-3.97,178,251,415,455,342
1051,-0.05,-0.96,0.25,-0.31,-3.91,-2.69,172,258,416,452,339
1052,-0.05,-0.97,0.24,0.55,-4.88,-2.26,196,262,415,450,342
1053,-0.05,-0.97,0.25,-1.1,-0.43,-2.87,176,252,409,449,338
1054,-0.06,-0.97,0.23,0.24,-4.39,-1.59,171,259,413,464,338
1055,-0.04,-0.96,0.23,-0.98,-1.53,-3.54,179,262,413,451,342
1056,-0.06,-0.97,0.25,0.79,-3.6,-2.5,177,258,413,448,338
1057,-0.05,-0.96,0.32,-2.62,1.16,-8.91,184,260,415,450,341
1058,-0.05,-0.97,0.21,3.36,-6.53,0.43,179,262,411,451,338
1059,-0.04,-0.97,0.24,5.19,-6.35,-2.81,180,260,412,444,337
1060,-0.01,-0.97,0.23,2.93,-4.27,-2.01,181,254,413,448,341
1061,-0.02,-0.97,0.27,5.74,-3.11,-2.56,180,262,408,453,339
1062,-0.0,-0.96,0.28,5.49,-3.78,0.24,185,259,410,457,335
1063,-0.04,-0.97,0.28,-0.79,0.12,-3.17,174,262,404,450,340
1064,-0.07,-0.97,0.25,0.55,-2.56,-3.6,173,262,412,450,340
1065,-0.05,-0.96,0.24,0.92,-2.38,-8.0,176,259,411,443,339
1066,-0.04,-1.0,0.27,1.4,1.95,-1.28,181,261,413,444,341
1067,-0.06,-0.96,0.22,1.53,-0.61,-2.32,181,264,421,452,338
1068,-0.06,-0.94,0.23,3.11,0.61,-3.05,178,263,419,454,338
1069,-0.09,-0.97,0.28,-1.34,7.32,3.05,180,262,418,448,345
1070,-0.05,-0.96,0.25,-3.72,-10.13,-2.38,179,264,416,449,346
1071,-0.09,-0.98,0.18,-9.46,-3.11,-7.51,177,264,417,451,348
1072,-0.06,-0.98,0.18,-2.32,-6.71,-1.28,184,258,414,452,342
1073,-0.05,-0.98,0.15,-2.75,-0.73,-1.65,185,261,412,452,346
1074,-0.13,-0.99,0.15,4.33,-18.25,6.71,183,260,414,451,348
1075,0.01,-0.97,0.19,-5.37,2.38,-3.36,187,265,417,451,363
1076,-0.02,-1.0,0.15,-24.05,-5.13,-13.61,212,275,385,445,371
1077,0.03,-0.98,0.03,-5.62,5.98,-4.94,170,239,246,427,329
1078,0.03,-0.98,0.17,17.88,6.16,7.2,166,255,392,443,323
1079,-0.0,-0.95,0.24,4.76,-4.58,0.37,171,256,407,439,326
1080,-0.05,-0.94,0.26,3.85,7.2,3.42,217,257,406,446,323
1081,-0.1,-0.96,0.28,-3.6,-14.22,5.13,173,256,414,438,329
1082,-0.03,-0.96,0.23,-9.64,2.38,-12.88,179,254,413,448,334
1083,-0.09,-0.97,0.26,0.31,2.62,-14.34,182,251,411,452,332
1084,-0.05,-0.98,0.16,4.7,-6.84,0.85,179,256,412,445,332
1085,-0.03,-0.98,0.18,-0.06,-10.93,-3.11,177,260,410,446,332
1086,-0.04,-0.98,0.16,-8.06,-4.09,-2.69,177,257,412,452,333
1087,-0.08,-1.01,0.11,-6.96,-0.43,-4.52,178,261,414,447,333
1088,-0.03,-0.99,0.14,4.88,0.67,-7.2,176,258,413,453,333
1089,-0.07,-0.97,0.22,11.05,-3.36,0.55,179,260,413,445,335
1090,-0.1,-0.98,0.27,-4.15,0.24,0.79,178,257,415,452,339
1091,-0.05,-0.97,0.2,2.38,0.73,-8.97,177,252,418,450,333
1092,-0.06,-0.98,0.2,-5.13,0.12,0.55,179,259,412,453,337
1093,-0.01,-0.95,0.29,0.24,-0.24,-13.61,177,256,412,450,338
1094,-0.09,-0.97,0.29,8.24,-10.62,2.93,180,259,413,446,335
1095,0.01,-0.98,0.16,-0.43,-7.39,-7.87,179,258,410,451,335
1096,0.03,-1.0,0.16,0.55,-4.15,-4.21,180,257,410,454,337
1097,0.02,-0.98,0.13,2.93,-2.01,-1.16,181,261,404,452,337
1098,0.03,-0.98,0.15,10.68,-1.04,-1.83,180,259,408,449,336
1099,0.02,-0.97,0.22,5.0,2.69,-6.59,181,264,414,457,338
1100,0.01,-0.96,0.19,-3.78,1.59,-2.5,183,257,414,450,341
1101,-0.03,-0.98,0.27,-10.99,9.22,-1.34,180,258,419,454,334
1102,-0.05,-0.98,0.22,-5.98,8.91,4.39,201,259,419,456,340
1103,0.01,-0.97,0.18,6.71,-3.05,-4.33,184,257,420,454,336
1104,-0.02,-0.97,0.2,-0.06,-4.39,-0.73,186,257,421,455,339
1105,-0.04,-0.98,0.23,5.25,-7.63,0.43,187,259,423,452,338
1106,-0.06,-0.97,0.26,-0.06,-10.8,0.0,183,259,423,455,332
1107,-0.08,-0.97,0.29,0.0,-7.32,-2.75,180,262,418,456,329
1108,-0.04,-0.96,0.27,-1.16,-17.27,-7.08,182,259,420,450,340
1109,-0.02,-0.97,0.26,1.59,-7.26,-0.92,184,261,417,449,341
1110,-0.02,-0.95,0.3,1.4,-4.21,-5.07,183,256,420,453,346
1111,-0.0,-0.96,0.25,4.46,-3.97,-1.22,181,261,420,445,341
1112,-0.02,-0.96,0.3,-1.46,-1.04,-2.81,211,259,418,449,342
1113,-0.01,-0.96,0.27,0.12,-3.36,-4.76,183,261,420,457,337
1114,-0.02,-0.96,0.31,1.77,-3.85,-2.81,185,261,419,448,347
1115,-0.02,-0.96,0.28,-0.98,-3.72,-2.81,175,265,415,455,335
1116,-0.0,-0.95,0.27,1.28,-4.03,-2.62,185,261,418,445,340
1117,-0.02,-0.95,0.28,2.5,-1.65,-2.32,187,260,423,454,341
1118,-0.02,-0.94,0.28,2.99,-3.97,-2.62,187,260,421,459,342
1119,-0.03,-0.95,0.3,1.04,-3.17,-2.5,182,257,414,456,339
1120,-0.03,-0.96,0.31,-0.31,-3.6,-2.08,185,259,418,457,339
1121,-0.02,-0.95,0.3,3.72,-7.51,-3.3,182,257,414,452,344
1122,-0.02,-0.95,0.31,1.34,-3.66,-2.32,184,266,420,456,342
1123,-0.01,-0.96,0.3,1.1,-2.5,-2.2,184,268,419,455,340
1124,-0.01,-0.95,0.3,-1.16,-2.81,-2.62,175,260,419,457,342
1125,-0.01,-0.95,0.3,-0.49,-2.01,-3.17,184,262,418,454,345
1126,-0.02,-0.96,0.3,-0.37,-2.69,-2.62,181,262,417,455,341
1127,0.0,-0.95,0.3,-0.55,-1.53,-3.72,222,258,420,454,340
1128,-0.0,-0.95,0.29,-1.53,-1.34,-4.33,182,262,420,460,343
1129,-0.02,-0.96,0.31,0.85,-3.23,-2.81,182,262,416,457,344
1130,-0.01,-0.95,0.31,0.06,-2.69,-2.81,184,260,412,454,343
1131,-0.02,-0.95,0.32,2.2,-3.3,-2.44,188,262,415,459,341
1132,-0.02,-0.94,0.3,5.25,-2.08,-1.65,181,263,419,459,342
1133,-0.02,-0.94,0.31,2.69,-2.32,-1.46,182,261,422,459,336
1134,-0.03,-0.94,0.32,0.73,-2.5,-2.38,189,263,417,464,341
1135,-0.03,-0.94,0.3,-2.01,2.44,-1.4,182,265,417,456,343
1136,-0.05,-0.94,0.3,0.31,-3.72,-3.42,183,257,415,450,341
1137,-0.04,-0.94,0.32,0.73,-2.99,-2.44,173,259,418,457,337
1138,-0.06,-0.94,0.32,0.79,-2.87,-2.08,182,262,418,456,340
1139,-0.05,-0.95,0.3,-1.65,-1.65,-1.71,180,257,412,456,341
1140,-0.06,-0.95,0.31,-0.18,-2.62,-2.69,186,260,419,459,341
1141,-0.05,-0.95,0.31,0.79,-3.48,-2.26,181,262,420,460,339
1142,-0.06,-0.95,0.31,0.55,-3.05,-2.62,183,264,414,458,340
1143,-0.06,-0.95,0.31,0.73,-3.48,-2.69,185,264,413,453,337
1144,-0.05,-0.95,0.31,0.0,-2.26,-2.56,181,269,417,458,341
1145,-0.05,-0.94,0.3,0.79,-3.54,-2.2,186,258,416,456,337
1146,-0.06,-0.94,0.31,0.37,-3.42,-2.99,185,257,417,457,339
1147,-0.06,-0.95,0.31,0.73,-2.99,-2.69,186,261,417,453,342
1148,-0.06,-0.95,0.33,-2.69,-6.29,-2.38,181,259,415,455,340
1149,-0.05,-0.96,0.31,-0.43,-5.62,-1.65,184,262,419,451,340
1150,-0.05,-0.95,0.29,-0.67,-0.92,-3.36,186,263,417,455,344
1151,-0.05,-0.95,0.3,1.4,-4.52,-3.11,179,269,416,456,347
1152,-0.06,-0.95,0.3,0.73,-2.62,-1.4,187,261,415,453,338
1153,-0.07,-0.95,0.31,2.01,-2.87,-2.08,187,259,415,456,350
1154,-0.05,-0.95,0.3,-0.12,-2.14,-2.08,188,263,419,457,346
1155,-0.06,-0.95,0.3,1.04,-3.54,-2.08,181,264,418,452,343
1156,-0.06,-0.95,0.31,1.34,-2.32,-2.26,182,261,412,458,342
1157,-0.06,-0.96,0.3,0.18,-3.97,-1.71,187,256,411,462,339
1158,-0.11,-0.95,0.33,0.61,-3.48,-2.2,186,261,417,451,349
1159,-0.11,-0.94,0.36,1.1,-0.98,-3.3,182,260,415,462,344
1160,-0.09,-0.93,0.35,0.18,-2.26,-2.87,187,264,417,461,346
1161,-0.1,-0.94,0.35,1.89,-2.62,-2.5,206,263,411,456,340
1162,-0.09,-0.94,0.34,0.12,-3.23,-3.17,193,259,415,456,343
1163,-0.09,-0.94,0.34,0.18,-2.14,-3.11,184,258,415,458,341
1164,-0.09,-0.94,0.34,1.53,-3.05,-2.26,186,258,415,454,340
1165,-0.08,-0.93,0.34,2.08,-2.69,-1.89,183,267,414,458,335
1166,-0.1,-0.94,0.34,-0.43,-2.14,-3.97,183,263,416,454,345
1167,-0.08,-0.94,0.34,0.0,-3.3,-2.81,188,273,417,458,339
1168,-0.09,-0.94,0.35,0.12,-2.32,-2.56,187,265,415,454,343
1169,-0.08,-0.93,0.34,0.67,-3.36,-2.87,185,263,413,460,340
1170,-0.09,-0.94,0.34,-0.31,-2.75,-2.44,180,265,414,461,340
1171,-0.1,-0.94,0.35,-0.18,-2.38,-2.75,188,261,418,458,341
1172,-0.08,-0.94,0.34,0.18,-2.56,-2.93,183,265,415,457,334
1173,-0.08,-0.94,0.35,0.12,-2.81,-2.38,185,263,417,460,339
1174,-0.08,-0.93,0.34,1.4,-3.3,-2.56,188,263,416,456,345
1175,-0.1,-0.94,0.34,-0.37,-2.56,-2.99,184,260,414,455,344
1176,-0.09,-0.94,0.34,0.61,-2.62,-2.62,186,262,414,456,346
1177,-0.08,-0.94,0.34,0.18,-3.23,-2.5,190,261,408,456,340
1178,-0.09,-0.94,0.34,0.0,-3.17,-2.32,183,260,413,456,343
1179,-0.09,-0.94,0.34,0.31,-3.17,-2.56,184,261,415,458,341
1180,-0.09,-0.94,0.34,0.18,-2.56,-2.93,188,266,415,458,344
1181,-0.09,-0.94,0.34,-0.24,-3.17,-2.93,186,258,413,456,344
1182,-0.09,-0.94,0.32,0.85,-2.01,-2.5,187,259,412,453,347
1183,-0.09,-0.94,0.33,0.24,-2.81,-2.87,189,263,413,457,342
1184,-0.08,-0.95,0.34,0.67,-3.3,-2.69,182,261,417,474,339
1185,-0.08,-0.94,0.33,0.98,-3.78,-2.01,215,258,414,458,343
1186,-0.1,-0.93,0.35,1.89,-3.78,-1.22,183,267,411,461,342
1187,-0.08,-0.93,0.36,2.99,-4.94,-1.04,184,261,416,461,339
1188,-0.08,-0.93,0.35,-2.81,-1.71,-3.72,187,264,412,458,344
1189,-0.1,-0.94,0.35,-0.79,-1.89,-3.54,180,254,410,452,342
1190,-0.09,-0.94,0.35,-0.61,-2.2,-3.66,186,263,410,459,344
1191,-0.1,-0.94,0.34,-0.92,-2.14,-3.23,184,259,414,454,340
1192,-0.08,-0.94,0.35,-0.06,-2.32,-2.56,188,258,412,455,341
1193,-0.09,-0.94,0.34,-0.24,-3.3,-2.87,208,260,412,463,344
1194,-0.09,-0.94,0.34,0.55,-2.81,-2.62,187,264,415,453,344
1195,-0.08,-0.93,0.34,1.83,-4.7,-1.34,179,257,413,456,345
1196,-0.08,-0.93,0.36,3.91,-3.78,-1.65,186,263,413,456,343
1197,-0.07,-0.92,0.34,-2.93,-4.52,-3.05,192,264,414,461,346
1198,-0.09,-0.93,0.34,0.98,-2.14,-2.99,184,261,416,458,344
1199,-0.08,-0.93,0.34,-0.85,-2.5,-3.36,186,259,420,453,341
1200,-0.09,-0.94,0.34,1.04,-3.42,-1.95,185,264,411,460,346
1201,-0.08,-0.94,0.34,0.37,-2.69,-3.11,183,262,416,460,341
1202,-0.09,-0.94,0.34,0.55,-2.99,-2.2,185,263,415,457,340
1203,-0.09,-0.94,0.34,0.0,-2.32,-2.44,191,263,412,458,345
1204,-0.08,-0.93,0.33,1.04,-2.93,-2.87,186,260,413,457,343
1205,-0.07,-0.94,0.31,-1.16,-3.05,-2.87,188,271,418,457,343
1206,-0.07,-0.95,0.31,2.01,-4.88,-2.08,185,262,412,457,344
1207,-0.09,-0.95,0.33,1.53,-2.99,-2.38,175,267,414,456,344
1208,-0.07,-0.95,0.32,0.06,-3.42,-2.99,184,260,415,457,344
1209,-0.05,-0.94,0.29,0.85,-5.86,-2.99,189,264,414,462,345
1210,-0.06,-0.94,0.32,1.71,-5.13,-1.22,186,265,412,456,343
1211,-0.07,-0.94,0.34,1.1,-3.48,-2.69,188,260,410,457,347
1212,-0.03,-0.94,0.32,1.77,-1.28,-4.21,186,262,413,456,343
1213,-0.05,-0.95,0.33,1.95,-1.95,-2.56,187,261,414,457,339
1214,-0.05,-0.94,0.31,-0.49,-2.81,-2.69,180,266,413,458,345
1215,-0.05,-0.94,0.34,0.67,-2.99,-2.5,187,269,409,453,342
1216,-0.06,-0.93,0.33,-0.31,-2.99,-2.93,183,274,414,460,346
1217,-0.07,-0.95,0.34,-0.55,-1.95,-3.78,189,260,415,455,343
1218,-0.06,-0.94,0.33,0.06,-4.58,-3.05,186,267,412,452,346
1219,-0.07,-0.95,0.33,-0.12,-2.2,-2.75,187,264,408,452,346
1220,-0.07,-0.95,0.34,0.85,-2.93,-2.38,189,253,412,457,339
1221,-0.06,-0.95,0.32,-2.2,-2.08,-3.05,184,264,407,463,345
1222,-0.05,-0.94,0.31,-0.24,-2.32,-2.5,187,260,409,459,344
1223,-0.07,-0.95,0.32,1.16,-2.5,-2.5,187,264,410,456,347
1224,-0.07,-0.95,0.32,1.1,-1.53,-2.75,184,265,416,457,341
1225,-0.07,-0.95,0.32,1.1,-3.6,-2.08,184,261,411,456,346
1226,-0.07,-0.95,0.34,0.61,-3.85,-2.38,179,262,409,456,344
1227,-0.07,-0.95,0.32,-0.18,-1.77,-2.93,186,267,409,458,343
1228,-0.06,-0.94,0.32,1.34,-3.66,-1.53,190,265,412,458,345
1229,-0.06,-0.94,0.34,0.85,-1.53,-2.69,186,266,408,459,343
1230,-0.06,-0.94,0.31,-0.61,-3.3,-3.23,185,259,407,456,340
1231,-0.06,-0.94,0.33,0.55,-2.99,-2.75,187,263,411,458,349
1232,-0.08,-0.95,0.31,-4.88,-2.75,-1.04,186,261,410,458,341
1233,-0.07,-0.94,0.34,3.3,-4.09,-1.22,187,263,408,457,345
1234,-0.07,-0.95,0.32,0.43,-4.46,-1.59,188,264,406,458,342
1235,-0.07,-0.95,0.34,1.71,-15.87,-4.76,188,261,408,458,338
1236,-0.06,-0.95,0.32,-0.55,-3.91,-1.77,192,263,405,457,344
1237,-0.05,-0.95,0.32,-0.98,-2.69,-2.32,178,262,411,456,338
1238,-0.05,-0.95,0.31,2.01,-2.69,-2.32,191,267,403,451,345
1239,-0.04,-0.94,0.31,0.18,-2.62,-2.99,189,274,410,456,348
1240,-0.05,-0.94,0.32,0.06,-2.81,-3.66,185,264,404,457,346
1241,-0.04,-0.95,0.31,0.24,-1.77,-3.23,187,265,408,457,345
1242,-0.06,-0.95,0.34,-2.5,-3.17,-2.99,189,267,409,457,345
1243,-0.05,-0.95,0.29,0.79,-2.5,-3.05,186,260,413,456,343
1244,-0.04,-0.95,0.29,-1.22,-2.08,-2.81,182,268,411,452,343
1245,-0.04,-0.96,0.31,-0.06,-3.17,-1.77,188,274,417,460,344
1246,-0.04,-0.96,0.27,0.98,-1.53,-2.93,188,265,404,451,346
1247,-0.06,-0.95,0.34,3.85,-4.76,-0.37,189,267,411,456,347
1248,-0.07,-0.95,0.31,0.24,-2.56,-2.81,185,260,411,455,346
1249,-0.03,-0.95,0.29,-2.2,-0.85,-5.31,185,266,408,457,345
1250,-0.05,-0.95,0.31,-1.4,-1.83,-3.91,182,264,409,462,338
1251,-0.06,-0.96,0.31,1.22,-4.33,-1.71,182,260,407,460,343
1252,-0.05,-0.95,0.3,0.31,-2.44,-2.93,187,266,411,458,345
1253,-0.06,-0.95,0.3,-0.73,-2.69,-2.75,188,265,408,461,340
1254,-0.06,-0.95,0.3,0.06,-2.32,-2.56,192,263,407,457,342
1255,-0.05,-0.95,0.3,0.67,-3.78,-2.75,191,262,416,459,347
1256,-0.04,-0.96,0.31,1.59,-3.36,-1.65,191,266,412,458,344
1257,-0.05,-0.96,0.31,-0.49,-2.32,-2.87,191,262,409,462,339
1258,-0.04,-0.94,0.29,0.61,-2.81,-3.11,185,265,410,460,344
1259,-0.05,-0.95,0.3,-1.4,-2.69,-2.93,187,267,411,460,345
1260,-0.06,-0.95,0.3,1.4,-2.99,-2.75,190,266,409,457,344
1261,-0.06,-0.95,0.31,1.04,-3.6,-1.71,188,268,411,462,346
1262,-0.05,-0.97,0.3,2.99,-7.51,-3.3,189,265,405,453,346
1263,-0.04,-0.95,0.32,1.77,-9.58,-1.59,188,264,409,455,344
1264,-0.01,-0.95,0.3,2.87,-6.29,-0.31,189,263,409,452,347
1265,-0.02,-0.96,0.25,-5.13,-0.92,-7.08,183,266,405,461,344
1266,-0.03,-0.96,0.27,-4.09,-4.27,-2.44,188,258,405,455,337
1267,-0.02,-0.96,0.28,-0.55,-1.34,-3.66,190,267,409,455,344
1268,-0.01,-0.97,0.26,-2.93,0.49,-4.52,189,264,410,460,349
1269,0.0,-0.97,0.2,-4.15,0.12,-2.01,186,267,408,457,346
1270,-0.02,-0.98,0.27,6.77,-2.5,0.0,185,266,406,455,352
1271,-0.01,-0.96,0.29,4.15,0.61,-2.93,188,264,410,458,348
1272,-0.05,-0.96,0.32,-1.59,-5.98,-1.22,185,268,411,452,347
1273,-0.06,-0.96,0.33,0.61,-6.23,-2.14,183,257,409,459,345
1274,-0.04,-0.96,0.32,-2.32,-5.25,-3.36,184,263,407,461,346
1275,-0.03,-0.96,0.34,0.24,-0.85,-2.26,186,263,407,454,343
1276,-0.02,-0.97,0.34,1.53,-2.81,-3.72,182,264,407,458,347
1277,-0.02,-0.95,0.32,1.22,-2.44,-3.23,189,269,403,456,343
1278,-0.03,-0.95,0.32,0.43,-2.62,-2.99,183,267,410,462,343
1279,-0.02,-0.95,0.33,0.06,-3.17,-2.69,190,265,405,455,343
1280,-0.04,-0.95,0.34,-0.18,-3.72,-2.32,187,266,406,462,343
1281,-0.04,-0.95,0.33,0.24,-4.09,-2.81,188,262,405,459,342
1282,-0.04,-0.95,0.32,-1.53,-2.87,-2.38,186,266,406,456,344
1283,-0.03,-0.94,0.36,6.04,-3.42,-0.31,186,263,404,457,343
1284,-0.03,-0.94,0.35,0.98,-1.46,-4.09,186,267,406,452,342
1285,-0.04,-0.93,0.37,1.71,-3.3,-0.43,187,268,405,458,344
1286,-0.03,-0.93,0.31,1.95,-3.05,-0.61,189,265,409,460,343
1287,-0.04,-0.92,0.37,8.06,-8.54,1.71,188,264,404,449,345
1288,-0.05,-0.91,0.37,-6.47,-2.32,-5.13,188,267,405,455,343
1289,-0.03,-0.92,0.4,-3.36,-2.26,-4.64,182,268,404,457,338
1290,-0.03,-0.92,0.38,-1.59,-0.92,-2.26,187,268,406,460,342
1291,-0.05,-0.94,0.35,-1.53,-1.59,-1.77,188,266,404,461,342
1292,-0.06,-0.93,0.37,0.31,-3.48,-2.69,190,265,420,460,345
1293,-0.06,-0.94,0.35,1.4,-3.05,-2.5,190,267,406,456,349
1294,-0.05,-0.94,0.34,-2.2,-2.38,-3.23,187,267,406,459,341
1295,-0.06,-0.95,0.35,1.28,-2.93,-1.04,189,267,406,458,339
1296,-0.04,-0.95,0.33,-1.95,-2.14,-4.46,185,267,410,457,344
1297,-0.05,-0.94,0.31,-2.93,-5.25,-2.2,189,264,403,463,346
1298,-0.04,-0.94,0.35,1.46,-3.97,-4.03,191,261,404,457,341
1299,-0.03,-0.94,0.34,-1.71,-3.91,-3.78,187,271,405,453,344
1300,-0.04,-0.96,0.32,0.0,-2.26,-2.26,187,254,401,461,341
1301,-0.03,-0.94,0.29,-2.5,-2.44,-3.3,189,261,402,459,345
1302,-0.04,-0.95,0.34,-0.98,-2.81,-1.95,186,262,407,457,344
1303,-0.04,-0.95,0.3,1.89,-3.23,-0.49,190,264,403,456,346
1304,-0.04,-0.95,0.32,-0.24,-5.74,-0.49,186,262,400,459,345
1305,-0.06,-0.94,0.35,2.87,-0.79,-1.46,188,266,409,463,345
1306,-0.05,-0.93,0.35,2.93,-3.36,-0.67,192,265,407,456,344
1307,-0.05,-0.94,0.35,-0.49,-1.71,-2.81,189,271,405,459,346
1308,-0.05,-0.94,0.35,-1.16,1.71,-4.76,187,268,406,457,344
1309,-0.03,-0.93,0.34,2.75,3.6,-5.8,186,263,402,455,344
1310,0.01,-0.94,0.32,0.98,4.76,-9.22,186,263,407,457,349
1311,-0.0,-0.94,0.34,-11.47,5.8,-13.0,188,268,406,458,344
1312,0.02,-0.95,0.29,-3.3,-5.25,-5.07,189,270,411,458,343
1313,0.02,-0.96,0.27,-2.87,-8.42,-1.34,186,264,411,459,345
1314,0.01,-0.95,0.28,3.78,-1.89,1.1,192,269,405,457,339
1315,-0.0,-0.96,0.3,5.25,-3.3,0.24,188,265,403,458,342
1316,-0.02,-0.94,0.32,1.04,-1.46,-1.4,186,265,400,453,347
1317,-0.02,-0.95,0.33,5.8,-2.56,-0.92,187,267,404,458,347
1318,-0.03,-0.94,0.32,-0.43,-2.62,-2.99,183,266,404,446,345
1319,-0.06,-0.95,0.36,2.32,-4.94,-0.92,190,264,399,452,344
1320,-0.05,-0.94,0.33,2.44,-3.42,-1.59,188,266,404,460,343
1321,-0.05,-0.94,0.34,-0.61,-2.44,-2.87,188,259,403,456,345
1322,-0.04,-0.94,0.33,-0.24,-3.17,-2.75,179,267,402,457,346
1323,-0.04,-0.95,0.3,-2.26,-2.5,-2.87,188,266,406,457,345
1324,-0.04,-0.95,0.31,2.08,-2.87,-1.77,190,267,405,460,344
1325,-0.03,-0.94,0.33,1.4,-2.99,-3.97,189,269,398,454,346
1326,-0.04,-0.95,0.33,0.73,-2.87,-2.44,193,270,404,461,348
1327,-0.04,-0.95,0.33,0.12,-2.5,-2.5,193,266,405,458,343
1328,-0.04,-0.95,0.32,-0.79,-2.44,-3.23,194,260,404,455,347
1329,-0.05,-0.96,0.32,-0.12,-3.23,-2.44,189,264,401,456,344
1330,-0.04,-0.95,0.32,-0.37,-3.66,-2.2,189,267,403,453,344
1331,-0.04,-0.95,0.34,1.77,-3.42,-2.44,191,267,407,456,349
1332,-0.05,-0.95,0.33,0.0,-2.81,-3.36,189,264,405,455,345
1333,-0.04,-0.95,0.34,0.12,-2.62,-2.38,188,264,406,452,343
1334,-0.04,-0.95,0.29,0.73,-3.36,-1.77,189,259,403,457,345
1335,-0.06,-0.95,0.29,0.24,-4.27,2.75,188,263,405,452,346
1336,-0.05,-0.95,0.31,-5.13,-3.48,-4.7,193,265,405,456,346
1337,-0.05,-0.96,0.31,-2.08,-1.46,-3.48,186,268,405,460,342
1338,-0.02,-0.95,0.3,1.89,-4.94,-0.18,191,262,405,461,345
1339,-0.02,-0.94,0.29,1.59,-4.82,-1.59,190,265,398,460,341
1340,-0.02,-0.94,0.3,1.71,-4.64,-1.28,188,268,405,463,346
1341,-0.05,-0.96,0.32,0.0,-2.32,-2.62,187,268,403,459,346
1342,-0.03,-0.95,0.32,-1.22,-2.69,-3.66,192,263,401,455,344
1343,-0.03,-0.96,0.29,2.44,-1.22,-3.48,193,268,405,452,343
1344,-0.04,-0.95,0.32,4.46,-4.27,0.18,191,268,404,461,344
1345,-0.04,-0.96,0.31,1.71,-0.92,-3.48,184,259,402,457,345
1346,-0.04,-0.95,0.31,-0.55,-3.05,-2.14,187,264,404,458,344
1347,-0.04,-0.95,0.31,4.03,-2.38,-4.52,192,268,401,457,343
1348,-0.04,-0.95,0.33,-1.53,-4.03,-1.22,190,271,407,457,345
1349,-0.04,-0.94,0.34,0.06,-2.5,-1.1,191,268,402,456,341
1350,-0.04,-0.95,0.34,-2.44,-3.36,-3.17,195,265,403,462,345
1351,-0.04,-0.94,0.32,2.44,-4.03,-0.92,190,264,403,458,341
1352,-0.04,-0.94,0.34,-0.12,-2.62,-3.48,191,268,403,462,346
1353,-0.04,-0.94,0.33,0.18,-2.56,-2.44,188,269,404,460,344
1354,-0.04,-0.94,0.34,-1.22,-0.67,-4.39,188,266,399,457,340
1355,-0.05,-0.95,0.34,0.37,-3.05,-2.62,181,267,402,456,347
1356,-0.03,-0.95,0.34,-0.49,-2.62,-2.87,193,267,403,460,346
1357,-0.08,-0.9,0.37,0.37,-2.62,-0.37,190,269,405,458,356
1358,-0.03,-0.95,0.32,0.67,-2.93,-2.75,201,266,404,454,344
1359,-0.05,-0.95,0.32,-3.48,-0.37,-3.85,191,266,406,462,347
1360,-0.03,-0.95,0.31,0.37,-2.32,-1.83,203,266,406,459,343
1361,-0.04,-0.95,0.32,0.37,-2.99,-2.69,190,266,405,459,346
1362,-0.05,-0.95,0.33,1.28,-3.42,-1.95,192,270,403,455,356
1363,-0.06,-0.96,0.3,0.12,-2.75,-3.11,198,261,404,456,344
1364,-0.05,-0.94,0.31,-1.34,-3.17,-2.87,203,261,403,458,347
1365,-0.04,-0.95,0.31,-0.55,-2.2,-2.99,190,267,401,457,346
1366,-0.05,-0.96,0.31,-0.06,-1.95,-3.05,194,266,404,459,348
1367,-0.05,-0.95,0.31,0.12,-2.2,-2.93,190,267,402,458,346
1368,-0.05,-0.96,0.3,-0.49,-2.32,-2.38,189,265,401,458,343
1369,-0.05,-0.95,0.31,-1.04,-2.38,-3.54,189,269,402,458,347
1370,-0.06,-0.95,0.31,1.28,-2.93,-2.93,191,265,401,457,343
1371,-0.05,-0.94,0.33,0.98,-4.64,-1.22,191,266,398,461,345
1372,-0.05,-0.94,0.31,0.12,-3.36,-2.5,193,263,397,457,345
1373,-0.05,-0.94,0.31,-0.37,-1.34,-3.3,187,267,400,453,344
1374,-0.07,-0.95,0.32,-3.48,-2.5,-3.17,186,262,401,455,345
1375,-0.05,-0.95,0.3,-3.48,-2.62,-2.93,189,268,402,461,342
1376,-0.05,-0.96,0.28,1.34,-2.38,-2.2,187,278,400,456,345
1377,-0.05,-0.95,0.3,0.61,-3.11,-2.5,186,269,403,456,344
1378,-0.04,-0.95,0.32,4.94,-3.91,-2.2,187,264,401,455,347
1379,-0.06,-0.95,0.28,0.37,-3.72,-2.08,190,265,402,458,351
1380,-0.05,-0.95,0.3,1.89,-2.2,-1.95,190,266,399,454,347
1381,-0.06,-0.95,0.31,-0.31,-1.89,-3.85,195,271,406,457,344
1382,-0.05,-0.95,0.3,-0.12,-2.08,-3.48,193,266,404,461,344
1383,-0.08,-0.95,0.34,-0.98,-2.93,-3.17,193,265,404,456,343
1384,-0.07,-0.94,0.33,0.92,-4.21,-1.83,192,269,407,454,347
1385,-0.07,-0.94,0.31,0.49,-4.33,-2.26,198,266,401,458,347
1386,-0.07,-0.95,0.34,4.09,-2.14,-1.34,192,266,403,454,347
1387,-0.04,-0.94,0.39,1.59,-4.09,-2.14,197,268,403,455,348
1388,-0.04,-0.94,0.31,2.14,-4.88,-3.17,194,274,399,461,345
1389,-0.08,-0.92,0.41,3.91,-2.01,-5.07,200,269,402,457,344
1390,-0.05,-0.94,0.33,-0.92,-8.54,-5.74,193,269,403,454,345
1391,-0.04,-0.96,0.38,2.32,1.59,1.65,195,266,402,458,345
1392,-0.07,-0.93,0.35,0.55,-0.85,-4.03,195,266,400,455,343
1393,-0.07,-0.95,0.36,2.81,-1.83,-1.46,192,265,406,458,345
1394,-0.06,-0.94,0.33,-0.12,-2.81,-3.36,195,266,406,455,348
1395,-0.05,-0.93,0.33,0.24,-3.3,-3.23,194,271,409,458,340
1396,-0.07,-0.93,0.34,0.31,-2.32,-2.38,198,267,400,462,350
1397,-0.06,-0.93,0.34,1.53,-1.89,-3.23,197,268,401,457,348
1398,-0.07,-0.94,0.35,0.98,-3.6,-2.01,195,266,398,458,344
1399,-0.07,-0.93,0.34,-0.98,-2.32,-2.32,195,270,402,453,346
1400,-0.06,-0.93,0.34,1.46,-3.17,-2.93,194,268,403,456,348
1401,-0.08,-0.94,0.35,-0.92,-2.2,-2.99,192,268,402,462,344
1402,-0.07,-0.94,0.33,-2.93,-4.21,-1.83,196,269,403,458,343
1403,-0.03,-0.93,0.32,3.3,-4.27,-1.95,192,265,400,458,348
1404,-0.05,-0.94,0.32,-0.55,-2.32,-3.36,197,266,401,459,344
1405,-0.07,-0.94,0.34,2.01,-3.36,-2.62,194,264,400,458,345
1406,-0.07,-0.94,0.36,-0.92,-2.01,-2.62,200,266,404,461,345
1407,-0.06,-0.94,0.35,-0.55,-2.5,-3.05,193,266,403,460,348
1408,-0.07,-0.93,0.35,0.43,-2.62,-2.44,199,264,399,454,347
1409,-0.06,-0.93,0.35,0.12,-2.69,-2.75,196,269,398,457,344
1410,-0.07,-0.93,0.35,1.04,-2.81,-2.75,195,266,401,452,350
1411,-0.07,-0.94,0.34,-0.12,-3.3,-2.99,192,263,411,452,348
1412,-0.07,-0.93,0.34,0.92,-4.88,-2.56,189,268,399,461,339
1413,-0.08,-0.94,0.34,-3.42,-1.1,-4.03,196,262,406,458,345
1414,-0.08,-0.95,0.33,-1.04,-1.95,-2.69,193,268,408,447,346
1415,-0.06,-0.95,0.32,-2.56,-4.52,-3.3,201,267,406,455,343
1416,-0.06,-0.96,0.32,0.43,-6.23,-4.46,188,266,408,446,345
1417,-0.06,-0.94,0.31,-1.89,-2.62,-2.87,196,265,409,454,345
1418,-0.06,-0.94,0.32,-0.92,-2.69,-2.81,198,273,404,454,346
1419,-0.05,-0.95,0.31,1.53,-5.07,-3.72,212,266,406,454,343
1420,-0.07,-0.95,0.32,-0.12,-2.93,-1.16,195,261,404,451,342
1421,-0.07,-0.94,0.3,-0.55,-3.11,-3.11,185,264,407,457,345
1422,-0.04,-0.94,0.31,0.37,-3.6,-3.36,194,264,408,453,347
1423,-0.07,-0.95,0.34,-1.89,0.67,-1.71,183,265,410,454,346
1424,-0.04,-0.93,0.33,0.98,-6.1,-0.73,187,267,410,451,345
1425,-0.05,-0.95,0.34,0.0,1.1,0.73,187,268,411,454,340
1426,-0.06,-0.94,0.34,-0.43,-3.48,-3.48,197,271,413,457,346
1427,-0.07,-0.94,0.33,-0.06,-3.11,-3.05,195,263,407,451,345
1428,-0.08,-0.95,0.34,0.85,-2.14,-3.6,192,272,410,449,347
1429,-0.08,-0.95,0.29,2.08,-5.68,-2.14,192,269,410,450,342
1430,-0.06,-0.94,0.31,0.85,-3.72,-2.5,190,265,408,459,339
1431,-0.06,-0.94,0.31,0.37,-3.97,-2.87,195,267,408,452,343
1432,-0.08,-0.94,0.33,0.67,-2.62,-2.69,192,268,410,453,353
1433,-0.07,-0.94,0.33,1.89,-4.39,-1.83,194,266,405,456,344
1434,-0.07,-0.94,0.32,0.67,-2.56,-2.56,195,265,406,452,344
1435,-0.08,-0.94,0.33,0.49,-2.56,-2.32,194,261,410,454,347
1436,-0.08,-0.94,0.32,0.12,-1.71,-2.5,194,265,409,459,346
1437,-0.07,-0.94,0.32,-0.12,-1.77,-2.56,192,267,411,455,348
1438,-0.07,-0.94,0.33,1.1,-3.78,-2.44,197,267,406,459,340
1439,-0.05,-0.94,0.32,0.85,-3.17,-2.26,196,268,409,459,344
1440,-0.06,-0.95,0.32,-0.49,-2.87,-2.5,184,266,405,455,349
1441,-0.06,-0.94,0.32,0.37,-2.2,-3.05,198,266,409,454,346
1442,-0.06,-0.94,0.31,0.55,-2.75,-3.42,195,267,409,455,345
1443,-0.08,-0.94,0.32,-2.2,-2.08,-3.85,194,272,407,454,348
1444,-0.07,-0.95,0.33,-0.12,-2.69,-2.56,195,270,408,451,350
1445,-0.06,-0.95,0.32,0.79,-2.62,-2.56,185,270,407,453,348
1446,-0.07,-0.95,0.32,0.43,-2.32,-2.81,197,267,408,453,345
1447,-0.06,-0.94,0.32,-0.37,-2.81,-3.05,194,268,408,458,346
1448,-0.06,-0.94,0.32,-0.24,-3.23,-3.23,192,269,403,457,343
1449,-0.08,-0.94,0.31,-0.55,-3.17,-2.81,197,268,410,454,347
1450,-0.06,-0.95,0.31,0.37,-3.91,-2.5,193,264,405,458,345
1451,-0.06,-0.94,0.33,0.55,-2.5,-1.89,194,269,411,456,345
1452,-0.06,-0.95,0.31,1.04,-2.69,-2.69,200,266,408,461,355
1453,-0.06,-0.93,0.32,-0.24,-3.17,-3.66,193,267,407,457,347
1454,-0.07,-0.94,0.35,-2.08,-3.17,-1.53,196,268,408,461,342
1455,-0.06,-0.95,0.31,0.92,-3.66,-2.62,196,270,408,456,345
1456,-0.07,-0.94,0.31,-0.31,-2.69,-3.17,197,265,411,458,347
1457,-0.06,-0.94,0.31,0.79,-3.23,-2.69,193,268,406,459,346
1458,-0.06,-0.95,0.31,0.73,-3.91,-2.38,194,268,407,459,344
1459,-0.07,-0.95,0.31,1.4,-3.97,-2.81,185,269,411,454,343
1460,-0.06,-0.95,0.3,0.49,-2.93,-2.69,194,263,412,458,347
1461,-0.07,-0.94,0.32,-0.12,-2.38,-2.14,196,267,423,458,345
1462,-0.06,-0.94,0.33,-0.24,-2.69,-2.56,193,271,405,458,349
1463,-0.07,-0.95,0.32,1.59,-3.11,-2.44,188,265,407,460,346
1464,-0.07,-0.94,0.33,0.06,-2.93,-2.5,199,266,410,456,348
1465,-0.06,-0.94,0.32,0.37,-3.3,-2.87,196,266,412,462,350
1466,-0.06,-0.95,0.31,0.79,-3.6,-2.99,195,266,406,461,346
1467,-0.07,-0.95,0.31,-0.49,-2.69,-3.17,196,270,409,457,342
1468,-0.07,-0.94,0.31,-0.73,-2.87,-3.11,196,270,411,456,347
1469,-0.07,-0.94,0.32,0.06,-2.5,-2.44,196,268,409,455,348
1470,-0.06,-0.95,0.31,-1.46,-1.95,-2.93,190,268,403,462,348
1471,-0.07,-0.94,0.31,0.49,-3.78,-2.75,193,271,407,457,345
1472,-0.07,-0.96,0.31,0.37,-2.75,-2.81,194,268,407,463,348
1473,-0.07,-0.95,0.31,-1.04,-1.4,-3.11,195,267,403,455,348
1474,-0.07,-0.94,0.31,-0.12,-2.75,-2.2,192,269,407,456,347
1475,-0.07,-0.95,0.3,0.67,-4.76,-1.95,194,261,407,459,344
1476,-0.07,-0.95,0.33,-1.16,-2.62,-1.77,198,272,403,460,349
1477,-0.09,-0.94,0.31,2.01,-2.14,-2.56,197,273,409,456,345
1478,-0.07,-0.94,0.31,-1.46,-1.65,-3.66,196,275,407,457,344
1479,-0.07,-0.94,0.33,-3.54,1.83,-6.16,190,268,408,453,347
1480,-0.07,-0.94,0.3,-0.73,-2.44,-4.39,196,262,408,461,348
1481,-0.06,-0.95,0.32,6.47,-7.32,-5.13,197,267,410,457,346
1482,-0.06,-0.94,0.35,-2.75,-0.55,-1.46,201,265,404,458,341
1483,-0.06,-0.94,0.33,-0.55,-3.6,-2.62,198,267,408,461,347
1484,-0.07,-0.94,0.33,2.99,-7.75,-4.03,197,270,410,456,350
1485,-0.07,-0.94,0.34,-1.89,0.73,-1.28,197,264,404,456,348
1486,-0.09,-0.95,0.32,-0.61,-4.46,-2.44,198,270,406,461,350
1487,-0.04,-0.94,0.32,0.55,-3.17,-2.5,194,267,404,460,345
1488,-0.06,-0.94,0.32,0.79,-2.32,-2.44,189,269,405,456,344
1489,-0.07,-0.94,0.32,-1.95,-3.17,-3.66,195,270,406,456,349
1490,-0.08,-0.94,0.33,0.98,-3.78,-1.46,194,270,406,452,350
1491,-0.05,-0.94,0.32,0.55,-1.95,-2.99,190,267,407,461,346
1492,-0.07,-0.94,0.34,1.71,-3.36,-1.65,196,272,408,454,350
1493,-0.06,-0.94,0.33,1.59,-3.3,-2.08,194,268,405,457,347
1494,-0.08,-0.95,0.32,1.04,-3.05,-1.83,194,269,407,457,346
1495,-0.09,-0.95,0.35,0.79,-3.85,-2.99,200,258,404,449,350
1496,-0.06,-0.94,0.35,1.28,-4.94,-1.77,193,267,408,455,349
1497,-0.08,-0.93,0.33,-0.37,-2.99,-2.99,196,266,404,458,348
1498,-0.06,-0.93,0.32,-1.28,-2.87,-3.3,194,268,405,461,347
1499,-0.07,-0.95,0.33,-0.12,-2.5,-2.75,196,270,405,457,349
1500,-0.06,-0.94,0.33,0.61,-2.93,-2.81,194,266,404,456,356
1501,-0.07,-0.94,0.32,-1.83,-1.71,-2.81,194,267,407,456,344
1502,-0.06,-0.95,0.32,-2.14,-2.26,-3.42,193,264,403,457,349
1503,-0.07,-0.94,0.33,-0.98,-3.23,-1.4,204,267,405,467,347
1504,-0.07,-0.95,0.33,-0.55,-1.53,-3.54,195,270,403,457,353
1505,-0.06,-0.94,0.33,0.0,-2.81,-2.26,195,272,405,452,349
1506,-0.07,-0.95,0.32,0.79,-3.17,-2.26,200,272,404,459,347
1507,-0.07,-0.94,0.32,0.43,-3.17,-2.38,194,272,405,456,350
1508,-0.07,-0.95,0.32,1.04,-2.81,-2.5,196,268,406,456,346
1509,-0.07,-0.94,0.33,0.73,-2.81,-2.99,198,272,407,456,350
1510,-0.07,-0.94,0.32,0.18,-3.17,-2.2,198,275,407,458,344
1511,-0.07,-0.94,0.33,0.67,-2.32,-2.87,194,269,407,459,348
1512,-0.08,-0.94,0.32,0.49,-1.53,-4.52,196,271,404,452,348
1513,-0.07,-0.95,0.32,0.0,-3.36,-2.5,195,270,400,452,353
1514,-0.08,-0.94,0.33,0.43,-3.23,-2.99,194,265,405,456,346
1515,-0.07,-0.94,0.33,-0.06,-2.26,-3.3,198,266,402,454,346
1516,-0.07,-0.94,0.33,1.28,-3.66,-2.08,194,269,405,454,348
1517,-0.07,-0.95,0.32,0.55,-3.11,-2.69,194,269,408,449,349
1518,-0.07,-0.95,0.32,0.43,-3.17,-2.69,196,271,400,451,346
1519,-0.07,-0.94,0.32,0.67,-3.11,-2.01,197,271,404,456,347
1520,-0.08,-0.94,0.32,1.4,-3.66,-2.2,193,269,406,453,347
1521,-0.08,-0.94,0.32,-0.37,-2.81,-2.93,200,272,398,460,347
1522,-0.08,-0.95,0.32,0.12,-3.05,-2.44,187,273,406,455,348
1523,-0.07,-0.94,0.33,-0.24,-3.05,-3.48,193,273,401,458,349
1524,-0.07,-0.95,0.34,0.67,-2.69,-2.2,200,268,405,455,344
1525,-0.08,-0.94,0.32,-0.73,-2.87,-2.93,195,274,409,467,346
1526,-0.07,-0.94,0.33,1.04,-3.11,-2.69,197,267,403,457,347
1527,-0.07,-0.94,0.31,0.0,-3.05,-2.26,195,269,403,456,347
1528,-0.07,-0.94,0.31,-0.18,-3.78,-3.72,199,273,406,461,349
1529,-0.03,-0.8,0.41,70.86,-23.74,2.38,317,353,393,458,377
1530,0.15,-0.84,0.73,33.45,-8.36,-6.9,408,423,376,445,395
1531,0.29,-0.25,0.97,63.05,21.67,-31.07,403,436,377,440,383
1532,0.16,-0.28,0.99,-15.63,-2.5,-4.7,382,447,353,410,372
1533,0.19,-0.32,0.93,-2.32,15.01,-8.24,376,443,333,395,328
1534,0.19,-0.32,0.95,1.71,-4.76,1.22,365,434,330,389,314
1535,0.16,-0.25,0.93,4.58,-3.17,-3.72,360,438,327,398,335
1536,-0.07,-0.99,0.15,-1.59,-5.55,-4.09,164,246,420,447,338
1537,-0.07,-0.98,0.12,1.1,-8.42,-4.33,173,251,419,446,335
1538,-0.07,-0.98,0.11,-3.17,-1.22,-3.17,171,248,418,439,337
1539,-0.07,-0.98,0.22,13.85,9.28,-2.14,177,252,420,448,330
1540,-0.1,-0.99,0.16,-0.61,17.58,2.38,170,253,419,445,340
1541,-0.1,-0.98,0.14,-0.06,-7.57,-3.48,174,255,418,447,337
1542,-0.11,-0.99,0.16,3.36,-5.0,-2.32,170,255,411,442,339
1543,-0.09,-0.99,0.15,-1.46,-8.54,-3.97,173,257,415,449,340
1544,-0.09,-0.99,0.17,0.06,-4.21,-0.73,174,254,415,447,336
1545,-0.08,-0.98,0.16,1.65,-3.78,-1.46,177,248,414,452,336
1546,-0.07,-0.97,0.23,10.19,-4.09,-3.97,176,260,419,445,337
1547,-0.07,-0.98,0.22,1.59,-2.87,-1.53,174,247,420,466,336
1548,-0.08,-0.97,0.22,-0.67,-3.11,-3.11,175,254,423,449,339
1549,-0.09,-0.97,0.21,-1.46,-0.55,-2.01,183,261,418,447,336
1550,-0.06,-0.97,0.23,1.95,-7.57,-2.2,183,257,418,452,339
1551,-0.1,-0.98,0.21,-2.87,-6.84,-2.14,168,258,420,452,340
1552,-0.07,-0.96,0.22,29.97,-7.75,-5.86,212,258,415,449,341
1553,-0.11,-0.97,0.27,-5.49,-5.0,-3.36,177,258,422,450,339
1554,-0.05,-0.97,0.22,4.76,-7.02,-1.34,176,260,419,447,337
1555,-0.08,-0.96,0.24,-1.46,-2.14,-3.91,179,260,418,450,338
1556,-0.07,-0.96,0.24,2.44,-0.92,-3.17,178,260,411,448,341
1557,-0.07,-0.97,0.26,0.43,-1.53,-3.78,171,254,416,441,338
1558,-0.06,-0.96,0.25,-0.18,-2.56,-2.38,181,262,413,450,339
1559,-0.06,-0.96,0.25,1.46,-3.36,-2.56,177,256,409,451,338
1560,-0.07,-0.96,0.26,-1.28,-1.28,-3.36,177,257,413,449,340
1561,-0.08,-0.96,0.25,0.0,-2.62,-3.54,179,261,413,455,339
1562,-0.06,-0.96,0.26,0.12,-2.08,-3.97,178,251,415,455,342
1563,-0.05,-0.96,0.25,-0.31,-3.91,-2.69,172,258,416,452,339
1564,-0.05,-0.97,0.24,0.55,-4.88,-2.26,196,262,415,450,342
1565,-0.05,-0.97,0.25,-1.1,-0.43,-2.87,176,252,409,449,338
1566,-0.06,-0.97,0.23,0.24,-4.39,-1.59,171,259,413,464,338
1567,-0.04,-0.96,0.23,-0.98,-1.53,-3.54,179,262,413,451,342
1568,-0.06,-0.97,0.25,0.79,-3.6,-2.5,177,258,413,448,338
1569,-0.05,-0.96,0.32,-2.62,1.16,-8.91,184,260,415,450,341
1570,-0.05,-0.97,0.21,3.36,-6.53,0.43,179,262,411,451,338
1571,-0.04,-0.97,0.24,5.19,-6.35,-2.81,180,260,412,444,337
1572,-0.01,-0.97,0.23,2.93,-4.27,-2.01,181,254,413,448,341
1573,-0.02,-0.97,0.27,5.74,-3.11,-2.56,180,262,408,453,339
1574,-0.0,-0.96,0.28,5.49,-3.78,0.24,185,259,410,457,335
1575,-0.04,-0.97,0.28,-0.79,0.12,-3.17,174,262,404,450,340
1576,-0.07,-0.97,0.25,0.55,-2.56,-3.6,173,262,412,450,340
1577,-0.05,-0.96,0.24,0.92,-2.38,-8.0,176,259,411,443,339
1578,-0.04,-1.0,0.27,1.4,1.95,-1.28,181,261,413,444,341
1579,-0.06,-0.96,0.22,1.53,-0.61,-2.32,181,264,421,452,338
1580,-0.06,-0.94,0.23,3.11,0.61,-3.05,178,263,419,454,338
1581,-0.09,-0.97,0.28,-1.34,7.32,3.05,180,262,418,448,345
1582,-0.05,-0.96,0.25,-3.72,-10.13,-2.38,179,264,416,449,346
1583,-0.09,-0.98,0.18,-9.46,-3.11,-7.51,177,264,417,451,348
1584,-0.06,-0.98,0.18,-2.32,-6.71,-1.28,184,258,414,452,342
1585,-0.05,-0.98,0.15,-2.75,-0.73,-1.65,185,261,412,452,346
1586,-0.13,-0.99,0.15,4.33,-18.25,6.71,183,260,414,451,348
1587,0.01,-0.97,0.19,-5.37,2.38,-3.36,187,265,417,451,363
1588,-0.02,-1.0,0.15,-24.05,-5.13,-13.61,212,275,385,445,371
1589,0.03,-0.98,0.03,-5.62,5.98,-4.94,170,239,246,427,329
1590,0.03,-0.98,0.17,17.88,6.16,7.2,166,255,392,443,323
1591,-0.0,-0.95,0.24,4.76,-4.58,0.37,171,256,407,439,326
1592,-0.05,-0.94,0.26,3.85,7.2,3.42,217,257,406,446,323
1593,-0.1,-0.96,0.28,-3.6,-14.22,5.13,173,256,414,438,329
1594,-0.03,-0.96,0.23,-9.64,2.38,-12.88,179,254,413,448,334
1595,-0.09,-0.97,0.26,0.31,2.62,-14.34,182,251,411,452,332
1596,-0.05,-0.98,0.16,4.7,-6.84,0.85,179,256,412,445,332
1597,-0.03,-0.98,0.18,-0.06,-10.93,-3.11,177,260,410,446,332
1598,-0.04,-0.98,0.16,-8.06,-4.09,-2.69,177,257,412,452,333
1599,-0.08,-1.01,0.11,-6.96,-0.43,-4.52,178,261,414,447,333
1600,-0.03,-0.99,0.14,4.88,0.67,-7.2,176,258,413,453,333
1601,-0.07,-0.97,0.22,11.05,-3.36,0.55,179,260,413,445,335
1602,-0.1,-0.98,0.27,-4.15,0.24,0.79,178,257,415,452,339
1603,-0.05,-0.97,0.2,2.38,0.73,-8.97,177,252,418,450,333
1604,-0.06,-0.98,0.2,-5.13,0.12,0.55,179,259,412,453,337
1605,-0.01,-0.95,0.29,0.24,-0.24,-13.61,177,256,412,450,338
1606,-0.09,-0.97,0.29,8.24,-10.62,2.93,180,259,413,446,335
1607,0.01,-0.98,0.16,-0.43,-7.39,-7.87,179,258,410,451,335
1608,0.03,-1.0,0.16,0.55,-4.15,-4.21,180,257,410,454,337
1609,0.02,-0.98,0.13,2.93,-2.01,-1.16,181,261,404,452,337
1610,0.03,-0.98,0.15,10.68,-1.04,-1.83,180,259,408,449,336
1611,0.02,-0.97,0.22,5.0,2.69,-6.59,181,264,414,457,338
1612,0.01,-0.96,0.19,-3.78,1.59,-2.5,183,257,414,450,341
1613,-0.03,-0.98,0.27,-10.99,9.22,-1.34,180,258,419,454,334
1614,-0.05,-0.98,0.22,-5.98,8.91,4.39,201,259,419,456,340
1615,0.01,-0.97,0.18,6.71,-3.05,-4.33,184,257,420,454,336
1616,-0.02,-0.97,0.2,-0.06,-4.39,-0.73,186,257,421,455,339
1617,-0.04,-0.98,0.23,5.25,-7.63,0.43,187,259,423,452,338
1618,-0.06,-0.97,0.26,-0.06,-10.8,0.0,183,259,423,455,332
1619,-0.08,-0.97,0.29,0.0,-7.32,-2.75,180,262,418,456,329
1620,-0.04,-0.96,0.27,-1.16,-17.27,-7.08,182,259,420,450,340
1621,-0.02,-0.97,0.26,1.59,-7.26,-0.92,184,261,417,449,341
1622,-0.02,-0.95,0.3,1.4,-4.21,-5.07,183,256,420,453,346
1623,-0.0,-0.96,0.25,4.46,-3.97,-1.22,181,261,420,445,341
1624,-0.02,-0.96,0.3,-1.46,-1.04,-2.81,211,259,418,449,342
1625,-0.01,-0.96,0.27,0.12,-3.36,-4.76,183,261,420,457,337
1626,-0.02,-0.96,0.31,1.77,-3.85,-2.81,185,261,419,448,347
1627,-0.02,-0.96,0.28,-0.98,-3.72,-2.81,175,265,415,455,335
1628,-0.0,-0.95,0.27,1.28,-4.03,-2.62,185,261,418,445,340
1629,-0.02,-0.95,0.28,2.5,-1.65,-2.32,187,260,423,454,341
1630,-0.02,-0.94,0.28,2.99,-3.97,-2.62,187,260,421,459,342
1631,-0.03,-0.95,0.3,1.04,-3.17,-2.5,182,257,414,456,339
1632,-0.03,-0.96,0.31,-0.31,-3.6,-2.08,185,259,418,457,339
1633,-0.02,-0.95,0.3,3.72,-7.51,-3.3,182,257,414,452,344
1634,-0.02,-0.95,0.31,1.34,-3.66,-2.32,184,266,420,456,342
1635,-0.01,-0.96,0.3,1.1,-2.5,-2.2,184,268,419,455,340
1636,-0.01,-0.95,0.3,-1.16,-2.81,-2.62,175,260,419,457,342
1637,-0.01,-0.95,0.3,-0.49,-2.01,-3.17,184,262,418,454,345
1638,-0.02,-0.96,0.3,-0.37,-2.69,-2.62,181,262,417,455,341
1639,0.0,-0.95,0.3,-0.55,-1.53,-3.72,222,258,420,454,340
1640,-0.0,-0.95,0.29,-1.53,-1.34,-4.33,182,262,420,460,343
1641,-0.02,-0.96,0.31,0.85,-3.23,-2.81,182,262,416,457,344
1642,-0.01,-0.95,0.31,0.06,-2.69,-2.81,184,260,412,454,343
1643,-0.02,-0.95,0.32,2.2,-3.3,-2.44,188,262,415,459,341
1644,-0.02,-0.94,0.3,5.25,-2.08,-1.65,181,263,419,459,342
1645,-0.02,-0.94,0.31,2.69,-2.32,-1.46,182,261,422,459,336
1646,-0.03,-0.94,0.32,0.73,-2.5,-2.38,189,263,417,464,341
1647,-0.03,-0.94,0.3,-2.01,2.44,-1.4,182,265,417,456,343
1648,-0.05,-0.94,0.3,0.31,-3.72,-3.42,183,257,415,450,341
1649,-0.04,-0.94,0.32,0.73,-2.99,-2.44,173,259,418,457,337
1650,-0.06,-0.94,0.32,0.79,-2.87,-2.08,182,262,418,456,340
1651,-0.05,-0.95,0.3,-1.65,-1.65,-1.71,180,257,412,456,341
1652,-0.06,-0.95,0.31,-0.18,-2.62,-2.69,186,260,419,459,341
1653,-0.05,-0.95,0.31,0.79,-3.48,-2.26,181,262,420,460,339
1654,-0.06,-0.95,0.31,0.55,-3.05,-2.62,183,264,414,458,340
1655,-0.06,-0.95,0.31,0.73,-3.48,-2.69,185,264,413,453,337
1656,-0.05,-0.95,0.31,0.0,-2.26,-2.56,181,269,417,458,341
1657,-0.05,-0.94,0.3,0.79,-3.54,-2.2,186,258,416,456,337
1658,-0.06,-0.94,0.31,0.37,-3.42,-2.99,185,257,417,457,339
1659,-0.06,-0.95,0.31,0.73,-2.99,-2.69,186,261,417,453,342
1660,-0.06,-0.95,0.33,-2.69,-6.29,-2.38,181,259,415,455,340
1661,-0.05,-0.96,0.31,-0.43,-5.62,-1.65,184,262,419,451,340
1662,-0.05,-0.95,0.29,-0.67,-0.92,-3.36,186,263,417,455,344
1663,-0.05,-0.95,0.3,1.4,-4.52,-3.11,179,269,416,456,347
1664,-0.06,-0.95,0.3,0.73,-2.62,-1.4,187,261,415,453,338
1665,-0.07,-0.95,0.31,2.01,-2.87,-2.08,187,259,415,456,350
1666,-0.05,-0.95,0.3,-0.12,-2.14,-2.08,188,263,419,457,346
1667,-0.06,-0.95,0.3,1.04,-3.54,-2.08,181,264,418,452,343
1668,-0.06,-0.95,0.31,1.34,-2.32,-2.26,182,261,412,458,342
1669,-0.06,-0.96,0.3,0.18,-3.97,-1.71,187,256,411,462,339
1670,-0.11,-0.95,0.33,0.61,-3.48,-2.2,186,261,417,451,349
1671,-0.11,-0.94,0.36,1.1,-0.98,-3.3,182,260,415,462,344
1672,-0.09,-0.93,0.35,0.18,-2.26,-2.87,187,264,417,461,346
1673,-0.1,-0.94,0.35,1.89,-2.62,-2.5,206,263,411,456,340
1674,-0.09,-0.94,0.34,0.12,-3.23,-3.17,193,259,415,456,343
1675,-0.09,-0.94,0.34,0.18,-2.14,-3.11,184,258,415,458,341
1676,-0.09,-0.94,0.34,1.53,-3.05,-2.26,186,258,415,454,340
1677,-0.08,-0.93,0.34,2.08,-2.69,-1.89,183,267,414,458,335
1678,-0.1,-0.94,0.34,-0.43,-2.14,-3.97,183,263,416,454,345
1679,-0.08,-0.94,0.34,0.0,-3.3,-2.81,188,273,417,458,339
1680,-0.09,-0.94,0.35,0.12,-2.32,-2.56,187,265,415,454,343
1681,-0.08,-0.93,0.34,0.67,-3.36,-2.87,185,263,413,460,340
1682,-0.09,-0.94,0.34,-0.31,-2.75,-2.44,180,265,414,461,340
1683,-0.1,-0.94,0.35,-0.18,-2.38,-2.75,188,261,418,458,341
1684,-0.08,-0.94,0.34,0.18,-2.56,-2.93,183,265,415,457,334
1685,-0.08,-0.94,0.35,0.12,-2.81,-2.38,185,263,417,460,339
1686,-0.08,-0.93,0.34,1.4,-3.3,-2.56,188,263,416,456,345
1687,-0.1,-0.94,0.34,-0.37,-2.56,-2.99,184,260,414,455,344
1688,-0.09,-0.94,0.34,0.61,-2.62,-2.62,186,262,414,456,346
1689,-0.08,-0.94,0.34,0.18,-3.23,-2.5,190,261,408,456,340
1690,-0.09,-0.94,0.34,0.0,-3.17,-2.32,183,260,413,456,343
1691,-0.09,-0.94,0.34,0.31,-3.17,-2.56,184,261,415,458,341
1692,-0.09,-0.94,0.34,0.18,-2.56,-2.93,188,266,415,458,344
1693,-0.09,-0.94,0.34,-0.24,-3.17,-2.93,186,258,413,456,344
1694,-0.09,-0.94,0.32,0.85,-2.01,-2.5,187,259,412,453,347
1695,-0.09,-0.94,0.33,0.24,-2.81,-2.87,189,263,413,457,342
1696,-0.08,-0.95,0.34,0.67,-3.3,-2.69,182,261,417,474,339
1697,-0.08,-0.94,0.33,0.98,-3.78,-2.01,215,258,414,458,343
1698,-0.1,-0.93,0.35,1.89,-3.78,-1.22,183,267,411,461,342
1699,-0.08,-0.93,0.36,2.99,-4.94,-1.04,184,261,416,461,339
1700,-0.08,-0.93,0.35,-2.81,-1.71,-3.72,187,264,412,458,344
1701,-0.1,-0.94,0.35,-0.79,-1.89,-3.54,180,254,410,452,342
1702,-0.09,-0.94,0.35,-0.61,-2.2,-3.66,186,263,410,459,344
1703,-0.1,-0.94,0.34,-0.92,-2.14,-3.23,184,259,414,454,340
1704,-0.08,-0.94,0.35,-0.06,-2.32,-2.56,188,258,412,455,341
1705,-0.09,-0.94,0.34,-0.24,-3.3,-2.87,208,260,412,463,344
1706,-0.09,-0.94,0.34,0.55,-2.81,-2.62,187,264,415,453,344
1707,-0.08,-0.93,0.34,1.83,-4.7,-1.34,179,257,413,456,345
1708,-0.08,-0.93,0.36,3.91,-3.78,-1.65,186,263,413,456,343
1709,-0.07,-0.92,0.34,-2.93,-4.52,-3.05,192,264,414,461,346
1710,-0.09,-0.93,0.34,0.98,-2.14,-2.99,184,261,416,458,344
1711,-0.08,-0.93,0.34,-0.85,-2.5,-3.36,186,259,420,453,341
1712,-0.09,-0.94,0.34,1.04,-3.42,-1.95,185,264,411,460,346
1713,-0.08,-0.94,0.34,0.37,-2.69,-3.11,183,262,416,460,341
1714,-0.09,-0.94,0.34,0.55,-2.99,-2.2,185,263,415,457,340
1715,-0.09,-0.94,0.34,0.0,-2.32,-2.44,191,263,412,458,345
1716,-0.08,-0.93,0.33,1.04,-2.93,-2.87,186,260,413,457,343
1717,-0.07,-0.94,0.31,-1.16,-3.05,-2.87,188,271,418,457,343
1718,-0.07,-0.95,0.31,2.01,-4.88,-2.08,185,262,412,457,344
1719,-0.09,-0.95,0.33,1.53,-2.99,-2.38,175,267,414,456,344
1720,-0.07,-0.95,0.32,0.06,-3.42,-2.99,184,260,415,457,344
1721,-0.05,-0.94,0.29,0.85,-5.86,-2.99,189,264,414,462,345
1722,-0.06,-0.94,0.32,1.71,-5.13,-1.22,186,265,412,456,343
1723,-0.07,-0.94,0.34,1.1,-3.48,-2.69,188,260,410,457,347
1724,-0.03,-0.94,0.32,1.77,-1.28,-4.21,186,262,413,456,343
1725,-0.05,-0.95,0.33,1.95,-1.95,-2.56,187,261,414,457,339
1726,-0.05,-0.94,0.31,-0.49,-2.81,-2.69,180,266,413,458,345
1727,-0.05,-0.94,0.34,0.67,-2.99,-2.5,187,269,409,453,342
1728,-0.06,-0.93,0.33,-0.31,-2.99,-2.93,183,274,414,460,346
1729,-0.07,-0.95,0.34,-0.55,-1.95,-3.78,189,260,415,455,343
1730,-0.06,-0.94,0.33,0.06,-4.58,-3.05,186,267,412,452,346
1731,-0.07,-0.95,0.33,-0.12,-2.2,-2.75,187,264,408,452,346
1732,-0.07,-0.95,0.34,0.85,-2.93,-2.38,189,253,412,457,339
1733,-0.06,-0.95,0.32,-2.2,-2.08,-3.05,184,264,407,463,345
1734,-0.05,-0.94,0.31,-0.24,-2.32,-2.5,187,260,409,459,344
1735,-0.07,-0.95,0.32,1.16,-2.5,-2.5,187,264,410,456,347
1736,-0.07,-0.95,0.32,1.1,-1.53,-2.75,184,265,416,457,341
1737,-0.07,-0.95,0.32,1.1,-3.6,-2.08,184,261,411,456,346
1738,-0.07,-0.95,0.34,0.61,-3.85,-2.38,179,262,409,456,344
1739,-0.07,-0.95,0.32,-0.18,-1.77,-2.93,186,267,409,458,343
1740,-0.06,-0.94,0.32,1.34,-3.66,-1.53,190,265,412,458,345
1741,-0.06,-0.94,0.34,0.85,-1.53,-2.69,186,266,408,459,343
1742,-0.06,-0.94,0.31,-0.61,-3.3,-3.23,185,259,407,456,340
1743,-0.06,-0.94,0.33,0.55,-2.99,-2.75,187,263,411,458,349
1744,-0.08,-0.95,0.31,-4.88,-2.75,-1.04,186,261,410,458,341
1745,-0.07,-0.94,0.34,3.3,-4.09,-1.22,187,263,408,457,345
1746,-0.07,-0.95,0.32,0.43,-4.46,-1.59,188,264,406,458,342
1747,-0.07,-0.95,0.34,1.71,-15.87,-4.76,188,261,408,458,338
1748,-0.06,-0.95,0.32,-0.55,-3.91,-1.77,192,263,405,457,344
1749,-0.05,-0.95,0.32,-0.98,-2.69,-2.32,178,262,411,456,338
1750,-0.05,-0.95,0.31,2.01,-2.69,-2.32,191,267,403,451,345
1751,-0.04,-0.94,0.31,0.18,-2.62,-2.99,189,274,410,456,348
1752,-0.05,-0.94,0.32,0.06,-2.81,-3.66,185,264,404,457,346
1753,-0.04,-0.95,0.31,0.24,-1.77,-3.23,187,265,408,457,345
1754,-0.06,-0.95,0.34,-2.5,-3.17,-2.99,189,267,409,457,345
1755,-0.05,-0.95,0.29,0.79,-2.5,-3.05,186,260,413,456,343
1756,-0.04,-0.95,0.29,-1.22,-2.08,-2.81,182,268,411,452,343
1757,-0.04,-0.96,0.31,-0.06,-3.17,-1.77,188,274,417,460,344
1758,-0.04,-0.96,0.27,0.98,-1.53,-2.93,188,265,404,451,346
1759,-0.06,-0.95,0.34,3.85,-4.76,-0.37,189,267,411,456,347
1760,-0.07,-0.95,0.31,0.24,-2.56,-2.81,185,260,411,455,346
1761,-0.03,-0.95,0.29,-2.2,-0.85,-5.31,185,266,408,457,345
1762,-0.05,-0.95,0.31,-1.4,-1.83,-3.91,182,264,409,462,338
1763,-0.06,-0.96,0.31,1.22,-4.33,-1.71,182,260,407,460,343
1764,-0.05,-0.95,0.3,0.31,-2.44,-2.93,187,266,411,458,345
1765,-0.06,-0.95,0.3,-0.73,-2.69,-2.75,188,265,408,461,340
1766,-0.06,-0.95,0.3,0.06,-2.32,-2.56,192,263,407,457,342
1767,-0.05,-0.95,0.3,0.67,-3.78,-2.75,191,262,416,459,347
1768,-0.04,-0.96,0.31,1.59,-3.36,-1.65,191,266,412,458,344
1769,-0.05,-0.96,0.31,-0.49,-2.32,-2.87,191,262,409,462,339
1770,-0.04,-0.94,0.29,0.61,-2.81,-3.11,185,265,410,460,344
1771,-0.05,-0.95,0.3,-1.4,-2.69,-2.93,187,267,411,460,345
1772,-0.06,-0.95,0.3,1.4,-2.99,-2.75,190,266,409,457,344
1773,-0.06,-0.95,0.31,1.04,-3.6,-1.71,188,268,411,462,346
1774,-0.05,-0.97,0.3,2.99,-7.51,-3.3,189,265,405,453,346
1775,-0.04,-0.95,0.32,1.77,-9.58,-1.59,188,264,409,455,344
1776,-0.01,-0.95,0.3,2.87,-6.29,-0.31,189,263,409,452,347
1777,-0.02,-0.96,0.25,-5.13,-0.92,-7.08,183,266,405,461,344
1778,-0.03,-0.96,0.27,-4.09,-4.27,-2.44,188,258,405,455,337
1779,-0.02,-0.96,0.28,-0.55,-1.34,-3.66,190,267,409,455,344
1780,-0.01,-0.97,0.26,-2.93,0.49,-4.52,189,264,410,460,349
1781,0.0,-0.97,0.2,-4.15,0.12,-2.01,186,267,408,457,346
1782,-0.02,-0.98,0.27,6.77,-2.5,0.0,185,266,406,455,352
1783,-0.01,-0.96,0.29,4.15,0.61,-2.93,188,264,410,458,348
1784,-0.05,-0.96,0.32,-1.59,-5.98,-1.22,185,268,411,452,347
1785,-0.06,-0.96,0.33,0.61,-6.23,-2.14,183,257,409,459,345
1786,-0.04,-0.96,0.32,-2.32,-5.25,-3.36,184,263,407,461,346
1787,-0.03,-0.96,0.34,0.24,-0.85,-2.26,186,263,407,454,343
1788,-0.02,-0.97,0.34,1.53,-2.81,-3.72,182,264,407,458,347
1789,-0.02,-0.95,0.32,1.22,-2.44,-3.23,189,269,403,456,343
1790,-0.03,-0.95,0.32,0.43,-2.62,-2.99,183,267,410,462,343
1791,-0.02,-0.95,0.33,0.06,-3.17,-2.69,190,265,405,455,343
1792,-0.04,-0.95,0.34,-0.18,-3.72,-2.32,187,266,406,462,343
1793,-0.04,-0.95,0.33,0.24,-4.09,-2.81,188,262,405,459,342
1794,-0.04,-0.95,0.32,-1.53,-2.87,-2.38,186,266,406,456,344
1795,-0.03,-0.94,0.36,6.04,-3.42,-0.31,186,263,404,457,343
1796,-0.03,-0.94,0.35,0.98,-1.46,-4.09,186,267,406,452,342
1797,-0.04,-0.93,0.37,1.71,-3.3,-0.43,187,268,405,458,344
1798,-0.03,-0.93,0.31,1.95,-3.05,-0.61,189,265,409,460,343
1799,-0.04,-0.92,0.37,8.06,-8.54,1.71,188,264,404,449,345
1800,-0.05,-0.91,0.37,-6.47,-2.32,-5.13,188,267,405,455,343
1801,-0.03,-0.92,0.4,-3.36,-2.26,-4.64,182,268,404,457,338
1802,-0.03,-0.92,0.38,-1.59,-0.92,-2.26,187,268,406,460,342
1803,-0.05,-0.94,0.35,-1.53,-1.59,-1.77,188,266,404,461,342
1804,-0.06,-0.93,0.37,0.31,-3.48,-2.69,190,265,420,460,345
1805,-0.06,-0.94,0.35,1.4,-3.05,-2.5,190,267,406,456,349
1806,-0.05,-0.94,0.34,-2.2,-2.38,-3.23,187,267,406,459,341
1807,-0.06,-0.95,0.35,1.28,-2.93,-1.04,189,267,406,458,339
1808,-0.04,-0.95,0.33,-1.95,-2.14,-4.46,185,267,410,457,344
1809,-0.05,-0.94,0.31,-2.93,-5.25,-2.2,189,264,403,463,346
1810,-0.04,-0.94,0.35,1.46,-3.97,-4.03,191,261,404,457,341
1811,-0.03,-0.94,0.34,-1.71,-3.91,-3.78,187,271,405,453,344
1812,-0.04,-0.96,0.32,0.0,-2.26,-2.26,187,254,401,461,341
1813,-0.03,-0.94,0.29,-2.5,-2.44,-3.3,189,261,402,459,345
1814,-0.04,-0.95,0.34,-0.98,-2.81,-1.95,186,262,407,457,344
1815,-0.04,-0.95,0.3,1.89,-3.23,-0.49,190,264,403,456,346
1816,-0.04,-0.95,0.32,-0.24,-5.74,-0.49,186,262,400,459,345
1817,-0.06,-0.94,0.35,2.87,-0.79,-1.46,188,266,409,463,345
1818,-0.05,-0.93,0.35,2.93,-3.36,-0.67,192,265,407,456,344
1819,-0.05,-0.94,0.35,-0.49,-1.71,-2.81,189,271,405,459,346
1820,-0.05,-0.94,0.35,-1.16,1.71,-4.76,187,268,406,457,344
1821,-0.03,-0.93,0.34,2.75,3.6,-5.8,186,263,402,455,344
1822,0.01,-0.94,0.32,0.98,4.76,-9.22,186,263,407,457,349
1823,-0.0,-0.94,0.34,-11.47,5.8,-13.0,188,268,406,458,344
1824,0.02,-0.95,0.29,-3.3,-5.25,-5.07,189,270,411,458,343
1825,0.02,-0.96,0.27,-2.87,-8.42,-1.34,186,264,411,459,345
1826,0.01,-0.95,0.28,3.78,-1.89,1.1,192,269,405,457,339
1827,-0.0,-0.96,0.3,5.25,-3.3,0.24,188,265,403,458,342
1828,-0.02,-0.94,0.32,1.04,-1.46,-1.4,186,265,400,453,347
1829,-0.02,-0.95,0.33,5.8,-2.56,-0.92,187,267,404,458,347
1830,-0.03,-0.94,0.32,-0.43,-2.62,-2.99,183,266,404,446,345
1831,-0.06,-0.95,0.36,2.32,-4.94,-0.92,190,264,399,452,344
1832,-0.05,-0.94,0.33,2.44,-3.42,-1.59,188,266,404,460,343
1833,-0.05,-0.94,0.34,-0.61,-2.44,-2.87,188,259,403,456,345
1834,-0.04,-0.94,0.33,-0.24,-3.17,-2.75,179,267,402,457,346
1835,-0.04,-0.95,0.3,-2.26,-2.5,-2.87,188,266,406,457,345
1836,-0.04,-0.95,0.31,2.08,-2.87,-1.77,190,267,405,460,344
1837,-0.03,-0.94,0.33,1.4,-2.99,-3.97,189,269,398,454,346
1838,-0.04,-0.95,0.33,0.73,-2.87,-2.44,193,270,404,461,348
1839,-0.04,-0.95,0.33,0.12,-2.5,-2.5,193,266,405,458,343
1840,-0.04,-0.95,0.32,-0.79,-2.44,-3.23,194,260,404,455,347
1841,-0.05,-0.96,0.32,-0.12,-3.23,-2.44,189,264,401,456,344
1842,-0.04,-0.95,0.32,-0.37,-3.66,-2.2,189,267,403,453,344
1843,-0.04,-0.95,0.34,1.77,-3.42,-2.44,191,267,407,456,349
1844,-0.05,-0.95,0.33,0.0,-2.81,-3.36,189,264,405,455,345
1845,-0.04,-0.95,0.34,0.12,-2.62,-2.38,188,264,406,452,343
1846,-0.04,-0.95,0.29,0.73,-3.36,-1.77,189,259,403,457,345
1847,-0.06,-0.95,0.29,0.24,-4.27,2.75,188,263,405,452,346
1848,-0.05,-0.95,0.31,-5.13,-3.48,-4.7,193,265,405,456,346
1849,-0.05,-0.96,0.31,-2.08,-1.46,-3.48,186,268,405,460,342
1850,-0.02,-0.95,0.3,1.89,-4.94,-0.18,191,262,405,461,345
1851,-0.02,-0.94,0.29,1.59,-4.82,-1.59,190,265,398,460,341
1852,-0.02,-0.94,0.3,1.71,-4.64,-1.28,188,268,405,463,346
1853,-0.05,-0.96,0.32,0.0,-2.32,-2.62,187,268,403,459,346
1854,-0.03,-0.95,0.32,-1.22,-2.69,-3.66,192,263,401,455,344
1855,-0.03,-0.96,0.29,2.44,-1.22,-3.48,193,268,405,452,343
1856,-0.04,-0.95,0.32,4.46,-4.27,0.18,191,268,404,461,344
1857,-0.04,-0.96,0.31,1.71,-0.92,-3.48,184,259,402,457,345
1858,-0.04,-0.95,0.31,-0.55,-3.05,-2.14,187,264,404,458,344
1859,-0.04,-0.95,0.31,4.03,-2.38,-4.52,192,268,401,457,343
1860,-0.04,-0.95,0.33,-1.53,-4.03,-1.22,190,271,407,457,345
1861,-0.04,-0.94,0.34,0.06,-2.5,-1.1,191,268,402,456,341
1862,-0.04,-0.95,0.34,-2.44,-3.36,-3.17,195,265,403,462,345
1863,-0.04,-0.94,0.32,2.44,-4.03,-0.92,190,264,403,458,341
1864,-0.04,-0.94,0.34,-0.12,-2.62,-3.48,191,268,403,462,346
1865,-0.04,-0.94,0.33,0.18,-2.56,-2.44,188,269,404,460,344
1866,-0.04,-0.94,0.34,-1.22,-0.67,-4.39,188,266,399,457,340
1867,-0.05,-0.95,0.34,0.37,-3.05,-2.62,181,267,402,456,347
1868,-0.03,-0.95,0.34,-0.49,-2.62,-2.87,193,267,403,460,346
1869,-0.08,-0.9,0.37,0.37,-2.62,-0.37,190,269,405,458,356
1870,-0.03,-0.95,0.32,0.67,-2.93,-2.75,201,266,404,454,344
1871,-0.05,-0.95,0.32,-3.48,-0.37,-3.85,191,266,406,462,347
1872,-0.03,-0.95,0.31,0.37,-2.32,-1.83,203,266,406,459,343
1873,-0.04,-0.95,0.32,0.37,-2.99,-2.69,190,266,405,459,346
1874,-0.05,-0.95,0.33,1.28,-3.42,-1.95,192,270,403,455,356
1875,-0.06,-0.96,0.3,0.12,-2.75,-3.11,198,261,404,456,344
1876,-0.05,-0.94,0.31,-1.34,-3.17,-2.87,203,261,403,458,347
1877,-0.04,-0.95,0.31,-0.55,-2.2,-2.99,190,267,401,457,346
1878,-0.05,-0.96,0.31,-0.06,-1.95,-3.05,194,266,404,459,348
1879,-0.05,-0.95,0.31,0.12,-2.2,-2.93,190,267,402,458,346
1880,-0.05,-0.96,0.3,-0.49,-2.32,-2.38,189,265,401,458,343
1881,-0.05,-0.95,0.31,-1.04,-2.38,-3.54,189,269,402,458,347
1882,-0.06,-0.95,0.31,1.28,-2.93,-2.93,191,265,401,457,343
1883,-0.05,-0.94,0.33,0.98,-4.64,-1.22,191,266,398,461,345
1884,-0.05,-0.94,0.31,0.12,-3.36,-2.5,193,263,397,457,345
1885,-0.05,-0.94,0.31,-0.37,-1.34,-3.3,187,267,400,453,344
1886,-0.07,-0.95,0.32,-3.48,-2.5,-3.17,186,262,401,455,345
1887,-0.05,-0.95,0.3,-3.48,-2.62,-2.93,189,268,402,461,342
1888,-0.05,-0.96,0.28,1.34,-2.38,-2.2,187,278,400,456,345
1889,-0.05,-0.95,0.3,0.61,-3.11,-2.5,186,269,403,456,344
1890,-0.04,-0.95,0.32,4.94,-3.91,-2.2,187,264,401,455,347
1891,-0.06,-0.95,0.28,0.37,-3.72,-2.08,190,265,402,458,351
1892,-0.05,-0.95,0.3,1.89,-2.2,-1.95,190,266,399,454,347
1893,-0.06,-0.95,0.31,-0.31,-1.89,-3.85,195,271,406,457,344
1894,-0.05,-0.95,0.3,-0.12,-2.08,-3.48,193,266,404,461,344
1895,-0.08,-0.95,0.34,-0.98,-2.93,-3.17,193,265,404,456,343
1896,-0.07,-0.94,0.33,0.92,-4.21,-1.83,192,269,407,454,347
1897,-0.07,-0.94,0.31,0.49,-4.33,-2.26,198,266,401,458,347
1898,-0.07,-0.95,0.34,4.09,-2.14,-1.34,192,266,403,454,347
1899,-0.04,-0.94,0.39,1.59,-4.09,-2.14,197,268,403,455,348
1900,-0.04,-0.94,0.31,2.14,-4.88,-3.17,194,274,399,461,345
1901,-0.08,-0.92,0.41,3.91,-2.01,-5.07,200,269,402,457,344
1902,-0.05,-0.94,0.33,-0.92,-8.54,-5.74,193,269,403,454,345
1903,-0.04,-0.96,0.38,2.32,1.59,1.65,195,266,402,458,345
1904,-0.07,-0.93,0.35,0.55,-0.85,-4.03,195,266,400,455,343
1905,-0.07,-0.95,0.36,2.81,-1.83,-1.46,192,265,406,458,345
1906,-0.06,-0.94,0.33,-0.12,-2.81,-3.36,195,266,406,455,348
1907,-0.05,-0.93,0.33,0.24,-3.3,-3.23,194,271,409,458,340
1908,-0.07,-0.93,0.34,0.31,-2.32,-2.38,198,267,400,462,350
1909,-0.06,-0.93,0.34,1.53,-1.89,-3.23,197,268,401,457,348
1910,-0.07,-0.94,0.35,0.98,-3.6,-2.01,195,266,398,458,344
1911,-0.07,-0.93,0.34,-0.98,-2.32,-2.32,195,270,402,453,346
1912,-0.06,-0.93,0.34,1.46,-3.17,-2.93,194,268,403,456,348
1913,-0.08,-0.94,0.35,-0.92,-2.2,-2.99,192,268,402,462,344
1914,-0.07,-0.94,0.33,-2.93,-4.21,-1.83,196,269,403,458,343
1915,-0.03,-0.93,0.32,3.3,-4.27,-1.95,192,265,400,458,348
1916,-0.05,-0.94,0.32,-0.55,-2.32,-3.36,197,266,401,459,344
1917,-0.07,-0.94,0.34,2.01,-3.36,-2.62,194,264,400,458,345
1918,-0.07,-0.94,0.36,-0.92,-2.01,-2.62,200,266,404,461,345
1919,-0.06,-0.94,0.35,-0.55,-2.5,-3.05,193,266,403,460,348
1920,-0.07,-0.93,0.35,0.43,-2.62,-2.44,199,264,399,454,347
1921,-0.06,-0.93,0.35,0.12,-2.69,-2.75,196,269,398,457,344
1922,-0.07,-0.93,0.35,1.04,-2.81,-2.75,195,266,401,452,350
1923,-0.07,-0.94,0.34,-0.12,-3.3,-2.99,192,263,411,452,348
1924,-0.07,-0.93,0.34,0.92,-4.88,-2.56,189,268,399,461,339
1925,-0.08,-0.94,0.34,-3.42,-1.1,-4.03,196,262,406,458,345
1926,-0.08,-0.95,0.33,-1.04,-1.95,-2.69,193,268,408,447,346
1927,-0.06,-0.95,0.32,-2.56,-4.52,-3.3,201,267,406,455,343
1928,-0.06,-0.96,0.32,0.43,-6.23,-4.46,188,266,408,446,345
1929,-0.06,-0.94,0.31,-1.89,-2.62,-2.87,196,265,409,454,345
1930,-0.06,-0.94,0.32,-0.92,-2.69,-2.81,198,273,404,454,346
1931,-0.05,-0.95,0.31,1.53,-5.07,-3.72,212,266,406,454,343
1932,-0.07,-0.95,0.32,-0.12,-2.93,-1.16,195,261,404,451,342
1933,-0.07,-0.94,0.3,-0.55,-3.11,-3.11,185,264,407,457,345
1934,-0.04,-0.94,0.31,0.37,-3.6,-3.36,194,264,408,453,347
1935,-0.07,-0.95,0.34,-1.89,0.67,-1.71,183,265,410,454,346
1936,-0.04,-0.93,0.33,0.98,-6.1,-0.73,187,267,410,451,345
1937,-0.05,-0.95,0.34,0.0,1.1,0.73,187,268,411,454,340
1938,-0.06,-0.94,0.34,-0.43,-3.48,-3.48,197,271,413,457,346
1939,-0.07,-0.94,0.33,-0.06,-3.11,-3.05,195,263,407,451,345
1940,-0.08,-0.95,0.34,0.85,-2.14,-3.6,192,272,410,449,347
1941,-0.08,-0.95,0.29,2.08,-5.68,-2.14,192,269,410,450,342
1942,-0.06,-0.94,0.31,0.85,-3.72,-2.5,190,265,408,459,339
1943,-0.06,-0.94,0.31,0.37,-3.97,-2.87,195,267,408,452,343
1944,-0.08,-0.94,0.33,0.67,-2.62,-2.69,192,268,410,453,353
1945,-0.07,-0.94,0.33,1.89,-4.39,-1.83,194,266,405,456,344
1946,-0.07,-0.94,0.32,0.67,-2.56,-2.56,195,265,406,452,344
1947,-0.08,-0.94,0.33,0.49,-2.56,-2.32,194,261,410,454,347
1948,-0.08,-0.94,0.32,0.12,-1.71,-2.5,194,265,409,459,346
1949,-0.07,-0.94,0.32,-0.12,-1.77,-2.56,192,267,411,455,348
1950,-0.07,-0.94,0.33,1.1,-3.78,-2.44,197,267,406,459,340
1951,-0.05,-0.94,0.32,0.85,-3.17,-2.26,196,268,409,459,344
1952,-0.06,-0.95,0.32,-0.49,-2.87,-2.5,184,266,405,455,349
1953,-0.06,-0.94,0.32,0.37,-2.2,-3.05,198,266,409,454,346
1954,-0.06,-0.94,0.31,0.55,-2.75,-3.42,195,267,409,455,345
1955,-0.08,-0.94,0.32,-2.2,-2.08,-3.85,194,272,407,454,348
1956,-0.07,-0.95,0.33,-0.12,-2.69,-2.56,195,270,408,451,350
1957,-0.06,-0.95,0.32,0.79,-2.62,-2.56,185,270,407,453,348
1958,-0.07,-0.95,0.32,0.43,-2.32,-2.81,197,267,408,453,345
1959,-0.06,-0.94,0.32,-0.37,-2.81,-3.05,194,268,408,458,346
1960,-0.06,-0.94,0.32,-0.24,-3.23,-3.23,192,269,403,457,343
1961,-0.08,-0.94,0.31,-0.55,-3.17,-2.81,197,268,410,454,347
1962,-0.06,-0.95,0.31,0.37,-3.91,-2.5,193,264,405,458,345
1963,-0.06,-0.94,0.33,0.55,-2.5,-1.89,194,269,411,456,345
1964,-0.06,-0.95,0.31,1.04,-2.69,-2.69,200,266,408,461,355
1965,-0.06,-0.93,0.32,-0.24,-3.17,-3.66,193,267,407,457,347
1966,-0.07,-0.94,0.35,-2.08,-3.17,-1.53,196,268,408,461,342
1967,-0.06,-0.95,0.31,0.92,-3.66,-2.62,196,270,408,456,345
1968,-0.07,-0.94,0.31,-0.31,-2.69,-3.17,197,265,411,458,347
1969,-0.06,-0.94,0.31,0.79,-3.23,-2.69,193,268,406,459,346
1970,-0.06,-0.95,0.31,0.73,-3.91,-2.38,194,268,407,459,344
1971,-0.07,-0.95,0.31,1.4,-3.97,-2.81,185,269,411,454,343
1972,-0.06,-0.95,0.3,0.49,-2.93,-2.69,194,263,412,458,347
1973,-0.07,-0.94,0.32,-0.12,-2.38,-2.14,196,267,423,458,345
1974,-0.06,-0.94,0.33,-0.24,-2.69,-2.56,193,271,405,458,349
1975,-0.07,-0.95,0.32,1.59,-3.11,-2.44,188,265,407,460,346
1976,-0.07,-0.94,0.33,0.06,-2.93,-2.5,199,266,410,456,348
1977,-0.06,-0.94,0.32,0.37,-3.3,-2.87,196,266,412,462,350
1978,-0.06,-0.95,0.31,0.79,-3.6,-2.99,195,266,406,461,346
1979,-0.07,-0.95,0.31,-0.49,-2.69,-3.17,196,270,409,457,342
1980,-0.07,-0.94,0.31,-0.73,-2.87,-3.11,196,270,411,456,347
1981,-0.07,-0.94,0.32,0.06,-2.5,-2.44,196,268,409,455,348
1982,-0.06,-0.95,0.31,-1.46,-1.95,-2.93,190,268,403,462,348
1983,-0.07,-0.94,0.31,0.49,-3.78,-2.75,193,271,407,457,345
1984,-0.07,-0.96,0.31,0.37,-2.75,-2.81,194,268,407,463,348
1985,-0.07,-0.95,0.31,-1.04,-1.4,-3.11,195,267,403,455,348
1986,-0.07,-0.94,0.31,-0.12,-2.75,-2.2,192,269,407,456,347
1987,-0.07,-0.95,0.3,0.67,-4.76,-1.95,194,261,407,459,344
1988,-0.07,-0.95,0.33,-1.16,-2.62,-1.77,198,272,403,460,349
1989,-0.09,-0.94,0.31,2.01,-2.14,-2.56,197,273,409,456,345
1990,-0.07,-0.94,0.31,-1.46,-1.65,-3.66,196,275,407,457,344
1991,-0.07,-0.94,0.33,-3.54,1.83,-6.16,190,268,408,453,347
1992,-0.07,-0.94,0.3,-0.73,-2.44,-4.39,196,262,408,461,348
1993,-0.06,-0.95,0.32,6.47,-7.32,-5.13,197,267,410,457,346
1994,-0.06,-0.94,0.35,-2.75,-0.55,-1.46,201,265,404,458,341
1995,-0.06,-0.94,0.33,-0.55,-3.6,-2.62,198,267,408,461,347
1996,-0.07,-0.94,0.33,2.99,-7.75,-4.03,197,270,410,456,350
1997,-0.07,-0.94,0.34,-1.89,0.73,-1.28,197,264,404,456,348
1998,-0.09,-0.95,0.32,-0.61,-4.46,-2.44,198,270,406,461,350
1999,-0.04,-0.94,0.32,0.55,-3.17,-2.5,194,267,404,460,345
2000,-0.06,-0.94,0.32,0.79,-2.32,-2.44,189,269,405,456,344
2001,-0.07,-0.94,0.32,-1.95,-3.17,-3.66,195,270,406,456,349
2002,-0.08,-0.94,0.33,0.98,-3.78,-1.46,194,270,406,452,350
2003,-0.05,-0.94,0.32,0.55,-1.95,-2.99,190,267,407,461,346
2004,-0.07,-0.94,0.34,1.71,-3.36,-1.65,196,272,408,454,350
2005,-0.06,-0.94,0.33,1.59,-3.3,-2.08,194,268,405,457,347
2006,-0.08,-0.95,0.32,1.04,-3.05,-1.83,194,269,407,457,346
2007,-0.09,-0.95,0.35,0.79,-3.85,-2.99,200,258,404,449,350
2008,-0.06,-0.94,0.35,1.28,-4.94,-1.77,193,267,408,455,349
2009,-0.08,-0.93,0.33,-0.37,-2.99,-2.99,196,266,404,458,348
2010,-0.06,-0.93,0.32,-1.28,-2.87,-3.3,194,268,405,461,347
2011,-0.07,-0.95,0.33,-0.12,-2.5,-2.75,196,270,405,457,349
2012,-0.06,-0.94,0.33,0.61,-2.93,-2.81,194,266,404,456,356
2013,-0.07,-0.94,0.32,-1.83,-1.71,-2.81,194,267,407,456,344
2014,-0.06,-0.95,0.32,-2.14,-2.26,-3.42,193,264,403,457,349
2015,-0.07,-0.94,0.33,-0.98,-3.23,-1.4,204,267,405,467,347
2016,-0.07,-0.95,0.33,-0.55,-1.53,-3.54,195,270,403,457,353
2017,-0.06,-0.94,0.33,0.0,-2.81,-2.26,195,272,405,452,349
2018,-0.07,-0.95,0.32,0.79,-3.17,-2.26,200,272,404,459,347
2019,-0.07,-0.94,0.32,0.43,-3.17,-2.38,194,272,405,456,350
2020,-0.07,-0.95,0.32,1.04,-2.81,-2.5,196,268,406,456,346
2021,-0.07,-0.94,0.33,0.73,-2.81,-2.99,198,272,407,456,350
2022,-0.07,-0.94,0.32,0.18,-3.17,-2.2,198,275,407,458,344
2023,-0.07,-0.94,0.33,0.67,-2.32,-2.87,194,269,407,459,348
2024,-0.08,-0.94,0.32,0.49,-1.53,-4.52,196,271,404,452,348
2025,-0.07,-0.95,0.32,0.0,-3.36,-2.5,195,270,400,452,353
2026,-0.08,-0.94,0.33,0.43,-3.23,-2.99,194,265,405,456,346
2027,-0.07,-0.94,0.33,-0.06,-2.26,-3.3,198,266,402,454,346
2028,-0.07,-0.94,0.33,1.28,-3.66,-2.08,194,269,405,454,348
2029,-0.07,-0.95,0.32,0.55,-3.11,-2.69,194,269,408,449,349
2030,-0.07,-0.95,0.32,0.43,-3.17,-2.69,196,271,400,451,346
2031,-0.07,-0.94,0.32,0.67,-3.11,-2.01,197,271,404,456,347
2032,-0.08,-0.94,0.32,1.4,-3.66,-2.2,193,269,406,453,347
2033,-0.08,-0.94,0.32,-0.37,-2.81,-2.93,200,272,398,460,347
2034,-0.08,-0.95,0.32,0.12,-3.05,-2.44,187,273,406,455,348
2035,-0.07,-0.94,0.33,-0.24,-3.05,-3.48,193,273,401,458,349
2036,-0.07,-0.95,0.34,0.67,-2.69,-2.2,200,268,405,455,344
2037,-0.08,-0.94,0.32,-0.73,-2.87,-2.93,195,274,409,467,346
2038,-0.07,-0.94,0.33,1.04,-3.11,-2.69,197,267,403,457,347
2039,-0.07,-0.94,0.31,0.0,-3.05,-2.26,195,269,403,456,347
2040,-0.07,-0.94,0.31,-0.18,-3.78,-3.72,199,273,406,461,349
2041,-0.03,-0.8,0.41,70.86,-23.74,2.38,317,353,393,458,377
2042,0.15,-0.84,0.73,33.45,-8.36,-6.9,408,423,376,445,395
2043,0.29,-0.25,0.97,63.05,21.67,-31.07,403,436,377,440,383
2044,0.16,-0.28,0.99,-15.63,-2.5,-4.7,382,447,353,410,372
2045,0.19,-0.32,0.93,-2.32,15.01,-8.24,376,443,333,395,328
2046,0.19,-0.32,0.95,1.71,-4.76,1.22,365,434,330,389,314
2047,0.16,-0.25,0.93,4.58,-3.17,-3.72,360,438,327,398,335
