,aX,aY,aZ,gX,gY,gZ,little,ring,middle,index,thumb
0,0.8,-0.4,-0.39,-18.68,17.09,-2.99,414,229,170,448,360
1,0.83,-0.4,-0.39,-6.04,-2.5,1.1,415,226,169,450,359
2,0.8,-0.43,-0.38,-0.37,-3.85,-2.2,419,227,169,446,359
3,0.82,-0.4,-0.42,-5.8,-0.24,0.24,416,226,171,445,358
4,0.8,-0.42,-0.41,-3.11,-1.1,-1.89,416,236,167,451,359
5,0.82,-0.4,-0.43,-2.01,-3.78,0.18,417,228,169,453,359
6,0.82,-0.41,-0.39,-2.38,2.62,-0.79,415,232,170,448,355
7,0.83,-0.4,-0.4,0.18,-2.87,-1.53,415,231,173,447,359
8,0.81,-0.41,-0.39,-0.73,-1.71,-2.08,415,231,173,452,359
9,0.81,-0.4,-0.39,-0.24,-5.0,-4.09,419,239,166,448,361
10,0.81,-0.38,-0.41,0.43,-2.14,-2.32,414,229,173,446,359
11,0.82,-0.39,-0.42,-0.18,-3.17,-0.12,416,229,174,449,359
12,0.83,-0.4,-0.41,-1.53,-2.93,-4.64,417,230,173,452,359
13,0.82,-0.42,-0.39,0.85,-2.14,-1.89,416,229,174,453,356
14,0.81,-0.43,-0.39,0.24,-2.26,-2.01,412,233,169,450,360
15,0.81,-0.44,-0.36,-6.29,5.0,2.62,417,233,175,450,361
16,0.84,-0.41,-0.38,-5.8,3.85,1.46,414,232,175,450,359
17,0.86,-0.37,-0.34,-1.59,-2.62,-6.59,413,236,171,445,361
18,0.87,-0.36,-0.34,-1.34,-1.83,1.59,412,231,175,450,359
19,0.85,-0.38,-0.34,-0.73,-3.05,-2.44,411,237,175,449,359
20,0.86,-0.37,-0.36,1.16,-2.87,-3.48,419,232,175,453,357
21,0.84,-0.39,-0.35,2.38,-2.62,-1.04,411,235,177,453,359
22,0.84,-0.39,-0.38,1.65,-1.83,-3.6,412,235,176,450,360
23,0.85,-0.39,-0.36,2.01,-3.11,-1.59,418,234,174,444,359
24,0.84,-0.4,-0.42,20.08,-33.45,-8.3,414,234,175,449,358
25,0.83,-0.4,-0.42,0.67,-4.15,-5.43,410,236,170,444,349
26,0.8,-0.39,-0.39,-1.59,-0.73,-2.75,412,235,176,450,358
27,0.83,-0.4,-0.41,1.83,-2.5,-1.04,414,236,173,447,357
28,0.81,-0.41,-0.41,0.31,-1.53,-2.81,412,234,175,445,359
29,0.82,-0.41,-0.4,1.28,-2.32,-1.1,412,234,174,452,359
30,0.82,-0.42,-0.39,0.98,-2.38,-1.83,414,234,173,453,360
31,0.81,-0.42,-0.39,0.06,-2.87,-1.59,410,240,169,450,362
32,0.82,-0.42,-0.4,-1.77,-1.22,-1.83,413,237,176,452,361
33,0.82,-0.41,-0.39,-1.1,-2.93,-3.48,409,237,171,448,360
34,0.83,-0.39,-0.4,0.0,-2.44,-1.83,413,234,176,452,360
35,0.83,-0.4,-0.39,-0.55,-2.5,-1.83,411,237,173,450,361
36,0.82,-0.42,-0.39,1.16,-2.62,-1.65,407,236,177,445,359
37,0.81,-0.43,-0.39,2.5,-1.89,-1.1,410,236,175,451,360
38,0.8,-0.44,-0.37,-0.37,-3.23,-2.5,407,234,177,446,362
39,0.81,-0.42,-0.38,-0.37,-3.36,-3.3,411,232,174,453,361
40,0.81,-0.43,-0.39,0.31,-3.66,-4.03,410,237,177,452,357
41,0.82,-0.4,-0.4,0.43,-2.81,-3.17,408,234,177,452,360
42,0.81,-0.39,-0.39,2.14,-1.46,-1.4,410,235,175,452,358
43,0.82,-0.41,-0.39,-0.12,-1.89,-1.65,409,238,177,449,362
44,0.8,-0.44,-0.37,1.4,-3.78,-2.08,409,238,175,449,360
45,0.83,-0.39,-0.4,1.1,-3.36,-3.42,409,239,177,448,358
46,0.83,-0.4,-0.4,1.1,-2.38,-3.54,409,238,174,450,360
47,0.83,-0.4,-0.39,-1.4,-2.99,-3.72,406,235,178,451,361
48,0.83,-0.39,-0.39,-0.79,-1.4,-4.09,411,235,179,449,360
49,0.85,-0.36,-0.42,-0.12,-0.79,-6.47,407,236,173,450,358
50,0.83,-0.4,-0.38,-0.67,-3.91,-1.95,412,237,179,456,361
51,0.83,-0.39,-0.38,0.61,-1.89,-3.05,411,236,178,449,361
52,0.82,-0.41,-0.38,1.53,-2.01,-2.01,404,239,177,450,360
53,0.83,-0.41,-0.38,0.18,-2.87,-2.38,408,235,175,449,363
54,0.81,-0.41,-0.36,0.85,-3.72,-2.75,410,239,177,460,361
55,0.84,-0.39,-0.38,0.49,-3.72,-4.15,409,237,180,449,360
56,0.84,-0.38,-0.38,0.12,-3.66,-3.72,414,243,176,451,361
57,0.84,-0.38,-0.38,0.85,-2.14,-1.89,408,239,180,452,352
58,0.84,-0.39,-0.38,0.43,-2.26,-2.56,409,237,181,454,359
59,0.84,-0.39,-0.38,0.55,-2.81,-2.87,407,253,179,447,359
60,0.82,-0.4,-0.36,0.79,-3.72,-2.75,407,238,177,451,361
61,0.84,-0.39,-0.37,-1.1,-3.42,-4.33,407,237,175,446,360
62,0.84,-0.38,-0.38,-1.16,-2.99,-3.72,407,239,180,449,361
63,0.83,-0.39,-0.38,1.65,-2.93,-1.34,413,237,179,454,361
64,0.84,-0.39,-0.37,-0.24,-1.16,-1.4,406,241,179,452,363
65,0.84,-0.39,-0.38,0.73,-2.5,-1.04,405,238,174,449,362
66,0.85,-0.38,-0.37,0.61,-2.62,-3.05,407,240,180,455,362
67,0.84,-0.39,-0.37,0.12,-2.75,-2.99,408,237,181,452,361
68,0.84,-0.37,-0.37,-1.53,-3.66,-3.23,407,236,177,454,361
69,0.84,-0.38,-0.38,0.55,-3.36,-3.3,406,236,178,450,370
70,0.83,-0.38,-0.39,1.1,-2.38,-1.22,400,238,177,450,360
71,0.83,-0.39,-0.38,-0.67,-2.62,-2.2,408,240,181,462,360
72,0.84,-0.39,-0.38,-0.24,-2.44,-2.08,410,235,178,446,361
73,0.84,-0.39,-0.38,-0.37,-2.93,-1.46,406,241,178,451,361
74,0.84,-0.39,-0.37,-0.24,-2.75,-2.14,405,241,179,451,362
75,0.84,-0.39,-0.38,0.0,-3.11,-2.08,406,240,179,451,363
76,0.84,-0.38,-0.37,1.1,-2.87,-2.26,408,236,179,451,362
77,0.83,-0.38,-0.37,2.08,-2.44,-1.53,405,238,177,455,361
78,0.84,-0.39,-0.37,2.01,-4.33,-1.77,445,242,182,451,360
79,0.84,-0.39,-0.38,-0.79,-3.17,-1.59,402,241,179,451,361
80,0.85,-0.38,-0.38,-0.18,-3.6,-2.99,406,241,183,446,361
81,0.84,-0.37,-0.39,0.61,-2.93,-1.59,406,241,178,444,361
82,0.83,-0.39,-0.38,-0.06,-2.08,-1.89,406,236,178,450,360
83,0.83,-0.4,-0.37,-1.22,-1.83,-2.93,406,240,181,448,361
84,0.83,-0.4,-0.37,0.55,-2.56,-1.95,406,238,176,452,363
85,0.83,-0.42,-0.38,1.04,-3.23,-2.69,407,236,180,453,363
86,0.83,-0.41,-0.37,0.18,-3.11,-3.91,406,239,179,451,364
87,0.83,-0.4,-0.37,0.73,-3.42,-3.05,400,239,179,448,359
88,0.83,-0.39,-0.38,-0.67,-3.36,-2.69,405,239,185,451,363
89,0.83,-0.39,-0.38,1.04,-2.44,-1.59,406,237,180,455,361
90,0.83,-0.39,-0.38,1.1,-2.26,-2.32,407,238,180,451,364
91,0.83,-0.4,-0.38,0.73,-2.62,-1.59,407,239,181,452,363
92,0.82,-0.41,-0.38,1.04,-2.38,-2.14,407,240,180,455,362
93,0.83,-0.41,-0.37,0.79,-2.81,-2.32,405,241,179,450,364
94,0.83,-0.41,-0.38,0.06,-3.85,-3.42,403,236,180,453,359
95,0.83,-0.4,-0.38,0.31,-4.27,-5.0,402,242,182,451,359
96,0.84,-0.39,-0.38,0.79,-2.87,-2.99,408,238,180,452,364
97,0.83,-0.39,-0.37,0.61,-1.22,-1.34,405,240,180,455,361
98,0.83,-0.39,-0.38,1.1,-2.62,-2.08,404,239,179,450,352
99,0.83,-0.41,-0.37,0.37,-2.44,-1.1,406,240,178,451,362
100,0.83,-0.41,-0.37,0.06,-2.56,-2.08,405,240,182,452,364
101,0.84,-0.4,-0.37,0.0,-2.5,-1.46,410,238,182,455,361
102,0.83,-0.4,-0.37,0.12,-2.93,-2.69,403,239,178,455,363
103,0.83,-0.4,-0.37,-0.73,-2.69,-3.48,406,240,181,449,362
104,0.84,-0.38,-0.37,0.67,-3.48,-3.6,406,239,181,452,363
105,0.85,-0.38,-0.38,0.55,-2.62,-2.62,410,242,181,455,362
106,0.84,-0.39,-0.38,1.83,-2.93,-2.08,407,238,182,452,363
107,0.83,-0.39,-0.39,0.24,-2.38,-1.1,406,240,182,449,362
108,0.83,-0.41,-0.38,-0.37,-2.32,-0.79,406,242,180,451,363
109,0.82,-0.41,-0.37,0.37,-2.38,-0.55,408,239,180,454,362
110,0.84,-0.41,-0.38,0.0,-3.17,-2.32,405,240,182,447,361
111,0.84,-0.4,-0.38,-0.37,-3.97,-2.69,407,240,180,456,364
112,0.84,-0.4,-0.37,0.55,-3.42,-3.66,405,243,182,450,362
113,0.84,-0.38,-0.38,0.49,-3.3,-3.42,406,242,185,451,365
114,0.83,-0.39,-0.38,1.89,-2.14,-1.34,405,240,180,446,362
115,0.83,-0.4,-0.38,0.43,-2.14,-1.59,409,239,185,447,366
116,0.82,-0.41,-0.37,0.79,-2.81,-2.14,406,243,184,449,358
117,0.84,-0.41,-0.37,0.18,-3.05,-1.71,406,243,185,451,363
118,0.83,-0.41,-0.37,0.18,-3.72,-3.48,402,243,182,450,364
119,0.84,-0.4,-0.37,0.31,-4.09,-4.39,408,238,182,451,361
120,0.84,-0.39,-0.39,1.16,-3.42,-4.58,405,238,184,446,364
121,0.84,-0.39,-0.38,1.16,-2.38,-2.08,442,242,181,450,366
122,0.83,-0.4,-0.37,1.46,-2.87,-2.81,406,241,179,452,362
123,0.83,-0.4,-0.38,0.24,-2.5,-1.95,414,244,180,451,361
124,0.83,-0.41,-0.38,-0.06,-2.32,-2.01,409,241,181,457,364
125,0.83,-0.41,-0.37,0.61,-2.93,-2.32,405,239,180,446,360
126,0.84,-0.4,-0.38,-0.31,-3.23,-3.66,406,243,183,455,364
127,0.84,-0.4,-0.37,-0.79,-3.85,-3.66,407,241,185,451,364
128,0.84,-0.39,-0.38,0.12,-3.54,-3.72,405,244,181,455,363
129,0.84,-0.39,-0.38,1.77,-2.14,-1.22,406,241,185,447,365
130,0.83,-0.4,-0.37,1.04,-2.75,-2.08,406,241,184,450,363
131,0.82,-0.4,-0.38,1.28,-2.32,-1.46,403,242,184,451,363
132,0.82,-0.42,-0.37,-0.24,-2.99,-3.23,405,244,184,455,364
133,0.82,-0.41,-0.38,-0.43,-3.97,-3.36,407,242,183,448,363
134,0.83,-0.39,-0.39,0.12,-3.23,-3.66,404,243,182,451,363
135,0.84,-0.39,-0.39,0.61,-2.26,-0.31,406,245,182,450,366
136,0.83,-0.4,-0.38,-0.37,-2.38,-1.04,406,245,185,450,363
137,0.83,-0.41,-0.38,1.34,-3.11,-2.01,405,239,196,451,360
138,0.83,-0.41,-0.37,0.12,-2.56,-2.38,407,242,183,452,363
139,0.82,-0.41,-0.37,-0.18,-2.38,-2.69,407,245,183,455,359
140,0.82,-0.41,-0.37,0.79,-3.48,-3.17,406,244,184,447,366
141,0.82,-0.41,-0.38,0.31,-3.17,-3.23,407,243,185,451,361
142,0.83,-0.4,-0.38,-0.49,-2.99,-3.78,405,243,179,453,362
143,0.84,-0.39,-0.38,0.49,-2.69,-2.08,409,240,185,455,369
144,0.84,-0.39,-0.38,0.55,-2.62,-1.34,405,242,183,446,361
145,0.83,-0.4,-0.38,1.89,-2.5,-2.14,406,243,182,451,362
146,0.83,-0.41,-0.37,0.18,-2.93,-2.5,405,246,184,452,359
147,0.82,-0.41,-0.37,0.43,-2.75,-1.34,406,245,190,450,363
148,0.82,-0.41,-0.37,0.12,-2.69,-2.14,407,241,183,449,362
149,0.82,-0.41,-0.38,0.49,-3.36,-3.97,406,244,185,456,365
150,0.83,-0.4,-0.37,-0.55,-3.23,-2.62,405,246,187,450,364
151,0.84,-0.39,-0.39,0.79,-2.87,-2.26,404,243,181,451,364
152,0.84,-0.39,-0.37,-0.67,-2.56,-1.65,406,245,184,455,363
153,0.83,-0.4,-0.37,0.67,-2.87,-1.71,404,243,188,446,361
154,0.83,-0.41,-0.37,0.55,-2.93,-2.5,408,240,187,456,360
155,0.84,-0.4,-0.37,0.43,-2.81,-2.56,402,246,185,451,363
156,0.83,-0.41,-0.37,1.46,-3.6,-3.48,405,244,197,449,359
157,0.83,-0.41,-0.38,-0.49,-3.42,-4.15,403,246,185,451,363
158,0.82,-0.4,-0.38,-0.18,-2.99,-2.32,405,246,183,446,362
159,0.83,-0.4,-0.39,0.49,-2.56,-0.79,407,246,189,455,364
160,0.83,-0.4,-0.37,1.46,-2.26,-2.81,406,243,188,452,362
161,0.83,-0.4,-0.37,0.85,-2.93,-2.5,400,243,186,450,363
162,0.84,-0.41,-0.37,-0.37,-2.56,-3.48,426,245,184,452,373
163,0.84,-0.41,-0.37,0.98,-3.11,-2.93,407,241,186,456,362
164,0.83,-0.4,-0.37,0.12,-3.48,-4.21,405,244,190,453,365
165,0.83,-0.39,-0.37,0.43,-3.6,-3.72,407,247,181,455,363
166,0.84,-0.39,-0.38,-0.12,-3.72,-3.91,406,244,188,453,361
167,0.83,-0.39,-0.37,0.79,-2.32,-1.59,408,242,187,452,363
168,0.83,-0.4,-0.37,0.67,-2.38,-1.83,405,244,186,452,363
169,0.83,-0.41,-0.37,0.85,-2.44,-2.01,406,246,186,452,363
170,0.83,-0.41,-0.38,0.24,-2.75,-1.89,411,245,187,451,375
171,0.82,-0.42,-0.37,0.24,-2.81,-2.62,405,252,186,454,363
172,0.83,-0.4,-0.39,-0.98,-4.03,-4.03,406,244,185,450,363
173,0.83,-0.4,-0.37,1.53,-4.46,-4.76,408,246,187,456,361
174,0.83,-0.4,-0.37,0.79,-2.93,1.46,406,244,184,453,363
175,0.84,-0.39,-0.39,2.62,-1.89,-1.71,405,244,185,446,365
176,0.84,-0.39,-0.38,0.49,-3.17,-2.08,405,244,187,456,362
177,0.82,-0.41,-0.37,1.46,-3.78,-2.44,406,246,186,453,365
178,0.82,-0.4,-0.38,0.0,-3.72,-4.03,405,246,187,448,366
179,0.81,-0.43,-0.4,0.18,-2.75,0.0,408,243,187,446,364
180,0.82,-0.42,-0.38,0.61,-2.44,-2.14,407,244,187,457,363
181,0.83,-0.42,-0.37,0.24,-2.5,-1.46,400,241,182,448,360
182,0.83,-0.4,-0.38,0.31,-2.56,-2.44,403,244,188,453,367
183,0.83,-0.41,-0.37,-0.24,-2.56,-2.56,407,246,186,450,363
184,0.83,-0.41,-0.37,0.06,-2.38,-1.59,405,242,187,448,361
185,0.82,-0.42,-0.38,0.67,-3.11,-3.05,404,245,186,453,361
186,0.82,-0.41,-0.38,-0.24,-3.17,-3.6,404,247,188,463,366
187,0.82,-0.4,-0.38,-0.85,-2.5,-3.11,405,244,194,455,365
188,0.83,-0.39,-0.39,0.79,-2.99,-1.95,407,244,188,451,362
189,0.83,-0.41,-0.37,2.01,-2.56,0.31,412,247,191,451,375
190,0.81,-0.42,-0.37,-2.99,-2.69,-2.93,405,243,185,449,364
191,0.81,-0.42,-0.37,1.46,-3.85,-2.5,414,242,188,453,362
192,0.83,-0.41,-0.37,1.59,-2.56,-3.66,393,245,187,456,362
193,0.83,-0.41,-0.38,-0.06,-2.87,-2.01,403,246,187,457,364
194,0.83,-0.41,-0.37,-0.18,-4.15,-2.99,407,252,188,452,364
195,0.86,-0.37,-0.41,-3.48,-3.91,-3.42,412,248,188,452,363
196,0.82,-0.4,-0.38,-1.22,-2.44,-0.49,405,244,188,454,366
197,0.81,-0.43,-0.37,2.99,-3.42,-4.09,405,245,187,452,362
198,0.82,-0.41,-0.38,2.38,-1.89,-0.37,402,247,189,449,364
199,0.82,-0.42,-0.38,0.98,-2.44,-0.92,405,244,186,453,363
200,0.81,-0.42,-0.38,-0.12,-2.69,-1.77,405,248,188,457,366
201,0.82,-0.42,-0.38,-0.24,-2.75,-2.08,408,245,188,457,360
202,0.82,-0.42,-0.37,0.92,-3.17,-2.44,405,244,187,457,363
203,0.82,-0.42,-0.39,0.92,-3.3,-2.26,403,245,189,451,363
204,0.81,-0.41,-0.37,1.22,-3.05,-2.26,405,244,185,453,361
205,0.83,-0.41,-0.38,0.49,-3.3,-3.66,405,245,190,448,361
206,0.83,-0.41,-0.38,0.18,-2.99,-2.62,410,247,192,454,363
207,0.82,-0.41,-0.38,1.16,-2.81,-2.32,403,245,189,448,366
208,0.82,-0.42,-0.38,0.92,-2.75,-2.87,407,245,183,452,359
209,0.83,-0.42,-0.39,-0.06,-1.71,0.55,406,246,186,456,364
210,0.82,-0.42,-0.37,-2.01,-1.71,-1.46,408,246,189,455,363
211,0.83,-0.42,-0.37,1.1,-3.36,-2.81,408,245,185,452,364
212,0.82,-0.42,-0.38,3.78,-3.3,-3.17,405,246,187,454,364
213,0.85,-0.4,-0.35,-0.49,-1.77,-2.87,408,247,190,453,364
214,0.84,-0.4,-0.37,0.98,-2.38,-1.53,407,246,189,448,361
215,0.83,-0.41,-0.36,1.59,-2.75,-2.38,405,242,188,450,364
216,0.83,-0.42,-0.38,0.06,-3.3,-4.33,405,245,184,451,363
217,0.82,-0.41,-0.37,-0.92,-3.05,-3.97,407,245,184,453,360
218,0.83,-0.4,-0.38,-0.06,-2.93,-2.32,421,245,186,453,361
219,0.83,-0.4,-0.39,0.98,-2.56,-1.34,404,246,187,456,365
220,0.82,-0.41,-0.39,2.38,-2.56,-1.34,407,246,186,456,362
221,0.83,-0.41,-0.38,-0.31,-2.5,-1.28,406,245,189,450,362
222,0.82,-0.41,-0.37,0.79,-3.23,-2.2,406,245,185,457,360
223,0.83,-0.41,-0.37,0.0,-2.38,-1.89,405,245,185,454,364
224,0.83,-0.41,-0.37,0.49,-2.99,-2.26,405,246,186,452,371
225,0.82,-0.42,-0.37,0.12,-3.66,-3.36,404,246,187,452,363
226,0.83,-0.4,-0.37,1.59,-3.91,-3.54,405,246,190,453,363
227,0.84,-0.4,-0.37,-0.79,-1.71,0.49,405,256,189,457,365
228,0.82,-0.42,-0.36,0.31,-2.14,-1.77,404,249,188,453,363
229,0.84,-0.41,-0.37,-1.22,-3.36,-2.38,400,245,189,451,363
230,0.84,-0.41,-0.37,0.79,-4.46,-5.25,401,250,190,445,360
231,0.87,-0.37,-0.39,-1.1,-4.27,-4.94,401,248,188,456,363
232,0.84,-0.39,-0.37,-4.82,-2.26,-7.87,398,245,185,450,366
233,0.84,-0.39,-0.38,0.31,-4.03,-5.07,407,249,189,447,364
234,0.85,-0.37,-0.38,0.49,-2.56,-4.52,401,249,188,456,363
235,0.85,-0.37,-0.38,1.53,-3.85,-3.3,397,250,188,452,363
236,0.84,-0.37,-0.37,2.26,-3.6,-3.05,397,247,189,452,362
237,0.84,-0.39,-0.37,-0.85,-1.4,-1.53,396,248,193,451,363
238,0.84,-0.39,-0.38,0.61,-2.2,-0.61,396,249,189,452,366
239,0.84,-0.39,-0.38,0.61,-2.5,-2.32,397,249,189,448,363
240,0.83,-0.4,-0.37,0.92,-2.56,-0.85,397,248,190,447,363
241,0.85,-0.38,-0.36,0.18,-3.05,-3.78,398,249,189,451,363
242,0.86,-0.36,-0.38,1.28,-2.75,-1.16,399,248,187,456,362
243,0.83,-0.39,-0.36,0.18,-3.6,0.18,398,248,184,462,363
244,0.81,-0.41,-0.38,1.46,-2.44,-0.55,397,246,187,457,366
245,0.83,-0.4,-0.37,0.0,-2.32,-1.95,399,256,190,454,363
246,0.83,-0.4,-0.37,0.12,-2.38,-1.95,393,243,188,457,364
247,0.84,-0.39,-0.38,0.37,-4.03,-4.33,397,246,189,453,365
248,0.83,-0.38,-0.38,0.73,-4.21,-1.83,396,247,190,453,365
249,0.86,-0.37,-0.38,2.81,-1.89,0.12,395,252,187,449,367
250,0.84,-0.4,-0.37,0.61,-2.87,-3.17,400,247,184,452,362
251,0.84,-0.4,-0.37,-0.37,-2.5,-2.26,398,246,188,454,361
252,0.84,-0.4,-0.37,0.73,-2.81,-3.05,398,248,187,450,367
253,0.83,-0.4,-0.37,0.0,-4.03,-2.99,399,248,190,448,364
254,0.86,-0.39,-0.38,-3.05,-1.77,-6.71,400,252,187,452,363
255,0.84,-0.39,-0.37,1.71,-4.15,-2.38,397,251,196,453,363
256,0.83,-0.41,-0.36,0.24,-2.38,-2.99,401,246,187,448,363
257,0.83,-0.4,-0.37,-1.1,-3.97,-0.31,396,251,191,454,363
258,0.83,-0.42,-0.37,1.95,-3.17,-2.81,400,248,192,457,365
259,0.81,-0.44,-0.37,2.81,-4.21,0.98,399,249,192,451,362
260,0.8,-0.46,-0.37,0.73,-2.93,-2.81,401,249,186,455,366
261,0.8,-0.45,-0.38,0.0,-2.62,-2.44,399,246,191,455,364
262,0.82,-0.45,-0.37,0.79,-2.62,-2.87,395,250,189,454,362
263,0.8,-0.45,-0.37,0.49,-3.11,-1.28,399,250,191,452,367
264,0.8,-0.46,-0.37,0.49,-2.99,-2.01,401,245,192,457,363
265,0.8,-0.45,-0.37,-0.18,-3.36,-3.6,399,246,187,456,364
266,0.8,-0.45,-0.37,-0.61,-3.6,-4.33,400,250,192,452,364
267,0.81,-0.43,-0.38,1.1,-1.71,-1.53,398,251,192,455,364
268,0.82,-0.45,-0.36,-0.61,-2.14,-2.56,399,248,186,453,369
269,0.82,-0.44,-0.36,-0.31,-2.87,-2.5,395,258,188,452,363
270,0.82,-0.44,-0.37,0.73,-3.3,-2.81,396,247,191,453,364
271,0.8,-0.45,-0.37,2.01,-3.11,-1.65,397,246,192,449,366
272,0.82,-0.44,-0.38,-0.55,-2.01,-3.48,397,247,195,454,365
273,0.8,-0.45,-0.35,4.82,-2.99,-6.65,397,251,187,448,365
274,0.8,-0.46,-0.36,-0.67,-2.99,-2.38,397,249,192,447,366
275,0.84,-0.42,-0.35,-0.55,-2.14,0.18,397,248,188,451,363
276,0.83,-0.41,-0.39,-6.16,-6.1,-4.82,400,248,191,452,365
277,0.79,-0.42,-0.38,0.12,-3.97,-6.47,396,246,191,456,361
278,0.85,-0.4,-0.36,2.69,0.85,-0.37,398,250,188,456,364
279,0.81,-0.43,-0.39,0.0,-1.53,1.53,398,251,187,457,363
280,0.83,-0.41,-0.34,2.32,0.98,-1.59,398,250,190,456,364
281,0.82,-0.43,-0.35,4.33,-3.72,-2.14,398,246,190,456,364
282,0.82,-0.44,-0.35,-1.28,-2.01,-1.77,397,252,190,456,366
283,0.83,-0.44,-0.33,2.5,-2.44,-0.31,397,246,188,455,365
284,0.81,-0.44,-0.37,2.08,-4.46,-5.13,398,253,192,456,364
285,0.79,-0.47,-0.35,1.65,-0.55,0.73,399,252,189,455,364
286,0.85,-0.42,-0.36,0.31,-6.29,-5.49,394,250,189,452,364
287,0.81,-0.44,-0.37,-2.5,-5.43,-4.64,399,246,187,449,365
288,0.82,-0.44,-0.35,3.17,-3.66,-2.93,400,249,189,452,365
289,0.8,-0.46,-0.35,-1.1,-3.17,-1.22,397,245,191,456,362
290,0.85,-0.42,-0.35,4.64,0.55,-1.28,397,250,192,453,365
291,0.81,-0.44,-0.29,0.0,-3.3,-3.78,400,246,189,452,364
292,0.82,-0.45,-0.37,0.24,-3.85,-3.11,399,251,192,456,360
293,0.82,-0.45,-0.33,-0.98,-3.66,-2.81,396,250,187,452,364
294,0.82,-0.44,-0.34,0.55,-2.38,-2.32,388,249,191,455,365
295,0.82,-0.46,-0.34,0.24,-2.01,-1.83,397,249,187,453,365
296,0.81,-0.46,-0.34,15.44,-2.5,-2.38,396,251,193,452,365
297,0.81,-0.47,-0.34,0.92,-2.62,-2.44,395,248,190,456,361
298,0.82,-0.47,-0.34,0.67,-2.87,-1.83,397,247,192,449,365
299,0.8,-0.46,-0.33,0.55,-2.2,-2.14,395,252,189,451,365
300,0.83,-0.45,-0.33,0.98,-3.85,-3.54,396,252,190,454,366
301,0.82,-0.44,-0.34,-0.61,-2.69,-3.97,396,249,189,446,364
302,0.82,-0.45,-0.33,2.01,-2.75,-0.61,398,249,193,447,364
303,0.81,-0.46,-0.34,0.31,-3.36,-4.15,396,249,191,455,363
304,0.81,-0.46,-0.34,1.34,-2.26,-1.59,397,247,190,451,363
305,0.8,-0.47,-0.33,-0.55,-2.62,-2.5,398,252,194,450,366
306,0.82,-0.47,-0.32,-0.79,-2.93,-1.65,398,249,190,454,361
307,0.81,-0.47,-0.34,-0.06,-2.93,-2.75,398,253,189,453,364
308,0.81,-0.46,-0.33,0.67,-3.6,-4.58,397,251,192,451,365
309,0.82,-0.46,-0.34,-0.49,-3.6,-4.33,410,251,193,454,365
310,0.82,-0.45,-0.34,-0.18,-2.81,-3.11,392,250,187,448,365
311,0.82,-0.45,-0.34,0.31,-2.5,-1.46,396,249,184,453,366
312,0.83,-0.46,-0.34,1.53,-2.56,-1.89,393,250,190,451,367
313,0.82,-0.46,-0.34,0.06,-2.32,-3.36,394,248,190,447,366
314,0.82,-0.46,-0.33,-0.43,-4.58,-5.0,398,265,193,456,364
315,0.82,-0.44,-0.36,-0.37,-3.72,-5.55,397,251,192,446,365
316,0.82,-0.44,-0.35,1.83,-3.6,-6.23,397,250,194,453,364
317,0.82,-0.44,-0.34,-0.12,-3.97,-4.09,398,248,189,453,366
318,0.82,-0.45,-0.35,0.18,-2.38,-1.59,399,249,193,451,365
319,0.83,-0.44,-0.34,1.46,-2.99,-1.16,399,250,190,455,364
320,0.82,-0.44,-0.37,1.1,-4.21,-4.88,397,250,193,450,365
321,0.83,-0.43,-0.36,1.04,-2.62,-2.2,396,251,187,452,361
322,0.81,-0.46,-0.34,0.37,-2.56,-1.89,396,249,192,452,366
323,0.81,-0.45,-0.35,0.98,-2.32,-1.04,399,249,189,453,367
324,0.82,-0.45,-0.35,-0.61,-2.81,-2.38,395,249,190,451,373
325,0.83,-0.45,-0.35,-0.12,-2.93,-2.14,397,251,191,451,367
326,0.82,-0.45,-0.35,0.73,-2.62,-2.75,397,251,196,455,365
327,0.82,-0.45,-0.34,0.0,-2.69,-2.44,397,252,191,453,367
328,0.81,-0.46,-0.33,0.85,-4.03,-2.44,400,248,194,456,372
329,0.82,-0.44,-0.36,-0.61,-3.17,-4.03,397,252,190,452,364
330,0.83,-0.44,-0.35,0.85,-2.44,-0.73,397,252,189,447,365
331,0.83,-0.43,-0.35,0.0,-2.38,-1.16,398,255,193,457,364
332,0.82,-0.45,-0.35,1.16,-2.26,-1.53,398,250,193,450,364
333,0.82,-0.45,-0.34,0.18,-2.62,-2.26,397,263,190,451,365
334,0.82,-0.45,-0.34,0.24,-2.75,-2.87,397,251,193,455,361
335,0.82,-0.46,-0.33,1.22,-2.69,-4.46,399,251,193,455,363
336,0.83,-0.44,-0.37,2.26,-4.15,-1.83,398,255,196,452,364
337,0.81,-0.46,-0.35,0.73,-2.75,-2.69,403,252,193,456,365
338,0.82,-0.46,-0.3,-1.46,-3.91,-2.87,397,252,193,450,366
339,0.82,-0.45,-0.36,-1.04,-3.66,-2.69,397,250,190,454,365
340,0.82,-0.44,-0.35,0.12,-2.44,-2.2,397,248,192,455,362
341,0.82,-0.44,-0.35,-0.24,-2.5,-2.5,397,251,190,453,365
342,0.82,-0.44,-0.35,0.43,-3.48,-3.3,394,249,190,446,365
343,0.8,-0.46,-0.33,1.53,-1.83,0.85,394,253,193,456,367
344,0.81,-0.46,-0.34,0.12,-2.81,-2.08,438,252,193,447,364
345,0.82,-0.46,-0.34,0.85,-3.17,-4.27,396,249,187,455,365
346,0.84,-0.44,-0.35,-0.24,-2.87,-4.15,396,252,191,448,363
347,0.81,-0.46,-0.35,-0.24,-2.75,-3.17,392,252,193,448,364
348,0.82,-0.46,-0.33,0.49,-2.69,-2.01,403,251,192,455,365
349,0.83,-0.45,-0.35,-0.49,-3.23,-5.68,398,250,190,453,363
350,0.84,-0.44,-0.34,-0.98,-3.05,-2.93,406,250,193,452,364
351,0.84,-0.45,-0.34,0.43,-2.2,0.67,398,253,193,453,366
352,0.82,-0.46,-0.33,-0.24,-2.26,-2.56,395,253,194,456,368
353,0.82,-0.46,-0.33,2.75,-2.32,-2.44,402,248,189,455,365
354,0.83,-0.46,-0.33,-0.79,-3.3,-3.97,397,251,190,453,364
355,0.83,-0.45,-0.34,0.43,-2.87,-3.42,391,251,192,456,363
356,0.84,-0.44,-0.32,0.12,-3.72,-2.87,391,247,190,455,364
357,0.83,-0.44,-0.35,0.43,-3.72,0.18,396,251,191,452,365
358,0.83,-0.44,-0.34,-1.16,-2.32,-0.49,396,249,190,456,360
359,0.82,-0.45,-0.34,-0.79,-2.08,-1.34,397,250,189,448,366
360,0.82,-0.45,-0.34,-0.92,-2.93,-1.04,404,250,190,455,362
361,0.83,-0.45,-0.33,-0.18,-2.81,-1.22,399,253,192,449,366
362,0.83,-0.45,-0.34,-1.1,-3.11,-3.36,400,253,191,453,364
363,0.82,-0.45,-0.34,0.12,-3.54,-3.54,396,250,193,456,364
364,0.82,-0.45,-0.35,1.22,-3.54,-3.17,397,253,193,451,366
365,0.83,-0.44,-0.33,-0.24,-2.01,-1.1,398,251,194,448,365
366,0.81,-0.46,-0.34,2.2,-2.38,-1.4,398,252,190,456,368
367,0.83,-0.45,-0.33,0.92,-2.2,-2.69,397,250,189,456,365
368,0.83,-0.45,-0.34,0.55,-2.75,-2.2,399,252,194,453,365
369,0.78,-0.48,-0.34,1.04,-3.66,-6.1,399,255,193,452,364
370,0.78,-0.48,-0.33,1.95,-2.87,-2.81,399,253,194,454,365
371,0.81,-0.46,-0.36,1.89,-2.2,-1.46,401,252,195,452,364
372,0.82,-0.46,-0.33,0.73,-1.95,-2.32,397,251,192,452,366
373,0.81,-0.46,-0.35,-1.1,-4.46,-1.34,397,248,193,453,361
374,0.81,-0.46,-0.36,0.24,-4.09,-4.03,398,258,194,453,365
375,0.82,-0.45,-0.36,-0.18,-2.62,-2.75,400,252,193,450,365
376,0.82,-0.46,-0.34,0.12,-2.56,-1.34,397,252,196,453,367
377,0.83,-0.45,-0.33,1.22,-2.44,-2.38,396,251,192,451,365
378,0.83,-0.45,-0.35,-1.83,-2.87,-3.3,396,255,192,457,365
379,0.81,-0.47,-0.33,0.18,-2.75,-2.14,405,254,194,457,365
380,0.81,-0.47,-0.33,0.85,-3.3,-2.87,408,252,192,453,365
381,0.8,-0.48,-0.34,2.01,-2.87,-3.97,403,251,191,453,365
382,0.83,-0.45,-0.33,3.3,-1.59,-2.62,398,251,190,452,364
383,0.82,-0.45,-0.31,3.85,-2.2,-3.17,396,251,194,452,366
384,0.84,-0.44,-0.32,-0.24,-2.2,-2.01,398,252,192,453,363
385,0.82,-0.46,-0.32,-0.12,-3.23,-2.5,399,252,192,456,366
386,0.83,-0.46,-0.33,0.0,-3.78,-3.91,397,254,194,452,365
387,0.83,-0.45,-0.34,1.04,-3.05,-3.17,397,252,189,457,365
388,0.82,-0.46,-0.33,0.61,-2.32,-2.08,397,253,193,453,364
389,0.81,-0.47,-0.33,1.22,-3.17,-2.38,395,254,193,456,364
390,0.82,-0.46,-0.33,-0.18,-2.14,-3.11,398,254,191,454,365
391,0.83,-0.47,-0.32,1.46,-2.99,-1.59,400,250,194,456,367
392,0.83,-0.49,-0.32,-0.49,-2.75,-3.72,396,253,192,453,366
393,0.81,-0.47,-0.32,0.37,-3.48,-2.38,397,253,195,449,366
394,0.83,-0.46,-0.32,-0.67,-3.42,-2.99,399,250,192,456,363
395,0.82,-0.46,-0.33,1.77,-2.14,-1.83,396,255,192,457,368
396,0.83,-0.46,-0.32,-0.12,-2.26,-3.85,399,254,195,453,371
397,0.81,-0.48,-0.33,1.59,-3.11,-2.69,397,252,194,453,366
398,0.81,-0.48,-0.31,0.79,-3.42,-3.48,398,250,195,453,361
399,0.82,-0.48,-0.32,-0.31,-3.85,-3.54,397,254,194,454,362
400,0.8,-0.48,-0.32,1.71,-3.05,-1.95,399,251,196,454,366
401,0.84,-0.45,-0.35,-0.85,-2.81,-0.98,395,251,195,454,365
402,0.81,-0.48,-0.32,-3.17,-1.83,-0.92,394,253,195,451,366
403,0.81,-0.47,-0.31,1.83,-2.44,-1.1,396,253,198,457,356
404,0.82,-0.47,-0.32,-0.37,-2.5,-1.89,400,254,189,457,365
405,0.83,-0.46,-0.32,0.18,-2.56,-2.32,397,251,194,456,364
406,0.82,-0.47,-0.31,1.16,-2.81,-2.5,399,249,191,455,365
407,0.82,-0.47,-0.32,-0.12,-3.78,-4.33,397,254,194,447,364
408,0.83,-0.46,-0.31,0.73,-2.75,-1.22,397,252,194,449,363
409,0.82,-0.46,-0.33,1.1,-2.44,-1.53,397,253,189,453,365
410,0.82,-0.47,-0.32,1.28,-1.65,-0.43,398,250,196,455,364
411,0.82,-0.47,-0.32,0.55,-3.05,-2.14,396,252,193,453,366
412,0.82,-0.47,-0.32,-0.43,-4.09,-3.23,398,251,195,456,367
413,0.83,-0.46,-0.33,1.34,-2.75,-2.87,395,254,196,454,362
414,0.81,-0.47,-0.32,-0.31,-2.2,-1.1,397,254,194,453,364
415,0.8,-0.47,-0.32,0.67,-2.32,-2.08,397,252,191,447,363
416,0.83,-0.47,-0.32,1.28,-2.69,-2.08,398,253,192,452,365
417,0.83,-0.47,-0.32,0.73,-2.62,-1.89,396,253,195,454,365
418,0.81,-0.48,-0.32,0.12,-2.5,-0.98,398,250,192,452,365
419,0.82,-0.48,-0.32,0.06,-2.5,-2.26,394,252,193,455,363
420,0.82,-0.48,-0.31,-0.06,-3.48,-2.69,397,254,195,456,364
421,0.83,-0.48,-0.32,-1.22,-3.72,-4.39,396,250,196,456,363
422,0.78,-0.5,-0.31,-1.4,-3.05,0.31,398,251,206,455,364
423,0.81,-0.48,-0.34,-0.43,-2.08,-1.71,399,251,193,449,369
424,0.82,-0.47,-0.32,1.53,-2.38,-1.1,397,252,195,455,362
425,0.81,-0.48,-0.32,1.04,-3.23,-1.71,396,254,192,448,365
426,0.81,-0.48,-0.33,-1.34,-3.66,-2.87,393,253,196,456,364
427,0.83,-0.45,-0.33,1.59,-1.83,0.18,399,254,194,456,366
428,0.82,-0.47,-0.34,-2.14,-2.75,-1.65,396,254,194,451,365
429,0.82,-0.46,-0.34,2.32,-2.44,-1.46,400,253,193,448,363
430,0.81,-0.48,-0.31,0.12,-3.17,-3.36,397,253,196,453,365
431,0.81,-0.48,-0.32,-0.24,-2.81,-2.01,398,255,193,447,365
432,0.82,-0.48,-0.31,0.67,-2.26,-2.38,397,252,192,452,365
433,0.85,-0.45,-0.32,0.43,-2.44,-1.22,399,252,193,453,363
434,0.8,-0.49,-0.33,2.93,-2.01,-0.79,398,255,193,452,362
435,0.76,-0.53,-0.27,-0.12,2.38,-2.56,398,252,195,451,366
436,0.8,-0.51,-0.29,0.37,-3.42,-2.56,399,254,197,452,353
437,0.81,-0.49,-0.31,0.18,-3.42,-3.11,397,254,195,454,365
438,0.81,-0.49,-0.3,1.77,-2.2,-1.71,394,251,195,453,365
439,0.82,-0.49,-0.31,-0.31,-1.65,-1.22,398,254,196,451,364
440,0.81,-0.5,-0.3,-0.98,-2.2,-1.46,394,254,194,452,362
441,0.81,-0.49,-0.3,0.92,-1.77,-1.83,400,252,196,453,365
442,0.81,-0.5,-0.3,-0.12,-1.89,-1.4,399,256,196,453,363
443,0.81,-0.5,-0.29,0.12,-2.93,-2.44,395,255,193,447,363
444,0.81,-0.5,-0.29,0.18,-2.62,-1.22,393,255,193,453,372
445,0.82,-0.49,-0.3,1.1,-3.17,-3.11,396,256,196,455,367
446,0.82,-0.49,-0.31,-0.92,-4.46,-3.23,396,254,192,451,363
447,0.82,-0.49,-0.31,0.43,-2.87,-2.26,397,254,190,452,369
448,0.83,-0.49,-0.28,2.99,-2.26,-2.01,389,256,197,452,366
449,0.74,-0.56,-0.27,3.78,-4.82,-1.89,397,261,194,453,370
450,0.8,-0.5,-0.3,-0.18,-1.4,-2.93,394,251,191,449,365
451,0.82,-0.49,-0.29,0.61,-2.32,-2.5,394,254,200,452,367
452,0.85,-0.45,-0.33,-0.61,-5.74,-10.8,400,253,197,449,366
453,0.84,-0.45,-0.31,0.18,-3.23,-2.32,395,256,195,451,368
454,0.83,-0.47,-0.3,0.61,-2.2,-0.79,395,256,195,452,365
455,0.82,-0.48,-0.3,-0.06,-3.17,-1.22,394,254,197,452,366
456,0.82,-0.48,-0.31,1.65,-3.05,-3.23,396,256,192,454,367
457,0.83,-0.47,-0.3,0.73,-2.93,-4.46,394,255,197,456,368
458,0.85,-0.45,-0.27,0.49,-1.71,3.23,396,256,192,453,365
459,0.85,-0.45,-0.31,-1.83,-5.92,-0.06,422,256,194,449,365
460,0.81,-0.49,-0.3,3.05,-3.36,-2.93,397,254,199,459,369
461,0.82,-0.48,-0.3,-0.92,-2.26,-1.1,397,254,195,448,367
462,0.82,-0.48,-0.3,1.65,-4.58,-4.21,398,257,195,453,367
463,0.83,-0.46,-0.29,-1.04,-4.52,-3.54,396,254,197,453,366
464,0.82,-0.48,-0.29,0.61,-2.87,-1.71,395,257,194,447,366
465,0.84,-0.46,-0.28,0.24,-2.75,-1.95,392,256,197,456,367
466,0.83,-0.48,-0.3,-1.22,-2.2,0.0,394,253,198,447,368
467,0.82,-0.47,-0.3,0.18,-2.56,-2.01,397,254,197,457,369
468,0.81,-0.49,-0.27,9.95,-3.23,3.36,394,257,194,453,366
469,0.82,-0.51,-0.28,-0.49,-1.77,-1.95,395,254,192,455,369
470,0.83,-0.49,-0.27,1.46,-3.05,-0.61,398,253,192,453,368
471,0.83,-0.49,-0.28,-1.22,-2.32,-2.01,393,256,197,455,366
472,0.81,-0.5,-0.28,-0.61,-3.23,-2.87,394,256,197,456,368
473,0.82,-0.49,-0.28,1.22,-1.59,-2.62,391,252,196,452,365
474,0.82,-0.5,-0.27,-0.49,-2.93,-3.3,396,256,196,456,369
475,0.82,-0.49,-0.28,-0.31,-2.81,-2.62,396,256,194,453,368
476,0.82,-0.49,-0.27,1.04,-3.11,-4.46,396,254,198,455,367
477,0.81,-0.5,-0.28,-1.4,-3.54,-2.38,396,255,195,455,367
478,0.82,-0.48,-0.29,0.0,-3.3,-3.97,396,253,196,452,365
479,0.83,-0.48,-0.28,0.92,-2.81,-2.87,397,253,197,455,368
480,0.82,-0.48,-0.29,0.24,-1.53,-1.71,396,258,191,455,368
481,0.82,-0.48,-0.27,1.77,-3.05,-2.08,394,252,198,464,369
482,0.84,-0.47,-0.3,0.24,-3.3,-3.3,395,256,197,457,368
483,0.8,-0.49,-0.27,0.79,-1.46,0.61,397,253,194,453,369
484,0.83,-0.48,-0.28,-0.12,-2.2,-0.43,395,257,197,456,368
485,0.83,-0.48,-0.29,1.16,-2.26,-2.26,400,254,197,453,371
486,0.83,-0.48,-0.28,-0.98,-2.5,-2.08,392,254,196,448,366
487,0.83,-0.48,-0.27,1.04,-2.5,-2.2,392,258,196,452,370
488,0.83,-0.49,-0.28,0.79,-2.69,-2.44,392,257,199,453,370
489,0.82,-0.49,-0.28,0.06,-2.99,-2.2,408,257,197,457,368
490,0.82,-0.48,-0.28,0.98,-3.17,-2.62,392,255,199,456,369
491,0.82,-0.49,-0.29,-0.18,-2.75,-2.75,393,256,199,452,371
492,0.83,-0.48,-0.27,-0.24,-3.78,-3.66,393,255,196,453,372
493,0.84,-0.46,-0.29,1.28,-2.62,-2.75,393,254,196,453,367
494,0.83,-0.48,-0.29,-0.43,-2.26,-2.44,395,256,195,452,372
495,0.83,-0.49,-0.27,0.37,-2.32,-1.95,395,257,195,456,374
496,0.82,-0.49,-0.27,-1.22,-2.99,-1.83,395,258,195,451,370
497,0.82,-0.5,-0.27,1.53,-2.99,-2.01,392,256,196,452,373
498,0.82,-0.49,-0.28,0.06,-4.39,-4.03,395,254,204,451,368
499,0.83,-0.48,-0.28,-0.79,-2.08,-1.53,392,258,192,451,371
500,0.81,-0.48,-0.28,1.71,-2.99,-1.4,394,256,196,454,371
501,0.81,-0.5,-0.28,1.89,-2.56,-2.01,391,258,201,454,367
502,0.83,-0.49,-0.28,0.43,-2.62,-3.91,393,255,199,452,373
503,0.82,-0.48,-0.28,-0.37,-2.81,-2.93,428,257,202,456,371
504,0.82,-0.49,-0.28,0.85,-2.56,-1.65,397,255,197,452,370
505,0.83,-0.48,-0.27,0.85,-2.99,-2.14,396,258,197,455,369
506,0.83,-0.48,-0.28,0.18,-3.23,-2.5,395,259,207,453,371
507,0.83,-0.49,-0.27,-0.49,-3.23,-2.44,392,259,194,453,367
508,0.83,-0.48,-0.28,0.12,-3.05,-3.78,393,258,195,448,370
509,0.83,-0.47,-0.29,0.67,-2.38,-2.32,393,256,198,449,370
510,0.83,-0.48,-0.28,1.95,-2.5,-5.31,395,254,195,447,370
511,0.78,-0.51,-0.31,-4.27,-4.46,0.37,393,258,194,452,367
512,0.79,-0.51,-0.28,-2.2,-2.62,-15.08,391,255,199,456,371
513,0.82,-0.5,-0.3,0.12,-3.91,-0.67,393,256,202,456,371
514,0.81,-0.49,-0.3,-0.61,-3.36,-3.11,393,258,195,452,370
515,0.84,-0.48,-0.31,0.55,-2.14,-2.38,392,259,199,452,371
516,0.84,-0.47,-0.32,-1.04,-3.11,-2.2,393,259,200,453,368
517,0.8,-0.4,-0.39,-18.68,17.09,-2.99,414,229,170,448,360
518,0.83,-0.4,-0.39,-6.04,-2.5,1.1,415,226,169,450,359
519,0.8,-0.43,-0.38,-0.37,-3.85,-2.2,419,227,169,446,359
520,0.82,-0.4,-0.42,-5.8,-0.24,0.24,416,226,171,445,358
521,0.8,-0.42,-0.41,-3.11,-1.1,-1.89,416,236,167,451,359
522,0.82,-0.4,-0.43,-2.01,-3.78,0.18,417,228,169,453,359
523,0.82,-0.41,-0.39,-2.38,2.62,-0.79,415,232,170,448,355
524,0.83,-0.4,-0.4,0.18,-2.87,-1.53,415,231,173,447,359
525,0.81,-0.41,-0.39,-0.73,-1.71,-2.08,415,231,173,452,359
526,0.81,-0.4,-0.39,-0.24,-5.0,-4.09,419,239,166,448,361
527,0.81,-0.38,-0.41,0.43,-2.14,-2.32,414,229,173,446,359
528,0.82,-0.39,-0.42,-0.18,-3.17,-0.12,416,229,174,449,359
529,0.83,-0.4,-0.41,-1.53,-2.93,-4.64,417,230,173,452,359
530,0.82,-0.42,-0.39,0.85,-2.14,-1.89,416,229,174,453,356
531,0.81,-0.43,-0.39,0.24,-2.26,-2.01,412,233,169,450,360
532,0.81,-0.44,-0.36,-6.29,5.0,2.62,417,233,175,450,361
533,0.84,-0.41,-0.38,-5.8,3.85,1.46,414,232,175,450,359
534,0.86,-0.37,-0.34,-1.59,-2.62,-6.59,413,236,171,445,361
535,0.87,-0.36,-0.34,-1.34,-1.83,1.59,412,231,175,450,359
536,0.85,-0.38,-0.34,-0.73,-3.05,-2.44,411,237,175,449,359
537,0.86,-0.37,-0.36,1.16,-2.87,-3.48,419,232,175,453,357
538,0.84,-0.39,-0.35,2.38,-2.62,-1.04,411,235,177,453,359
539,0.84,-0.39,-0.38,1.65,-1.83,-3.6,412,235,176,450,360
540,0.85,-0.39,-0.36,2.01,-3.11,-1.59,418,234,174,444,359
541,0.84,-0.4,-0.42,20.08,-33.45,-8.3,414,234,175,449,358
542,0.83,-0.4,-0.42,0.67,-4.15,-5.43,410,236,170,444,349
543,0.8,-0.39,-0.39,-1.59,-0.73,-2.75,412,235,176,450,358
544,0.83,-0.4,-0.41,1.83,-2.5,-1.04,414,236,173,447,357
545,0.81,-0.41,-0.41,0.31,-1.53,-2.81,412,234,175,445,359
546,0.82,-0.41,-0.4,1.28,-2.32,-1.1,412,234,174,452,359
547,0.82,-0.42,-0.39,0.98,-2.38,-1.83,414,234,173,453,360
548,0.81,-0.42,-0.39,0.06,-2.87,-1.59,410,240,169,450,362
549,0.82,-0.42,-0.4,-1.77,-1.22,-1.83,413,237,176,452,361
550,0.82,-0.41,-0.39,-1.1,-2.93,-3.48,409,237,171,448,360
551,0.83,-0.39,-0.4,0.0,-2.44,-1.83,413,234,176,452,360
552,0.83,-0.4,-0.39,-0.55,-2.5,-1.83,411,237,173,450,361
553,0.82,-0.42,-0.39,1.16,-2.62,-1.65,407,236,177,445,359
554,0.81,-0.43,-0.39,2.5,-1.89,-1.1,410,236,175,451,360
555,0.8,-0.44,-0.37,-0.37,-3.23,-2.5,407,234,177,446,362
556,0.81,-0.42,-0.38,-0.37,-3.36,-3.3,411,232,174,453,361
557,0.81,-0.43,-0.39,0.31,-3.66,-4.03,410,237,177,452,357
558,0.82,-0.4,-0.4,0.43,-2.81,-3.17,408,234,177,452,360
559,0.81,-0.39,-0.39,2.14,-1.46,-1.4,410,235,175,452,358
560,0.82,-0.41,-0.39,-0.12,-1.89,-1.65,409,238,177,449,362
561,0.8,-0.44,-0.37,1.4,-3.78,-2.08,409,238,175,449,360
562,0.83,-0.39,-0.4,1.1,-3.36,-3.42,409,239,177,448,358
563,0.83,-0.4,-0.4,1.1,-2.38,-3.54,409,238,174,450,360
564,0.83,-0.4,-0.39,-1.4,-2.99,-3.72,406,235,178,451,361
565,0.83,-0.39,-0.39,-0.79,-1.4,-4.09,411,235,179,449,360
566,0.85,-0.36,-0.42,-0.12,-0.79,-6.47,407,236,173,450,358
567,0.83,-0.4,-0.38,-0.67,-3.91,-1.95,412,237,179,456,361
568,0.83,-0.39,-0.38,0.61,-1.89,-3.05,411,236,178,449,361
569,0.82,-0.41,-0.38,1.53,-2.01,-2.01,404,239,177,450,360
570,0.83,-0.41,-0.38,0.18,-2.87,-2.38,408,235,175,449,363
571,0.81,-0.41,-0.36,0.85,-3.72,-2.75,410,239,177,460,361
572,0.84,-0.39,-0.38,0.49,-3.72,-4.15,409,237,180,449,360
573,0.84,-0.38,-0.38,0.12,-3.66,-3.72,414,243,176,451,361
574,0.84,-0.38,-0.38,0.85,-2.14,-1.89,408,239,180,452,352
575,0.84,-0.39,-0.38,0.43,-2.26,-2.56,409,237,181,454,359
576,0.84,-0.39,-0.38,0.55,-2.81,-2.87,407,253,179,447,359
577,0.82,-0.4,-0.36,0.79,-3.72,-2.75,407,238,177,451,361
578,0.84,-0.39,-0.37,-1.1,-3.42,-4.33,407,237,175,446,360
579,0.84,-0.38,-0.38,-1.16,-2.99,-3.72,407,239,180,449,361
580,0.83,-0.39,-0.38,1.65,-2.93,-1.34,413,237,179,454,361
581,0.84,-0.39,-0.37,-0.24,-1.16,-1.4,406,241,179,452,363
582,0.84,-0.39,-0.38,0.73,-2.5,-1.04,405,238,174,449,362
583,0.85,-0.38,-0.37,0.61,-2.62,-3.05,407,240,180,455,362
584,0.84,-0.39,-0.37,0.12,-2.75,-2.99,408,237,181,452,361
585,0.84,-0.37,-0.37,-1.53,-3.66,-3.23,407,236,177,454,361
586,0.84,-0.38,-0.38,0.55,-3.36,-3.3,406,236,178,450,370
587,0.83,-0.38,-0.39,1.1,-2.38,-1.22,400,238,177,450,360
588,0.83,-0.39,-0.38,-0.67,-2.62,-2.2,408,240,181,462,360
589,0.84,-0.39,-0.38,-0.24,-2.44,-2.08,410,235,178,446,361
590,0.84,-0.39,-0.38,-0.37,-2.93,-1.46,406,241,178,451,361
591,0.84,-0.39,-0.37,-0.24,-2.75,-2.14,405,241,179,451,362
592,0.84,-0.39,-0.38,0.0,-3.11,-2.08,406,240,179,451,363
593,0.84,-0.38,-0.37,1.1,-2.87,-2.26,408,236,179,451,362
594,0.83,-0.38,-0.37,2.08,-2.44,-1.53,405,238,177,455,361
595,0.84,-0.39,-0.37,2.01,-4.33,-1.77,445,242,182,451,360
596,0.84,-0.39,-0.38,-0.79,-3.17,-1.59,402,241,179,451,361
597,0.85,-0.38,-0.38,-0.18,-3.6,-2.99,406,241,183,446,361
598,0.84,-0.37,-0.39,0.61,-2.93,-1.59,406,241,178,444,361
599,0.83,-0.39,-0.38,-0.06,-2.08,-1.89,406,236,178,450,360
600,0.83,-0.4,-0.37,-1.22,-1.83,-2.93,406,240,181,448,361
601,0.83,-0.4,-0.37,0.55,-2.56,-1.95,406,238,176,452,363
602,0.83,-0.42,-0.38,1.04,-3.23,-2.69,407,236,180,453,363
603,0.83,-0.41,-0.37,0.18,-3.11,-3.91,406,239,179,451,364
604,0.83,-0.4,-0.37,0.73,-3.42,-3.05,400,239,179,448,359
605,0.83,-0.39,-0.38,-0.67,-3.36,-2.69,405,239,185,451,363
606,0.83,-0.39,-0.38,1.04,-2.44,-1.59,406,237,180,455,361
607,0.83,-0.39,-0.38,1.1,-2.26,-2.32,407,238,180,451,364
608,0.83,-0.4,-0.38,0.73,-2.62,-1.59,407,239,181,452,363
609,0.82,-0.41,-0.38,1.04,-2.38,-2.14,407,240,180,455,362
610,0.83,-0.41,-0.37,0.79,-2.81,-2.32,405,241,179,450,364
611,0.83,-0.41,-0.38,0.06,-3.85,-3.42,403,236,180,453,359
612,0.83,-0.4,-0.38,0.31,-4.27,-5.0,402,242,182,451,359
613,0.84,-0.39,-0.38,0.79,-2.87,-2.99,408,238,180,452,364
614,0.83,-0.39,-0.37,0.61,-1.22,-1.34,405,240,180,455,361
615,0.83,-0.39,-0.38,1.1,-2.62,-2.08,404,239,179,450,352
616,0.83,-0.41,-0.37,0.37,-2.44,-1.1,406,240,178,451,362
617,0.83,-0.41,-0.37,0.06,-2.56,-2.08,405,240,182,452,364
618,0.84,-0.4,-0.37,0.0,-2.5,-1.46,410,238,182,455,361
619,0.83,-0.4,-0.37,0.12,-2.93,-2.69,403,239,178,455,363
620,0.83,-0.4,-0.37,-0.73,-2.69,-3.48,406,240,181,449,362
621,0.84,-0.38,-0.37,0.67,-3.48,-3.6,406,239,181,452,363
622,0.85,-0.38,-0.38,0.55,-2.62,-2.62,410,242,181,455,362
623,0.84,-0.39,-0.38,1.83,-2.93,-2.08,407,238,182,452,363
624,0.83,-0.39,-0.39,0.24,-2.38,-1.1,406,240,182,449,362
625,0.83,-0.41,-0.38,-0.37,-2.32,-0.79,406,242,180,451,363
626,0.82,-0.41,-0.37,0.37,-2.38,-0.55,408,239,180,454,362
627,0.84,-0.41,-0.38,0.0,-3.17,-2.32,405,240,182,447,361
628,0.84,-0.4,-0.38,-0.37,-3.97,-2.69,407,240,180,456,364
629,0.84,-0.4,-0.37,0.55,-3.42,-3.66,405,243,182,450,362
630,0.84,-0.38,-0.38,0.49,-3.3,-3.42,406,242,185,451,365
631,0.83,-0.39,-0.38,1.89,-2.14,-1.34,405,240,180,446,362
632,0.83,-0.4,-0.38,0.43,-2.14,-1.59,409,239,185,447,366
633,0.82,-0.41,-0.37,0.79,-2.81,-2.14,406,243,184,449,358
634,0.84,-0.41,-0.37,0.18,-3.05,-1.71,406,243,185,451,363
635,0.83,-0.41,-0.37,0.18,-3.72,-3.48,402,243,182,450,364
636,0.84,-0.4,-0.37,0.31,-4.09,-4.39,408,238,182,451,361
637,0.84,-0.39,-0.39,1.16,-3.42,-4.58,405,238,184,446,364
638,0.84,-0.39,-0.38,1.16,-2.38,-2.08,442,242,181,450,366
639,0.83,-0.4,-0.37,1.46,-2.87,-2.81,406,241,179,452,362
640,0.83,-0.4,-0.38,0.24,-2.5,-1.95,414,244,180,451,361
641,0.83,-0.41,-0.38,-0.06,-2.32,-2.01,409,241,181,457,364
642,0.83,-0.41,-0.37,0.61,-2.93,-2.32,405,239,180,446,360
643,0.84,-0.4,-0.38,-0.31,-3.23,-3.66,406,243,183,455,364
644,0.84,-0.4,-0.37,-0.79,-3.85,-3.66,407,241,185,451,364
645,0.84,-0.39,-0.38,0.12,-3.54,-3.72,405,244,181,455,363
646,0.84,-0.39,-0.38,1.77,-2.14,-1.22,406,241,185,447,365
647,0.83,-0.4,-0.37,1.04,-2.75,-2.08,406,241,184,450,363
648,0.82,-0.4,-0.38,1.28,-2.32,-1.46,403,242,184,451,363
649,0.82,-0.42,-0.37,-0.24,-2.99,-3.23,405,244,184,455,364
650,0.82,-0.41,-0.38,-0.43,-3.97,-3.36,407,242,183,448,363
651,0.83,-0.39,-0.39,0.12,-3.23,-3.66,404,243,182,451,363
652,0.84,-0.39,-0.39,0.61,-2.26,-0.31,406,245,182,450,366
653,0.83,-0.4,-0.38,-0.37,-2.38,-1.04,406,245,185,450,363
654,0.83,-0.41,-0.38,1.34,-3.11,-2.01,405,239,196,451,360
655,0.83,-0.41,-0.37,0.12,-2.56,-2.38,407,242,183,452,363
656,0.82,-0.41,-0.37,-0.18,-2.38,-2.69,407,245,183,455,359
657,0.82,-0.41,-0.37,0.79,-3.48,-3.17,406,244,184,447,366
658,0.82,-0.41,-0.38,0.31,-3.17,-3.23,407,243,185,451,361
659,0.83,-0.4,-0.38,-0.49,-2.99,-3.78,405,243,179,453,362
660,0.84,-0.39,-0.38,0.49,-2.69,-2.08,409,240,185,455,369
661,0.84,-0.39,-0.38,0.55,-2.62,-1.34,405,242,183,446,361
662,0.83,-0.4,-0.38,1.89,-2.5,-2.14,406,243,182,451,362
663,0.83,-0.41,-0.37,0.18,-2.93,-2.5,405,246,184,452,359
664,0.82,-0.41,-0.37,0.43,-2.75,-1.34,406,245,190,450,363
665,0.82,-0.41,-0.37,0.12,-2.69,-2.14,407,241,183,449,362
666,0.82,-0.41,-0.38,0.49,-3.36,-3.97,406,244,185,456,365
667,0.83,-0.4,-0.37,-0.55,-3.23,-2.62,405,246,187,450,364
668,0.84,-0.39,-0.39,0.79,-2.87,-2.26,404,243,181,451,364
669,0.84,-0.39,-0.37,-0.67,-2.56,-1.65,406,245,184,455,363
670,0.83,-0.4,-0.37,0.67,-2.87,-1.71,404,243,188,446,361
671,0.83,-0.41,-0.37,0.55,-2.93,-2.5,408,240,187,456,360
672,0.84,-0.4,-0.37,0.43,-2.81,-2.56,402,246,185,451,363
673,0.83,-0.41,-0.37,1.46,-3.6,-3.48,405,244,197,449,359
674,0.83,-0.41,-0.38,-0.49,-3.42,-4.15,403,246,185,451,363
675,0.82,-0.4,-0.38,-0.18,-2.99,-2.32,405,246,183,446,362
676,0.83,-0.4,-0.39,0.49,-2.56,-0.79,407,246,189,455,364
677,0.83,-0.4,-0.37,1.46,-2.26,-2.81,406,243,188,452,362
678,0.83,-0.4,-0.37,0.85,-2.93,-2.5,400,243,186,450,363
679,0.84,-0.41,-0.37,-0.37,-2.56,-3.48,426,245,184,452,373
680,0.84,-0.41,-0.37,0.98,-3.11,-2.93,407,241,186,456,362
681,0.83,-0.4,-0.37,0.12,-3.48,-4.21,405,244,190,453,365
682,0.83,-0.39,-0.37,0.43,-3.6,-3.72,407,247,181,455,363
683,0.84,-0.39,-0.38,-0.12,-3.72,-3.91,406,244,188,453,361
684,0.83,-0.39,-0.37,0.79,-2.32,-1.59,408,242,187,452,363
685,0.83,-0.4,-0.37,0.67,-2.38,-1.83,405,244,186,452,363
686,0.83,-0.41,-0.37,0.85,-2.44,-2.01,406,246,186,452,363
687,0.83,-0.41,-0.38,0.24,-2.75,-1.89,411,245,187,451,375
688,0.82,-0.42,-0.37,0.24,-2.81,-2.62,405,252,186,454,363
689,0.83,-0.4,-0.39,-0.98,-4.03,-4.03,406,244,185,450,363
690,0.83,-0.4,-0.37,1.53,-4.46,-4.76,408,246,187,456,361
691,0.83,-0.4,-0.37,0.79,-2.93,1.46,406,244,184,453,363
692,0.84,-0.39,-0.39,2.62,-1.89,-1.71,405,244,185,446,365
693,0.84,-0.39,-0.38,0.49,-3.17,-2.08,405,244,187,456,362
694,0.82,-0.41,-0.37,1.46,-3.78,-2.44,406,246,186,453,365
695,0.82,-0.4,-0.38,0.0,-3.72,-4.03,405,246,187,448,366
696,0.81,-0.43,-0.4,0.18,-2.75,0.0,408,243,187,446,364
697,0.82,-0.42,-0.38,0.61,-2.44,-2.14,407,244,187,457,363
698,0.83,-0.42,-0.37,0.24,-2.5,-1.46,400,241,182,448,360
699,0.83,-0.4,-0.38,0.31,-2.56,-2.44,403,244,188,453,367
700,0.83,-0.41,-0.37,-0.24,-2.56,-2.56,407,246,186,450,363
701,0.83,-0.41,-0.37,0.06,-2.38,-1.59,405,242,187,448,361
702,0.82,-0.42,-0.38,0.67,-3.11,-3.05,404,245,186,453,361
703,0.82,-0.41,-0.38,-0.24,-3.17,-3.6,404,247,188,463,366
704,0.82,-0.4,-0.38,-0.85,-2.5,-3.11,405,244,194,455,365
705,0.83,-0.39,-0.39,0.79,-2.99,-1.95,407,244,188,451,362
706,0.83,-0.41,-0.37,2.01,-2.56,0.31,412,247,191,451,375
707,0.81,-0.42,-0.37,-2.99,-2.69,-2.93,405,243,185,449,364
708,0.81,-0.42,-0.37,1.46,-3.85,-2.5,414,242,188,453,362
709,0.83,-0.41,-0.37,1.59,-2.56,-3.66,393,245,187,456,362
710,0.83,-0.41,-0.38,-0.06,-2.87,-2.01,403,246,187,457,364
711,0.83,-0.41,-0.37,-0.18,-4.15,-2.99,407,252,188,452,364
712,0.86,-0.37,-0.41,-3.48,-3.91,-3.42,412,248,188,452,363
713,0.82,-0.4,-0.38,-1.22,-2.44,-0.49,405,244,188,454,366
714,0.81,-0.43,-0.37,2.99,-3.42,-4.09,405,245,187,452,362
715,0.82,-0.41,-0.38,2.38,-1.89,-0.37,402,247,189,449,364
716,0.82,-0.42,-0.38,0.98,-2.44,-0.92,405,244,186,453,363
717,0.81,-0.42,-0.38,-0.12,-2.69,-1.77,405,248,188,457,366
718,0.82,-0.42,-0.38,-0.24,-2.75,-2.08,408,245,188,457,360
719,0.82,-0.42,-0.37,0.92,-3.17,-2.44,405,244,187,457,363
720,0.82,-0.42,-0.39,0.92,-3.3,-2.26,403,245,189,451,363
721,0.81,-0.41,-0.37,1.22,-3.05,-2.26,405,244,185,453,361
722,0.83,-0.41,-0.38,0.49,-3.3,-3.66,405,245,190,448,361
723,0.83,-0.41,-0.38,0.18,-2.99,-2.62,410,247,192,454,363
724,0.82,-0.41,-0.38,1.16,-2.81,-2.32,403,245,189,448,366
725,0.82,-0.42,-0.38,0.92,-2.75,-2.87,407,245,183,452,359
726,0.83,-0.42,-0.39,-0.06,-1.71,0.55,406,246,186,456,364
727,0.82,-0.42,-0.37,-2.01,-1.71,-1.46,408,246,189,455,363
728,0.83,-0.42,-0.37,1.1,-3.36,-2.81,408,245,185,452,364
729,0.82,-0.42,-0.38,3.78,-3.3,-3.17,405,246,187,454,364
730,0.85,-0.4,-0.35,-0.49,-1.77,-2.87,408,247,190,453,364
731,0.84,-0.4,-0.37,0.98,-2.38,-1.53,407,246,189,448,361
732,0.83,-0.41,-0.36,1.59,-2.75,-2.38,405,242,188,450,364
733,0.83,-0.42,-0.38,0.06,-3.3,-4.33,405,245,184,451,363
734,0.82,-0.41,-0.37,-0.92,-3.05,-3.97,407,245,184,453,360
735,0.83,-0.4,-0.38,-0.06,-2.93,-2.32,421,245,186,453,361
736,0.83,-0.4,-0.39,0.98,-2.56,-1.34,404,246,187,456,365
737,0.82,-0.41,-0.39,2.38,-2.56,-1.34,407,246,186,456,362
738,0.83,-0.41,-0.38,-0.31,-2.5,-1.28,406,245,189,450,362
739,0.82,-0.41,-0.37,0.79,-3.23,-2.2,406,245,185,457,360
740,0.83,-0.41,-0.37,0.0,-2.38,-1.89,405,245,185,454,364
741,0.83,-0.41,-0.37,0.49,-2.99,-2.26,405,246,186,452,371
742,0.82,-0.42,-0.37,0.12,-3.66,-3.36,404,246,187,452,363
743,0.83,-0.4,-0.37,1.59,-3.91,-3.54,405,246,190,453,363
744,0.84,-0.4,-0.37,-0.79,-1.71,0.49,405,256,189,457,365
745,0.82,-0.42,-0.36,0.31,-2.14,-1.77,404,249,188,453,363
746,0.84,-0.41,-0.37,-1.22,-3.36,-2.38,400,245,189,451,363
747,0.84,-0.41,-0.37,0.79,-4.46,-5.25,401,250,190,445,360
748,0.87,-0.37,-0.39,-1.1,-4.27,-4.94,401,248,188,456,363
749,0.84,-0.39,-0.37,-4.82,-2.26,-7.87,398,245,185,450,366
750,0.84,-0.39,-0.38,0.31,-4.03,-5.07,407,249,189,447,364
751,0.85,-0.37,-0.38,0.49,-2.56,-4.52,401,249,188,456,363
752,0.85,-0.37,-0.38,1.53,-3.85,-3.3,397,250,188,452,363
753,0.84,-0.37,-0.37,2.26,-3.6,-3.05,397,247,189,452,362
754,0.84,-0.39,-0.37,-0.85,-1.4,-1.53,396,248,193,451,363
755,0.84,-0.39,-0.38,0.61,-2.2,-0.61,396,249,189,452,366
756,0.84,-0.39,-0.38,0.61,-2.5,-2.32,397,249,189,448,363
757,0.83,-0.4,-0.37,0.92,-2.56,-0.85,397,248,190,447,363
758,0.85,-0.38,-0.36,0.18,-3.05,-3.78,398,249,189,451,363
759,0.86,-0.36,-0.38,1.28,-2.75,-1.16,399,248,187,456,362
760,0.83,-0.39,-0.36,0.18,-3.6,0.18,398,248,184,462,363
761,0.81,-0.41,-0.38,1.46,-2.44,-0.55,397,246,187,457,366
762,0.83,-0.4,-0.37,0.0,-2.32,-1.95,399,256,190,454,363
763,0.83,-0.4,-0.37,0.12,-2.38,-1.95,393,243,188,457,364
764,0.84,-0.39,-0.38,0.37,-4.03,-4.33,397,246,189,453,365
765,0.83,-0.38,-0.38,0.73,-4.21,-1.83,396,247,190,453,365
766,0.86,-0.37,-0.38,2.81,-1.89,0.12,395,252,187,449,367
767,0.84,-0.4,-0.37,0.61,-2.87,-3.17,400,247,184,452,362
768,0.84,-0.4,-0.37,-0.37,-2.5,-2.26,398,246,188,454,361
769,0.84,-0.4,-0.37,0.73,-2.81,-3.05,398,248,187,450,367
770,0.83,-0.4,-0.37,0.0,-4.03,-2.99,399,248,190,448,364
771,0.86,-0.39,-0.38,-3.05,-1.77,-6.71,400,252,187,452,363
772,0.84,-0.39,-0.37,1.71,-4.15,-2.38,397,251,196,453,363
773,0.83,-0.41,-0.36,0.24,-2.38,-2.99,401,246,187,448,363
774,0.83,-0.4,-0.37,-1.1,-3.97,-0.31,396,251,191,454,363
775,0.83,-0.42,-0.37,1.95,-3.17,-2.81,400,248,192,457,365
776,0.81,-0.44,-0.37,2.81,-4.21,0.98,399,249,192,451,362
777,0.8,-0.46,-0.37,0.73,-2.93,-2.81,401,249,186,455,366
778,0.8,-0.45,-0.38,0.0,-2.62,-2.44,399,246,191,455,364
779,0.82,-0.45,-0.37,0.79,-2.62,-2.87,395,250,189,454,362
780,0.8,-0.45,-0.37,0.49,-3.11,-1.28,399,250,191,452,367
781,0.8,-0.46,-0.37,0.49,-2.99,-2.01,401,245,192,457,363
782,0.8,-0.45,-0.37,-0.18,-3.36,-3.6,399,246,187,456,364
783,0.8,-0.45,-0.37,-0.61,-3.6,-4.33,400,250,192,452,364
784,0.81,-0.43,-0.38,1.1,-1.71,-1.53,398,251,192,455,364
785,0.82,-0.45,-0.36,-0.61,-2.14,-2.56,399,248,186,453,369
786,0.82,-0.44,-0.36,-0.31,-2.87,-2.5,395,258,188,452,363
787,0.82,-0.44,-0.37,0.73,-3.3,-2.81,396,247,191,453,364
788,0.8,-0.45,-0.37,2.01,-3.11,-1.65,397,246,192,449,366
789,0.82,-0.44,-0.38,-0.55,-2.01,-3.48,397,247,195,454,365
790,0.8,-0.45,-0.35,4.82,-2.99,-6.65,397,251,187,448,365
791,0.8,-0.46,-0.36,-0.67,-2.99,-2.38,397,249,192,447,366
792,0.84,-0.42,-0.35,-0.55,-2.14,0.18,397,248,188,451,363
793,0.83,-0.41,-0.39,-6.16,-6.1,-4.82,400,248,191,452,365
794,0.79,-0.42,-0.38,0.12,-3.97,-6.47,396,246,191,456,361
795,0.85,-0.4,-0.36,2.69,0.85,-0.37,398,250,188,456,364
796,0.81,-0.43,-0.39,0.0,-1.53,1.53,398,251,187,457,363
797,0.83,-0.41,-0.34,2.32,0.98,-1.59,398,250,190,456,364
798,0.82,-0.43,-0.35,4.33,-3.72,-2.14,398,246,190,456,364
799,0.82,-0.44,-0.35,-1.28,-2.01,-1.77,397,252,190,456,366
800,0.83,-0.44,-0.33,2.5,-2.44,-0.31,397,246,188,455,365
801,0.81,-0.44,-0.37,2.08,-4.46,-5.13,398,253,192,456,364
802,0.79,-0.47,-0.35,1.65,-0.55,0.73,399,252,189,455,364
803,0.85,-0.42,-0.36,0.31,-6.29,-5.49,394,250,189,452,364
804,0.81,-0.44,-0.37,-2.5,-5.43,-4.64,399,246,187,449,365
805,0.82,-0.44,-0.35,3.17,-3.66,-2.93,400,249,189,452,365
806,0.8,-0.46,-0.35,-1.1,-3.17,-1.22,397,245,191,456,362
807,0.85,-0.42,-0.35,4.64,0.55,-1.28,397,250,192,453,365
808,0.81,-0.44,-0.29,0.0,-3.3,-3.78,400,246,189,452,364
809,0.82,-0.45,-0.37,0.24,-3.85,-3.11,399,251,192,456,360
810,0.82,-0.45,-0.33,-0.98,-3.66,-2.81,396,250,187,452,364
811,0.82,-0.44,-0.34,0.55,-2.38,-2.32,388,249,191,455,365
812,0.82,-0.46,-0.34,0.24,-2.01,-1.83,397,249,187,453,365
813,0.81,-0.46,-0.34,15.44,-2.5,-2.38,396,251,193,452,365
814,0.81,-0.47,-0.34,0.92,-2.62,-2.44,395,248,190,456,361
815,0.82,-0.47,-0.34,0.67,-2.87,-1.83,397,247,192,449,365
816,0.8,-0.46,-0.33,0.55,-2.2,-2.14,395,252,189,451,365
817,0.83,-0.45,-0.33,0.98,-3.85,-3.54,396,252,190,454,366
818,0.82,-0.44,-0.34,-0.61,-2.69,-3.97,396,249,189,446,364
819,0.82,-0.45,-0.33,2.01,-2.75,-0.61,398,249,193,447,364
820,0.81,-0.46,-0.34,0.31,-3.36,-4.15,396,249,191,455,363
821,0.81,-0.46,-0.34,1.34,-2.26,-1.59,397,247,190,451,363
822,0.8,-0.47,-0.33,-0.55,-2.62,-2.5,398,252,194,450,366
823,0.82,-0.47,-0.32,-0.79,-2.93,-1.65,398,249,190,454,361
824,0.81,-0.47,-0.34,-0.06,-2.93,-2.75,398,253,189,453,364
825,0.81,-0.46,-0.33,0.67,-3.6,-4.58,397,251,192,451,365
826,0.82,-0.46,-0.34,-0.49,-3.6,-4.33,410,251,193,454,365
827,0.82,-0.45,-0.34,-0.18,-2.81,-3.11,392,250,187,448,365
828,0.82,-0.45,-0.34,0.31,-2.5,-1.46,396,249,184,453,366
829,0.83,-0.46,-0.34,1.53,-2.56,-1.89,393,250,190,451,367
830,0.82,-0.46,-0.34,0.06,-2.32,-3.36,394,248,190,447,366
831,0.82,-0.46,-0.33,-0.43,-4.58,-5.0,398,265,193,456,364
832,0.82,-0.44,-0.36,-0.37,-3.72,-5.55,397,251,192,446,365
833,0.82,-0.44,-0.35,1.83,-3.6,-6.23,397,250,194,453,364
834,0.82,-0.44,-0.34,-0.12,-3.97,-4.09,398,248,189,453,366
835,0.82,-0.45,-0.35,0.18,-2.38,-1.59,399,249,193,451,365
836,0.83,-0.44,-0.34,1.46,-2.99,-1.16,399,250,190,455,364
837,0.82,-0.44,-0.37,1.1,-4.21,-4.88,397,250,193,450,365
838,0.83,-0.43,-0.36,1.04,-2.62,-2.2,396,251,187,452,361
839,0.81,-0.46,-0.34,0.37,-2.56,-1.89,396,249,192,452,366
840,0.81,-0.45,-0.35,0.98,-2.32,-1.04,399,249,189,453,367
841,0.82,-0.45,-0.35,-0.61,-2.81,-2.38,395,249,190,451,373
842,0.83,-0.45,-0.35,-0.12,-2.93,-2.14,397,251,191,451,367
843,0.82,-0.45,-0.35,0.73,-2.62,-2.75,397,251,196,455,365
844,0.82,-0.45,-0.34,0.0,-2.69,-2.44,397,252,191,453,367
845,0.81,-0.46,-0.33,0.85,-4.03,-2.44,400,248,194,456,372
846,0.82,-0.44,-0.36,-0.61,-3.17,-4.03,397,252,190,452,364
847,0.83,-0.44,-0.35,0.85,-2.44,-0.73,397,252,189,447,365
848,0.83,-0.43,-0.35,0.0,-2.38,-1.16,398,255,193,457,364
849,0.82,-0.45,-0.35,1.16,-2.26,-1.53,398,250,193,450,364
850,0.82,-0.45,-0.34,0.18,-2.62,-2.26,397,263,190,451,365
851,0.82,-0.45,-0.34,0.24,-2.75,-2.87,397,251,193,455,361
852,0.82,-0.46,-0.33,1.22,-2.69,-4.46,399,251,193,455,363
853,0.83,-0.44,-0.37,2.26,-4.15,-1.83,398,255,196,452,364
854,0.81,-0.46,-0.35,0.73,-2.75,-2.69,403,252,193,456,365
855,0.82,-0.46,-0.3,-1.46,-3.91,-2.87,397,252,193,450,366
856,0.82,-0.45,-0.36,-1.04,-3.66,-2.69,397,250,190,454,365
857,0.82,-0.44,-0.35,0.12,-2.44,-2.2,397,248,192,455,362
858,0.82,-0.44,-0.35,-0.24,-2.5,-2.5,397,251,190,453,365
859,0.82,-0.44,-0.35,0.43,-3.48,-3.3,394,249,190,446,365
860,0.8,-0.46,-0.33,1.53,-1.83,0.85,394,253,193,456,367
861,0.81,-0.46,-0.34,0.12,-2.81,-2.08,438,252,193,447,364
862,0.82,-0.46,-0.34,0.85,-3.17,-4.27,396,249,187,455,365
863,0.84,-0.44,-0.35,-0.24,-2.87,-4.15,396,252,191,448,363
864,0.81,-0.46,-0.35,-0.24,-2.75,-3.17,392,252,193,448,364
865,0.82,-0.46,-0.33,0.49,-2.69,-2.01,403,251,192,455,365
866,0.83,-0.45,-0.35,-0.49,-3.23,-5.68,398,250,190,453,363
867,0.84,-0.44,-0.34,-0.98,-3.05,-2.93,406,250,193,452,364
868,0.84,-0.45,-0.34,0.43,-2.2,0.67,398,253,193,453,366
869,0.82,-0.46,-0.33,-0.24,-2.26,-2.56,395,253,194,456,368
870,0.82,-0.46,-0.33,2.75,-2.32,-2.44,402,248,189,455,365
871,0.83,-0.46,-0.33,-0.79,-3.3,-3.97,397,251,190,453,364
872,0.83,-0.45,-0.34,0.43,-2.87,-3.42,391,251,192,456,363
873,0.84,-0.44,-0.32,0.12,-3.72,-2.87,391,247,190,455,364
874,0.83,-0.44,-0.35,0.43,-3.72,0.18,396,251,191,452,365
875,0.83,-0.44,-0.34,-1.16,-2.32,-0.49,396,249,190,456,360
876,0.82,-0.45,-0.34,-0.79,-2.08,-1.34,397,250,189,448,366
877,0.82,-0.45,-0.34,-0.92,-2.93,-1.04,404,250,190,455,362
878,0.83,-0.45,-0.33,-0.18,-2.81,-1.22,399,253,192,449,366
879,0.83,-0.45,-0.34,-1.1,-3.11,-3.36,400,253,191,453,364
880,0.82,-0.45,-0.34,0.12,-3.54,-3.54,396,250,193,456,364
881,0.82,-0.45,-0.35,1.22,-3.54,-3.17,397,253,193,451,366
882,0.83,-0.44,-0.33,-0.24,-2.01,-1.1,398,251,194,448,365
883,0.81,-0.46,-0.34,2.2,-2.38,-1.4,398,252,190,456,368
884,0.83,-0.45,-0.33,0.92,-2.2,-2.69,397,250,189,456,365
885,0.83,-0.45,-0.34,0.55,-2.75,-2.2,399,252,194,453,365
886,0.78,-0.48,-0.34,1.04,-3.66,-6.1,399,255,193,452,364
887,0.78,-0.48,-0.33,1.95,-2.87,-2.81,399,253,194,454,365
888,0.81,-0.46,-0.36,1.89,-2.2,-1.46,401,252,195,452,364
889,0.82,-0.46,-0.33,0.73,-1.95,-2.32,397,251,192,452,366
890,0.81,-0.46,-0.35,-1.1,-4.46,-1.34,397,248,193,453,361
891,0.81,-0.46,-0.36,0.24,-4.09,-4.03,398,258,194,453,365
892,0.82,-0.45,-0.36,-0.18,-2.62,-2.75,400,252,193,450,365
893,0.82,-0.46,-0.34,0.12,-2.56,-1.34,397,252,196,453,367
894,0.83,-0.45,-0.33,1.22,-2.44,-2.38,396,251,192,451,365
895,0.83,-0.45,-0.35,-1.83,-2.87,-3.3,396,255,192,457,365
896,0.81,-0.47,-0.33,0.18,-2.75,-2.14,405,254,194,457,365
897,0.81,-0.47,-0.33,0.85,-3.3,-2.87,408,252,192,453,365
898,0.8,-0.48,-0.34,2.01,-2.87,-3.97,403,251,191,453,365
899,0.83,-0.45,-0.33,3.3,-1.59,-2.62,398,251,190,452,364
900,0.82,-0.45,-0.31,3.85,-2.2,-3.17,396,251,194,452,366
901,0.84,-0.44,-0.32,-0.24,-2.2,-2.01,398,252,192,453,363
902,0.82,-0.46,-0.32,-0.12,-3.23,-2.5,399,252,192,456,366
903,0.83,-0.46,-0.33,0.0,-3.78,-3.91,397,254,194,452,365
904,0.83,-0.45,-0.34,1.04,-3.05,-3.17,397,252,189,457,365
905,0.82,-0.46,-0.33,0.61,-2.32,-2.08,397,253,193,453,364
906,0.81,-0.47,-0.33,1.22,-3.17,-2.38,395,254,193,456,364
907,0.82,-0.46,-0.33,-0.18,-2.14,-3.11,398,254,191,454,365
908,0.83,-0.47,-0.32,1.46,-2.99,-1.59,400,250,194,456,367
909,0.83,-0.49,-0.32,-0.49,-2.75,-3.72,396,253,192,453,366
910,0.81,-0.47,-0.32,0.37,-3.48,-2.38,397,253,195,449,366
911,0.83,-0.46,-0.32,-0.67,-3.42,-2.99,399,250,192,456,363
912,0.82,-0.46,-0.33,1.77,-2.14,-1.83,396,255,192,457,368
913,0.83,-0.46,-0.32,-0.12,-2.26,-3.85,399,254,195,453,371
914,0.81,-0.48,-0.33,1.59,-3.11,-2.69,397,252,194,453,366
915,0.81,-0.48,-0.31,0.79,-3.42,-3.48,398,250,195,453,361
916,0.82,-0.48,-0.32,-0.31,-3.85,-3.54,397,254,194,454,362
917,0.8,-0.48,-0.32,1.71,-3.05,-1.95,399,251,196,454,366
918,0.84,-0.45,-0.35,-0.85,-2.81,-0.98,395,251,195,454,365
919,0.81,-0.48,-0.32,-3.17,-1.83,-0.92,394,253,195,451,366
920,0.81,-0.47,-0.31,1.83,-2.44,-1.1,396,253,198,457,356
921,0.82,-0.47,-0.32,-0.37,-2.5,-1.89,400,254,189,457,365
922,0.83,-0.46,-0.32,0.18,-2.56,-2.32,397,251,194,456,364
923,0.82,-0.47,-0.31,1.16,-2.81,-2.5,399,249,191,455,365
924,0.82,-0.47,-0.32,-0.12,-3.78,-4.33,397,254,194,447,364
925,0.83,-0.46,-0.31,0.73,-2.75,-1.22,397,252,194,449,363
926,0.82,-0.46,-0.33,1.1,-2.44,-1.53,397,253,189,453,365
927,0.82,-0.47,-0.32,1.28,-1.65,-0.43,398,250,196,455,364
928,0.82,-0.47,-0.32,0.55,-3.05,-2.14,396,252,193,453,366
929,0.82,-0.47,-0.32,-0.43,-4.09,-3.23,398,251,195,456,367
930,0.83,-0.46,-0.33,1.34,-2.75,-2.87,395,254,196,454,362
931,0.81,-0.47,-0.32,-0.31,-2.2,-1.1,397,254,194,453,364
932,0.8,-0.47,-0.32,0.67,-2.32,-2.08,397,252,191,447,363
933,0.83,-0.47,-0.32,1.28,-2.69,-2.08,398,253,192,452,365
934,0.83,-0.47,-0.32,0.73,-2.62,-1.89,396,253,195,454,365
935,0.81,-0.48,-0.32,0.12,-2.5,-0.98,398,250,192,452,365
936,0.82,-0.48,-0.32,0.06,-2.5,-2.26,394,252,193,455,363
937,0.82,-0.48,-0.31,-0.06,-3.48,-2.69,397,254,195,456,364
938,0.83,-0.48,-0.32,-1.22,-3.72,-4.39,396,250,196,456,363
939,0.78,-0.5,-0.31,-1.4,-3.05,0.31,398,251,206,455,364
940,0.81,-0.48,-0.34,-0.43,-2.08,-1.71,399,251,193,449,369
941,0.82,-0.47,-0.32,1.53,-2.38,-1.1,397,252,195,455,362
942,0.81,-0.48,-0.32,1.04,-3.23,-1.71,396,254,192,448,365
943,0.81,-0.48,-0.33,-1.34,-3.66,-2.87,393,253,196,456,364
944,0.83,-0.45,-0.33,1.59,-1.83,0.18,399,254,194,456,366
945,0.82,-0.47,-0.34,-2.14,-2.75,-1.65,396,254,194,451,365
946,0.82,-0.46,-0.34,2.32,-2.44,-1.46,400,253,193,448,363
947,0.81,-0.48,-0.31,0.12,-3.17,-3.36,397,253,196,453,365
948,0.81,-0.48,-0.32,-0.24,-2.81,-2.01,398,255,193,447,365
949,0.82,-0.48,-0.31,0.67,-2.26,-2.38,397,252,192,452,365
950,0.85,-0.45,-0.32,0.43,-2.44,-1.22,399,252,193,453,363
951,0.8,-0.49,-0.33,2.93,-2.01,-0.79,398,255,193,452,362
952,0.76,-0.53,-0.27,-0.12,2.38,-2.56,398,252,195,451,366
953,0.8,-0.51,-0.29,0.37,-3.42,-2.56,399,254,197,452,353
954,0.81,-0.49,-0.31,0.18,-3.42,-3.11,397,254,195,454,365
955,0.81,-0.49,-0.3,1.77,-2.2,-1.71,394,251,195,453,365
956,0.82,-0.49,-0.31,-0.31,-1.65,-1.22,398,254,196,451,364
957,0.81,-0.5,-0.3,-0.98,-2.2,-1.46,394,254,194,452,362
958,0.81,-0.49,-0.3,0.92,-1.77,-1.83,400,252,196,453,365
959,0.81,-0.5,-0.3,-0.12,-1.89,-1.4,399,256,196,453,363
960,0.81,-0.5,-0.29,0.12,-2.93,-2.44,395,255,193,447,363
961,0.81,-0.5,-0.29,0.18,-2.62,-1.22,393,255,193,453,372
962,0.82,-0.49,-0.3,1.1,-3.17,-3.11,396,256,196,455,367
963,0.82,-0.49,-0.31,-0.92,-4.46,-3.23,396,254,192,451,363
964,0.82,-0.49,-0.31,0.43,-2.87,-2.26,397,254,190,452,369
965,0.83,-0.49,-0.28,2.99,-2.26,-2.01,389,256,197,452,366
966,0.74,-0.56,-0.27,3.78,-4.82,-1.89,397,261,194,453,370
967,0.8,-0.5,-0.3,-0.18,-1.4,-2.93,394,251,191,449,365
968,0.82,-0.49,-0.29,0.61,-2.32,-2.5,394,254,200,452,367
969,0.85,-0.45,-0.33,-0.61,-5.74,-10.8,400,253,197,449,366
970,0.84,-0.45,-0.31,0.18,-3.23,-2.32,395,256,195,451,368
971,0.83,-0.47,-0.3,0.61,-2.2,-0.79,395,256,195,452,365
972,0.82,-0.48,-0.3,-0.06,-3.17,-1.22,394,254,197,452,366
973,0.82,-0.48,-0.31,1.65,-3.05,-3.23,396,256,192,454,367
974,0.83,-0.47,-0.3,0.73,-2.93,-4.46,394,255,197,456,368
975,0.85,-0.45,-0.27,0.49,-1.71,3.23,396,256,192,453,365
976,0.85,-0.45,-0.31,-1.83,-5.92,-0.06,422,256,194,449,365
977,0.81,-0.49,-0.3,3.05,-3.36,-2.93,397,254,199,459,369
978,0.82,-0.48,-0.3,-0.92,-2.26,-1.1,397,254,195,448,367
979,0.82,-0.48,-0.3,1.65,-4.58,-4.21,398,257,195,453,367
980,0.83,-0.46,-0.29,-1.04,-4.52,-3.54,396,254,197,453,366
981,0.82,-0.48,-0.29,0.61,-2.87,-1.71,395,257,194,447,366
982,0.84,-0.46,-0.28,0.24,-2.75,-1.95,392,256,197,456,367
983,0.83,-0.48,-0.3,-1.22,-2.2,0.0,394,253,198,447,368
984,0.82,-0.47,-0.3,0.18,-2.56,-2.01,397,254,197,457,369
985,0.81,-0.49,-0.27,9.95,-3.23,3.36,394,257,194,453,366
986,0.82,-0.51,-0.28,-0.49,-1.77,-1.95,395,254,192,455,369
987,0.83,-0.49,-0.27,1.46,-3.05,-0.61,398,253,192,453,368
988,0.83,-0.49,-0.28,-1.22,-2.32,-2.01,393,256,197,455,366
989,0.81,-0.5,-0.28,-0.61,-3.23,-2.87,394,256,197,456,368
990,0.82,-0.49,-0.28,1.22,-1.59,-2.62,391,252,196,452,365
991,0.82,-0.5,-0.27,-0.49,-2.93,-3.3,396,256,196,456,369
992,0.82,-0.49,-0.28,-0.31,-2.81,-2.62,396,256,194,453,368
993,0.82,-0.49,-0.27,1.04,-3.11,-4.46,396,254,198,455,367
994,0.81,-0.5,-0.28,-1.4,-3.54,-2.38,396,255,195,455,367
995,0.82,-0.48,-0.29,0.0,-3.3,-3.97,396,253,196,452,365
996,0.83,-0.48,-0.28,0.92,-2.81,-2.87,397,253,197,455,368
997,0.82,-0.48,-0.29,0.24,-1.53,-1.71,396,258,191,455,368
998,0.82,-0.48,-0.27,1.77,-3.05,-2.08,394,252,198,464,369
999,0.84,-0.47,-0.3,0.24,-3.3,-3.3,395,256,197,457,368
1000,0.8,-0.49,-0.27,0.79,-1.46,0.61,397,253,194,453,369
1001,0.83,-0.48,-0.28,-0.12,-2.2,-0.43,395,257,197,456,368
1002,0.83,-0.48,-0.29,1.16,-2.26,-2.26,400,254,197,453,371
1003,0.83,-0.48,-0.28,-0.98,-2.5,-2.08,392,254,196,448,366
1004,0.83,-0.48,-0.27,1.04,-2.5,-2.2,392,258,196,452,370
1005,0.83,-0.49,-0.28,0.79,-2.69,-2.44,392,257,199,453,370
1006,0.82,-0.49,-0.28,0.06,-2.99,-2.2,408,257,197,457,368
1007,0.82,-0.48,-0.28,0.98,-3.17,-2.62,392,255,199,456,369
1008,0.82,-0.49,-0.29,-0.18,-2.75,-2.75,393,256,199,452,371
1009,0.83,-0.48,-0.27,-0.24,-3.78,-3.66,393,255,196,453,372
1010,0.84,-0.46,-0.29,1.28,-2.62,-2.75,393,254,196,453,367
1011,0.83,-0.48,-0.29,-0.43,-2.26,-2.44,395,256,195,452,372
1012,0.83,-0.49,-0.27,0.37,-2.32,-1.95,395,257,195,456,374
1013,0.82,-0.49,-0.27,-1.22,-2.99,-1.83,395,258,195,451,370
1014,0.82,-0.5,-0.27,1.53,-2.99,-2.01,392,256,196,452,373
1015,0.82,-0.49,-0.28,0.06,-4.39,-4.03,395,254,204,451,368
1016,0.83,-0.48,-0.28,-0.79,-2.08,-1.53,392,258,192,451,371
1017,0.81,-0.48,-0.28,1.71,-2.99,-1.4,394,256,196,454,371
1018,0.81,-0.5,-0.28,1.89,-2.56,-2.01,391,258,201,454,367
1019,0.83,-0.49,-0.28,0.43,-2.62,-3.91,393,255,199,452,373
1020,0.82,-0.48,-0.28,-0.37,-2.81,-2.93,428,257,202,456,371
1021,0.82,-0.49,-0.28,0.85,-2.56,-1.65,397,255,197,452,370
1022,0.83,-0.48,-0.27,0.85,-2.99,-2.14,396,258,197,455,369
1023,0.83,-0.48,-0.28,0.18,-3.23,-2.5,395,259,207,453,371
1024,0.83,-0.49,-0.27,-0.49,-3.23,-2.44,392,259,194,453,367
1025,0.83,-0.48,-0.28,0.12,-3.05,-3.78,393,258,195,448,370
1026,0.83,-0.47,-0.29,0.67,-2.38,-2.32,393,256,198,449,370
1027,0.83,-0.48,-0.28,1.95,-2.5,-5.31,395,254,195,447,370
1028,0.78,-0.51,-0.31,-4.27,-4.46,0.37,393,258,194,452,367
1029,0.79,-0.51,-0.28,-2.2,-2.62,-15.08,391,255,199,456,371
1030,0.82,-0.5,-0.3,0.12,-3.91,-0.67,393,256,202,456,371
1031,0.81,-0.49,-0.3,-0.61,-3.36,-3.11,393,258,195,452,370
1032,0.84,-0.48,-0.31,0.55,-2.14,-2.38,392,259,199,452,371
1033,0.84,-0.47,-0.32,-1.04,-3.11,-2.2,393,259,200,453,368
1034,0.8,-0.4,-0.39,-18.68,17.09,-2.99,414,229,170,448,360
1035,0.83,-0.4,-0.39,-6.04,-2.5,1.1,415,226,169,450,359
1036,0.8,-0.43,-0.38,-0.37,-3.85,-2.2,419,227,169,446,359
1037,0.82,-0.4,-0.42,-5.8,-0.24,0.24,416,226,171,445,358
1038,0.8,-0.42,-0.41,-3.11,-1.1,-1.89,416,236,167,451,359
1039,0.82,-0.4,-0.43,-2.01,-3.78,0.18,417,228,169,453,359
1040,0.82,-0.41,-0.39,-2.38,2.62,-0.79,415,232,170,448,355
1041,0.83,-0.4,-0.4,0.18,-2.87,-1.53,415,231,173,447,359
1042,0.81,-0.41,-0.39,-0.73,-1.71,-2.08,415,231,173,452,359
1043,0.81,-0.4,-0.39,-0.24,-5.0,-4.09,419,239,166,448,361
1044,0.81,-0.38,-0.41,0.43,-2.14,-2.32,414,229,173,446,359
1045,0.82,-0.39,-0.42,-0.18,-3.17,-0.12,416,229,174,449,359
1046,0.83,-0.4,-0.41,-1.53,-2.93,-4.64,417,230,173,452,359
1047,0.82,-0.42,-0.39,0.85,-2.14,-1.89,416,229,174,453,356
1048,0.81,-0.43,-0.39,0.24,-2.26,-2.01,412,233,169,450,360
1049,0.81,-0.44,-0.36,-6.29,5.0,2.62,417,233,175,450,361
1050,0.84,-0.41,-0.38,-5.8,3.85,1.46,414,232,175,450,359
1051,0.86,-0.37,-0.34,-1.59,-2.62,-6.59,413,236,171,445,361
1052,0.87,-0.36,-0.34,-1.34,-1.83,1.59,412,231,175,450,359
1053,0.85,-0.38,-0.34,-0.73,-3.05,-2.44,411,237,175,449,359
1054,0.86,-0.37,-0.36,1.16,-2.87,-3.48,419,232,175,453,357
1055,0.84,-0.39,-0.35,2.38,-2.62,-1.04,411,235,177,453,359
1056,0.84,-0.39,-0.38,1.65,-1.83,-3.6,412,235,176,450,360
1057,0.85,-0.39,-0.36,2.01,-3.11,-1.59,418,234,174,444,359
1058,0.84,-0.4,-0.42,20.08,-33.45,-8.3,414,234,175,449,358
1059,0.83,-0.4,-0.42,0.67,-4.15,-5.43,410,236,170,444,349
1060,0.8,-0.39,-0.39,-1.59,-0.73,-2.75,412,235,176,450,358
1061,0.83,-0.4,-0.41,1.83,-2.5,-1.04,414,236,173,447,357
1062,0.81,-0.41,-0.41,0.31,-1.53,-2.81,412,234,175,445,359
1063,0.82,-0.41,-0.4,1.28,-2.32,-1.1,412,234,174,452,359
1064,0.82,-0.42,-0.39,0.98,-2.38,-1.83,414,234,173,453,360
1065,0.81,-0.42,-0.39,0.06,-2.87,-1.59,410,240,169,450,362
1066,0.82,-0.42,-0.4,-1.77,-1.22,-1.83,413,237,176,452,361
1067,0.82,-0.41,-0.39,-1.1,-2.93,-3.48,409,237,171,448,360
1068,0.83,-0.39,-0.4,0.0,-2.44,-1.83,413,234,176,452,360
1069,0.83,-0.4,-0.39,-0.55,-2.5,-1.83,411,237,173,450,361
1070,0.82,-0.42,-0.39,1.16,-2.62,-1.65,407,236,177,445,359
1071,0.81,-0.43,-0.39,2.5,-1.89,-1.1,410,236,175,451,360
1072,0.8,-0.44,-0.37,-0.37,-3.23,-2.5,407,234,177,446,362
1073,0.81,-0.42,-0.38,-0.37,-3.36,-3.3,411,232,174,453,361
1074,0.81,-0.43,-0.39,0.31,-3.66,-4.03,410,237,177,452,357
1075,0.82,-0.4,-0.4,0.43,-2.81,-3.17,408,234,177,452,360
1076,0.81,-0.39,-0.39,2.14,-1.46,-1.4,410,235,175,452,358
1077,0.82,-0.41,-0.39,-0.12,-1.89,-1.65,409,238,177,449,362
1078,0.8,-0.44,-0.37,1.4,-3.78,-2.08,409,238,175,449,360
1079,0.83,-0.39,-0.4,1.1,-3.36,-3.42,409,239,177,448,358
1080,0.83,-0.4,-0.4,1.1,-2.38,-3.54,409,238,174,450,360
1081,0.83,-0.4,-0.39,-1.4,-2.99,-3.72,406,235,178,451,361
1082,0.83,-0.39,-0.39,-0.79,-1.4,-4.09,411,235,179,449,360
1083,0.85,-0.36,-0.42,-0.12,-0.79,-6.47,407,236,173,450,358
1084,0.83,-0.4,-0.38,-0.67,-3.91,-1.95,412,237,179,456,361
1085,0.83,-0.39,-0.38,0.61,-1.89,-3.05,411,236,178,449,361
1086,0.82,-0.41,-0.38,1.53,-2.01,-2.01,404,239,177,450,360
1087,0.83,-0.41,-0.38,0.18,-2.87,-2.38,408,235,175,449,363
1088,0.81,-0.41,-0.36,0.85,-3.72,-2.75,410,239,177,460,361
1089,0.84,-0.39,-0.38,0.49,-3.72,-4.15,409,237,180,449,360
1090,0.84,-0.38,-0.38,0.12,-3.66,-3.72,414,243,176,451,361
1091,0.84,-0.38,-0.38,0.85,-2.14,-1.89,408,239,180,452,352
1092,0.84,-0.39,-0.38,0.43,-2.26,-2.56,409,237,181,454,359
1093,0.84,-0.39,-0.38,0.55,-2.81,-2.87,407,253,179,447,359
1094,0.82,-0.4,-0.36,0.79,-3.72,-2.75,407,238,177,451,361
1095,0.84,-0.39,-0.37,-1.1,-3.42,-4.33,407,237,175,446,360
1096,0.84,-0.38,-0.38,-1.16,-2.99,-3.72,407,239,180,449,361
1097,0.83,-0.39,-0.38,1.65,-2.93,-1.34,413,237,179,454,361
1098,0.84,-0.39,-0.37,-0.24,-1.16,-1.4,406,241,179,452,363
1099,0.84,-0.39,-0.38,0.73,-2.5,-1.04,405,238,174,449,362
1100,0.85,-0.38,-0.37,0.61,-2.62,-3.05,407,240,180,455,362
1101,0.84,-0.39,-0.37,0.12,-2.75,-2.99,408,237,181,452,361
1102,0.84,-0.37,-0.37,-1.53,-3.66,-3.23,407,236,177,454,361
1103,0.84,-0.38,-0.38,0.55,-3.36,-3.3,406,236,178,450,370
1104,0.83,-0.38,-0.39,1.1,-2.38,-1.22,400,238,177,450,360
1105,0.83,-0.39,-0.38,-0.67,-2.62,-2.2,408,240,181,462,360
1106,0.84,-0.39,-0.38,-0.24,-2.44,-2.08,410,235,178,446,361
1107,0.84,-0.39,-0.38,-0.37,-2.93,-1.46,406,241,178,451,361
1108,0.84,-0.39,-0.37,-0.24,-2.75,-2.14,405,241,179,451,362
1109,0.84,-0.39,-0.38,0.0,-3.11,-2.08,406,240,179,451,363
1110,0.84,-0.38,-0.37,1.1,-2.87,-2.26,408,236,179,451,362
1111,0.83,-0.38,-0.37,2.08,-2.44,-1.53,405,238,177,455,361
1112,0.84,-0.39,-0.37,2.01,-4.33,-1.77,445,242,182,451,360
1113,0.84,-0.39,-0.38,-0.79,-3.17,-1.59,402,241,179,451,361
1114,0.85,-0.38,-0.38,-0.18,-3.6,-2.99,406,241,183,446,361
1115,0.84,-0.37,-0.39,0.61,-2.93,-1.59,406,241,178,444,361
1116,0.83,-0.39,-0.38,-0.06,-2.08,-1.89,406,236,178,450,360
1117,0.83,-0.4,-0.37,-1.22,-1.83,-2.93,406,240,181,448,361
1118,0.83,-0.4,-0.37,0.55,-2.56,-1.95,406,238,176,452,363
1119,0.83,-0.42,-0.38,1.04,-3.23,-2.69,407,236,180,453,363
1120,0.83,-0.41,-0.37,0.18,-3.11,-3.91,406,239,179,451,364
1121,0.83,-0.4,-0.37,0.73,-3.42,-3.05,400,239,179,448,359
1122,0.83,-0.39,-0.38,-0.67,-3.36,-2.69,405,239,185,451,363
1123,0.83,-0.39,-0.38,1.04,-2.44,-1.59,406,237,180,455,361
1124,0.83,-0.39,-0.38,1.1,-2.26,-2.32,407,238,180,451,364
1125,0.83,-0.4,-0.38,0.73,-2.62,-1.59,407,239,181,452,363
1126,0.82,-0.41,-0.38,1.04,-2.38,-2.14,407,240,180,455,362
1127,0.83,-0.41,-0.37,0.79,-2.81,-2.32,405,241,179,450,364
1128,0.83,-0.41,-0.38,0.06,-3.85,-3.42,403,236,180,453,359
1129,0.83,-0.4,-0.38,0.31,-4.27,-5.0,402,242,182,451,359
1130,0.84,-0.39,-0.38,0.79,-2.87,-2.99,408,238,180,452,364
1131,0.83,-0.39,-0.37,0.61,-1.22,-1.34,405,240,180,455,361
1132,0.83,-0.39,-0.38,1.1,-2.62,-2.08,404,239,179,450,352
1133,0.83,-0.41,-0.37,0.37,-2.44,-1.1,406,240,178,451,362
1134,0.83,-0.41,-0.37,0.06,-2.56,-2.08,405,240,182,452,364
1135,0.84,-0.4,-0.37,0.0,-2.5,-1.46,410,238,182,455,361
1136,0.83,-0.4,-0.37,0.12,-2.93,-2.69,403,239,178,455,363
1137,0.83,-0.4,-0.37,-0.73,-2.69,-3.48,406,240,181,449,362
1138,0.84,-0.38,-0.37,0.67,-3.48,-3.6,406,239,181,452,363
1139,0.85,-0.38,-0.38,0.55,-2.62,-2.62,410,242,181,455,362
1140,0.84,-0.39,-0.38,1.83,-2.93,-2.08,407,238,182,452,363
1141,0.83,-0.39,-0.39,0.24,-2.38,-1.1,406,240,182,449,362
1142,0.83,-0.41,-0.38,-0.37,-2.32,-0.79,406,242,180,451,363
1143,0.82,-0.41,-0.37,0.37,-2.38,-0.55,408,239,180,454,362
1144,0.84,-0.41,-0.38,0.0,-3.17,-2.32,405,240,182,447,361
1145,0.84,-0.4,-0.38,-0.37,-3.97,-2.69,407,240,180,456,364
1146,0.84,-0.4,-0.37,0.55,-3.42,-3.66,405,243,182,450,362
1147,0.84,-0.38,-0.38,0.49,-3.3,-3.42,406,242,185,451,365
1148,0.83,-0.39,-0.38,1.89,-2.14,-1.34,405,240,180,446,362
1149,0.83,-0.4,-0.38,0.43,-2.14,-1.59,409,239,185,447,366
1150,0.82,-0.41,-0.37,0.79,-2.81,-2.14,406,243,184,449,358
1151,0.84,-0.41,-0.37,0.18,-3.05,-1.71,406,243,185,451,363
1152,0.83,-0.41,-0.37,0.18,-3.72,-3.48,402,243,182,450,364
1153,0.84,-0.4,-0.37,0.31,-4.09,-4.39,408,238,182,451,361
1154,0.84,-0.39,-0.39,1.16,-3.42,-4.58,405,238,184,446,364
1155,0.84,-0.39,-0.38,1.16,-2.38,-2.08,442,242,181,450,366
1156,0.83,-0.4,-0.37,1.46,-2.87,-2.81,406,241,179,452,362
1157,0.83,-0.4,-0.38,0.24,-2.5,-1.95,414,244,180,451,361
1158,0.83,-0.41,-0.38,-0.06,-2.32,-2.01,409,241,181,457,364
1159,0.83,-0.41,-0.37,0.61,-2.93,-2.32,405,239,180,446,360
1160,0.84,-0.4,-0.38,-0.31,-3.23,-3.66,406,243,183,455,364
1161,0.84,-0.4,-0.37,-0.79,-3.85,-3.66,407,241,185,451,364
1162,0.84,-0.39,-0.38,0.12,-3.54,-3.72,405,244,181,455,363
1163,0.84,-0.39,-0.38,1.77,-2.14,-1.22,406,241,185,447,365
1164,0.83,-0.4,-0.37,1.04,-2.75,-2.08,406,241,184,450,363
1165,0.82,-0.4,-0.38,1.28,-2.32,-1.46,403,242,184,451,363
1166,0.82,-0.42,-0.37,-0.24,-2.99,-3.23,405,244,184,455,364
1167,0.82,-0.41,-0.38,-0.43,-3.97,-3.36,407,242,183,448,363
1168,0.83,-0.39,-0.39,0.12,-3.23,-3.66,404,243,182,451,363
1169,0.84,-0.39,-0.39,0.61,-2.26,-0.31,406,245,182,450,366
1170,0.83,-0.4,-0.38,-0.37,-2.38,-1.04,406,245,185,450,363
1171,0.83,-0.41,-0.38,1.34,-3.11,-2.01,405,239,196,451,360
1172,0.83,-0.41,-0.37,0.12,-2.56,-2.38,407,242,183,452,363
1173,0.82,-0.41,-0.37,-0.18,-2.38,-2.69,407,245,183,455,359
1174,0.82,-0.41,-0.37,0.79,-3.48,-3.17,406,244,184,447,366
1175,0.82,-0.41,-0.38,0.31,-3.17,-3.23,407,243,185,451,361
1176,0.83,-0.4,-0.38,-0.49,-2.99,-3.78,405,243,179,453,362
1177,0.84,-0.39,-0.38,0.49,-2.69,-2.08,409,240,185,455,369
1178,0.84,-0.39,-0.38,0.55,-2.62,-1.34,405,242,183,446,361
1179,0.83,-0.4,-0.38,1.89,-2.5,-2.14,406,243,182,451,362
1180,0.83,-0.41,-0.37,0.18,-2.93,-2.5,405,246,184,452,359
1181,0.82,-0.41,-0.37,0.43,-2.75,-1.34,406,245,190,450,363
1182,0.82,-0.41,-0.37,0.12,-2.69,-2.14,407,241,183,449,362
1183,0.82,-0.41,-0.38,0.49,-3.36,-3.97,406,244,185,456,365
1184,0.83,-0.4,-0.37,-0.55,-3.23,-2.62,405,246,187,450,364
1185,0.84,-0.39,-0.39,0.79,-2.87,-2.26,404,243,181,451,364
1186,0.84,-0.39,-0.37,-0.67,-2.56,-1.65,406,245,184,455,363
1187,0.83,-0.4,-0.37,0.67,-2.87,-1.71,404,243,188,446,361
1188,0.83,-0.41,-0.37,0.55,-2.93,-2.5,408,240,187,456,360
1189,0.84,-0.4,-0.37,0.43,-2.81,-2.56,402,246,185,451,363
1190,0.83,-0.41,-0.37,1.46,-3.6,-3.48,405,244,197,449,359
1191,0.83,-0.41,-0.38,-0.49,-3.42,-4.15,403,246,185,451,363
1192,0.82,-0.4,-0.38,-0.18,-2.99,-2.32,405,246,183,446,362
1193,0.83,-0.4,-0.39,0.49,-2.56,-0.79,407,246,189,455,364
1194,0.83,-0.4,-0.37,1.46,-2.26,-2.81,406,243,188,452,362
1195,0.83,-0.4,-0.37,0.85,-2.93,-2.5,400,243,186,450,363
1196,0.84,-0.41,-0.37,-0.37,-2.56,-3.48,426,245,184,452,373
1197,0.84,-0.41,-0.37,0.98,-3.11,-2.93,407,241,186,456,362
1198,0.83,-0.4,-0.37,0.12,-3.48,-4.21,405,244,190,453,365
1199,0.83,-0.39,-0.37,0.43,-3.6,-3.72,407,247,181,455,363
1200,0.84,-0.39,-0.38,-0.12,-3.72,-3.91,406,244,188,453,361
1201,0.83,-0.39,-0.37,0.79,-2.32,-1.59,408,242,187,452,363
1202,0.83,-0.4,-0.37,0.67,-2.38,-1.83,405,244,186,452,363
1203,0.83,-0.41,-0.37,0.85,-2.44,-2.01,406,246,186,452,363
1204,0.83,-0.41,-0.38,0.24,-2.75,-1.89,411,245,187,451,375
1205,0.82,-0.42,-0.37,0.24,-2.81,-2.62,405,252,186,454,363
1206,0.83,-0.4,-0.39,-0.98,-4.03,-4.03,406,244,185,450,363
1207,0.83,-0.4,-0.37,1.53,-4.46,-4.76,408,246,187,456,361
1208,0.83,-0.4,-0.37,0.79,-2.93,1.46,406,244,184,453,363
1209,0.84,-0.39,-0.39,2.62,-1.89,-1.71,405,244,185,446,365
1210,0.84,-0.39,-0.38,0.49,-3.17,-2.08,405,244,187,456,362
1211,0.82,-0.41,-0.37,1.46,-3.78,-2.44,406,246,186,453,365
1212,0.82,-0.4,-0.38,0.0,-3.72,-4.03,405,246,187,448,366
1213,0.81,-0.43,-0.4,0.18,-2.75,0.0,408,243,187,446,364
1214,0.82,-0.42,-0.38,0.61,-2.44,-2.14,407,244,187,457,363
1215,0.83,-0.42,-0.37,0.24,-2.5,-1.46,400,241,182,448,360
1216,0.83,-0.4,-0.38,0.31,-2.56,-2.44,403,244,188,453,367
1217,0.83,-0.41,-0.37,-0.24,-2.56,-2.56,407,246,186,450,363
1218,0.83,-0.41,-0.37,0.06,-2.38,-1.59,405,242,187,448,361
1219,0.82,-0.42,-0.38,0.67,-3.11,-3.05,404,245,186,453,361
1220,0.82,-0.41,-0.38,-0.24,-3.17,-3.6,404,247,188,463,366
1221,0.82,-0.4,-0.38,-0.85,-2.5,-3.11,405,244,194,455,365
1222,0.83,-0.39,-0.39,0.79,-2.99,-1.95,407,244,188,451,362
1223,0.83,-0.41,-0.37,2.01,-2.56,0.31,412,247,191,451,375
1224,0.81,-0.42,-0.37,-2.99,-2.69,-2.93,405,243,185,449,364
1225,0.81,-0.42,-0.37,1.46,-3.85,-2.5,414,242,188,453,362
1226,0.83,-0.41,-0.37,1.59,-2.56,-3.66,393,245,187,456,362
1227,0.83,-0.41,-0.38,-0.06,-2.87,-2.01,403,246,187,457,364
1228,0.83,-0.41,-0.37,-0.18,-4.15,-2.99,407,252,188,452,364
1229,0.86,-0.37,-0.41,-3.48,-3.91,-3.42,412,248,188,452,363
1230,0.82,-0.4,-0.38,-1.22,-2.44,-0.49,405,244,188,454,366
1231,0.81,-0.43,-0.37,2.99,-3.42,-4.09,405,245,187,452,362
1232,0.82,-0.41,-0.38,2.38,-1.89,-0.37,402,247,189,449,364
1233,0.82,-0.42,-0.38,0.98,-2.44,-0.92,405,244,186,453,363
1234,0.81,-0.42,-0.38,-0.12,-2.69,-1.77,405,248,188,457,366
1235,0.82,-0.42,-0.38,-0.24,-2.75,-2.08,408,245,188,457,360
1236,0.82,-0.42,-0.37,0.92,-3.17,-2.44,405,244,187,457,363
1237,0.82,-0.42,-0.39,0.92,-3.3,-2.26,403,245,189,451,363
1238,0.81,-0.41,-0.37,1.22,-3.05,-2.26,405,244,185,453,361
1239,0.83,-0.41,-0.38,0.49,-3.3,-3.66,405,245,190,448,361
1240,0.83,-0.41,-0.38,0.18,-2.99,-2.62,410,247,192,454,363
1241,0.82,-0.41,-0.38,1.16,-2.81,-2.32,403,245,189,448,366
1242,0.82,-0.42,-0.38,0.92,-2.75,-2.87,407,245,183,452,359
1243,0.83,-0.42,-0.39,-0.06,-1.71,0.55,406,246,186,456,364
1244,0.82,-0.42,-0.37,-2.01,-1.71,-1.46,408,246,189,455,363
1245,0.83,-0.42,-0.37,1.1,-3.36,-2.81,408,245,185,452,364
1246,0.82,-0.42,-0.38,3.78,-3.3,-3.17,405,246,187,454,364
1247,0.85,-0.4,-0.35,-0.49,-1.77,-2.87,408,247,190,453,364
1248,0.84,-0.4,-0.37,0.98,-2.38,-1.53,407,246,189,448,361
1249,0.83,-0.41,-0.36,1.59,-2.75,-2.38,405,242,188,450,364
1250,0.83,-0.42,-0.38,0.06,-3.3,-4.33,405,245,184,451,363
1251,0.82,-0.41,-0.37,-0.92,-3.05,-3.97,407,245,184,453,360
1252,0.83,-0.4,-0.38,-0.06,-2.93,-2.32,421,245,186,453,361
1253,0.83,-0.4,-0.39,0.98,-2.56,-1.34,404,246,187,456,365
1254,0.82,-0.41,-0.39,2.38,-2.56,-1.34,407,246,186,456,362
1255,0.83,-0.41,-0.38,-0.31,-2.5,-1.28,406,245,189,450,362
1256,0.82,-0.41,-0.37,0.79,-3.23,-2.2,406,245,185,457,360
1257,0.83,-0.41,-0.37,0.0,-2.38,-1.89,405,245,185,454,364
1258,0.83,-0.41,-0.37,0.49,-2.99,-2.26,405,246,186,452,371
1259,0.82,-0.42,-0.37,0.12,-3.66,-3.36,404,246,187,452,363
1260,0.83,-0.4,-0.37,1.59,-3.91,-3.54,405,246,190,453,363
1261,0.84,-0.4,-0.37,-0.79,-1.71,0.49,405,256,189,457,365
1262,0.82,-0.42,-0.36,0.31,-2.14,-1.77,404,249,188,453,363
1263,0.84,-0.41,-0.37,-1.22,-3.36,-2.38,400,245,189,451,363
1264,0.84,-0.41,-0.37,0.79,-4.46,-5.25,401,250,190,445,360
1265,0.87,-0.37,-0.39,-1.1,-4.27,-4.94,401,248,188,456,363
1266,0.84,-0.39,-0.37,-4.82,-2.26,-7.87,398,245,185,450,366
1267,0.84,-0.39,-0.38,0.31,-4.03,-5.07,407,249,189,447,364
1268,0.85,-0.37,-0.38,0.49,-2.56,-4.52,401,249,188,456,363
1269,0.85,-0.37,-0.38,1.53,-3.85,-3.3,397,250,188,452,363
1270,0.84,-0.37,-0.37,2.26,-3.6,-3.05,397,247,189,452,362
1271,0.84,-0.39,-0.37,-0.85,-1.4,-1.53,396,248,193,451,363
1272,0.84,-0.39,-0.38,0.61,-2.2,-0.61,396,249,189,452,366
1273,0.84,-0.39,-0.38,0.61,-2.5,-2.32,397,249,189,448,363
1274,0.83,-0.4,-0.37,0.92,-2.56,-0.85,397,248,190,447,363
1275,0.85,-0.38,-0.36,0.18,-3.05,-3.78,398,249,189,451,363
1276,0.86,-0.36,-0.38,1.28,-2.75,-1.16,399,248,187,456,362
1277,0.83,-0.39,-0.36,0.18,-3.6,0.18,398,248,184,462,363
1278,0.81,-0.41,-0.38,1.46,-2.44,-0.55,397,246,187,457,366
1279,0.83,-0.4,-0.37,0.0,-2.32,-1.95,399,256,190,454,363
1280,0.83,-0.4,-0.37,0.12,-2.38,-1.95,393,243,188,457,364
1281,0.84,-0.39,-0.38,0.37,-4.03,-4.33,397,246,189,453,365
1282,0.83,-0.38,-0.38,0.73,-4.21,-1.83,396,247,190,453,365
1283,0.86,-0.37,-0.38,2.81,-1.89,0.12,395,252,187,449,367
1284,0.84,-0.4,-0.37,0.61,-2.87,-3.17,400,247,184,452,362
1285,0.84,-0.4,-0.37,-0.37,-2.5,-2.26,398,246,188,454,361
1286,0.84,-0.4,-0.37,0.73,-2.81,-3.05,398,248,187,450,367
1287,0.83,-0.4,-0.37,0.0,-4.03,-2.99,399,248,190,448,364
1288,0.86,-0.39,-0.38,-3.05,-1.77,-6.71,400,252,187,452,363
1289,0.84,-0.39,-0.37,1.71,-4.15,-2.38,397,251,196,453,363
1290,0.83,-0.41,-0.36,0.24,-2.38,-2.99,401,246,187,448,363
1291,0.83,-0.4,-0.37,-1.1,-3.97,-0.31,396,251,191,454,363
1292,0.83,-0.42,-0.37,1.95,-3.17,-2.81,400,248,192,457,365
1293,0.81,-0.44,-0.37,2.81,-4.21,0.98,399,249,192,451,362
1294,0.8,-0.46,-0.37,0.73,-2.93,-2.81,401,249,186,455,366
1295,0.8,-0.45,-0.38,0.0,-2.62,-2.44,399,246,191,455,364
1296,0.82,-0.45,-0.37,0.79,-2.62,-2.87,395,250,189,454,362
1297,0.8,-0.45,-0.37,0.49,-3.11,-1.28,399,250,191,452,367
1298,0.8,-0.46,-0.37,0.49,-2.99,-2.01,401,245,192,457,363
1299,0.8,-0.45,-0.37,-0.18,-3.36,-3.6,399,246,187,456,364
1300,0.8,-0.45,-0.37,-0.61,-3.6,-4.33,400,250,192,452,364
1301,0.81,-0.43,-0.38,1.1,-1.71,-1.53,398,251,192,455,364
1302,0.82,-0.45,-0.36,-0.61,-2.14,-2.56,399,248,186,453,369
1303,0.82,-0.44,-0.36,-0.31,-2.87,-2.5,395,258,188,452,363
1304,0.82,-0.44,-0.37,0.73,-3.3,-2.81,396,247,191,453,364
1305,0.8,-0.45,-0.37,2.01,-3.11,-1.65,397,246,192,449,366
1306,0.82,-0.44,-0.38,-0.55,-2.01,-3.48,397,247,195,454,365
1307,0.8,-0.45,-0.35,4.82,-2.99,-6.65,397,251,187,448,365
1308,0.8,-0.46,-0.36,-0.67,-2.99,-2.38,397,249,192,447,366
1309,0.84,-0.42,-0.35,-0.55,-2.14,0.18,397,248,188,451,363
1310,0.83,-0.41,-0.39,-6.16,-6.1,-4.82,400,248,191,452,365
1311,0.79,-0.42,-0.38,0.12,-3.97,-6.47,396,246,191,456,361
1312,0.85,-0.4,-0.36,2.69,0.85,-0.37,398,250,188,456,364
1313,0.81,-0.43,-0.39,0.0,-1.53,1.53,398,251,187,457,363
1314,0.83,-0.41,-0.34,2.32,0.98,-1.59,398,250,190,456,364
1315,0.82,-0.43,-0.35,4.33,-3.72,-2.14,398,246,190,456,364
1316,0.82,-0.44,-0.35,-1.28,-2.01,-1.77,397,252,190,456,366
1317,0.83,-0.44,-0.33,2.5,-2.44,-0.31,397,246,188,455,365
1318,0.81,-0.44,-0.37,2.08,-4.46,-5.13,398,253,192,456,364
1319,0.79,-0.47,-0.35,1.65,-0.55,0.73,399,252,189,455,364
1320,0.85,-0.42,-0.36,0.31,-6.29,-5.49,394,250,189,452,364
1321,0.81,-0.44,-0.37,-2.5,-5.43,-4.64,399,246,187,449,365
1322,0.82,-0.44,-0.35,3.17,-3.66,-2.93,400,249,189,452,365
1323,0.8,-0.46,-0.35,-1.1,-3.17,-1.22,397,245,191,456,362
1324,0.85,-0.42,-0.35,4.64,0.55,-1.28,397,250,192,453,365
1325,0.81,-0.44,-0.29,0.0,-3.3,-3.78,400,246,189,452,364
1326,0.82,-0.45,-0.37,0.24,-3.85,-3.11,399,251,192,456,360
1327,0.82,-0.45,-0.33,-0.98,-3.66,-2.81,396,250,187,452,364
1328,0.82,-0.44,-0.34,0.55,-2.38,-2.32,388,249,191,455,365
1329,0.82,-0.46,-0.34,0.24,-2.01,-1.83,397,249,187,453,365
1330,0.81,-0.46,-0.34,15.44,-2.5,-2.38,396,251,193,452,365
1331,0.81,-0.47,-0.34,0.92,-2.62,-2.44,395,248,190,456,361
1332,0.82,-0.47,-0.34,0.67,-2.87,-1.83,397,247,192,449,365
1333,0.8,-0.46,-0.33,0.55,-2.2,-2.14,395,252,189,451,365
1334,0.83,-0.45,-0.33,0.98,-3.85,-3.54,396,252,190,454,366
1335,0.82,-0.44,-0.34,-0.61,-2.69,-3.97,396,249,189,446,364
1336,0.82,-0.45,-0.33,2.01,-2.75,-0.61,398,249,193,447,364
1337,0.81,-0.46,-0.34,0.31,-3.36,-4.15,396,249,191,455,363
1338,0.81,-0.46,-0.34,1.34,-2.26,-1.59,397,247,190,451,363
1339,0.8,-0.47,-0.33,-0.55,-2.62,-2.5,398,252,194,450,366
1340,0.82,-0.47,-0.32,-0.79,-2.93,-1.65,398,249,190,454,361
1341,0.81,-0.47,-0.34,-0.06,-2.93,-2.75,398,253,189,453,364
1342,0.81,-0.46,-0.33,0.67,-3.6,-4.58,397,251,192,451,365
1343,0.82,-0.46,-0.34,-0.49,-3.6,-4.33,410,251,193,454,365
1344,0.82,-0.45,-0.34,-0.18,-2.81,-3.11,392,250,187,448,365
1345,0.82,-0.45,-0.34,0.31,-2.5,-1.46,396,249,184,453,366
1346,0.83,-0.46,-0.34,1.53,-2.56,-1.89,393,250,190,451,367
1347,0.82,-0.46,-0.34,0.06,-2.32,-3.36,394,248,190,447,366
1348,0.82,-0.46,-0.33,-0.43,-4.58,-5.0,398,265,193,456,364
1349,0.82,-0.44,-0.36,-0.37,-3.72,-5.55,397,251,192,446,365
1350,0.82,-0.44,-0.35,1.83,-3.6,-6.23,397,250,194,453,364
1351,0.82,-0.44,-0.34,-0.12,-3.97,-4.09,398,248,189,453,366
1352,0.82,-0.45,-0.35,0.18,-2.38,-1.59,399,249,193,451,365
1353,0.83,-0.44,-0.34,1.46,-2.99,-1.16,399,250,190,455,364
1354,0.82,-0.44,-0.37,1.1,-4.21,-4.88,397,250,193,450,365
1355,0.83,-0.43,-0.36,1.04,-2.62,-2.2,396,251,187,452,361
1356,0.81,-0.46,-0.34,0.37,-2.56,-1.89,396,249,192,452,366
1357,0.81,-0.45,-0.35,0.98,-2.32,-1.04,399,249,189,453,367
1358,0.82,-0.45,-0.35,-0.61,-2.81,-2.38,395,249,190,451,373
1359,0.83,-0.45,-0.35,-0.12,-2.93,-2.14,397,251,191,451,367
1360,0.82,-0.45,-0.35,0.73,-2.62,-2.75,397,251,196,455,365
1361,0.82,-0.45,-0.34,0.0,-2.69,-2.44,397,252,191,453,367
1362,0.81,-0.46,-0.33,0.85,-4.03,-2.44,400,248,194,456,372
1363,0.82,-0.44,-0.36,-0.61,-3.17,-4.03,397,252,190,452,364
1364,0.83,-0.44,-0.35,0.85,-2.44,-0.73,397,252,189,447,365
1365,0.83,-0.43,-0.35,0.0,-2.38,-1.16,398,255,193,457,364
1366,0.82,-0.45,-0.35,1.16,-2.26,-1.53,398,250,193,450,364
1367,0.82,-0.45,-0.34,0.18,-2.62,-2.26,397,263,190,451,365
1368,0.82,-0.45,-0.34,0.24,-2.75,-2.87,397,251,193,455,361
1369,0.82,-0.46,-0.33,1.22,-2.69,-4.46,399,251,193,455,363
1370,0.83,-0.44,-0.37,2.26,-4.15,-1.83,398,255,196,452,364
1371,0.81,-0.46,-0.35,0.73,-2.75,-2.69,403,252,193,456,365
1372,0.82,-0.46,-0.3,-1.46,-3.91,-2.87,397,252,193,450,366
1373,0.82,-0.45,-0.36,-1.04,-3.66,-2.69,397,250,190,454,365
1374,0.82,-0.44,-0.35,0.12,-2.44,-2.2,397,248,192,455,362
1375,0.82,-0.44,-0.35,-0.24,-2.5,-2.5,397,251,190,453,365
1376,0.82,-0.44,-0.35,0.43,-3.48,-3.3,394,249,190,446,365
1377,0.8,-0.46,-0.33,1.53,-1.83,0.85,394,253,193,456,367
1378,0.81,-0.46,-0.34,0.12,-2.81,-2.08,438,252,193,447,364
1379,0.82,-0.46,-0.34,0.85,-3.17,-4.27,396,249,187,455,365
1380,0.84,-0.44,-0.35,-0.24,-2.87,-4.15,396,252,191,448,363
1381,0.81,-0.46,-0.35,-0.24,-2.75,-3.17,392,252,193,448,364
1382,0.82,-0.46,-0.33,0.49,-2.69,-2.01,403,251,192,455,365
1383,0.83,-0.45,-0.35,-0.49,-3.23,-5.68,398,250,190,453,363
1384,0.84,-0.44,-0.34,-0.98,-3.05,-2.93,406,250,193,452,364
1385,0.84,-0.45,-0.34,0.43,-2.2,0.67,398,253,193,453,366
1386,0.82,-0.46,-0.33,-0.24,-2.26,-2.56,395,253,194,456,368
1387,0.82,-0.46,-0.33,2.75,-2.32,-2.44,402,248,189,455,365
1388,0.83,-0.46,-0.33,-0.79,-3.3,-3.97,397,251,190,453,364
1389,0.83,-0.45,-0.34,0.43,-2.87,-3.42,391,251,192,456,363
1390,0.84,-0.44,-0.32,0.12,-3.72,-2.87,391,247,190,455,364
1391,0.83,-0.44,-0.35,0.43,-3.72,0.18,396,251,191,452,365
1392,0.83,-0.44,-0.34,-1.16,-2.32,-0.49,396,249,190,456,360
1393,0.82,-0.45,-0.34,-0.79,-2.08,-1.34,397,250,189,448,366
1394,0.82,-0.45,-0.34,-0.92,-2.93,-1.04,404,250,190,455,362
1395,0.83,-0.45,-0.33,-0.18,-2.81,-1.22,399,253,192,449,366
1396,0.83,-0.45,-0.34,-1.1,-3.11,-3.36,400,253,191,453,364
1397,0.82,-0.45,-0.34,0.12,-3.54,-3.54,396,250,193,456,364
1398,0.82,-0.45,-0.35,1.22,-3.54,-3.17,397,253,193,451,366
1399,0.83,-0.44,-0.33,-0.24,-2.01,-1.1,398,251,194,448,365
1400,0.81,-0.46,-0.34,2.2,-2.38,-1.4,398,252,190,456,368
1401,0.83,-0.45,-0.33,0.92,-2.2,-2.69,397,250,189,456,365
1402,0.83,-0.45,-0.34,0.55,-2.75,-2.2,399,252,194,453,365
1403,0.78,-0.48,-0.34,1.04,-3.66,-6.1,399,255,193,452,364
1404,0.78,-0.48,-0.33,1.95,-2.87,-2.81,399,253,194,454,365
1405,0.81,-0.46,-0.36,1.89,-2.2,-1.46,401,252,195,452,364
1406,0.82,-0.46,-0.33,0.73,-1.95,-2.32,397,251,192,452,366
1407,0.81,-0.46,-0.35,-1.1,-4.46,-1.34,397,248,193,453,361
1408,0.81,-0.46,-0.36,0.24,-4.09,-4.03,398,258,194,453,365
1409,0.82,-0.45,-0.36,-0.18,-2.62,-2.75,400,252,193,450,365
1410,0.82,-0.46,-0.34,0.12,-2.56,-1.34,397,252,196,453,367
1411,0.83,-0.45,-0.33,1.22,-2.44,-2.38,396,251,192,451,365
1412,0.83,-0.45,-0.35,-1.83,-2.87,-3.3,396,255,192,457,365
1413,0.81,-0.47,-0.33,0.18,-2.75,-2.14,405,254,194,457,365
1414,0.81,-0.47,-0.33,0.85,-3.3,-2.87,408,252,192,453,365
1415,0.8,-0.48,-0.34,2.01,-2.87,-3.97,403,251,191,453,365
1416,0.83,-0.45,-0.33,3.3,-1.59,-2.62,398,251,190,452,364
1417,0.82,-0.45,-0.31,3.85,-2.2,-3.17,396,251,194,452,366
1418,0.84,-0.44,-0.32,-0.24,-2.2,-2.01,398,252,192,453,363
1419,0.82,-0.46,-0.32,-0.12,-3.23,-2.5,399,252,192,456,366
1420,0.83,-0.46,-0.33,0.0,-3.78,-3.91,397,254,194,452,365
1421,0.83,-0.45,-0.34,1.04,-3.05,-3.17,397,252,189,457,365
1422,0.82,-0.46,-0.33,0.61,-2.32,-2.08,397,253,193,453,364
1423,0.81,-0.47,-0.33,1.22,-3.17,-2.38,395,254,193,456,364
1424,0.82,-0.46,-0.33,-0.18,-2.14,-3.11,398,254,191,454,365
1425,0.83,-0.47,-0.32,1.46,-2.99,-1.59,400,250,194,456,367
1426,0.83,-0.49,-0.32,-0.49,-2.75,-3.72,396,253,192,453,366
1427,0.81,-0.47,-0.32,0.37,-3.48,-2.38,397,253,195,449,366
1428,0.83,-0.46,-0.32,-0.67,-3.42,-2.99,399,250,192,456,363
1429,0.82,-0.46,-0.33,1.77,-2.14,-1.83,396,255,192,457,368
1430,0.83,-0.46,-0.32,-0.12,-2.26,-3.85,399,254,195,453,371
1431,0.81,-0.48,-0.33,1.59,-3.11,-2.69,397,252,194,453,366
1432,0.81,-0.48,-0.31,0.79,-3.42,-3.48,398,250,195,453,361
1433,0.82,-0.48,-0.32,-0.31,-3.85,-3.54,397,254,194,454,362
1434,0.8,-0.48,-0.32,1.71,-3.05,-1.95,399,251,196,454,366
1435,0.84,-0.45,-0.35,-0.85,-2.81,-0.98,395,251,195,454,365
1436,0.81,-0.48,-0.32,-3.17,-1.83,-0.92,394,253,195,451,366
1437,0.81,-0.47,-0.31,1.83,-2.44,-1.1,396,253,198,457,356
1438,0.82,-0.47,-0.32,-0.37,-2.5,-1.89,400,254,189,457,365
1439,0.83,-0.46,-0.32,0.18,-2.56,-2.32,397,251,194,456,364
1440,0.82,-0.47,-0.31,1.16,-2.81,-2.5,399,249,191,455,365
1441,0.82,-0.47,-0.32,-0.12,-3.78,-4.33,397,254,194,447,364
1442,0.83,-0.46,-0.31,0.73,-2.75,-1.22,397,252,194,449,363
1443,0.82,-0.46,-0.33,1.1,-2.44,-1.53,397,253,189,453,365
1444,0.82,-0.47,-0.32,1.28,-1.65,-0.43,398,250,196,455,364
1445,0.82,-0.47,-0.32,0.55,-3.05,-2.14,396,252,193,453,366
1446,0.82,-0.47,-0.32,-0.43,-4.09,-3.23,398,251,195,456,367
1447,0.83,-0.46,-0.33,1.34,-2.75,-2.87,395,254,196,454,362
1448,0.81,-0.47,-0.32,-0.31,-2.2,-1.1,397,254,194,453,364
1449,0.8,-0.47,-0.32,0.67,-2.32,-2.08,397,252,191,447,363
1450,0.83,-0.47,-0.32,1.28,-2.69,-2.08,398,253,192,452,365
1451,0.83,-0.47,-0.32,0.73,-2.62,-1.89,396,253,195,454,365
1452,0.81,-0.48,-0.32,0.12,-2.5,-0.98,398,250,192,452,365
1453,0.82,-0.48,-0.32,0.06,-2.5,-2.26,394,252,193,455,363
1454,0.82,-0.48,-0.31,-0.06,-3.48,-2.69,397,254,195,456,364
1455,0.83,-0.48,-0.32,-1.22,-3.72,-4.39,396,250,196,456,363
1456,0.78,-0.5,-0.31,-1.4,-3.05,0.31,398,251,206,455,364
1457,0.81,-0.48,-0.34,-0.43,-2.08,-1.71,399,251,193,449,369
1458,0.82,-0.47,-0.32,1.53,-2.38,-1.1,397,252,195,455,362
1459,0.81,-0.48,-0.32,1.04,-3.23,-1.71,396,254,192,448,365
1460,0.81,-0.48,-0.33,-1.34,-3.66,-2.87,393,253,196,456,364
1461,0.83,-0.45,-0.33,1.59,-1.83,0.18,399,254,194,456,366
1462,0.82,-0.47,-0.34,-2.14,-2.75,-1.65,396,254,194,451,365
1463,0.82,-0.46,-0.34,2.32,-2.44,-1.46,400,253,193,448,363
1464,0.81,-0.48,-0.31,0.12,-3.17,-3.36,397,253,196,453,365
1465,0.81,-0.48,-0.32,-0.24,-2.81,-2.01,398,255,193,447,365
1466,0.82,-0.48,-0.31,0.67,-2.26,-2.38,397,252,192,452,365
1467,0.85,-0.45,-0.32,0.43,-2.44,-1.22,399,252,193,453,363
1468,0.8,-0.49,-0.33,2.93,-2.01,-0.79,398,255,193,452,362
1469,0.76,-0.53,-0.27,-0.12,2.38,-2.56,398,252,195,451,366
1470,0.8,-0.51,-0.29,0.37,-3.42,-2.56,399,254,197,452,353
1471,0.81,-0.49,-0.31,0.18,-3.42,-3.11,397,254,195,454,365
1472,0.81,-0.49,-0.3,1.77,-2.2,-1.71,394,251,195,453,365
1473,0.82,-0.49,-0.31,-0.31,-1.65,-1.22,398,254,196,451,364
1474,0.81,-0.5,-0.3,-0.98,-2.2,-1.46,394,254,194,452,362
1475,0.81,-0.49,-0.3,0.92,-1.77,-1.83,400,252,196,453,365
1476,0.81,-0.5,-0.3,-0.12,-1.89,-1.4,399,256,196,453,363
1477,0.81,-0.5,-0.29,0.12,-2.93,-2.44,395,255,193,447,363
1478,0.81,-0.5,-0.29,0.18,-2.62,-1.22,393,255,193,453,372
1479,0.82,-0.49,-0.3,1.1,-3.17,-3.11,396,256,196,455,367
1480,0.82,-0.49,-0.31,-0.92,-4.46,-3.23,396,254,192,451,363
1481,0.82,-0.49,-0.31,0.43,-2.87,-2.26,397,254,190,452,369
1482,0.83,-0.49,-0.28,2.99,-2.26,-2.01,389,256,197,452,366
1483,0.74,-0.56,-0.27,3.78,-4.82,-1.89,397,261,194,453,370
1484,0.8,-0.5,-0.3,-0.18,-1.4,-2.93,394,251,191,449,365
1485,0.82,-0.49,-0.29,0.61,-2.32,-2.5,394,254,200,452,367
1486,0.85,-0.45,-0.33,-0.61,-5.74,-10.8,400,253,197,449,366
1487,0.84,-0.45,-0.31,0.18,-3.23,-2.32,395,256,195,451,368
1488,0.83,-0.47,-0.3,0.61,-2.2,-0.79,395,256,195,452,365
1489,0.82,-0.48,-0.3,-0.06,-3.17,-1.22,394,254,197,452,366
1490,0.82,-0.48,-0.31,1.65,-3.05,-3.23,396,256,192,454,367
1491,0.83,-0.47,-0.3,0.73,-2.93,-4.46,394,255,197,456,368
1492,0.85,-0.45,-0.27,0.49,-1.71,3.23,396,256,192,453,365
1493,0.85,-0.45,-0.31,-1.83,-5.92,-0.06,422,256,194,449,365
1494,0.81,-0.49,-0.3,3.05,-3.36,-2.93,397,254,199,459,369
1495,0.82,-0.48,-0.3,-0.92,-2.26,-1.1,397,254,195,448,367
1496,0.82,-0.48,-0.3,1.65,-4.58,-4.21,398,257,195,453,367
1497,0.83,-0.46,-0.29,-1.04,-4.52,-3.54,396,254,197,453,366
1498,0.82,-0.48,-0.29,0.61,-2.87,-1.71,395,257,194,447,366
1499,0.84,-0.46,-0.28,0.24,-2.75,-1.95,392,256,197,456,367
1500,0.83,-0.48,-0.3,-1.22,-2.2,0.0,394,253,198,447,368
1501,0.82,-0.47,-0.3,0.18,-2.56,-2.01,397,254,197,457,369
1502,0.81,-0.49,-0.27,9.95,-3.23,3.36,394,257,194,453,366
1503,0.82,-0.51,-0.28,-0.49,-1.77,-1.95,395,254,192,455,369
1504,0.83,-0.49,-0.27,1.46,-3.05,-0.61,398,253,192,453,368
1505,0.83,-0.49,-0.28,-1.22,-2.32,-2.01,393,256,197,455,366
1506,0.81,-0.5,-0.28,-0.61,-3.23,-2.87,394,256,197,456,368
1507,0.82,-0.49,-0.28,1.22,-1.59,-2.62,391,252,196,452,365
1508,0.82,-0.5,-0.27,-0.49,-2.93,-3.3,396,256,196,456,369
1509,0.82,-0.49,-0.28,-0.31,-2.81,-2.62,396,256,194,453,368
1510,0.82,-0.49,-0.27,1.04,-3.11,-4.46,396,254,198,455,367
1511,0.81,-0.5,-0.28,-1.4,-3.54,-2.38,396,255,195,455,367
1512,0.82,-0.48,-0.29,0.0,-3.3,-3.97,396,253,196,452,365
1513,0.83,-0.48,-0.28,0.92,-2.81,-2.87,397,253,197,455,368
1514,0.82,-0.48,-0.29,0.24,-1.53,-1.71,396,258,191,455,368
1515,0.82,-0.48,-0.27,1.77,-3.05,-2.08,394,252,198,464,369
1516,0.84,-0.47,-0.3,0.24,-3.3,-3.3,395,256,197,457,368
1517,0.8,-0.49,-0.27,0.79,-1.46,0.61,397,253,194,453,369
1518,0.83,-0.48,-0.28,-0.12,-2.2,-0.43,395,257,197,456,368
1519,0.83,-0.48,-0.29,1.16,-2.26,-2.26,400,254,197,453,371
1520,0.83,-0.48,-0.28,-0.98,-2.5,-2.08,392,254,196,448,366
1521,0.83,-0.48,-0.27,1.04,-2.5,-2.2,392,258,196,452,370
1522,0.83,-0.49,-0.28,0.79,-2.69,-2.44,392,257,199,453,370
1523,0.82,-0.49,-0.28,0.06,-2.99,-2.2,408,257,197,457,368
1524,0.82,-0.48,-0.28,0.98,-3.17,-2.62,392,255,199,456,369
1525,0.82,-0.49,-0.29,-0.18,-2.75,-2.75,393,256,199,452,371
1526,0.83,-0.48,-0.27,-0.24,-3.78,-3.66,393,255,196,453,372
1527,0.84,-0.46,-0.29,1.28,-2.62,-2.75,393,254,196,453,367
1528,0.83,-0.48,-0.29,-0.43,-2.26,-2.44,395,256,195,452,372
1529,0.83,-0.49,-0.27,0.37,-2.32,-1.95,395,257,195,456,374
1530,0.82,-0.49,-0.27,-1.22,-2.99,-1.83,395,258,195,451,370
1531,0.82,-0.5,-0.27,1.53,-2.99,-2.01,392,256,196,452,373
1532,0.82,-0.49,-0.28,0.06,-4.39,-4.03,395,254,204,451,368
1533,0.83,-0.48,-0.28,-0.79,-2.08,-1.53,392,258,192,451,371
1534,0.81,-0.48,-0.28,1.71,-2.99,-1.4,394,256,196,454,371
1535,0.81,-0.5,-0.28,1.89,-2.56,-2.01,391,258,201,454,367
1536,0.83,-0.49,-0.28,0.43,-2.62,-3.91,393,255,199,452,373
1537,0.82,-0.48,-0.28,-0.37,-2.81,-2.93,428,257,202,456,371
1538,0.82,-0.49,-0.28,0.85,-2.56,-1.65,397,255,197,452,370
1539,0.83,-0.48,-0.27,0.85,-2.99,-2.14,396,258,197,455,369
1540,0.83,-0.48,-0.28,0.18,-3.23,-2.5,395,259,207,453,371
1541,0.83,-0.49,-0.27,-0.49,-3.23,-2.44,392,259,194,453,367
1542,0.83,-0.48,-0.28,0.12,-3.05,-3.78,393,258,195,448,370
1543,0.83,-0.47,-0.29,0.67,-2.38,-2.32,393,256,198,449,370
1544,0.83,-0.48,-0.28,1.95,-2.5,-5.31,395,254,195,447,370
1545,0.78,-0.51,-0.31,-4.27,-4.46,0.37,393,258,194,452,367
1546,0.79,-0.51,-0.28,-2.2,-2.62,-15.08,391,255,199,456,371
1547,0.82,-0.5,-0.3,0.12,-3.91,-0.67,393,256,202,456,371
1548,0.81,-0.49,-0.3,-0.61,-3.36,-3.11,393,258,195,452,370
1549,0.84,-0.48,-0.31,0.55,-2.14,-2.38,392,259,199,452,371
1550,0.84,-0.47,-0.32,-1.04,-3.11,-2.2,393,259,200,453,368
1551,0.8,-0.4,-0.39,-18.68,17.09,-2.99,414,229,170,448,360
1552,0.83,-0.4,-0.39,-6.04,-2.5,1.1,415,226,169,450,359
1553,0.8,-0.43,-0.38,-0.37,-3.85,-2.2,419,227,169,446,359
1554,0.82,-0.4,-0.42,-5.8,-0.24,0.24,416,226,171,445,358
1555,0.8,-0.42,-0.41,-3.11,-1.1,-1.89,416,236,167,451,359
1556,0.82,-0.4,-0.43,-2.01,-3.78,0.18,417,228,169,453,359
1557,0.82,-0.41,-0.39,-2.38,2.62,-0.79,415,232,170,448,355
1558,0.83,-0.4,-0.4,0.18,-2.87,-1.53,415,231,173,447,359
1559,0.81,-0.41,-0.39,-0.73,-1.71,-2.08,415,231,173,452,359
1560,0.81,-0.4,-0.39,-0.24,-5.0,-4.09,419,239,166,448,361
1561,0.81,-0.38,-0.41,0.43,-2.14,-2.32,414,229,173,446,359
1562,0.82,-0.39,-0.42,-0.18,-3.17,-0.12,416,229,174,449,359
1563,0.83,-0.4,-0.41,-1.53,-2.93,-4.64,417,230,173,452,359
1564,0.82,-0.42,-0.39,0.85,-2.14,-1.89,416,229,174,453,356
1565,0.81,-0.43,-0.39,0.24,-2.26,-2.01,412,233,169,450,360
1566,0.81,-0.44,-0.36,-6.29,5.0,2.62,417,233,175,450,361
1567,0.84,-0.41,-0.38,-5.8,3.85,1.46,414,232,175,450,359
1568,0.86,-0.37,-0.34,-1.59,-2.62,-6.59,413,236,171,445,361
1569,0.87,-0.36,-0.34,-1.34,-1.83,1.59,412,231,175,450,359
1570,0.85,-0.38,-0.34,-0.73,-3.05,-2.44,411,237,175,449,359
1571,0.86,-0.37,-0.36,1.16,-2.87,-3.48,419,232,175,453,357
1572,0.84,-0.39,-0.35,2.38,-2.62,-1.04,411,235,177,453,359
1573,0.84,-0.39,-0.38,1.65,-1.83,-3.6,412,235,176,450,360
1574,0.85,-0.39,-0.36,2.01,-3.11,-1.59,418,234,174,444,359
1575,0.84,-0.4,-0.42,20.08,-33.45,-8.3,414,234,175,449,358
1576,0.83,-0.4,-0.42,0.67,-4.15,-5.43,410,236,170,444,349
1577,0.8,-0.39,-0.39,-1.59,-0.73,-2.75,412,235,176,450,358
1578,0.83,-0.4,-0.41,1.83,-2.5,-1.04,414,236,173,447,357
1579,0.81,-0.41,-0.41,0.31,-1.53,-2.81,412,234,175,445,359
1580,0.82,-0.41,-0.4,1.28,-2.32,-1.1,412,234,174,452,359
1581,0.82,-0.42,-0.39,0.98,-2.38,-1.83,414,234,173,453,360
1582,0.81,-0.42,-0.39,0.06,-2.87,-1.59,410,240,169,450,362
1583,0.82,-0.42,-0.4,-1.77,-1.22,-1.83,413,237,176,452,361
1584,0.82,-0.41,-0.39,-1.1,-2.93,-3.48,409,237,171,448,360
1585,0.83,-0.39,-0.4,0.0,-2.44,-1.83,413,234,176,452,360
1586,0.83,-0.4,-0.39,-0.55,-2.5,-1.83,411,237,173,450,361
1587,0.82,-0.42,-0.39,1.16,-2.62,-1.65,407,236,177,445,359
1588,0.81,-0.43,-0.39,2.5,-1.89,-1.1,410,236,175,451,360
1589,0.8,-0.44,-0.37,-0.37,-3.23,-2.5,407,234,177,446,362
1590,0.81,-0.42,-0.38,-0.37,-3.36,-3.3,411,232,174,453,361
1591,0.81,-0.43,-0.39,0.31,-3.66,-4.03,410,237,177,452,357
1592,0.82,-0.4,-0.4,0.43,-2.81,-3.17,408,234,177,452,360
1593,0.81,-0.39,-0.39,2.14,-1.46,-1.4,410,235,175,452,358
1594,0.82,-0.41,-0.39,-0.12,-1.89,-1.65,409,238,177,449,362
1595,0.8,-0.44,-0.37,1.4,-3.78,-2.08,409,238,175,449,360
1596,0.83,-0.39,-0.4,1.1,-3.36,-3.42,409,239,177,448,358
1597,0.83,-0.4,-0.4,1.1,-2.38,-3.54,409,238,174,450,360
1598,0.83,-0.4,-0.39,-1.4,-2.99,-3.72,406,235,178,451,361
1599,0.83,-0.39,-0.39,-0.79,-1.4,-4.09,411,235,179,449,360
1600,0.85,-0.36,-0.42,-0.12,-0.79,-6.47,407,236,173,450,358
1601,0.83,-0.4,-0.38,-0.67,-3.91,-1.95,412,237,179,456,361
1602,0.83,-0.39,-0.38,0.61,-1.89,-3.05,411,236,178,449,361
1603,0.82,-0.41,-0.38,1.53,-2.01,-2.01,404,239,177,450,360
1604,0.83,-0.41,-0.38,0.18,-2.87,-2.38,408,235,175,449,363
1605,0.81,-0.41,-0.36,0.85,-3.72,-2.75,410,239,177,460,361
1606,0.84,-0.39,-0.38,0.49,-3.72,-4.15,409,237,180,449,360
1607,0.84,-0.38,-0.38,0.12,-3.66,-3.72,414,243,176,451,361
1608,0.84,-0.38,-0.38,0.85,-2.14,-1.89,408,239,180,452,352
1609,0.84,-0.39,-0.38,0.43,-2.26,-2.56,409,237,181,454,359
1610,0.84,-0.39,-0.38,0.55,-2.81,-2.87,407,253,179,447,359
1611,0.82,-0.4,-0.36,0.79,-3.72,-2.75,407,238,177,451,361
1612,0.84,-0.39,-0.37,-1.1,-3.42,-4.33,407,237,175,446,360
1613,0.84,-0.38,-0.38,-1.16,-2.99,-3.72,407,239,180,449,361
1614,0.83,-0.39,-0.38,1.65,-2.93,-1.34,413,237,179,454,361
1615,0.84,-0.39,-0.37,-0.24,-1.16,-1.4,406,241,179,452,363
1616,0.84,-0.39,-0.38,0.73,-2.5,-1.04,405,238,174,449,362
1617,0.85,-0.38,-0.37,0.61,-2.62,-3.05,407,240,180,455,362
1618,0.84,-0.39,-0.37,0.12,-2.75,-2.99,408,237,181,452,361
1619,0.84,-0.37,-0.37,-1.53,-3.66,-3.23,407,236,177,454,361
1620,0.84,-0.38,-0.38,0.55,-3.36,-3.3,406,236,178,450,370
1621,0.83,-0.38,-0.39,1.1,-2.38,-1.22,400,238,177,450,360
1622,0.83,-0.39,-0.38,-0.67,-2.62,-2.2,408,240,181,462,360
1623,0.84,-0.39,-0.38,-0.24,-2.44,-2.08,410,235,178,446,361
1624,0.84,-0.39,-0.38,-0.37,-2.93,-1.46,406,241,178,451,361
1625,0.84,-0.39,-0.37,-0.24,-2.75,-2.14,405,241,179,451,362
1626,0.84,-0.39,-0.38,0.0,-3.11,-2.08,406,240,179,451,363
1627,0.84,-0.38,-0.37,1.1,-2.87,-2.26,408,236,179,451,362
1628,0.83,-0.38,-0.37,2.08,-2.44,-1.53,405,238,177,455,361
1629,0.84,-0.39,-0.37,2.01,-4.33,-1.77,445,242,182,451,360
1630,0.84,-0.39,-0.38,-0.79,-3.17,-1.59,402,241,179,451,361
1631,0.85,-0.38,-0.38,-0.18,-3.6,-2.99,406,241,183,446,361
1632,0.84,-0.37,-0.39,0.61,-2.93,-1.59,406,241,178,444,361
1633,0.83,-0.39,-0.38,-0.06,-2.08,-1.89,406,236,178,450,360
1634,0.83,-0.4,-0.37,-1.22,-1.83,-2.93,406,240,181,448,361
1635,0.83,-0.4,-0.37,0.55,-2.56,-1.95,406,238,176,452,363
1636,0.83,-0.42,-0.38,1.04,-3.23,-2.69,407,236,180,453,363
1637,0.83,-0.41,-0.37,0.18,-3.11,-3.91,406,239,179,451,364
1638,0.83,-0.4,-0.37,0.73,-3.42,-3.05,400,239,179,448,359
1639,0.83,-0.39,-0.38,-0.67,-3.36,-2.69,405,239,185,451,363
1640,0.83,-0.39,-0.38,1.04,-2.44,-1.59,406,237,180,455,361
1641,0.83,-0.39,-0.38,1.1,-2.26,-2.32,407,238,180,451,364
1642,0.83,-0.4,-0.38,0.73,-2.62,-1.59,407,239,181,452,363
1643,0.82,-0.41,-0.38,1.04,-2.38,-2.14,407,240,180,455,362
1644,0.83,-0.41,-0.37,0.79,-2.81,-2.32,405,241,179,450,364
1645,0.83,-0.41,-0.38,0.06,-3.85,-3.42,403,236,180,453,359
1646,0.83,-0.4,-0.38,0.31,-4.27,-5.0,402,242,182,451,359
1647,0.84,-0.39,-0.38,0.79,-2.87,-2.99,408,238,180,452,364
1648,0.83,-0.39,-0.37,0.61,-1.22,-1.34,405,240,180,455,361
1649,0.83,-0.39,-0.38,1.1,-2.62,-2.08,404,239,179,450,352
1650,0.83,-0.41,-0.37,0.37,-2.44,-1.1,406,240,178,451,362
1651,0.83,-0.41,-0.37,0.06,-2.56,-2.08,405,240,182,452,364
1652,0.84,-0.4,-0.37,0.0,-2.5,-1.46,410,238,182,455,361
1653,0.83,-0.4,-0.37,0.12,-2.93,-2.69,403,239,178,455,363
1654,0.83,-0.4,-0.37,-0.73,-2.69,-3.48,406,240,181,449,362
1655,0.84,-0.38,-0.37,0.67,-3.48,-3.6,406,239,181,452,363
1656,0.85,-0.38,-0.38,0.55,-2.62,-2.62,410,242,181,455,362
1657,0.84,-0.39,-0.38,1.83,-2.93,-2.08,407,238,182,452,363
1658,0.83,-0.39,-0.39,0.24,-2.38,-1.1,406,240,182,449,362
1659,0.83,-0.41,-0.38,-0.37,-2.32,-0.79,406,242,180,451,363
1660,0.82,-0.41,-0.37,0.37,-2.38,-0.55,408,239,180,454,362
1661,0.84,-0.41,-0.38,0.0,-3.17,-2.32,405,240,182,447,361
1662,0.84,-0.4,-0.38,-0.37,-3.97,-2.69,407,240,180,456,364
1663,0.84,-0.4,-0.37,0.55,-3.42,-3.66,405,243,182,450,362
1664,0.84,-0.38,-0.38,0.49,-3.3,-3.42,406,242,185,451,365
1665,0.83,-0.39,-0.38,1.89,-2.14,-1.34,405,240,180,446,362
1666,0.83,-0.4,-0.38,0.43,-2.14,-1.59,409,239,185,447,366
1667,0.82,-0.41,-0.37,0.79,-2.81,-2.14,406,243,184,449,358
1668,0.84,-0.41,-0.37,0.18,-3.05,-1.71,406,243,185,451,363
1669,0.83,-0.41,-0.37,0.18,-3.72,-3.48,402,243,182,450,364
1670,0.84,-0.4,-0.37,0.31,-4.09,-4.39,408,238,182,451,361
1671,0.84,-0.39,-0.39,1.16,-3.42,-4.58,405,238,184,446,364
1672,0.84,-0.39,-0.38,1.16,-2.38,-2.08,442,242,181,450,366
1673,0.83,-0.4,-0.37,1.46,-2.87,-2.81,406,241,179,452,362
1674,0.83,-0.4,-0.38,0.24,-2.5,-1.95,414,244,180,451,361
1675,0.83,-0.41,-0.38,-0.06,-2.32,-2.01,409,241,181,457,364
1676,0.83,-0.41,-0.37,0.61,-2.93,-2.32,405,239,180,446,360
1677,0.84,-0.4,-0.38,-0.31,-3.23,-3.66,406,243,183,455,364
1678,0.84,-0.4,-0.37,-0.79,-3.85,-3.66,407,241,185,451,364
1679,0.84,-0.39,-0.38,0.12,-3.54,-3.72,405,244,181,455,363
1680,0.84,-0.39,-0.38,1.77,-2.14,-1.22,406,241,185,447,365
1681,0.83,-0.4,-0.37,1.04,-2.75,-2.08,406,241,184,450,363
1682,0.82,-0.4,-0.38,1.28,-2.32,-1.46,403,242,184,451,363
1683,0.82,-0.42,-0.37,-0.24,-2.99,-3.23,405,244,184,455,364
1684,0.82,-0.41,-0.38,-0.43,-3.97,-3.36,407,242,183,448,363
1685,0.83,-0.39,-0.39,0.12,-3.23,-3.66,404,243,182,451,363
1686,0.84,-0.39,-0.39,0.61,-2.26,-0.31,406,245,182,450,366
1687,0.83,-0.4,-0.38,-0.37,-2.38,-1.04,406,245,185,450,363
1688,0.83,-0.41,-0.38,1.34,-3.11,-2.01,405,239,196,451,360
1689,0.83,-0.41,-0.37,0.12,-2.56,-2.38,407,242,183,452,363
1690,0.82,-0.41,-0.37,-0.18,-2.38,-2.69,407,245,183,455,359
1691,0.82,-0.41,-0.37,0.79,-3.48,-3.17,406,244,184,447,366
1692,0.82,-0.41,-0.38,0.31,-3.17,-3.23,407,243,185,451,361
1693,0.83,-0.4,-0.38,-0.49,-2.99,-3.78,405,243,179,453,362
1694,0.84,-0.39,-0.38,0.49,-2.69,-2.08,409,240,185,455,369
1695,0.84,-0.39,-0.38,0.55,-2.62,-1.34,405,242,183,446,361
1696,0.83,-0.4,-0.38,1.89,-2.5,-2.14,406,243,182,451,362
1697,0.83,-0.41,-0.37,0.18,-2.93,-2.5,405,246,184,452,359
1698,0.82,-0.41,-0.37,0.43,-2.75,-1.34,406,245,190,450,363
1699,0.82,-0.41,-0.37,0.12,-2.69,-2.14,407,241,183,449,362
1700,0.82,-0.41,-0.38,0.49,-3.36,-3.97,406,244,185,456,365
1701,0.83,-0.4,-0.37,-0.55,-3.23,-2.62,405,246,187,450,364
1702,0.84,-0.39,-0.39,0.79,-2.87,-2.26,404,243,181,451,364
1703,0.84,-0.39,-0.37,-0.67,-2.56,-1.65,406,245,184,455,363
1704,0.83,-0.4,-0.37,0.67,-2.87,-1.71,404,243,188,446,361
1705,0.83,-0.41,-0.37,0.55,-2.93,-2.5,408,240,187,456,360
1706,0.84,-0.4,-0.37,0.43,-2.81,-2.56,402,246,185,451,363
1707,0.83,-0.41,-0.37,1.46,-3.6,-3.48,405,244,197,449,359
1708,0.83,-0.41,-0.38,-0.49,-3.42,-4.15,403,246,185,451,363
1709,0.82,-0.4,-0.38,-0.18,-2.99,-2.32,405,246,183,446,362
1710,0.83,-0.4,-0.39,0.49,-2.56,-0.79,407,246,189,455,364
1711,0.83,-0.4,-0.37,1.46,-2.26,-2.81,406,243,188,452,362
1712,0.83,-0.4,-0.37,0.85,-2.93,-2.5,400,243,186,450,363
1713,0.84,-0.41,-0.37,-0.37,-2.56,-3.48,426,245,184,452,373
1714,0.84,-0.41,-0.37,0.98,-3.11,-2.93,407,241,186,456,362
1715,0.83,-0.4,-0.37,0.12,-3.48,-4.21,405,244,190,453,365
1716,0.83,-0.39,-0.37,0.43,-3.6,-3.72,407,247,181,455,363
1717,0.84,-0.39,-0.38,-0.12,-3.72,-3.91,406,244,188,453,361
1718,0.83,-0.39,-0.37,0.79,-2.32,-1.59,408,242,187,452,363
1719,0.83,-0.4,-0.37,0.67,-2.38,-1.83,405,244,186,452,363
1720,0.83,-0.41,-0.37,0.85,-2.44,-2.01,406,246,186,452,363
1721,0.83,-0.41,-0.38,0.24,-2.75,-1.89,411,245,187,451,375
1722,0.82,-0.42,-0.37,0.24,-2.81,-2.62,405,252,186,454,363
1723,0.83,-0.4,-0.39,-0.98,-4.03,-4.03,406,244,185,450,363
1724,0.83,-0.4,-0.37,1.53,-4.46,-4.76,408,246,187,456,361
1725,0.83,-0.4,-0.37,0.79,-2.93,1.46,406,244,184,453,363
1726,0.84,-0.39,-0.39,2.62,-1.89,-1.71,405,244,185,446,365
1727,0.84,-0.39,-0.38,0.49,-3.17,-2.08,405,244,187,456,362
1728,0.82,-0.41,-0.37,1.46,-3.78,-2.44,406,246,186,453,365
1729,0.82,-0.4,-0.38,0.0,-3.72,-4.03,405,246,187,448,366
1730,0.81,-0.43,-0.4,0.18,-2.75,0.0,408,243,187,446,364
1731,0.82,-0.42,-0.38,0.61,-2.44,-2.14,407,244,187,457,363
1732,0.83,-0.42,-0.37,0.24,-2.5,-1.46,400,241,182,448,360
1733,0.83,-0.4,-0.38,0.31,-2.56,-2.44,403,244,188,453,367
1734,0.83,-0.41,-0.37,-0.24,-2.56,-2.56,407,246,186,450,363
1735,0.83,-0.41,-0.37,0.06,-2.38,-1.59,405,242,187,448,361
1736,0.82,-0.42,-0.38,0.67,-3.11,-3.05,404,245,186,453,361
1737,0.82,-0.41,-0.38,-0.24,-3.17,-3.6,404,247,188,463,366
1738,0.82,-0.4,-0.38,-0.85,-2.5,-3.11,405,244,194,455,365
1739,0.83,-0.39,-0.39,0.79,-2.99,-1.95,407,244,188,451,362
1740,0.83,-0.41,-0.37,2.01,-2.56,0.31,412,247,191,451,375
1741,0.81,-0.42,-0.37,-2.99,-2.69,-2.93,405,243,185,449,364
1742,0.81,-0.42,-0.37,1.46,-3.85,-2.5,414,242,188,453,362
1743,0.83,-0.41,-0.37,1.59,-2.56,-3.66,393,245,187,456,362
1744,0.83,-0.41,-0.38,-0.06,-2.87,-2.01,403,246,187,457,364
1745,0.83,-0.41,-0.37,-0.18,-4.15,-2.99,407,252,188,452,364
1746,0.86,-0.37,-0.41,-3.48,-3.91,-3.42,412,248,188,452,363
1747,0.82,-0.4,-0.38,-1.22,-2.44,-0.49,405,244,188,454,366
1748,0.81,-0.43,-0.37,2.99,-3.42,-4.09,405,245,187,452,362
1749,0.82,-0.41,-0.38,2.38,-1.89,-0.37,402,247,189,449,364
1750,0.82,-0.42,-0.38,0.98,-2.44,-0.92,405,244,186,453,363
1751,0.81,-0.42,-0.38,-0.12,-2.69,-1.77,405,248,188,457,366
1752,0.82,-0.42,-0.38,-0.24,-2.75,-2.08,408,245,188,457,360
1753,0.82,-0.42,-0.37,0.92,-3.17,-2.44,405,244,187,457,363
1754,0.82,-0.42,-0.39,0.92,-3.3,-2.26,403,245,189,451,363
1755,0.81,-0.41,-0.37,1.22,-3.05,-2.26,405,244,185,453,361
1756,0.83,-0.41,-0.38,0.49,-3.3,-3.66,405,245,190,448,361
1757,0.83,-0.41,-0.38,0.18,-2.99,-2.62,410,247,192,454,363
1758,0.82,-0.41,-0.38,1.16,-2.81,-2.32,403,245,189,448,366
1759,0.82,-0.42,-0.38,0.92,-2.75,-2.87,407,245,183,452,359
1760,0.83,-0.42,-0.39,-0.06,-1.71,0.55,406,246,186,456,364
1761,0.82,-0.42,-0.37,-2.01,-1.71,-1.46,408,246,189,455,363
1762,0.83,-0.42,-0.37,1.1,-3.36,-2.81,408,245,185,452,364
1763,0.82,-0.42,-0.38,3.78,-3.3,-3.17,405,246,187,454,364
1764,0.85,-0.4,-0.35,-0.49,-1.77,-2.87,408,247,190,453,364
1765,0.84,-0.4,-0.37,0.98,-2.38,-1.53,407,246,189,448,361
1766,0.83,-0.41,-0.36,1.59,-2.75,-2.38,405,242,188,450,364
1767,0.83,-0.42,-0.38,0.06,-3.3,-4.33,405,245,184,451,363
1768,0.82,-0.41,-0.37,-0.92,-3.05,-3.97,407,245,184,453,360
1769,0.83,-0.4,-0.38,-0.06,-2.93,-2.32,421,245,186,453,361
1770,0.83,-0.4,-0.39,0.98,-2.56,-1.34,404,246,187,456,365
1771,0.82,-0.41,-0.39,2.38,-2.56,-1.34,407,246,186,456,362
1772,0.83,-0.41,-0.38,-0.31,-2.5,-1.28,406,245,189,450,362
1773,0.82,-0.41,-0.37,0.79,-3.23,-2.2,406,245,185,457,360
1774,0.83,-0.41,-0.37,0.0,-2.38,-1.89,405,245,185,454,364
1775,0.83,-0.41,-0.37,0.49,-2.99,-2.26,405,246,186,452,371
1776,0.82,-0.42,-0.37,0.12,-3.66,-3.36,404,246,187,452,363
1777,0.83,-0.4,-0.37,1.59,-3.91,-3.54,405,246,190,453,363
1778,0.84,-0.4,-0.37,-0.79,-1.71,0.49,405,256,189,457,365
1779,0.82,-0.42,-0.36,0.31,-2.14,-1.77,404,249,188,453,363
1780,0.84,-0.41,-0.37,-1.22,-3.36,-2.38,400,245,189,451,363
1781,0.84,-0.41,-0.37,0.79,-4.46,-5.25,401,250,190,445,360
1782,0.87,-0.37,-0.39,-1.1,-4.27,-4.94,401,248,188,456,363
1783,0.84,-0.39,-0.37,-4.82,-2.26,-7.87,398,245,185,450,366
1784,0.84,-0.39,-0.38,0.31,-4.03,-5.07,407,249,189,447,364
1785,0.85,-0.37,-0.38,0.49,-2.56,-4.52,401,249,188,456,363
1786,0.85,-0.37,-0.38,1.53,-3.85,-3.3,397,250,188,452,363
1787,0.84,-0.37,-0.37,2.26,-3.6,-3.05,397,247,189,452,362
1788,0.84,-0.39,-0.37,-0.85,-1.4,-1.53,396,248,193,451,363
1789,0.84,-0.39,-0.38,0.61,-2.2,-0.61,396,249,189,452,366
1790,0.84,-0.39,-0.38,0.61,-2.5,-2.32,397,249,189,448,363
1791,0.83,-0.4,-0.37,0.92,-2.56,-0.85,397,248,190,447,363
1792,0.85,-0.38,-0.36,0.18,-3.05,-3.78,398,249,189,451,363
1793,0.86,-0.36,-0.38,1.28,-2.75,-1.16,399,248,187,456,362
1794,0.83,-0.39,-0.36,0.18,-3.6,0.18,398,248,184,462,363
1795,0.81,-0.41,-0.38,1.46,-2.44,-0.55,397,246,187,457,366
1796,0.83,-0.4,-0.37,0.0,-2.32,-1.95,399,256,190,454,363
1797,0.83,-0.4,-0.37,0.12,-2.38,-1.95,393,243,188,457,364
1798,0.84,-0.39,-0.38,0.37,-4.03,-4.33,397,246,189,453,365
1799,0.83,-0.38,-0.38,0.73,-4.21,-1.83,396,247,190,453,365
1800,0.86,-0.37,-0.38,2.81,-1.89,0.12,395,252,187,449,367
1801,0.84,-0.4,-0.37,0.61,-2.87,-3.17,400,247,184,452,362
1802,0.84,-0.4,-0.37,-0.37,-2.5,-2.26,398,246,188,454,361
1803,0.84,-0.4,-0.37,0.73,-2.81,-3.05,398,248,187,450,367
1804,0.83,-0.4,-0.37,0.0,-4.03,-2.99,399,248,190,448,364
1805,0.86,-0.39,-0.38,-3.05,-1.77,-6.71,400,252,187,452,363
1806,0.84,-0.39,-0.37,1.71,-4.15,-2.38,397,251,196,453,363
1807,0.83,-0.41,-0.36,0.24,-2.38,-2.99,401,246,187,448,363
1808,0.83,-0.4,-0.37,-1.1,-3.97,-0.31,396,251,191,454,363
1809,0.83,-0.42,-0.37,1.95,-3.17,-2.81,400,248,192,457,365
1810,0.81,-0.44,-0.37,2.81,-4.21,0.98,399,249,192,451,362
1811,0.8,-0.46,-0.37,0.73,-2.93,-2.81,401,249,186,455,366
1812,0.8,-0.45,-0.38,0.0,-2.62,-2.44,399,246,191,455,364
1813,0.82,-0.45,-0.37,0.79,-2.62,-2.87,395,250,189,454,362
1814,0.8,-0.45,-0.37,0.49,-3.11,-1.28,399,250,191,452,367
1815,0.8,-0.46,-0.37,0.49,-2.99,-2.01,401,245,192,457,363
1816,0.8,-0.45,-0.37,-0.18,-3.36,-3.6,399,246,187,456,364
1817,0.8,-0.45,-0.37,-0.61,-3.6,-4.33,400,250,192,452,364
1818,0.81,-0.43,-0.38,1.1,-1.71,-1.53,398,251,192,455,364
1819,0.82,-0.45,-0.36,-0.61,-2.14,-2.56,399,248,186,453,369
1820,0.82,-0.44,-0.36,-0.31,-2.87,-2.5,395,258,188,452,363
1821,0.82,-0.44,-0.37,0.73,-3.3,-2.81,396,247,191,453,364
1822,0.8,-0.45,-0.37,2.01,-3.11,-1.65,397,246,192,449,366
1823,0.82,-0.44,-0.38,-0.55,-2.01,-3.48,397,247,195,454,365
1824,0.8,-0.45,-0.35,4.82,-2.99,-6.65,397,251,187,448,365
1825,0.8,-0.46,-0.36,-0.67,-2.99,-2.38,397,249,192,447,366
1826,0.84,-0.42,-0.35,-0.55,-2.14,0.18,397,248,188,451,363
1827,0.83,-0.41,-0.39,-6.16,-6.1,-4.82,400,248,191,452,365
1828,0.79,-0.42,-0.38,0.12,-3.97,-6.47,396,246,191,456,361
1829,0.85,-0.4,-0.36,2.69,0.85,-0.37,398,250,188,456,364
1830,0.81,-0.43,-0.39,0.0,-1.53,1.53,398,251,187,457,363
1831,0.83,-0.41,-0.34,2.32,0.98,-1.59,398,250,190,456,364
1832,0.82,-0.43,-0.35,4.33,-3.72,-2.14,398,246,190,456,364
1833,0.82,-0.44,-0.35,-1.28,-2.01,-1.77,397,252,190,456,366
1834,0.83,-0.44,-0.33,2.5,-2.44,-0.31,397,246,188,455,365
1835,0.81,-0.44,-0.37,2.08,-4.46,-5.13,398,253,192,456,364
1836,0.79,-0.47,-0.35,1.65,-0.55,0.73,399,252,189,455,364
1837,0.85,-0.42,-0.36,0.31,-6.29,-5.49,394,250,189,452,364
1838,0.81,-0.44,-0.37,-2.5,-5.43,-4.64,399,246,187,449,365
1839,0.82,-0.44,-0.35,3.17,-3.66,-2.93,400,249,189,452,365
1840,0.8,-0.46,-0.35,-1.1,-3.17,-1.22,397,245,191,456,362
1841,0.85,-0.42,-0.35,4.64,0.55,-1.28,397,250,192,453,365
1842,0.81,-0.44,-0.29,0.0,-3.3,-3.78,400,246,189,452,364
1843,0.82,-0.45,-0.37,0.24,-3.85,-3.11,399,251,192,456,360
1844,0.82,-0.45,-0.33,-0.98,-3.66,-2.81,396,250,187,452,364
1845,0.82,-0.44,-0.34,0.55,-2.38,-2.32,388,249,191,455,365
1846,0.82,-0.46,-0.34,0.24,-2.01,-1.83,397,249,187,453,365
1847,0.81,-0.46,-0.34,15.44,-2.5,-2.38,396,251,193,452,365
1848,0.81,-0.47,-0.34,0.92,-2.62,-2.44,395,248,190,456,361
1849,0.82,-0.47,-0.34,0.67,-2.87,-1.83,397,247,192,449,365
1850,0.8,-0.46,-0.33,0.55,-2.2,-2.14,395,252,189,451,365
1851,0.83,-0.45,-0.33,0.98,-3.85,-3.54,396,252,190,454,366
1852,0.82,-0.44,-0.34,-0.61,-2.69,-3.97,396,249,189,446,364
1853,0.82,-0.45,-0.33,2.01,-2.75,-0.61,398,249,193,447,364
1854,0.81,-0.46,-0.34,0.31,-3.36,-4.15,396,249,191,455,363
1855,0.81,-0.46,-0.34,1.34,-2.26,-1.59,397,247,190,451,363
1856,0.8,-0.47,-0.33,-0.55,-2.62,-2.5,398,252,194,450,366
1857,0.82,-0.47,-0.32,-0.79,-2.93,-1.65,398,249,190,454,361
1858,0.81,-0.47,-0.34,-0.06,-2.93,-2.75,398,253,189,453,364
1859,0.81,-0.46,-0.33,0.67,-3.6,-4.58,397,251,192,451,365
1860,0.82,-0.46,-0.34,-0.49,-3.6,-4.33,410,251,193,454,365
1861,0.82,-0.45,-0.34,-0.18,-2.81,-3.11,392,250,187,448,365
1862,0.82,-0.45,-0.34,0.31,-2.5,-1.46,396,249,184,453,366
1863,0.83,-0.46,-0.34,1.53,-2.56,-1.89,393,250,190,451,367
1864,0.82,-0.46,-0.34,0.06,-2.32,-3.36,394,248,190,447,366
1865,0.82,-0.46,-0.33,-0.43,-4.58,-5.0,398,265,193,456,364
1866,0.82,-0.44,-0.36,-0.37,-3.72,-5.55,397,251,192,446,365
1867,0.82,-0.44,-0.35,1.83,-3.6,-6.23,397,250,194,453,364
1868,0.82,-0.44,-0.34,-0.12,-3.97,-4.09,398,248,189,453,366
1869,0.82,-0.45,-0.35,0.18,-2.38,-1.59,399,249,193,451,365
1870,0.83,-0.44,-0.34,1.46,-2.99,-1.16,399,250,190,455,364
1871,0.82,-0.44,-0.37,1.1,-4.21,-4.88,397,250,193,450,365
1872,0.83,-0.43,-0.36,1.04,-2.62,-2.2,396,251,187,452,361
1873,0.81,-0.46,-0.34,0.37,-2.56,-1.89,396,249,192,452,366
1874,0.81,-0.45,-0.35,0.98,-2.32,-1.04,399,249,189,453,367
1875,0.82,-0.45,-0.35,-0.61,-2.81,-2.38,395,249,190,451,373
1876,0.83,-0.45,-0.35,-0.12,-2.93,-2.14,397,251,191,451,367
1877,0.82,-0.45,-0.35,0.73,-2.62,-2.75,397,251,196,455,365
1878,0.82,-0.45,-0.34,0.0,-2.69,-2.44,397,252,191,453,367
1879,0.81,-0.46,-0.33,0.85,-4.03,-2.44,400,248,194,456,372
1880,0.82,-0.44,-0.36,-0.61,-3.17,-4.03,397,252,190,452,364
1881,0.83,-0.44,-0.35,0.85,-2.44,-0.73,397,252,189,447,365
1882,0.83,-0.43,-0.35,0.0,-2.38,-1.16,398,255,193,457,364
1883,0.82,-0.45,-0.35,1.16,-2.26,-1.53,398,250,193,450,364
1884,0.82,-0.45,-0.34,0.18,-2.62,-2.26,397,263,190,451,365
1885,0.82,-0.45,-0.34,0.24,-2.75,-2.87,397,251,193,455,361
1886,0.82,-0.46,-0.33,1.22,-2.69,-4.46,399,251,193,455,363
1887,0.83,-0.44,-0.37,2.26,-4.15,-1.83,398,255,196,452,364
1888,0.81,-0.46,-0.35,0.73,-2.75,-2.69,403,252,193,456,365
1889,0.82,-0.46,-0.3,-1.46,-3.91,-2.87,397,252,193,450,366
1890,0.82,-0.45,-0.36,-1.04,-3.66,-2.69,397,250,190,454,365
1891,0.82,-0.44,-0.35,0.12,-2.44,-2.2,397,248,192,455,362
1892,0.82,-0.44,-0.35,-0.24,-2.5,-2.5,397,251,190,453,365
1893,0.82,-0.44,-0.35,0.43,-3.48,-3.3,394,249,190,446,365
1894,0.8,-0.46,-0.33,1.53,-1.83,0.85,394,253,193,456,367
1895,0.81,-0.46,-0.34,0.12,-2.81,-2.08,438,252,193,447,364
1896,0.82,-0.46,-0.34,0.85,-3.17,-4.27,396,249,187,455,365
1897,0.84,-0.44,-0.35,-0.24,-2.87,-4.15,396,252,191,448,363
1898,0.81,-0.46,-0.35,-0.24,-2.75,-3.17,392,252,193,448,364
1899,0.82,-0.46,-0.33,0.49,-2.69,-2.01,403,251,192,455,365
1900,0.83,-0.45,-0.35,-0.49,-3.23,-5.68,398,250,190,453,363
1901,0.84,-0.44,-0.34,-0.98,-3.05,-2.93,406,250,193,452,364
1902,0.84,-0.45,-0.34,0.43,-2.2,0.67,398,253,193,453,366
1903,0.82,-0.46,-0.33,-0.24,-2.26,-2.56,395,253,194,456,368
1904,0.82,-0.46,-0.33,2.75,-2.32,-2.44,402,248,189,455,365
1905,0.83,-0.46,-0.33,-0.79,-3.3,-3.97,397,251,190,453,364
1906,0.83,-0.45,-0.34,0.43,-2.87,-3.42,391,251,192,456,363
1907,0.84,-0.44,-0.32,0.12,-3.72,-2.87,391,247,190,455,364
1908,0.83,-0.44,-0.35,0.43,-3.72,0.18,396,251,191,452,365
1909,0.83,-0.44,-0.34,-1.16,-2.32,-0.49,396,249,190,456,360
1910,0.82,-0.45,-0.34,-0.79,-2.08,-1.34,397,250,189,448,366
1911,0.82,-0.45,-0.34,-0.92,-2.93,-1.04,404,250,190,455,362
1912,0.83,-0.45,-0.33,-0.18,-2.81,-1.22,399,253,192,449,366
1913,0.83,-0.45,-0.34,-1.1,-3.11,-3.36,400,253,191,453,364
1914,0.82,-0.45,-0.34,0.12,-3.54,-3.54,396,250,193,456,364
1915,0.82,-0.45,-0.35,1.22,-3.54,-3.17,397,253,193,451,366
1916,0.83,-0.44,-0.33,-0.24,-2.01,-1.1,398,251,194,448,365
1917,0.81,-0.46,-0.34,2.2,-2.38,-1.4,398,252,190,456,368
1918,0.83,-0.45,-0.33,0.92,-2.2,-2.69,397,250,189,456,365
1919,0.83,-0.45,-0.34,0.55,-2.75,-2.2,399,252,194,453,365
1920,0.78,-0.48,-0.34,1.04,-3.66,-6.1,399,255,193,452,364
1921,0.78,-0.48,-0.33,1.95,-2.87,-2.81,399,253,194,454,365
1922,0.81,-0.46,-0.36,1.89,-2.2,-1.46,401,252,195,452,364
1923,0.82,-0.46,-0.33,0.73,-1.95,-2.32,397,251,192,452,366
1924,0.81,-0.46,-0.35,-1.1,-4.46,-1.34,397,248,193,453,361
1925,0.81,-0.46,-0.36,0.24,-4.09,-4.03,398,258,194,453,365
1926,0.82,-0.45,-0.36,-0.18,-2.62,-2.75,400,252,193,450,365
1927,0.82,-0.46,-0.34,0.12,-2.56,-1.34,397,252,196,453,367
1928,0.83,-0.45,-0.33,1.22,-2.44,-2.38,396,251,192,451,365
1929,0.83,-0.45,-0.35,-1.83,-2.87,-3.3,396,255,192,457,365
1930,0.81,-0.47,-0.33,0.18,-2.75,-2.14,405,254,194,457,365
1931,0.81,-0.47,-0.33,0.85,-3.3,-2.87,408,252,192,453,365
1932,0.8,-0.48,-0.34,2.01,-2.87,-3.97,403,251,191,453,365
1933,0.83,-0.45,-0.33,3.3,-1.59,-2.62,398,251,190,452,364
1934,0.82,-0.45,-0.31,3.85,-2.2,-3.17,396,251,194,452,366
1935,0.84,-0.44,-0.32,-0.24,-2.2,-2.01,398,252,192,453,363
1936,0.82,-0.46,-0.32,-0.12,-3.23,-2.5,399,252,192,456,366
1937,0.83,-0.46,-0.33,0.0,-3.78,-3.91,397,254,194,452,365
1938,0.83,-0.45,-0.34,1.04,-3.05,-3.17,397,252,189,457,365
1939,0.82,-0.46,-0.33,0.61,-2.32,-2.08,397,253,193,453,364
1940,0.81,-0.47,-0.33,1.22,-3.17,-2.38,395,254,193,456,364
1941,0.82,-0.46,-0.33,-0.18,-2.14,-3.11,398,254,191,454,365
1942,0.83,-0.47,-0.32,1.46,-2.99,-1.59,400,250,194,456,367
1943,0.83,-0.49,-0.32,-0.49,-2.75,-3.72,396,253,192,453,366
1944,0.81,-0.47,-0.32,0.37,-3.48,-2.38,397,253,195,449,366
1945,0.83,-0.46,-0.32,-0.67,-3.42,-2.99,399,250,192,456,363
1946,0.82,-0.46,-0.33,1.77,-2.14,-1.83,396,255,192,457,368
1947,0.83,-0.46,-0.32,-0.12,-2.26,-3.85,399,254,195,453,371
1948,0.81,-0.48,-0.33,1.59,-3.11,-2.69,397,252,194,453,366
1949,0.81,-0.48,-0.31,0.79,-3.42,-3.48,398,250,195,453,361
1950,0.82,-0.48,-0.32,-0.31,-3.85,-3.54,397,254,194,454,362
1951,0.8,-0.48,-0.32,1.71,-3.05,-1.95,399,251,196,454,366
1952,0.84,-0.45,-0.35,-0.85,-2.81,-0.98,395,251,195,454,365
1953,0.81,-0.48,-0.32,-3.17,-1.83,-0.92,394,253,195,451,366
1954,0.81,-0.47,-0.31,1.83,-2.44,-1.1,396,253,198,457,356
1955,0.82,-0.47,-0.32,-0.37,-2.5,-1.89,400,254,189,457,365
1956,0.83,-0.46,-0.32,0.18,-2.56,-2.32,397,251,194,456,364
1957,0.82,-0.47,-0.31,1.16,-2.81,-2.5,399,249,191,455,365
1958,0.82,-0.47,-0.32,-0.12,-3.78,-4.33,397,254,194,447,364
1959,0.83,-0.46,-0.31,0.73,-2.75,-1.22,397,252,194,449,363
1960,0.82,-0.46,-0.33,1.1,-2.44,-1.53,397,253,189,453,365
1961,0.82,-0.47,-0.32,1.28,-1.65,-0.43,398,250,196,455,364
1962,0.82,-0.47,-0.32,0.55,-3.05,-2.14,396,252,193,453,366
1963,0.82,-0.47,-0.32,-0.43,-4.09,-3.23,398,251,195,456,367
1964,0.83,-0.46,-0.33,1.34,-2.75,-2.87,395,254,196,454,362
1965,0.81,-0.47,-0.32,-0.31,-2.2,-1.1,397,254,194,453,364
1966,0.8,-0.47,-0.32,0.67,-2.32,-2.08,397,252,191,447,363
1967,0.83,-0.47,-0.32,1.28,-2.69,-2.08,398,253,192,452,365
1968,0.83,-0.47,-0.32,0.73,-2.62,-1.89,396,253,195,454,365
1969,0.81,-0.48,-0.32,0.12,-2.5,-0.98,398,250,192,452,365
1970,0.82,-0.48,-0.32,0.06,-2.5,-2.26,394,252,193,455,363
1971,0.82,-0.48,-0.31,-0.06,-3.48,-2.69,397,254,195,456,364
1972,0.83,-0.48,-0.32,-1.22,-3.72,-4.39,396,250,196,456,363
1973,0.78,-0.5,-0.31,-1.4,-3.05,0.31,398,251,206,455,364
1974,0.81,-0.48,-0.34,-0.43,-2.08,-1.71,399,251,193,449,369
1975,0.82,-0.47,-0.32,1.53,-2.38,-1.1,397,252,195,455,362
1976,0.81,-0.48,-0.32,1.04,-3.23,-1.71,396,254,192,448,365
1977,0.81,-0.48,-0.33,-1.34,-3.66,-2.87,393,253,196,456,364
1978,0.83,-0.45,-0.33,1.59,-1.83,0.18,399,254,194,456,366
1979,0.82,-0.47,-0.34,-2.14,-2.75,-1.65,396,254,194,451,365
1980,0.82,-0.46,-0.34,2.32,-2.44,-1.46,400,253,193,448,363
1981,0.81,-0.48,-0.31,0.12,-3.17,-3.36,397,253,196,453,365
1982,0.81,-0.48,-0.32,-0.24,-2.81,-2.01,398,255,193,447,365
1983,0.82,-0.48,-0.31,0.67,-2.26,-2.38,397,252,192,452,365
1984,0.85,-0.45,-0.32,0.43,-2.44,-1.22,399,252,193,453,363
1985,0.8,-0.49,-0.33,2.93,-2.01,-0.79,398,255,193,452,362
1986,0.76,-0.53,-0.27,-0.12,2.38,-2.56,398,252,195,451,366
1987,0.8,-0.51,-0.29,0.37,-3.42,-2.56,399,254,197,452,353
1988,0.81,-0.49,-0.31,0.18,-3.42,-3.11,397,254,195,454,365
1989,0.81,-0.49,-0.3,1.77,-2.2,-1.71,394,251,195,453,365
1990,0.82,-0.49,-0.31,-0.31,-1.65,-1.22,398,254,196,451,364
1991,0.81,-0.5,-0.3,-0.98,-2.2,-1.46,394,254,194,452,362
1992,0.81,-0.49,-0.3,0.92,-1.77,-1.83,400,252,196,453,365
1993,0.81,-0.5,-0.3,-0.12,-1.89,-1.4,399,256,196,453,363
1994,0.81,-0.5,-0.29,0.12,-2.93,-2.44,395,255,193,447,363
1995,0.81,-0.5,-0.29,0.18,-2.62,-1.22,393,255,193,453,372
1996,0.82,-0.49,-0.3,1.1,-3.17,-3.11,396,256,196,455,367
1997,0.82,-0.49,-0.31,-0.92,-4.46,-3.23,396,254,192,451,363
1998,0.82,-0.49,-0.31,0.43,-2.87,-2.26,397,254,190,452,369
1999,0.83,-0.49,-0.28,2.99,-2.26,-2.01,389,256,197,452,366
2000,0.74,-0.56,-0.27,3.78,-4.82,-1.89,397,261,194,453,370
2001,0.8,-0.5,-0.3,-0.18,-1.4,-2.93,394,251,191,449,365
2002,0.82,-0.49,-0.29,0.61,-2.32,-2.5,394,254,200,452,367
2003,0.85,-0.45,-0.33,-0.61,-5.74,-10.8,400,253,197,449,366
2004,0.84,-0.45,-0.31,0.18,-3.23,-2.32,395,256,195,451,368
2005,0.83,-0.47,-0.3,0.61,-2.2,-0.79,395,256,195,452,365
2006,0.82,-0.48,-0.3,-0.06,-3.17,-1.22,394,254,197,452,366
2007,0.82,-0.48,-0.31,1.65,-3.05,-3.23,396,256,192,454,367
2008,0.83,-0.47,-0.3,0.73,-2.93,-4.46,394,255,197,456,368
2009,0.85,-0.45,-0.27,0.49,-1.71,3.23,396,256,192,453,365
2010,0.85,-0.45,-0.31,-1.83,-5.92,-0.06,422,256,194,449,365
2011,0.81,-0.49,-0.3,3.05,-3.36,-2.93,397,254,199,459,369
2012,0.82,-0.48,-0.3,-0.92,-2.26,-1.1,397,254,195,448,367
2013,0.82,-0.48,-0.3,1.65,-4.58,-4.21,398,257,195,453,367
2014,0.83,-0.46,-0.29,-1.04,-4.52,-3.54,396,254,197,453,366
2015,0.82,-0.48,-0.29,0.61,-2.87,-1.71,395,257,194,447,366
2016,0.84,-0.46,-0.28,0.24,-2.75,-1.95,392,256,197,456,367
2017,0.83,-0.48,-0.3,-1.22,-2.2,0.0,394,253,198,447,368
2018,0.82,-0.47,-0.3,0.18,-2.56,-2.01,397,254,197,457,369
2019,0.81,-0.49,-0.27,9.95,-3.23,3.36,394,257,194,453,366
2020,0.82,-0.51,-0.28,-0.49,-1.77,-1.95,395,254,192,455,369
2021,0.83,-0.49,-0.27,1.46,-3.05,-0.61,398,253,192,453,368
2022,0.83,-0.49,-0.28,-1.22,-2.32,-2.01,393,256,197,455,366
2023,0.81,-0.5,-0.28,-0.61,-3.23,-2.87,394,256,197,456,368
2024,0.82,-0.49,-0.28,1.22,-1.59,-2.62,391,252,196,452,365
2025,0.82,-0.5,-0.27,-0.49,-2.93,-3.3,396,256,196,456,369
2026,0.82,-0.49,-0.28,-0.31,-2.81,-2.62,396,256,194,453,368
2027,0.82,-0.49,-0.27,1.04,-3.11,-4.46,396,254,198,455,367
2028,0.81,-0.5,-0.28,-1.4,-3.54,-2.38,396,255,195,455,367
2029,0.82,-0.48,-0.29,0.0,-3.3,-3.97,396,253,196,452,365
2030,0.83,-0.48,-0.28,0.92,-2.81,-2.87,397,253,197,455,368
2031,0.82,-0.48,-0.29,0.24,-1.53,-1.71,396,258,191,455,368
2032,0.82,-0.48,-0.27,1.77,-3.05,-2.08,394,252,198,464,369
2033,0.84,-0.47,-0.3,0.24,-3.3,-3.3,395,256,197,457,368
2034,0.8,-0.49,-0.27,0.79,-1.46,0.61,397,253,194,453,369
2035,0.83,-0.48,-0.28,-0.12,-2.2,-0.43,395,257,197,456,368
2036,0.83,-0.48,-0.29,1.16,-2.26,-2.26,400,254,197,453,371
2037,0.83,-0.48,-0.28,-0.98,-2.5,-2.08,392,254,196,448,366
2038,0.83,-0.48,-0.27,1.04,-2.5,-2.2,392,258,196,452,370
2039,0.83,-0.49,-0.28,0.79,-2.69,-2.44,392,257,199,453,370
2040,0.82,-0.49,-0.28,0.06,-2.99,-2.2,408,257,197,457,368
2041,0.82,-0.48,-0.28,0.98,-3.17,-2.62,392,255,199,456,369
2042,0.82,-0.49,-0.29,-0.18,-2.75,-2.75,393,256,199,452,371
2043,0.83,-0.48,-0.27,-0.24,-3.78,-3.66,393,255,196,453,372
2044,0.84,-0.46,-0.29,1.28,-2.62,-2.75,393,254,196,453,367
2045,0.83,-0.48,-0.29,-0.43,-2.26,-2.44,395,256,195,452,372
2046,0.83,-0.49,-0.27,0.37,-2.32,-1.95,395,257,195,456,374
2047,0.82,-0.49,-0.27,-1.22,-2.99,-1.83,395,258,195,451,370
2048,0.82,-0.5,-0.27,1.53,-2.99,-2.01,392,256,196,452,373
2049,0.82,-0.49,-0.28,0.06,-4.39,-4.03,395,254,204,451,368
2050,0.83,-0.48,-0.28,-0.79,-2.08,-1.53,392,258,192,451,371
2051,0.81,-0.48,-0.28,1.71,-2.99,-1.4,394,256,196,454,371
2052,0.81,-0.5,-0.28,1.89,-2.56,-2.01,391,258,201,454,367
2053,0.83,-0.49,-0.28,0.43,-2.62,-3.91,393,255,199,452,373
2054,0.82,-0.48,-0.28,-0.37,-2.81,-2.93,428,257,202,456,371
2055,0.82,-0.49,-0.28,0.85,-2.56,-1.65,397,255,197,452,370
2056,0.83,-0.48,-0.27,0.85,-2.99,-2.14,396,258,197,455,369
2057,0.83,-0.48,-0.28,0.18,-3.23,-2.5,395,259,207,453,371
2058,0.83,-0.49,-0.27,-0.49,-3.23,-2.44,392,259,194,453,367
2059,0.83,-0.48,-0.28,0.12,-3.05,-3.78,393,258,195,448,370
2060,0.83,-0.47,-0.29,0.67,-2.38,-2.32,393,256,198,449,370
