,aX,aY,aZ,gX,gY,gZ,little,ring,middle,index,thumb
0,0.87,-0.46,0.1,1.34,-3.3,-5.92,194,277,437,461,343
1,0.9,-0.43,0.1,4.52,-1.53,-7.14,198,274,438,466,344
2,0.9,-0.41,0.13,-0.06,-0.73,-4.46,192,266,437,459,340
3,0.91,-0.41,0.14,-0.67,-1.77,-2.62,198,270,433,453,342
4,0.92,-0.39,0.14,0.67,-2.38,-3.05,197,277,436,463,343
5,0.91,-0.4,0.13,-1.16,-3.3,-2.2,202,271,433,457,351
6,0.89,-0.41,0.13,0.31,-3.72,-2.38,194,268,433,453,343
7,0.9,-0.4,0.1,0.73,-2.56,-2.5,198,266,434,454,345
8,0.91,-0.41,0.13,-1.16,-4.09,-1.89,194,271,433,458,342
9,0.9,-0.42,0.12,-0.12,-1.95,-0.67,200,267,431,456,340
10,0.89,-0.43,0.11,0.92,-5.43,1.22,194,275,432,457,344
11,0.92,-0.41,0.11,-0.06,-2.08,-1.4,198,270,432,464,344
12,0.9,-0.42,0.1,-0.85,-3.17,-1.04,199,270,431,455,344
13,0.9,-0.42,0.12,2.32,-0.06,-3.91,214,270,430,449,343
14,0.92,-0.41,0.11,-0.43,-2.44,-2.44,198,269,430,463,342
15,0.9,-0.42,0.12,0.43,-3.6,-2.5,191,273,433,459,347
16,0.91,-0.4,0.11,-1.28,-2.32,-2.5,202,275,431,460,346
17,0.87,-0.44,0.11,-1.1,-2.75,-3.85,198,271,432,458,342
18,0.9,-0.42,0.12,-0.18,-1.95,-5.31,200,276,432,460,348
19,0.88,-0.43,0.13,-3.23,-1.1,-1.16,200,273,427,455,347
20,0.9,-0.41,0.11,-2.08,-3.05,0.73,199,277,430,459,345
21,0.91,-0.42,0.12,1.65,-4.09,-2.93,199,278,430,460,342
22,0.89,-0.44,0.1,1.53,-3.91,-0.73,201,275,425,458,344
23,0.88,-0.45,0.1,-2.26,-2.87,0.37,198,274,428,455,343
24,0.89,-0.43,0.09,0.12,-4.46,-1.04,206,274,427,467,345
25,0.91,-0.43,0.1,3.48,-3.91,-5.55,200,278,431,462,344
26,0.91,-0.42,0.11,3.85,-3.54,-3.36,200,275,429,461,341
27,0.89,-0.44,0.1,0.43,-3.54,-2.26,203,277,425,465,340
28,0.9,-0.42,0.12,5.31,-3.72,-4.21,200,277,434,463,343
29,0.9,-0.42,0.1,1.1,-1.22,-5.49,200,280,431,460,345
30,0.91,-0.44,0.1,2.44,-2.5,-1.16,204,278,428,462,343
31,0.89,-0.42,0.1,0.43,-3.78,-3.42,206,273,426,464,342
32,0.9,-0.44,0.09,-0.31,-3.17,-3.42,202,279,422,460,344
33,0.9,-0.42,0.1,0.31,-3.05,-1.1,208,276,431,465,344
34,0.9,-0.49,0.11,-1.4,-2.75,-4.33,203,279,427,458,343
35,0.9,-0.44,0.1,-2.56,-4.27,-1.89,205,276,430,461,349
36,0.9,-0.44,0.1,-1.95,-0.37,-2.62,208,276,422,455,342
37,0.9,-0.42,0.09,3.05,-3.05,-2.99,203,278,421,460,342
38,0.89,-0.45,0.09,-0.79,-2.93,-2.81,203,277,423,459,339
39,0.9,-0.43,0.1,3.36,-4.76,-3.3,200,273,420,449,341
40,0.9,-0.44,0.1,0.0,-2.62,-2.81,203,279,424,457,342
41,0.9,-0.44,0.09,2.38,-2.62,-3.85,200,279,422,460,341
42,0.89,-0.44,0.1,0.49,-2.14,-2.08,203,273,419,456,341
43,0.89,-0.45,0.1,0.61,-4.64,-2.99,198,282,425,449,341
44,0.89,-0.45,0.1,-1.77,-3.36,-3.85,199,279,421,458,343
45,0.9,-0.45,0.09,0.49,-3.05,-1.89,205,287,420,459,339
46,0.88,-0.46,0.07,0.85,-2.08,-3.91,205,277,424,459,344
47,0.89,-0.45,0.09,-1.46,-2.62,-0.92,201,279,424,466,343
48,0.9,-0.43,0.1,1.65,-3.11,-2.62,196,281,423,459,345
49,0.9,-0.44,0.09,-1.04,-3.23,-2.5,208,278,424,464,344
50,0.91,-0.44,0.1,0.49,-2.93,-2.5,203,279,422,462,338
51,0.9,-0.44,0.11,2.38,-1.89,-3.85,202,278,422,462,342
52,0.9,-0.43,0.1,-2.44,-1.53,-3.54,205,276,424,462,347
53,0.9,-0.43,0.11,0.61,-2.99,-3.05,203,277,423,464,343
54,0.89,-0.43,0.09,-0.67,-3.42,-4.39,204,278,422,465,343
55,0.91,-0.43,0.1,0.06,-2.5,-3.05,206,279,422,462,346
56,0.91,-0.41,0.1,2.87,-3.11,-4.03,203,275,422,461,341
57,0.91,-0.42,0.11,0.0,-2.14,-2.38,204,278,422,460,343
58,0.9,-0.42,0.1,-0.55,-0.31,-2.56,204,280,422,463,340
59,0.91,-0.41,0.12,1.34,-2.93,-2.69,198,277,424,464,339
60,0.9,-0.41,0.11,0.31,-2.32,-1.95,203,274,423,461,345
61,0.91,-0.41,0.11,-0.06,-2.38,-2.81,202,283,422,464,344
62,0.91,-0.41,0.11,-0.18,-2.44,-3.23,201,277,422,458,343
63,0.91,-0.41,0.1,0.98,-3.05,-2.87,202,278,414,460,343
64,0.91,-0.41,0.11,1.34,-4.09,-2.56,205,277,425,459,343
65,0.91,-0.41,0.11,0.61,-2.81,-2.26,197,276,421,463,343
66,0.91,-0.42,0.11,0.43,-2.2,-2.99,203,278,421,464,341
67,0.91,-0.41,0.11,0.0,-2.38,-3.48,201,279,417,459,342
68,0.91,-0.4,0.12,-0.79,-2.5,-3.05,203,278,419,455,343
69,0.92,-0.39,0.09,2.2,-3.3,-8.48,204,280,423,462,341
70,0.91,-0.39,0.12,1.4,-3.85,-6.04,204,277,418,461,341
71,0.9,-0.39,0.12,1.1,-2.62,-2.44,198,277,415,465,342
72,0.94,-0.36,0.13,-0.73,-1.83,-2.62,219,280,418,464,341
73,0.91,-0.38,0.13,-3.91,2.2,-2.2,205,276,421,462,343
74,0.93,-0.35,0.16,4.39,-3.17,-0.43,211,280,416,459,338
75,0.99,-0.3,0.11,-5.49,-10.07,-2.69,202,280,418,462,341
76,0.89,-0.42,0.1,-2.2,0.31,-5.07,209,278,419,464,339
77,0.94,-0.36,0.09,4.27,-1.34,-2.44,214,274,416,463,343
78,0.95,-0.37,0.09,2.75,-2.93,-2.87,204,273,419,459,342
79,0.9,-0.4,0.14,2.2,-5.31,-0.73,205,279,417,460,344
80,0.93,-0.4,0.12,2.14,-1.89,-0.31,203,276,414,461,343
81,0.89,-0.44,0.1,3.66,-5.43,-1.83,206,280,421,462,335
82,0.92,-0.41,0.11,-0.06,-2.62,-3.3,200,271,417,460,350
83,0.88,-0.44,0.13,-0.73,-3.48,-2.69,204,280,418,468,344
84,0.89,-0.44,0.17,1.28,-4.7,-0.92,203,277,419,465,345
85,0.91,-0.43,0.08,0.12,-0.73,-1.95,205,279,422,454,340
86,0.93,-0.41,0.16,-4.46,-3.72,5.31,203,278,420,455,343
87,0.88,-0.47,0.14,2.01,-5.13,0.31,197,276,421,464,339
88,0.85,-0.5,0.12,1.77,-5.68,-3.11,212,278,422,462,341
89,0.85,-0.46,0.16,-7.02,-10.13,-6.65,201,278,418,457,341
90,0.87,-0.49,0.02,-5.31,-8.97,1.89,209,278,418,462,345
91,0.91,-0.48,-0.05,-4.03,-0.79,-5.68,202,277,416,460,341
92,0.91,-0.46,-0.04,2.5,-5.43,-3.91,203,277,412,457,341
93,0.87,-0.46,-0.02,1.46,-7.32,-2.5,201,280,416,461,344
94,0.83,-0.49,-0.1,-3.36,3.78,-5.07,205,281,417,459,343
95,0.9,-0.44,-0.03,-3.05,-1.95,-2.75,204,279,411,460,342
96,0.93,-0.42,-0.01,-0.24,-2.62,-4.76,203,278,415,460,341
97,0.86,-0.49,-0.04,-1.95,-3.85,-3.48,207,278,416,459,342
98,0.91,-0.43,-0.05,0.06,-1.83,-3.48,203,280,412,457,342
99,0.89,-0.44,-0.05,2.99,-4.82,-1.04,204,281,417,454,344
100,0.89,-0.45,-0.06,0.67,-3.17,-2.14,206,280,413,455,338
101,0.89,-0.45,-0.05,-0.24,-2.81,-1.89,204,274,415,446,345
102,0.89,-0.44,-0.05,-0.92,-2.14,-1.22,204,281,420,463,339
103,0.89,-0.44,-0.05,0.0,-2.56,-3.48,205,275,415,443,341
104,0.9,-0.44,-0.05,-1.1,-3.6,-2.26,205,283,416,460,333
105,0.89,-0.44,-0.04,-1.1,-2.69,-1.95,203,282,414,459,346
106,0.9,-0.44,-0.05,-0.12,-3.05,-1.89,203,279,408,453,340
107,0.9,-0.44,-0.05,0.06,-3.3,-2.5,202,276,415,448,343
108,0.9,-0.43,-0.05,0.06,-3.11,-2.69,202,275,416,460,344
109,0.91,-0.43,-0.03,0.37,-2.44,-1.83,203,280,413,458,346
110,0.9,-0.44,-0.04,0.92,-3.91,-2.01,204,282,413,458,339
111,0.91,-0.43,-0.04,-0.31,-2.69,-2.01,206,279,417,458,344
112,0.92,-0.43,-0.03,0.06,-2.56,-1.71,209,281,425,449,339
113,0.89,-0.46,-0.02,0.55,-2.87,-2.87,204,276,411,457,342
114,0.87,-0.47,-0.04,-1.34,1.77,-5.0,209,279,415,462,341
115,0.91,-0.45,-0.04,-1.16,-2.87,-1.4,201,281,414,455,343
116,0.88,-0.47,-0.05,1.34,-3.48,-2.44,209,279,407,456,343
117,0.89,-0.46,-0.04,0.24,-2.75,-3.3,198,278,415,461,340
118,0.9,-0.45,-0.02,-0.31,-3.3,-1.53,202,274,415,459,341
119,0.9,-0.44,-0.05,4.46,-3.42,-4.88,201,281,417,454,344
120,0.9,-0.45,-0.04,1.4,-4.76,-2.99,202,280,414,456,345
121,0.88,-0.46,-0.03,0.67,-2.32,-2.5,207,277,412,457,343
122,0.9,-0.44,-0.03,-1.04,-1.53,-3.11,207,281,412,457,341
123,0.91,-0.43,-0.03,0.12,-2.26,-5.62,231,279,413,459,344
124,0.88,-0.46,-0.05,-0.98,-4.76,-3.91,198,282,414,462,338
125,0.92,-0.41,0.0,3.42,-2.2,-7.26,204,282,411,456,343
126,0.89,-0.4,-0.04,-2.5,0.67,-4.03,205,281,411,458,341
127,0.85,-0.44,-0.0,-5.49,0.55,-1.83,209,282,410,455,343
128,0.89,-0.41,-0.01,0.37,-2.69,-5.55,194,283,410,458,341
129,0.94,-0.41,0.05,-4.39,-1.46,2.5,203,278,413,455,346
130,0.91,-0.42,0.03,-1.04,-2.01,-1.46,210,282,414,459,341
131,0.91,-0.42,0.05,3.11,-0.55,-2.38,205,280,416,456,341
132,0.9,-0.42,0.04,0.31,-2.01,-2.99,202,278,413,458,339
133,0.92,-0.4,0.06,-0.61,-4.39,-2.26,203,279,416,453,341
134,0.89,-0.42,0.04,0.31,-3.48,-1.77,204,281,412,456,344
135,0.94,-0.39,0.03,-1.04,-2.56,-2.56,206,280,412,471,345
136,0.91,-0.41,0.02,-2.87,-2.99,-3.17,202,280,405,455,344
137,0.89,-0.44,0.04,-4.33,-2.62,-2.93,205,275,410,459,343
138,0.92,-0.41,0.02,2.56,-2.81,-0.31,205,279,414,456,343
139,0.89,-0.46,-0.0,6.16,-1.77,3.17,208,284,413,458,345
140,0.88,-0.45,0.02,-2.69,-4.46,-1.34,204,278,414,453,343
141,0.89,-0.45,0.05,-1.28,-2.99,-1.28,203,277,412,463,344
142,0.9,-0.45,0.04,2.87,-1.1,-2.69,209,281,409,452,345
143,0.9,-0.43,0.05,-1.89,-2.56,-3.17,203,284,415,457,343
144,0.91,-0.42,0.06,-0.98,-2.62,-3.17,217,282,411,458,339
145,0.9,-0.43,0.05,-0.85,-4.76,-3.05,204,282,412,452,342
146,0.91,-0.43,0.05,-0.49,-4.58,-2.62,205,278,415,457,342
147,0.91,-0.43,0.05,0.79,-2.81,-2.44,207,283,414,459,340
148,0.9,-0.43,0.04,0.85,-2.75,-4.21,209,277,412,460,339
149,0.91,-0.42,0.05,0.31,-3.17,-3.66,205,276,412,457,344
150,0.9,-0.43,0.04,1.16,-2.62,-2.5,197,281,412,458,341
151,0.9,-0.43,0.05,0.49,-2.26,-2.32,207,283,413,459,339
152,0.91,-0.43,0.05,0.37,-2.38,-1.77,205,280,409,460,343
153,0.9,-0.44,0.04,-0.85,-3.72,-2.75,207,281,409,461,342
154,0.89,-0.43,0.04,1.89,-2.87,-3.6,217,284,410,458,346
155,0.91,-0.43,0.06,0.92,-2.75,0.79,204,277,412,459,343
156,0.9,-0.44,0.06,-0.79,-2.01,-2.26,199,282,415,452,341
157,0.9,-0.43,0.05,-0.31,-3.11,-2.5,206,279,411,457,341
158,0.9,-0.43,0.07,0.06,-1.95,-2.32,202,276,411,458,343
159,0.91,-0.43,0.06,-0.18,-3.05,-0.49,197,284,415,451,346
160,0.9,-0.44,0.06,1.4,-3.3,-1.89,207,280,411,460,343
161,0.9,-0.45,0.05,1.04,-2.14,-3.72,204,279,410,461,343
162,0.9,-0.44,0.07,1.16,-3.05,-2.87,208,283,410,457,344
163,0.9,-0.44,0.05,0.67,-2.81,-2.08,206,277,410,454,343
164,0.9,-0.44,0.04,-2.2,-3.72,-0.37,206,285,411,457,343
165,0.91,-0.44,0.07,-2.69,-3.36,-1.4,208,285,416,453,343
166,0.89,-0.45,0.06,-0.24,-3.48,-3.17,209,280,410,457,346
167,0.91,-0.44,0.07,1.22,-3.42,-3.11,203,281,411,467,343
168,0.9,-0.45,0.05,2.87,-2.44,-3.66,206,290,409,461,339
169,0.9,-0.44,0.04,-0.06,-2.75,-1.77,203,282,409,455,340
170,0.9,-0.43,0.04,0.0,-2.99,-2.69,206,280,412,456,343
171,0.9,-0.44,0.04,0.24,-2.2,-3.97,208,279,411,453,342
172,0.88,-0.45,0.04,0.67,-2.38,-4.52,203,284,408,458,343
173,0.89,-0.45,0.03,1.95,-0.55,-2.44,208,283,412,456,342
174,0.87,-0.45,0.04,-0.85,1.16,-5.13,203,278,413,456,342
175,0.9,-0.41,0.04,0.73,-2.2,-10.44,208,281,410,456,340
176,0.87,-0.44,0.09,-1.59,-0.85,-4.82,206,278,407,458,344
177,0.91,-0.41,0.09,0.73,-5.13,-6.59,209,281,414,458,351
178,0.92,-0.38,0.12,1.28,-4.52,-0.37,205,281,408,457,348
179,0.91,-0.39,0.09,2.32,-4.03,1.53,206,279,413,457,343
180,0.94,-0.36,0.13,2.01,-2.2,1.65,206,276,408,453,342
181,0.97,-0.33,0.13,8.12,-0.49,-14.59,207,282,411,459,342
182,0.95,-0.37,0.06,-2.62,11.11,-11.9,205,287,408,459,343
183,0.93,-0.37,0.1,-5.49,0.49,-0.61,208,283,410,457,343
184,0.92,-0.37,0.11,2.81,-4.27,0.73,202,282,411,456,339
185,0.93,-0.36,0.13,7.08,-3.05,-11.05,204,279,410,457,339
186,0.91,-0.38,0.16,-2.62,5.37,-3.36,203,276,409,462,341
187,0.93,-0.36,0.15,-5.07,-3.6,-0.12,205,278,410,454,341
188,0.91,-0.38,0.14,-1.34,-1.46,-2.93,206,280,410,456,337
189,0.94,-0.33,0.14,1.34,-3.17,-3.23,219,278,409,458,340
190,0.94,-0.35,0.15,0.06,-1.71,-1.04,206,278,408,459,339
191,0.94,-0.34,0.14,-0.49,-3.42,-4.33,210,278,413,461,336
192,0.94,-0.33,0.15,-4.88,-4.88,2.32,207,279,412,452,340
193,0.94,-0.34,0.11,-3.78,-4.21,-3.05,207,278,412,461,338
194,0.91,-0.38,0.14,-1.04,-5.74,-0.55,203,278,405,459,340
195,0.94,-0.36,0.13,-2.38,-6.35,3.72,208,278,406,473,336
196,0.91,-0.41,0.1,-1.1,-3.23,-4.46,210,282,409,456,341
197,0.89,-0.42,0.08,1.22,-1.16,-2.69,207,290,414,461,339
198,0.91,-0.39,0.09,-0.37,-3.66,-3.97,202,283,409,457,341
199,0.91,-0.4,0.1,1.89,-3.17,-1.83,205,282,411,452,340
200,0.92,-0.4,0.1,-1.28,-2.2,-1.77,231,281,411,456,341
201,0.91,-0.41,0.09,-0.73,-3.17,-2.5,205,280,411,460,340
202,0.92,-0.4,0.1,-0.24,-2.93,-1.71,205,280,411,451,338
203,0.94,-0.38,0.12,-0.37,-2.93,-1.04,207,279,409,451,338
204,0.92,-0.4,0.09,0.79,-2.93,-3.11,208,279,412,454,344
205,0.92,-0.41,0.1,-0.31,-2.69,-3.17,202,281,408,454,343
206,0.91,-0.41,0.11,0.31,-1.59,-1.4,209,284,408,452,341
207,0.91,-0.4,0.09,0.12,-3.66,-2.26,204,277,408,459,341
208,0.9,-0.41,0.1,-1.95,-2.01,-0.55,203,279,413,455,342
209,0.92,-0.41,0.09,0.92,-3.85,-2.75,230,281,405,456,340
210,0.92,-0.4,0.08,-0.31,-1.83,-2.56,205,279,408,455,343
211,0.89,-0.42,0.12,2.2,-2.08,-4.88,207,280,406,455,344
212,0.93,-0.4,0.09,0.55,-5.0,-3.54,209,281,409,451,341
213,0.92,-0.39,0.1,0.67,-2.93,-4.64,207,282,407,456,338
214,0.91,-0.4,0.1,4.46,-3.42,-3.91,207,282,409,453,345
215,0.91,-0.41,0.11,0.79,-2.44,-2.69,208,274,410,453,345
216,0.92,-0.41,0.1,0.37,-2.2,-3.17,207,284,406,461,344
217,0.91,-0.41,0.1,1.59,-2.62,-2.99,211,282,409,457,335
218,0.91,-0.4,0.1,-1.34,-2.01,-2.44,206,275,403,457,341
219,0.91,-0.41,0.11,1.16,-2.93,-3.6,205,278,410,456,340
220,0.92,-0.4,0.11,0.92,-3.6,-1.77,208,281,408,456,338
221,0.92,-0.41,0.09,-3.05,-3.6,-2.38,208,284,410,466,338
222,0.89,-0.42,0.13,-0.61,-2.38,-1.83,205,280,412,457,342
223,0.9,-0.4,0.1,0.67,-2.62,-2.08,209,282,409,459,344
224,0.9,-0.41,0.13,2.01,-4.7,-1.53,202,280,421,465,338
225,0.91,-0.42,0.1,2.87,-3.3,-2.87,209,284,411,459,340
226,0.9,-0.42,0.11,-1.04,-2.81,-2.93,204,280,412,465,341
227,0.94,-0.39,0.09,-1.59,-3.91,-4.52,200,285,425,466,341
228,0.91,-0.41,0.11,-0.06,-2.32,-2.44,207,274,411,464,336
229,0.91,-0.4,0.11,-1.22,-2.44,-2.99,208,284,414,461,342
230,0.92,-0.4,0.13,3.23,-2.87,-4.27,204,279,416,462,338
231,0.91,-0.4,0.13,2.2,-3.17,-3.3,204,288,411,464,340
232,0.92,-0.4,0.12,-0.12,-3.42,-1.83,206,286,413,464,337
233,0.92,-0.4,0.12,1.4,-2.69,-2.32,208,279,413,461,341
234,0.92,-0.4,0.12,0.49,-2.81,-3.42,204,278,414,463,340
235,0.92,-0.4,0.11,0.55,-2.75,-2.75,207,280,414,466,341
236,0.92,-0.4,0.13,-0.31,-3.05,-2.56,210,279,417,459,340
237,0.92,-0.39,0.12,-0.85,-3.17,-2.14,210,283,414,466,341
238,0.92,-0.39,0.13,0.98,-3.3,-2.26,199,273,415,464,339
239,0.9,-0.41,0.1,-0.06,-2.62,-3.05,212,279,413,466,339
240,0.9,-0.41,0.11,2.56,-3.23,-2.93,206,283,414,465,342
241,0.92,-0.4,0.13,1.4,-2.93,-2.81,205,281,413,462,341
242,0.91,-0.4,0.12,-1.1,-2.56,-2.56,207,279,412,459,340
243,0.91,-0.4,0.12,0.24,-3.05,-2.81,210,275,413,464,340
244,0.92,-0.4,0.11,0.55,-2.93,-2.69,207,276,409,466,342
245,0.92,-0.41,0.12,0.79,-2.99,-2.75,209,279,411,469,341
246,0.91,-0.41,0.12,-0.12,-2.62,-2.69,205,277,412,466,337
247,0.91,-0.4,0.12,0.12,-3.66,-2.08,206,280,411,466,339
248,0.92,-0.4,0.12,0.18,-2.93,-2.14,204,274,408,461,342
249,0.91,-0.41,0.1,0.98,-2.14,-2.26,210,278,412,481,341
250,0.91,-0.41,0.1,-0.92,-3.23,-2.62,209,282,409,459,340
251,0.93,-0.39,0.13,1.22,-3.05,-2.93,202,284,415,459,338
252,0.92,-0.4,0.12,-0.12,-2.87,-2.01,202,286,413,462,341
253,0.91,-0.41,0.11,0.06,-2.75,-2.38,206,281,414,467,343
254,0.91,-0.41,0.12,-0.12,-3.05,-2.56,213,277,412,463,337
255,0.91,-0.4,0.12,0.61,-3.11,-3.23,209,279,413,464,344
256,0.92,-0.4,0.13,1.59,-3.42,-2.69,208,281,408,459,339
257,0.91,-0.41,0.11,0.55,-3.05,-2.56,208,277,413,470,339
258,0.92,-0.39,0.11,1.71,-2.99,-2.08,210,281,415,464,343
259,0.92,-0.4,0.11,-0.18,-2.56,-2.69,207,281,411,464,341
260,0.9,-0.41,0.1,0.18,-2.99,-1.46,206,277,414,465,341
261,0.9,-0.41,0.12,-1.89,-2.75,-0.18,207,279,415,465,340
262,0.91,-0.4,0.1,-0.55,-2.38,-2.99,211,285,410,463,343
263,0.91,-0.4,0.12,0.06,-4.27,-0.98,208,281,410,462,341
264,0.93,-0.39,0.11,-0.85,-3.05,-0.43,201,280,411,468,337
265,0.9,-0.42,0.08,-1.46,-2.93,-2.38,210,281,412,471,339
266,0.91,-0.4,0.07,1.53,-2.87,-3.78,203,283,409,465,342
267,0.9,-0.42,0.1,1.95,-3.91,-6.23,206,285,412,470,340
268,0.9,-0.43,0.11,-2.08,-2.44,-1.04,206,278,413,467,342
269,0.88,-0.44,0.16,5.49,-2.38,0.31,208,284,410,466,341
270,0.9,-0.43,0.13,-5.49,-1.53,-0.06,210,282,413,468,343
271,0.93,-0.41,0.13,-4.46,-3.11,-0.85,214,286,411,466,340
272,0.91,-0.41,0.12,1.59,-2.38,-2.08,210,282,409,463,341
273,0.92,-0.4,0.12,1.53,-2.99,-3.17,209,285,411,466,343
274,0.9,-0.41,0.11,0.85,-3.05,-1.83,210,278,416,468,340
275,0.9,-0.41,0.11,-0.37,-2.69,-2.26,213,279,410,465,341
276,0.9,-0.4,0.13,-0.24,-3.05,-2.14,206,277,411,457,340
277,0.92,-0.4,0.11,-1.95,-2.56,0.06,209,280,414,468,344
278,0.92,-0.4,0.11,1.83,-2.93,-3.85,204,283,414,463,339
279,0.91,-0.41,0.1,0.12,-2.2,-2.44,208,276,408,468,340
280,0.89,-0.42,0.11,-0.79,-2.44,-0.43,205,284,407,468,346
281,0.91,-0.41,0.1,-0.98,-3.72,-3.11,203,282,414,469,341
282,0.92,-0.4,0.12,-0.61,-2.32,-2.2,203,282,402,468,345
283,0.87,-0.44,0.12,0.18,-1.34,-2.69,207,280,408,465,344
284,0.9,-0.41,0.11,-1.59,-3.85,-0.43,208,282,409,464,339
285,0.9,-0.42,0.11,-0.67,-3.05,-2.32,208,285,408,465,342
286,0.92,-0.4,0.12,-0.37,-3.3,-3.11,217,284,408,466,344
287,0.92,-0.41,0.12,-0.12,-3.3,-1.59,209,278,410,466,345
288,0.92,-0.39,0.1,0.0,-4.03,-1.89,207,280,406,461,341
289,0.92,-0.4,0.12,1.46,-2.62,-2.87,206,281,413,464,342
290,0.9,-0.41,0.1,1.71,-3.05,-1.89,204,278,412,469,345
291,0.91,-0.41,0.11,-0.49,-2.99,-1.89,201,285,411,463,343
292,0.9,-0.41,0.12,0.49,-2.75,-1.59,207,284,414,464,347
293,0.91,-0.41,0.12,2.69,-2.14,-3.6,212,282,403,465,346
294,0.91,-0.41,0.11,-1.28,-3.17,-1.34,205,283,411,467,342
295,0.9,-0.42,0.1,0.49,-2.56,-5.07,208,283,416,470,345
296,0.91,-0.41,0.12,0.18,-3.23,-1.4,206,281,415,464,342
297,0.91,-0.41,0.1,0.31,-3.3,-1.59,197,282,410,465,342
298,0.91,-0.41,0.11,1.04,-2.44,-2.81,237,284,414,468,341
299,0.91,-0.41,0.11,-1.53,-3.85,-3.6,207,287,407,468,341
300,0.91,-0.41,0.11,0.06,-3.23,-0.85,206,280,408,469,346
301,0.88,-0.43,0.09,0.31,-2.5,-2.14,209,282,406,466,344
302,0.91,-0.42,0.11,0.79,-2.32,-1.34,206,283,413,466,340
303,0.9,-0.42,0.1,0.73,-2.32,-2.14,209,280,410,461,345
304,0.89,-0.43,0.11,1.77,-2.26,-4.64,208,284,407,468,342
305,0.9,-0.41,0.1,-0.18,-2.99,-3.48,204,283,405,464,344
306,0.91,-0.41,0.11,-0.18,-1.34,-2.93,204,284,413,479,340
307,0.9,-0.42,0.1,-2.93,-2.56,-2.38,203,284,418,461,344
308,0.91,-0.41,0.11,-0.37,-2.81,-2.32,209,278,407,461,342
309,0.91,-0.41,0.12,1.22,-3.23,-3.3,208,274,413,462,343
310,0.91,-0.41,0.11,-1.04,-2.99,-1.1,202,282,410,470,342
311,0.91,-0.41,0.11,0.61,-3.11,-3.23,204,284,404,468,343
312,0.91,-0.4,0.14,1.4,-2.5,-5.37,208,285,409,469,339
313,0.92,-0.38,0.13,1.1,-3.48,-2.99,207,278,413,466,341
314,0.92,-0.38,0.13,-1.04,-2.75,-0.12,208,286,412,463,340
315,0.89,-0.4,0.12,-0.18,-3.23,-2.14,208,284,410,464,340
316,0.91,-0.4,0.11,0.31,-2.38,-2.32,206,285,407,461,339
317,0.91,-0.39,0.12,-1.71,-2.2,-0.79,208,285,408,464,342
318,0.92,-0.39,0.12,-1.04,-2.26,-1.65,202,285,410,469,343
319,0.92,-0.39,0.13,0.24,-2.69,-2.56,211,283,410,461,339
320,0.91,-0.39,0.13,-0.43,-2.93,-1.83,216,283,407,461,344
321,0.92,-0.39,0.12,0.24,-3.17,-2.75,204,284,409,465,341
322,0.92,-0.39,0.12,0.18,-3.05,-3.05,209,280,409,464,337
323,0.93,-0.39,0.13,-1.04,-3.54,-2.56,210,286,410,461,340
324,0.91,-0.4,0.12,-0.18,-3.78,-0.31,206,283,408,471,343
325,0.91,-0.4,0.11,0.92,-3.72,-0.67,209,281,407,466,340
326,0.92,-0.4,0.11,-0.06,-2.69,-2.2,206,286,412,467,341
327,0.9,-0.41,0.12,-1.4,-1.89,-1.04,210,288,410,474,344
328,0.9,-0.41,0.12,-0.85,-2.99,-1.71,202,284,411,465,343
329,0.92,-0.41,0.12,0.92,-3.11,-8.79,210,286,406,465,342
330,0.9,-0.42,0.11,1.04,-4.03,-1.53,207,282,408,461,343
331,0.9,-0.41,0.11,3.42,-2.14,-2.81,210,284,409,464,344
332,0.91,-0.4,0.12,0.61,-4.15,-4.33,206,283,410,466,341
333,0.93,-0.4,0.15,0.37,-2.81,-3.72,199,279,413,466,343
334,0.98,-0.35,0.17,6.71,-1.95,-3.17,212,282,408,462,342
335,0.92,-0.37,0.16,-1.1,-4.03,-0.18,208,282,408,465,347
336,0.91,-0.4,0.13,2.62,-3.48,-4.15,210,283,402,462,345
337,0.91,-0.4,0.12,-0.92,-3.6,-3.36,205,273,409,467,344
338,0.91,-0.4,0.1,-1.4,-2.93,-0.67,205,285,406,466,341
339,0.92,-0.4,0.11,-0.55,-2.56,-2.87,209,277,407,466,341
340,0.9,-0.41,0.12,-1.4,-3.36,-3.05,210,286,407,467,343
341,0.92,-0.41,0.13,4.21,-2.87,-3.6,206,282,408,465,341
342,0.92,-0.42,0.1,0.85,-2.69,-3.48,207,284,408,461,345
343,0.94,-0.38,0.12,-4.82,-1.65,0.61,211,283,404,459,341
344,0.93,-0.39,0.12,-2.87,-5.86,-5.31,211,283,407,466,344
345,0.92,-0.39,0.11,1.77,-2.5,-3.91,210,281,407,465,339
346,0.9,-0.4,0.1,2.44,-4.88,-4.21,209,282,407,465,343
347,0.91,-0.39,0.11,4.58,-3.85,-2.08,211,283,404,464,347
348,0.91,-0.39,0.11,-1.65,-2.69,-2.75,209,282,406,460,341
349,0.91,-0.39,0.12,0.31,-3.05,-1.83,217,283,401,465,345
350,0.92,-0.39,0.12,-0.37,-2.69,0.18,212,285,407,467,344
351,0.93,-0.35,0.18,-6.9,-2.81,10.93,212,285,405,460,344
352,1.01,-0.32,0.15,0.98,-2.99,-2.75,213,282,405,466,343
353,0.94,-0.37,0.03,-1.89,-7.75,-3.23,205,291,408,466,344
354,0.85,-0.44,0.06,-3.36,-3.78,6.59,208,281,405,462,338
355,0.89,-0.45,0.06,-0.18,-3.54,-4.58,210,281,403,463,347
356,0.92,-0.42,0.06,3.91,-1.16,-4.27,210,281,403,456,340
357,0.91,-0.4,0.09,-0.24,0.18,-7.93,214,275,404,453,337
358,0.92,-0.42,0.11,-2.99,-1.59,2.08,210,284,399,462,335
359,0.91,-0.41,0.09,-5.49,-3.85,-5.86,209,282,404,461,341
360,0.93,-0.41,0.1,-0.24,-1.89,-3.42,212,282,404,456,336
361,0.91,-0.41,0.09,-0.43,-2.08,-1.95,211,281,402,455,336
362,0.93,-0.4,0.1,1.59,-3.23,-3.6,211,284,401,452,337
363,0.94,-0.39,0.13,-2.99,-3.23,-1.46,212,285,402,452,341
364,0.89,-0.43,0.09,-2.69,-2.62,-0.67,211,282,400,459,341
365,0.91,-0.42,0.09,-3.48,-4.27,3.97,208,284,397,452,344
366,0.88,-0.4,0.09,-2.26,-2.26,-2.14,211,297,401,450,341
367,0.9,-0.43,0.1,0.49,-3.3,-2.56,207,284,393,453,341
368,0.91,-0.4,0.1,0.12,-3.42,-2.69,211,281,396,452,336
369,0.9,-0.42,0.08,2.5,-2.87,-3.72,210,285,401,452,343
370,0.89,-0.42,0.1,0.79,-5.49,1.04,203,285,399,454,341
371,0.89,-0.44,0.11,-0.49,-3.23,-1.89,212,285,401,454,341
372,0.89,-0.43,0.09,-4.46,-3.11,-5.74,212,284,400,451,340
373,0.9,-0.43,0.1,2.26,-3.78,-4.03,209,282,395,457,338
374,0.88,-0.42,0.14,1.53,0.85,-3.6,211,282,397,459,344
375,0.9,-0.41,0.09,0.61,-3.54,-4.58,210,283,394,451,341
376,0.89,-0.43,0.12,-1.71,-2.38,-2.38,212,289,393,457,344
377,0.88,-0.43,0.08,3.78,-0.79,-4.21,214,278,398,457,344
378,0.88,-0.43,0.08,0.37,-3.6,3.17,209,284,396,458,338
379,0.9,-0.42,0.11,0.55,-1.65,-5.13,210,283,396,460,342
380,0.91,-0.41,0.1,1.4,-3.23,-3.3,213,286,397,455,341
381,0.92,-0.39,0.11,1.28,-3.36,-2.44,214,290,399,458,341
382,0.93,-0.4,0.11,-1.16,-2.32,-4.39,214,284,394,455,342
383,0.9,-0.41,0.11,1.89,-3.36,-4.09,235,283,396,453,344
384,0.91,-0.41,0.11,0.92,-3.11,-4.27,210,283,400,457,347
385,0.91,-0.41,0.13,0.67,-2.01,-2.93,210,281,402,455,343
386,0.91,-0.41,0.12,1.04,-2.32,-2.2,212,284,401,455,339
387,0.9,-0.4,0.14,2.44,-1.34,-1.4,210,284,399,454,344
388,0.91,-0.4,0.13,-1.53,-3.05,-2.93,205,285,396,459,338
389,0.9,-0.41,0.13,-5.13,-2.38,-1.1,211,283,402,453,340
390,0.9,-0.41,0.11,-4.21,-3.6,2.32,212,282,400,452,329
391,0.93,-0.39,0.11,4.15,-2.75,-5.55,214,279,401,458,342
392,0.92,-0.4,0.13,3.05,-3.85,-2.14,213,279,398,466,339
393,0.93,-0.38,0.14,1.22,-3.6,-2.32,216,283,399,470,341
394,0.91,-0.4,0.12,1.4,-2.44,-3.05,211,283,400,460,338
395,0.91,-0.39,0.1,-0.37,-3.11,-1.83,211,276,400,454,340
396,0.92,-0.4,0.11,-0.24,-2.14,-2.44,207,280,402,450,337
397,0.92,-0.4,0.12,-0.12,-2.87,-2.26,212,281,399,449,337
398,0.91,-0.4,0.13,0.37,-2.99,-2.44,207,281,402,440,342
399,0.91,-0.4,0.12,0.85,-3.72,-2.32,214,285,394,441,344
400,0.92,-0.4,0.11,0.67,-3.23,-3.11,212,282,402,438,341
401,0.92,-0.4,0.13,1.59,-2.93,-2.32,210,283,399,449,345
402,0.91,-0.4,0.12,-0.06,-2.38,-2.93,212,281,403,445,344
403,0.91,-0.4,0.12,-0.31,-2.2,-1.65,211,282,404,448,343
404,0.91,-0.39,0.13,1.1,-2.14,-2.87,209,282,403,443,337
405,0.92,-0.39,0.12,0.73,-3.11,-3.6,211,284,404,456,342
406,0.91,-0.39,0.13,0.79,-3.91,-2.69,205,281,402,449,339
407,0.9,-0.38,0.13,-0.43,-2.56,-1.71,211,282,402,454,350
408,0.91,-0.4,0.14,0.12,-3.23,-2.87,208,285,403,448,342
409,0.91,-0.38,0.15,-0.98,-1.65,-1.65,211,280,403,449,342
410,0.91,-0.4,0.1,-5.49,-2.99,-6.1,212,282,406,450,338
411,0.92,-0.38,0.12,1.4,-2.99,-2.93,212,282,397,452,339
412,0.92,-0.38,0.12,-0.55,-2.75,-2.44,211,279,405,451,340
413,0.91,-0.38,0.13,-0.79,-4.33,1.83,212,283,402,452,339
414,0.93,-0.39,0.16,-0.49,-4.27,4.58,213,282,401,449,339
415,0.93,-0.37,0.14,-1.1,-2.32,-0.85,211,280,402,452,338
416,0.91,-0.37,0.12,-0.55,-2.14,-1.83,213,286,401,446,339
417,0.92,-0.39,0.12,0.55,-2.62,-2.26,211,282,404,446,342
418,0.92,-0.37,0.14,-1.04,-3.11,-2.69,213,283,400,449,341
419,0.91,-0.39,0.12,-0.85,-2.44,-1.59,213,281,404,448,343
420,0.92,-0.37,0.12,0.06,-2.93,-2.56,211,281,405,446,339
421,0.93,-0.37,0.13,1.89,-1.83,-2.5,212,282,403,449,344
422,0.93,-0.38,0.14,1.83,-2.69,-2.38,213,281,406,439,340
423,0.91,-0.4,0.12,1.46,-3.17,-2.26,213,282,399,450,344
424,0.91,-0.39,0.13,1.04,-4.82,-0.92,213,279,401,453,344
425,0.93,-0.38,0.1,1.77,-3.48,-3.48,212,283,402,450,339
426,0.9,-0.39,0.14,-1.95,-1.4,-0.85,213,281,401,452,341
427,0.93,-0.36,0.14,-0.24,-4.46,-1.65,215,284,402,448,343
428,0.91,-0.37,0.1,3.48,-1.34,-6.1,212,278,404,448,346
429,0.92,-0.37,0.14,1.1,-2.01,-5.25,212,279,404,451,342
430,0.94,-0.36,0.09,0.79,-1.22,-4.15,205,280,404,451,341
431,0.92,-0.36,0.12,1.04,-2.75,-2.32,209,282,404,444,342
432,0.92,-0.35,0.09,-3.36,-3.17,-1.59,239,282,402,447,338
433,0.93,-0.35,0.15,1.4,-2.32,-3.6,209,282,399,445,337
434,0.93,-0.34,0.12,-1.89,-3.66,-2.99,213,282,406,449,340
435,0.95,-0.33,0.19,2.08,-5.37,-5.86,250,285,402,452,342
436,0.93,-0.31,0.1,-2.14,0.12,-4.52,209,286,402,446,337
437,0.95,-0.31,0.12,-5.43,0.61,-2.26,210,281,403,445,341
438,0.96,-0.28,0.17,-2.32,-2.26,-2.75,206,282,402,445,343
439,0.97,-0.3,0.17,4.88,-2.32,0.12,210,286,402,448,337
440,0.96,-0.3,0.16,0.92,-2.44,0.31,211,282,398,451,340
441,0.92,-0.34,0.14,-3.6,-3.42,-1.04,211,282,398,452,339
442,0.93,-0.34,0.1,0.37,-3.3,-2.99,211,285,402,453,345
443,0.91,-0.35,0.11,-1.65,-2.32,-3.85,213,282,400,449,341
444,0.92,-0.35,0.15,3.54,-3.11,-3.11,212,283,403,445,340
445,0.95,-0.32,0.15,3.6,-2.44,-3.42,221,282,405,445,344
446,0.92,-0.34,0.13,-0.61,-2.87,-1.16,211,283,403,444,340
447,0.93,-0.33,0.15,0.92,-2.44,-2.87,224,284,404,448,341
448,0.94,-0.34,0.16,0.06,-2.32,-2.26,213,284,403,449,339
449,0.94,-0.34,0.15,0.49,-2.99,-2.26,212,288,399,442,341
450,0.93,-0.33,0.14,1.59,-3.42,-2.69,214,282,403,446,342
451,0.94,-0.33,0.14,0.12,-3.3,-2.5,214,285,400,449,343
452,0.93,-0.34,0.14,-0.06,-3.05,-2.44,214,288,402,449,340
453,0.94,-0.33,0.18,2.5,-1.83,0.92,207,282,402,447,338
454,0.92,-0.36,0.13,-0.24,-2.62,-3.48,211,287,402,450,342
455,0.92,-0.35,0.13,-1.59,-3.05,-1.1,211,289,403,440,342
456,0.92,-0.36,0.15,0.79,-2.62,-1.89,213,283,405,448,348
457,0.93,-0.33,0.15,3.54,-3.78,-3.05,210,277,404,445,337
458,0.94,-0.33,0.14,-0.43,-2.32,-6.35,210,284,402,447,340
459,0.93,-0.34,0.14,-2.2,-2.99,-2.38,215,281,402,451,342
460,0.93,-0.33,0.15,0.0,-2.62,-3.6,242,288,403,452,343
461,0.93,-0.34,0.15,1.34,-1.89,-3.91,213,282,401,446,341
462,0.94,-0.34,0.16,0.18,-2.14,-2.26,206,284,402,442,342
463,0.94,-0.33,0.15,0.49,-3.48,-2.26,214,286,402,453,346
464,0.93,-0.33,0.14,-0.61,-2.32,-1.53,206,285,403,451,339
465,0.94,-0.33,0.15,-1.1,-3.17,-1.28,213,285,403,447,345
466,0.97,-0.32,0.14,0.43,-3.66,-4.46,209,282,402,447,335
467,0.92,-0.35,0.13,0.55,-2.75,-4.33,211,286,401,448,341
468,0.93,-0.34,0.14,-1.59,-2.81,-2.75,210,285,402,440,339
469,0.93,-0.33,0.15,0.18,-1.04,-4.82,206,284,405,444,343
470,0.96,-0.3,0.18,0.73,-2.81,-2.5,210,288,398,450,345
471,0.94,-0.32,0.17,-0.92,-2.81,-1.04,215,283,403,453,342
472,0.94,-0.32,0.17,-0.79,-4.21,-1.77,209,283,402,442,341
473,0.96,-0.32,0.14,-0.31,-2.75,-0.85,210,287,402,450,344
474,0.96,-0.33,0.16,-3.72,-2.2,1.95,210,286,403,449,339
475,0.95,-0.34,0.16,-3.66,-2.2,-1.46,220,289,402,451,342
476,0.89,-0.38,0.16,4.15,-5.13,-3.78,213,285,404,444,341
477,0.92,-0.37,0.14,2.75,-2.5,-3.78,213,282,404,452,338
478,0.92,-0.36,0.13,2.01,-3.66,-1.28,214,283,403,452,341
479,0.92,-0.36,0.13,0.31,-1.95,-1.83,212,287,402,443,343
480,0.92,-0.36,0.14,0.49,-2.69,-2.32,211,281,398,444,345
481,0.91,-0.37,0.15,-1.4,-2.44,-1.89,210,286,401,446,342
482,0.93,-0.37,0.13,1.1,-1.46,-3.11,215,287,400,444,345
483,0.96,-0.33,0.14,-3.05,-3.91,-0.92,212,281,403,449,341
484,0.93,-0.35,0.14,-2.2,-2.69,-2.08,221,283,402,453,344
485,0.96,-0.33,0.15,3.23,-3.11,-3.05,214,284,401,450,345
486,0.93,-0.33,0.16,-1.95,-2.14,-1.77,212,286,401,451,338
487,0.92,-0.35,0.12,1.83,-1.77,-6.65,217,283,404,452,345
488,0.93,-0.35,0.13,2.2,-3.48,-3.42,211,288,401,449,335
489,0.91,-0.36,0.13,-2.69,-2.87,-1.04,216,284,400,448,343
490,0.96,-0.33,0.15,3.72,-4.94,-2.5,211,284,399,451,342
491,0.92,-0.38,0.09,1.34,-8.91,-0.37,211,283,403,448,341
492,0.93,-0.4,0.13,-4.64,-6.23,1.1,213,285,401,453,340
493,0.9,-0.4,0.12,6.96,2.44,-1.34,214,287,401,448,343
494,0.92,-0.4,0.16,1.89,-3.23,1.59,212,285,400,450,338
495,0.92,-0.36,0.17,1.04,-2.01,2.32,212,285,405,447,342
496,0.94,-0.4,0.14,5.86,-10.31,0.31,211,285,397,444,341
497,0.89,-0.44,0.11,1.71,-2.44,2.56,214,286,403,448,346
498,0.86,-0.47,0.06,0.06,-4.52,-2.81,207,286,405,449,342
499,0.91,-0.43,0.11,0.55,-0.67,-5.25,210,284,401,448,340
500,0.91,-0.41,0.14,-0.43,0.55,-2.75,209,282,397,449,340
501,0.91,-0.4,0.15,1.1,-3.17,-2.38,212,284,406,442,344
502,0.89,-0.42,0.13,1.46,-2.81,-1.53,209,284,401,444,342
503,0.91,-0.41,0.11,0.06,-1.65,-3.17,216,283,404,443,339
504,0.9,-0.41,0.12,1.89,-2.87,-1.46,214,281,404,448,345
505,0.9,-0.4,0.12,0.98,-1.04,-3.05,215,287,402,444,343
506,0.92,-0.39,0.16,-0.49,-2.38,-1.4,213,285,402,449,340
507,0.85,-0.44,0.13,-1.95,0.24,-5.55,212,281,397,445,345
508,0.89,-0.36,0.11,1.1,-6.16,1.16,214,282,399,452,344
509,0.92,-0.36,0.14,-5.19,-7.81,4.27,210,291,399,448,344
510,0.92,-0.44,0.02,6.04,-4.64,-9.83,213,284,402,448,341
511,0.86,-0.44,0.08,5.74,-1.77,4.46,209,283,402,450,342
512,0.89,-0.45,0.09,-2.38,-4.27,-4.52,212,283,402,450,341
513,0.87,-0.47,0.03,-2.93,-1.71,-7.14,212,284,401,450,342
514,0.92,-0.4,0.04,-5.07,-4.33,-2.99,217,285,399,443,342
515,0.95,-0.4,0.09,8.3,-5.07,0.0,209,285,403,451,341
516,0.9,-0.45,0.0,2.93,-0.49,-6.1,215,283,403,446,340
517,0.95,-0.39,0.07,0.92,-5.98,-4.58,211,283,399,451,340
518,0.89,-0.46,0.03,0.79,-2.38,-6.59,217,285,401,450,340
519,0.91,-0.41,0.02,0.37,-1.04,-4.33,211,283,402,448,348
520,0.92,-0.39,0.06,-0.67,-2.87,-2.75,216,284,399,449,343
521,0.92,-0.41,0.04,0.55,-2.44,-2.81,207,284,403,446,341
522,0.92,-0.4,0.05,0.61,-3.17,-1.65,211,283,400,446,347
523,0.91,-0.4,0.03,-2.01,-1.77,-1.34,213,284,399,441,340
524,0.9,-0.42,0.05,-0.12,-2.26,-3.17,212,285,402,450,341
525,0.9,-0.41,0.05,-3.23,-4.64,-1.16,214,285,397,449,341
526,0.93,-0.4,0.03,-2.26,-0.18,-0.61,210,290,401,441,344
527,0.89,-0.41,0.06,2.99,-1.89,-9.4,210,280,403,451,345
528,0.94,-0.35,0.01,-6.84,1.89,-4.76,210,286,396,448,344
529,0.95,-0.37,0.09,0.06,8.91,-10.13,215,285,400,452,344
530,0.93,-0.31,0.16,4.27,-0.31,-9.83,211,285,402,449,343
531,0.97,-0.3,0.15,-1.83,-3.78,1.59,215,284,397,453,339
532,0.93,-0.33,0.13,-0.37,-5.0,-0.49,213,284,397,452,343
533,0.95,-0.33,0.13,-0.37,-4.46,-0.55,205,282,403,445,344
534,0.94,-0.36,0.11,-0.06,-5.37,-0.85,211,284,401,448,347
535,0.92,-0.39,0.09,1.59,-4.82,-2.56,211,289,403,453,340
536,0.9,-0.41,0.1,-0.18,-2.38,-1.04,211,282,401,447,341
537,0.91,-0.4,0.09,-0.31,-3.17,-3.66,213,284,402,448,344
538,0.93,-0.37,0.11,2.38,-3.17,-3.85,213,284,401,449,346
539,0.9,-0.41,0.13,1.16,-2.81,-0.43,211,282,400,446,341
540,0.92,-0.39,0.11,-0.49,-3.3,-1.77,210,281,401,442,346
541,0.92,-0.39,0.1,0.49,-1.95,0.06,214,281,399,449,344
542,0.93,-0.39,0.08,-1.28,-1.34,-4.76,204,283,402,449,343
543,0.87,-0.46,0.1,1.34,-3.3,-5.92,194,277,437,461,343
544,0.9,-0.43,0.1,4.52,-1.53,-7.14,198,274,438,466,344
545,0.9,-0.41,0.13,-0.06,-0.73,-4.46,192,266,437,459,340
546,0.91,-0.41,0.14,-0.67,-1.77,-2.62,198,270,433,453,342
547,0.92,-0.39,0.14,0.67,-2.38,-3.05,197,277,436,463,343
548,0.91,-0.4,0.13,-1.16,-3.3,-2.2,202,271,433,457,351
549,0.89,-0.41,0.13,0.31,-3.72,-2.38,194,268,433,453,343
550,0.9,-0.4,0.1,0.73,-2.56,-2.5,198,266,434,454,345
551,0.91,-0.41,0.13,-1.16,-4.09,-1.89,194,271,433,458,342
552,0.9,-0.42,0.12,-0.12,-1.95,-0.67,200,267,431,456,340
553,0.89,-0.43,0.11,0.92,-5.43,1.22,194,275,432,457,344
554,0.92,-0.41,0.11,-0.06,-2.08,-1.4,198,270,432,464,344
555,0.9,-0.42,0.1,-0.85,-3.17,-1.04,199,270,431,455,344
556,0.9,-0.42,0.12,2.32,-0.06,-3.91,214,270,430,449,343
557,0.92,-0.41,0.11,-0.43,-2.44,-2.44,198,269,430,463,342
558,0.9,-0.42,0.12,0.43,-3.6,-2.5,191,273,433,459,347
559,0.91,-0.4,0.11,-1.28,-2.32,-2.5,202,275,431,460,346
560,0.87,-0.44,0.11,-1.1,-2.75,-3.85,198,271,432,458,342
561,0.9,-0.42,0.12,-0.18,-1.95,-5.31,200,276,432,460,348
562,0.88,-0.43,0.13,-3.23,-1.1,-1.16,200,273,427,455,347
563,0.9,-0.41,0.11,-2.08,-3.05,0.73,199,277,430,459,345
564,0.91,-0.42,0.12,1.65,-4.09,-2.93,199,278,430,460,342
565,0.89,-0.44,0.1,1.53,-3.91,-0.73,201,275,425,458,344
566,0.88,-0.45,0.1,-2.26,-2.87,0.37,198,274,428,455,343
567,0.89,-0.43,0.09,0.12,-4.46,-1.04,206,274,427,467,345
568,0.91,-0.43,0.1,3.48,-3.91,-5.55,200,278,431,462,344
569,0.91,-0.42,0.11,3.85,-3.54,-3.36,200,275,429,461,341
570,0.89,-0.44,0.1,0.43,-3.54,-2.26,203,277,425,465,340
571,0.9,-0.42,0.12,5.31,-3.72,-4.21,200,277,434,463,343
572,0.9,-0.42,0.1,1.1,-1.22,-5.49,200,280,431,460,345
573,0.91,-0.44,0.1,2.44,-2.5,-1.16,204,278,428,462,343
574,0.89,-0.42,0.1,0.43,-3.78,-3.42,206,273,426,464,342
575,0.9,-0.44,0.09,-0.31,-3.17,-3.42,202,279,422,460,344
576,0.9,-0.42,0.1,0.31,-3.05,-1.1,208,276,431,465,344
577,0.9,-0.49,0.11,-1.4,-2.75,-4.33,203,279,427,458,343
578,0.9,-0.44,0.1,-2.56,-4.27,-1.89,205,276,430,461,349
579,0.9,-0.44,0.1,-1.95,-0.37,-2.62,208,276,422,455,342
580,0.9,-0.42,0.09,3.05,-3.05,-2.99,203,278,421,460,342
581,0.89,-0.45,0.09,-0.79,-2.93,-2.81,203,277,423,459,339
582,0.9,-0.43,0.1,3.36,-4.76,-3.3,200,273,420,449,341
583,0.9,-0.44,0.1,0.0,-2.62,-2.81,203,279,424,457,342
584,0.9,-0.44,0.09,2.38,-2.62,-3.85,200,279,422,460,341
585,0.89,-0.44,0.1,0.49,-2.14,-2.08,203,273,419,456,341
586,0.89,-0.45,0.1,0.61,-4.64,-2.99,198,282,425,449,341
587,0.89,-0.45,0.1,-1.77,-3.36,-3.85,199,279,421,458,343
588,0.9,-0.45,0.09,0.49,-3.05,-1.89,205,287,420,459,339
589,0.88,-0.46,0.07,0.85,-2.08,-3.91,205,277,424,459,344
590,0.89,-0.45,0.09,-1.46,-2.62,-0.92,201,279,424,466,343
591,0.9,-0.43,0.1,1.65,-3.11,-2.62,196,281,423,459,345
592,0.9,-0.44,0.09,-1.04,-3.23,-2.5,208,278,424,464,344
593,0.91,-0.44,0.1,0.49,-2.93,-2.5,203,279,422,462,338
594,0.9,-0.44,0.11,2.38,-1.89,-3.85,202,278,422,462,342
595,0.9,-0.43,0.1,-2.44,-1.53,-3.54,205,276,424,462,347
596,0.9,-0.43,0.11,0.61,-2.99,-3.05,203,277,423,464,343
597,0.89,-0.43,0.09,-0.67,-3.42,-4.39,204,278,422,465,343
598,0.91,-0.43,0.1,0.06,-2.5,-3.05,206,279,422,462,346
599,0.91,-0.41,0.1,2.87,-3.11,-4.03,203,275,422,461,341
600,0.91,-0.42,0.11,0.0,-2.14,-2.38,204,278,422,460,343
601,0.9,-0.42,0.1,-0.55,-0.31,-2.56,204,280,422,463,340
602,0.91,-0.41,0.12,1.34,-2.93,-2.69,198,277,424,464,339
603,0.9,-0.41,0.11,0.31,-2.32,-1.95,203,274,423,461,345
604,0.91,-0.41,0.11,-0.06,-2.38,-2.81,202,283,422,464,344
605,0.91,-0.41,0.11,-0.18,-2.44,-3.23,201,277,422,458,343
606,0.91,-0.41,0.1,0.98,-3.05,-2.87,202,278,414,460,343
607,0.91,-0.41,0.11,1.34,-4.09,-2.56,205,277,425,459,343
608,0.91,-0.41,0.11,0.61,-2.81,-2.26,197,276,421,463,343
609,0.91,-0.42,0.11,0.43,-2.2,-2.99,203,278,421,464,341
610,0.91,-0.41,0.11,0.0,-2.38,-3.48,201,279,417,459,342
611,0.91,-0.4,0.12,-0.79,-2.5,-3.05,203,278,419,455,343
612,0.92,-0.39,0.09,2.2,-3.3,-8.48,204,280,423,462,341
613,0.91,-0.39,0.12,1.4,-3.85,-6.04,204,277,418,461,341
614,0.9,-0.39,0.12,1.1,-2.62,-2.44,198,277,415,465,342
615,0.94,-0.36,0.13,-0.73,-1.83,-2.62,219,280,418,464,341
616,0.91,-0.38,0.13,-3.91,2.2,-2.2,205,276,421,462,343
617,0.93,-0.35,0.16,4.39,-3.17,-0.43,211,280,416,459,338
618,0.99,-0.3,0.11,-5.49,-10.07,-2.69,202,280,418,462,341
619,0.89,-0.42,0.1,-2.2,0.31,-5.07,209,278,419,464,339
620,0.94,-0.36,0.09,4.27,-1.34,-2.44,214,274,416,463,343
621,0.95,-0.37,0.09,2.75,-2.93,-2.87,204,273,419,459,342
622,0.9,-0.4,0.14,2.2,-5.31,-0.73,205,279,417,460,344
623,0.93,-0.4,0.12,2.14,-1.89,-0.31,203,276,414,461,343
624,0.89,-0.44,0.1,3.66,-5.43,-1.83,206,280,421,462,335
625,0.92,-0.41,0.11,-0.06,-2.62,-3.3,200,271,417,460,350
626,0.88,-0.44,0.13,-0.73,-3.48,-2.69,204,280,418,468,344
627,0.89,-0.44,0.17,1.28,-4.7,-0.92,203,277,419,465,345
628,0.91,-0.43,0.08,0.12,-0.73,-1.95,205,279,422,454,340
629,0.93,-0.41,0.16,-4.46,-3.72,5.31,203,278,420,455,343
630,0.88,-0.47,0.14,2.01,-5.13,0.31,197,276,421,464,339
631,0.85,-0.5,0.12,1.77,-5.68,-3.11,212,278,422,462,341
632,0.85,-0.46,0.16,-7.02,-10.13,-6.65,201,278,418,457,341
633,0.87,-0.49,0.02,-5.31,-8.97,1.89,209,278,418,462,345
634,0.91,-0.48,-0.05,-4.03,-0.79,-5.68,202,277,416,460,341
635,0.91,-0.46,-0.04,2.5,-5.43,-3.91,203,277,412,457,341
636,0.87,-0.46,-0.02,1.46,-7.32,-2.5,201,280,416,461,344
637,0.83,-0.49,-0.1,-3.36,3.78,-5.07,205,281,417,459,343
638,0.9,-0.44,-0.03,-3.05,-1.95,-2.75,204,279,411,460,342
639,0.93,-0.42,-0.01,-0.24,-2.62,-4.76,203,278,415,460,341
640,0.86,-0.49,-0.04,-1.95,-3.85,-3.48,207,278,416,459,342
641,0.91,-0.43,-0.05,0.06,-1.83,-3.48,203,280,412,457,342
642,0.89,-0.44,-0.05,2.99,-4.82,-1.04,204,281,417,454,344
643,0.89,-0.45,-0.06,0.67,-3.17,-2.14,206,280,413,455,338
644,0.89,-0.45,-0.05,-0.24,-2.81,-1.89,204,274,415,446,345
645,0.89,-0.44,-0.05,-0.92,-2.14,-1.22,204,281,420,463,339
646,0.89,-0.44,-0.05,0.0,-2.56,-3.48,205,275,415,443,341
647,0.9,-0.44,-0.05,-1.1,-3.6,-2.26,205,283,416,460,333
648,0.89,-0.44,-0.04,-1.1,-2.69,-1.95,203,282,414,459,346
649,0.9,-0.44,-0.05,-0.12,-3.05,-1.89,203,279,408,453,340
650,0.9,-0.44,-0.05,0.06,-3.3,-2.5,202,276,415,448,343
651,0.9,-0.43,-0.05,0.06,-3.11,-2.69,202,275,416,460,344
652,0.91,-0.43,-0.03,0.37,-2.44,-1.83,203,280,413,458,346
653,0.9,-0.44,-0.04,0.92,-3.91,-2.01,204,282,413,458,339
654,0.91,-0.43,-0.04,-0.31,-2.69,-2.01,206,279,417,458,344
655,0.92,-0.43,-0.03,0.06,-2.56,-1.71,209,281,425,449,339
656,0.89,-0.46,-0.02,0.55,-2.87,-2.87,204,276,411,457,342
657,0.87,-0.47,-0.04,-1.34,1.77,-5.0,209,279,415,462,341
658,0.91,-0.45,-0.04,-1.16,-2.87,-1.4,201,281,414,455,343
659,0.88,-0.47,-0.05,1.34,-3.48,-2.44,209,279,407,456,343
660,0.89,-0.46,-0.04,0.24,-2.75,-3.3,198,278,415,461,340
661,0.9,-0.45,-0.02,-0.31,-3.3,-1.53,202,274,415,459,341
662,0.9,-0.44,-0.05,4.46,-3.42,-4.88,201,281,417,454,344
663,0.9,-0.45,-0.04,1.4,-4.76,-2.99,202,280,414,456,345
664,0.88,-0.46,-0.03,0.67,-2.32,-2.5,207,277,412,457,343
665,0.9,-0.44,-0.03,-1.04,-1.53,-3.11,207,281,412,457,341
666,0.91,-0.43,-0.03,0.12,-2.26,-5.62,231,279,413,459,344
667,0.88,-0.46,-0.05,-0.98,-4.76,-3.91,198,282,414,462,338
668,0.92,-0.41,0.0,3.42,-2.2,-7.26,204,282,411,456,343
669,0.89,-0.4,-0.04,-2.5,0.67,-4.03,205,281,411,458,341
670,0.85,-0.44,-0.0,-5.49,0.55,-1.83,209,282,410,455,343
671,0.89,-0.41,-0.01,0.37,-2.69,-5.55,194,283,410,458,341
672,0.94,-0.41,0.05,-4.39,-1.46,2.5,203,278,413,455,346
673,0.91,-0.42,0.03,-1.04,-2.01,-1.46,210,282,414,459,341
674,0.91,-0.42,0.05,3.11,-0.55,-2.38,205,280,416,456,341
675,0.9,-0.42,0.04,0.31,-2.01,-2.99,202,278,413,458,339
676,0.92,-0.4,0.06,-0.61,-4.39,-2.26,203,279,416,453,341
677,0.89,-0.42,0.04,0.31,-3.48,-1.77,204,281,412,456,344
678,0.94,-0.39,0.03,-1.04,-2.56,-2.56,206,280,412,471,345
679,0.91,-0.41,0.02,-2.87,-2.99,-3.17,202,280,405,455,344
680,0.89,-0.44,0.04,-4.33,-2.62,-2.93,205,275,410,459,343
681,0.92,-0.41,0.02,2.56,-2.81,-0.31,205,279,414,456,343
682,0.89,-0.46,-0.0,6.16,-1.77,3.17,208,284,413,458,345
683,0.88,-0.45,0.02,-2.69,-4.46,-1.34,204,278,414,453,343
684,0.89,-0.45,0.05,-1.28,-2.99,-1.28,203,277,412,463,344
685,0.9,-0.45,0.04,2.87,-1.1,-2.69,209,281,409,452,345
686,0.9,-0.43,0.05,-1.89,-2.56,-3.17,203,284,415,457,343
687,0.91,-0.42,0.06,-0.98,-2.62,-3.17,217,282,411,458,339
688,0.9,-0.43,0.05,-0.85,-4.76,-3.05,204,282,412,452,342
689,0.91,-0.43,0.05,-0.49,-4.58,-2.62,205,278,415,457,342
690,0.91,-0.43,0.05,0.79,-2.81,-2.44,207,283,414,459,340
691,0.9,-0.43,0.04,0.85,-2.75,-4.21,209,277,412,460,339
692,0.91,-0.42,0.05,0.31,-3.17,-3.66,205,276,412,457,344
693,0.9,-0.43,0.04,1.16,-2.62,-2.5,197,281,412,458,341
694,0.9,-0.43,0.05,0.49,-2.26,-2.32,207,283,413,459,339
695,0.91,-0.43,0.05,0.37,-2.38,-1.77,205,280,409,460,343
696,0.9,-0.44,0.04,-0.85,-3.72,-2.75,207,281,409,461,342
697,0.89,-0.43,0.04,1.89,-2.87,-3.6,217,284,410,458,346
698,0.91,-0.43,0.06,0.92,-2.75,0.79,204,277,412,459,343
699,0.9,-0.44,0.06,-0.79,-2.01,-2.26,199,282,415,452,341
700,0.9,-0.43,0.05,-0.31,-3.11,-2.5,206,279,411,457,341
701,0.9,-0.43,0.07,0.06,-1.95,-2.32,202,276,411,458,343
702,0.91,-0.43,0.06,-0.18,-3.05,-0.49,197,284,415,451,346
703,0.9,-0.44,0.06,1.4,-3.3,-1.89,207,280,411,460,343
704,0.9,-0.45,0.05,1.04,-2.14,-3.72,204,279,410,461,343
705,0.9,-0.44,0.07,1.16,-3.05,-2.87,208,283,410,457,344
706,0.9,-0.44,0.05,0.67,-2.81,-2.08,206,277,410,454,343
707,0.9,-0.44,0.04,-2.2,-3.72,-0.37,206,285,411,457,343
708,0.91,-0.44,0.07,-2.69,-3.36,-1.4,208,285,416,453,343
709,0.89,-0.45,0.06,-0.24,-3.48,-3.17,209,280,410,457,346
710,0.91,-0.44,0.07,1.22,-3.42,-3.11,203,281,411,467,343
711,0.9,-0.45,0.05,2.87,-2.44,-3.66,206,290,409,461,339
712,0.9,-0.44,0.04,-0.06,-2.75,-1.77,203,282,409,455,340
713,0.9,-0.43,0.04,0.0,-2.99,-2.69,206,280,412,456,343
714,0.9,-0.44,0.04,0.24,-2.2,-3.97,208,279,411,453,342
715,0.88,-0.45,0.04,0.67,-2.38,-4.52,203,284,408,458,343
716,0.89,-0.45,0.03,1.95,-0.55,-2.44,208,283,412,456,342
717,0.87,-0.45,0.04,-0.85,1.16,-5.13,203,278,413,456,342
718,0.9,-0.41,0.04,0.73,-2.2,-10.44,208,281,410,456,340
719,0.87,-0.44,0.09,-1.59,-0.85,-4.82,206,278,407,458,344
720,0.91,-0.41,0.09,0.73,-5.13,-6.59,209,281,414,458,351
721,0.92,-0.38,0.12,1.28,-4.52,-0.37,205,281,408,457,348
722,0.91,-0.39,0.09,2.32,-4.03,1.53,206,279,413,457,343
723,0.94,-0.36,0.13,2.01,-2.2,1.65,206,276,408,453,342
724,0.97,-0.33,0.13,8.12,-0.49,-14.59,207,282,411,459,342
725,0.95,-0.37,0.06,-2.62,11.11,-11.9,205,287,408,459,343
726,0.93,-0.37,0.1,-5.49,0.49,-0.61,208,283,410,457,343
727,0.92,-0.37,0.11,2.81,-4.27,0.73,202,282,411,456,339
728,0.93,-0.36,0.13,7.08,-3.05,-11.05,204,279,410,457,339
729,0.91,-0.38,0.16,-2.62,5.37,-3.36,203,276,409,462,341
730,0.93,-0.36,0.15,-5.07,-3.6,-0.12,205,278,410,454,341
731,0.91,-0.38,0.14,-1.34,-1.46,-2.93,206,280,410,456,337
732,0.94,-0.33,0.14,1.34,-3.17,-3.23,219,278,409,458,340
733,0.94,-0.35,0.15,0.06,-1.71,-1.04,206,278,408,459,339
734,0.94,-0.34,0.14,-0.49,-3.42,-4.33,210,278,413,461,336
735,0.94,-0.33,0.15,-4.88,-4.88,2.32,207,279,412,452,340
736,0.94,-0.34,0.11,-3.78,-4.21,-3.05,207,278,412,461,338
737,0.91,-0.38,0.14,-1.04,-5.74,-0.55,203,278,405,459,340
738,0.94,-0.36,0.13,-2.38,-6.35,3.72,208,278,406,473,336
739,0.91,-0.41,0.1,-1.1,-3.23,-4.46,210,282,409,456,341
740,0.89,-0.42,0.08,1.22,-1.16,-2.69,207,290,414,461,339
741,0.91,-0.39,0.09,-0.37,-3.66,-3.97,202,283,409,457,341
742,0.91,-0.4,0.1,1.89,-3.17,-1.83,205,282,411,452,340
743,0.92,-0.4,0.1,-1.28,-2.2,-1.77,231,281,411,456,341
744,0.91,-0.41,0.09,-0.73,-3.17,-2.5,205,280,411,460,340
745,0.92,-0.4,0.1,-0.24,-2.93,-1.71,205,280,411,451,338
746,0.94,-0.38,0.12,-0.37,-2.93,-1.04,207,279,409,451,338
747,0.92,-0.4,0.09,0.79,-2.93,-3.11,208,279,412,454,344
748,0.92,-0.41,0.1,-0.31,-2.69,-3.17,202,281,408,454,343
749,0.91,-0.41,0.11,0.31,-1.59,-1.4,209,284,408,452,341
750,0.91,-0.4,0.09,0.12,-3.66,-2.26,204,277,408,459,341
751,0.9,-0.41,0.1,-1.95,-2.01,-0.55,203,279,413,455,342
752,0.92,-0.41,0.09,0.92,-3.85,-2.75,230,281,405,456,340
753,0.92,-0.4,0.08,-0.31,-1.83,-2.56,205,279,408,455,343
754,0.89,-0.42,0.12,2.2,-2.08,-4.88,207,280,406,455,344
755,0.93,-0.4,0.09,0.55,-5.0,-3.54,209,281,409,451,341
756,0.92,-0.39,0.1,0.67,-2.93,-4.64,207,282,407,456,338
757,0.91,-0.4,0.1,4.46,-3.42,-3.91,207,282,409,453,345
758,0.91,-0.41,0.11,0.79,-2.44,-2.69,208,274,410,453,345
759,0.92,-0.41,0.1,0.37,-2.2,-3.17,207,284,406,461,344
760,0.91,-0.41,0.1,1.59,-2.62,-2.99,211,282,409,457,335
761,0.91,-0.4,0.1,-1.34,-2.01,-2.44,206,275,403,457,341
762,0.91,-0.41,0.11,1.16,-2.93,-3.6,205,278,410,456,340
763,0.92,-0.4,0.11,0.92,-3.6,-1.77,208,281,408,456,338
764,0.92,-0.41,0.09,-3.05,-3.6,-2.38,208,284,410,466,338
765,0.89,-0.42,0.13,-0.61,-2.38,-1.83,205,280,412,457,342
766,0.9,-0.4,0.1,0.67,-2.62,-2.08,209,282,409,459,344
767,0.9,-0.41,0.13,2.01,-4.7,-1.53,202,280,421,465,338
768,0.91,-0.42,0.1,2.87,-3.3,-2.87,209,284,411,459,340
769,0.9,-0.42,0.11,-1.04,-2.81,-2.93,204,280,412,465,341
770,0.94,-0.39,0.09,-1.59,-3.91,-4.52,200,285,425,466,341
771,0.91,-0.41,0.11,-0.06,-2.32,-2.44,207,274,411,464,336
772,0.91,-0.4,0.11,-1.22,-2.44,-2.99,208,284,414,461,342
773,0.92,-0.4,0.13,3.23,-2.87,-4.27,204,279,416,462,338
774,0.91,-0.4,0.13,2.2,-3.17,-3.3,204,288,411,464,340
775,0.92,-0.4,0.12,-0.12,-3.42,-1.83,206,286,413,464,337
776,0.92,-0.4,0.12,1.4,-2.69,-2.32,208,279,413,461,341
777,0.92,-0.4,0.12,0.49,-2.81,-3.42,204,278,414,463,340
778,0.92,-0.4,0.11,0.55,-2.75,-2.75,207,280,414,466,341
779,0.92,-0.4,0.13,-0.31,-3.05,-2.56,210,279,417,459,340
780,0.92,-0.39,0.12,-0.85,-3.17,-2.14,210,283,414,466,341
781,0.92,-0.39,0.13,0.98,-3.3,-2.26,199,273,415,464,339
782,0.9,-0.41,0.1,-0.06,-2.62,-3.05,212,279,413,466,339
783,0.9,-0.41,0.11,2.56,-3.23,-2.93,206,283,414,465,342
784,0.92,-0.4,0.13,1.4,-2.93,-2.81,205,281,413,462,341
785,0.91,-0.4,0.12,-1.1,-2.56,-2.56,207,279,412,459,340
786,0.91,-0.4,0.12,0.24,-3.05,-2.81,210,275,413,464,340
787,0.92,-0.4,0.11,0.55,-2.93,-2.69,207,276,409,466,342
788,0.92,-0.41,0.12,0.79,-2.99,-2.75,209,279,411,469,341
789,0.91,-0.41,0.12,-0.12,-2.62,-2.69,205,277,412,466,337
790,0.91,-0.4,0.12,0.12,-3.66,-2.08,206,280,411,466,339
791,0.92,-0.4,0.12,0.18,-2.93,-2.14,204,274,408,461,342
792,0.91,-0.41,0.1,0.98,-2.14,-2.26,210,278,412,481,341
793,0.91,-0.41,0.1,-0.92,-3.23,-2.62,209,282,409,459,340
794,0.93,-0.39,0.13,1.22,-3.05,-2.93,202,284,415,459,338
795,0.92,-0.4,0.12,-0.12,-2.87,-2.01,202,286,413,462,341
796,0.91,-0.41,0.11,0.06,-2.75,-2.38,206,281,414,467,343
797,0.91,-0.41,0.12,-0.12,-3.05,-2.56,213,277,412,463,337
798,0.91,-0.4,0.12,0.61,-3.11,-3.23,209,279,413,464,344
799,0.92,-0.4,0.13,1.59,-3.42,-2.69,208,281,408,459,339
800,0.91,-0.41,0.11,0.55,-3.05,-2.56,208,277,413,470,339
801,0.92,-0.39,0.11,1.71,-2.99,-2.08,210,281,415,464,343
802,0.92,-0.4,0.11,-0.18,-2.56,-2.69,207,281,411,464,341
803,0.9,-0.41,0.1,0.18,-2.99,-1.46,206,277,414,465,341
804,0.9,-0.41,0.12,-1.89,-2.75,-0.18,207,279,415,465,340
805,0.91,-0.4,0.1,-0.55,-2.38,-2.99,211,285,410,463,343
806,0.91,-0.4,0.12,0.06,-4.27,-0.98,208,281,410,462,341
807,0.93,-0.39,0.11,-0.85,-3.05,-0.43,201,280,411,468,337
808,0.9,-0.42,0.08,-1.46,-2.93,-2.38,210,281,412,471,339
809,0.91,-0.4,0.07,1.53,-2.87,-3.78,203,283,409,465,342
810,0.9,-0.42,0.1,1.95,-3.91,-6.23,206,285,412,470,340
811,0.9,-0.43,0.11,-2.08,-2.44,-1.04,206,278,413,467,342
812,0.88,-0.44,0.16,5.49,-2.38,0.31,208,284,410,466,341
813,0.9,-0.43,0.13,-5.49,-1.53,-0.06,210,282,413,468,343
814,0.93,-0.41,0.13,-4.46,-3.11,-0.85,214,286,411,466,340
815,0.91,-0.41,0.12,1.59,-2.38,-2.08,210,282,409,463,341
816,0.92,-0.4,0.12,1.53,-2.99,-3.17,209,285,411,466,343
817,0.9,-0.41,0.11,0.85,-3.05,-1.83,210,278,416,468,340
818,0.9,-0.41,0.11,-0.37,-2.69,-2.26,213,279,410,465,341
819,0.9,-0.4,0.13,-0.24,-3.05,-2.14,206,277,411,457,340
820,0.92,-0.4,0.11,-1.95,-2.56,0.06,209,280,414,468,344
821,0.92,-0.4,0.11,1.83,-2.93,-3.85,204,283,414,463,339
822,0.91,-0.41,0.1,0.12,-2.2,-2.44,208,276,408,468,340
823,0.89,-0.42,0.11,-0.79,-2.44,-0.43,205,284,407,468,346
824,0.91,-0.41,0.1,-0.98,-3.72,-3.11,203,282,414,469,341
825,0.92,-0.4,0.12,-0.61,-2.32,-2.2,203,282,402,468,345
826,0.87,-0.44,0.12,0.18,-1.34,-2.69,207,280,408,465,344
827,0.9,-0.41,0.11,-1.59,-3.85,-0.43,208,282,409,464,339
828,0.9,-0.42,0.11,-0.67,-3.05,-2.32,208,285,408,465,342
829,0.92,-0.4,0.12,-0.37,-3.3,-3.11,217,284,408,466,344
830,0.92,-0.41,0.12,-0.12,-3.3,-1.59,209,278,410,466,345
831,0.92,-0.39,0.1,0.0,-4.03,-1.89,207,280,406,461,341
832,0.92,-0.4,0.12,1.46,-2.62,-2.87,206,281,413,464,342
833,0.9,-0.41,0.1,1.71,-3.05,-1.89,204,278,412,469,345
834,0.91,-0.41,0.11,-0.49,-2.99,-1.89,201,285,411,463,343
835,0.9,-0.41,0.12,0.49,-2.75,-1.59,207,284,414,464,347
836,0.91,-0.41,0.12,2.69,-2.14,-3.6,212,282,403,465,346
837,0.91,-0.41,0.11,-1.28,-3.17,-1.34,205,283,411,467,342
838,0.9,-0.42,0.1,0.49,-2.56,-5.07,208,283,416,470,345
839,0.91,-0.41,0.12,0.18,-3.23,-1.4,206,281,415,464,342
840,0.91,-0.41,0.1,0.31,-3.3,-1.59,197,282,410,465,342
841,0.91,-0.41,0.11,1.04,-2.44,-2.81,237,284,414,468,341
842,0.91,-0.41,0.11,-1.53,-3.85,-3.6,207,287,407,468,341
843,0.91,-0.41,0.11,0.06,-3.23,-0.85,206,280,408,469,346
844,0.88,-0.43,0.09,0.31,-2.5,-2.14,209,282,406,466,344
845,0.91,-0.42,0.11,0.79,-2.32,-1.34,206,283,413,466,340
846,0.9,-0.42,0.1,0.73,-2.32,-2.14,209,280,410,461,345
847,0.89,-0.43,0.11,1.77,-2.26,-4.64,208,284,407,468,342
848,0.9,-0.41,0.1,-0.18,-2.99,-3.48,204,283,405,464,344
849,0.91,-0.41,0.11,-0.18,-1.34,-2.93,204,284,413,479,340
850,0.9,-0.42,0.1,-2.93,-2.56,-2.38,203,284,418,461,344
851,0.91,-0.41,0.11,-0.37,-2.81,-2.32,209,278,407,461,342
852,0.91,-0.41,0.12,1.22,-3.23,-3.3,208,274,413,462,343
853,0.91,-0.41,0.11,-1.04,-2.99,-1.1,202,282,410,470,342
854,0.91,-0.41,0.11,0.61,-3.11,-3.23,204,284,404,468,343
855,0.91,-0.4,0.14,1.4,-2.5,-5.37,208,285,409,469,339
856,0.92,-0.38,0.13,1.1,-3.48,-2.99,207,278,413,466,341
857,0.92,-0.38,0.13,-1.04,-2.75,-0.12,208,286,412,463,340
858,0.89,-0.4,0.12,-0.18,-3.23,-2.14,208,284,410,464,340
859,0.91,-0.4,0.11,0.31,-2.38,-2.32,206,285,407,461,339
860,0.91,-0.39,0.12,-1.71,-2.2,-0.79,208,285,408,464,342
861,0.92,-0.39,0.12,-1.04,-2.26,-1.65,202,285,410,469,343
862,0.92,-0.39,0.13,0.24,-2.69,-2.56,211,283,410,461,339
863,0.91,-0.39,0.13,-0.43,-2.93,-1.83,216,283,407,461,344
864,0.92,-0.39,0.12,0.24,-3.17,-2.75,204,284,409,465,341
865,0.92,-0.39,0.12,0.18,-3.05,-3.05,209,280,409,464,337
866,0.93,-0.39,0.13,-1.04,-3.54,-2.56,210,286,410,461,340
867,0.91,-0.4,0.12,-0.18,-3.78,-0.31,206,283,408,471,343
868,0.91,-0.4,0.11,0.92,-3.72,-0.67,209,281,407,466,340
869,0.92,-0.4,0.11,-0.06,-2.69,-2.2,206,286,412,467,341
870,0.9,-0.41,0.12,-1.4,-1.89,-1.04,210,288,410,474,344
871,0.9,-0.41,0.12,-0.85,-2.99,-1.71,202,284,411,465,343
872,0.92,-0.41,0.12,0.92,-3.11,-8.79,210,286,406,465,342
873,0.9,-0.42,0.11,1.04,-4.03,-1.53,207,282,408,461,343
874,0.9,-0.41,0.11,3.42,-2.14,-2.81,210,284,409,464,344
875,0.91,-0.4,0.12,0.61,-4.15,-4.33,206,283,410,466,341
876,0.93,-0.4,0.15,0.37,-2.81,-3.72,199,279,413,466,343
877,0.98,-0.35,0.17,6.71,-1.95,-3.17,212,282,408,462,342
878,0.92,-0.37,0.16,-1.1,-4.03,-0.18,208,282,408,465,347
879,0.91,-0.4,0.13,2.62,-3.48,-4.15,210,283,402,462,345
880,0.91,-0.4,0.12,-0.92,-3.6,-3.36,205,273,409,467,344
881,0.91,-0.4,0.1,-1.4,-2.93,-0.67,205,285,406,466,341
882,0.92,-0.4,0.11,-0.55,-2.56,-2.87,209,277,407,466,341
883,0.9,-0.41,0.12,-1.4,-3.36,-3.05,210,286,407,467,343
884,0.92,-0.41,0.13,4.21,-2.87,-3.6,206,282,408,465,341
885,0.92,-0.42,0.1,0.85,-2.69,-3.48,207,284,408,461,345
886,0.94,-0.38,0.12,-4.82,-1.65,0.61,211,283,404,459,341
887,0.93,-0.39,0.12,-2.87,-5.86,-5.31,211,283,407,466,344
888,0.92,-0.39,0.11,1.77,-2.5,-3.91,210,281,407,465,339
889,0.9,-0.4,0.1,2.44,-4.88,-4.21,209,282,407,465,343
890,0.91,-0.39,0.11,4.58,-3.85,-2.08,211,283,404,464,347
891,0.91,-0.39,0.11,-1.65,-2.69,-2.75,209,282,406,460,341
892,0.91,-0.39,0.12,0.31,-3.05,-1.83,217,283,401,465,345
893,0.92,-0.39,0.12,-0.37,-2.69,0.18,212,285,407,467,344
894,0.93,-0.35,0.18,-6.9,-2.81,10.93,212,285,405,460,344
895,1.01,-0.32,0.15,0.98,-2.99,-2.75,213,282,405,466,343
896,0.94,-0.37,0.03,-1.89,-7.75,-3.23,205,291,408,466,344
897,0.85,-0.44,0.06,-3.36,-3.78,6.59,208,281,405,462,338
898,0.89,-0.45,0.06,-0.18,-3.54,-4.58,210,281,403,463,347
899,0.92,-0.42,0.06,3.91,-1.16,-4.27,210,281,403,456,340
900,0.91,-0.4,0.09,-0.24,0.18,-7.93,214,275,404,453,337
901,0.92,-0.42,0.11,-2.99,-1.59,2.08,210,284,399,462,335
902,0.91,-0.41,0.09,-5.49,-3.85,-5.86,209,282,404,461,341
903,0.93,-0.41,0.1,-0.24,-1.89,-3.42,212,282,404,456,336
904,0.91,-0.41,0.09,-0.43,-2.08,-1.95,211,281,402,455,336
905,0.93,-0.4,0.1,1.59,-3.23,-3.6,211,284,401,452,337
906,0.94,-0.39,0.13,-2.99,-3.23,-1.46,212,285,402,452,341
907,0.89,-0.43,0.09,-2.69,-2.62,-0.67,211,282,400,459,341
908,0.91,-0.42,0.09,-3.48,-4.27,3.97,208,284,397,452,344
909,0.88,-0.4,0.09,-2.26,-2.26,-2.14,211,297,401,450,341
910,0.9,-0.43,0.1,0.49,-3.3,-2.56,207,284,393,453,341
911,0.91,-0.4,0.1,0.12,-3.42,-2.69,211,281,396,452,336
912,0.9,-0.42,0.08,2.5,-2.87,-3.72,210,285,401,452,343
913,0.89,-0.42,0.1,0.79,-5.49,1.04,203,285,399,454,341
914,0.89,-0.44,0.11,-0.49,-3.23,-1.89,212,285,401,454,341
915,0.89,-0.43,0.09,-4.46,-3.11,-5.74,212,284,400,451,340
916,0.9,-0.43,0.1,2.26,-3.78,-4.03,209,282,395,457,338
917,0.88,-0.42,0.14,1.53,0.85,-3.6,211,282,397,459,344
918,0.9,-0.41,0.09,0.61,-3.54,-4.58,210,283,394,451,341
919,0.89,-0.43,0.12,-1.71,-2.38,-2.38,212,289,393,457,344
920,0.88,-0.43,0.08,3.78,-0.79,-4.21,214,278,398,457,344
921,0.88,-0.43,0.08,0.37,-3.6,3.17,209,284,396,458,338
922,0.9,-0.42,0.11,0.55,-1.65,-5.13,210,283,396,460,342
923,0.91,-0.41,0.1,1.4,-3.23,-3.3,213,286,397,455,341
924,0.92,-0.39,0.11,1.28,-3.36,-2.44,214,290,399,458,341
925,0.93,-0.4,0.11,-1.16,-2.32,-4.39,214,284,394,455,342
926,0.9,-0.41,0.11,1.89,-3.36,-4.09,235,283,396,453,344
927,0.91,-0.41,0.11,0.92,-3.11,-4.27,210,283,400,457,347
928,0.91,-0.41,0.13,0.67,-2.01,-2.93,210,281,402,455,343
929,0.91,-0.41,0.12,1.04,-2.32,-2.2,212,284,401,455,339
930,0.9,-0.4,0.14,2.44,-1.34,-1.4,210,284,399,454,344
931,0.91,-0.4,0.13,-1.53,-3.05,-2.93,205,285,396,459,338
932,0.9,-0.41,0.13,-5.13,-2.38,-1.1,211,283,402,453,340
933,0.9,-0.41,0.11,-4.21,-3.6,2.32,212,282,400,452,329
934,0.93,-0.39,0.11,4.15,-2.75,-5.55,214,279,401,458,342
935,0.92,-0.4,0.13,3.05,-3.85,-2.14,213,279,398,466,339
936,0.93,-0.38,0.14,1.22,-3.6,-2.32,216,283,399,470,341
937,0.91,-0.4,0.12,1.4,-2.44,-3.05,211,283,400,460,338
938,0.91,-0.39,0.1,-0.37,-3.11,-1.83,211,276,400,454,340
939,0.92,-0.4,0.11,-0.24,-2.14,-2.44,207,280,402,450,337
940,0.92,-0.4,0.12,-0.12,-2.87,-2.26,212,281,399,449,337
941,0.91,-0.4,0.13,0.37,-2.99,-2.44,207,281,402,440,342
942,0.91,-0.4,0.12,0.85,-3.72,-2.32,214,285,394,441,344
943,0.92,-0.4,0.11,0.67,-3.23,-3.11,212,282,402,438,341
944,0.92,-0.4,0.13,1.59,-2.93,-2.32,210,283,399,449,345
945,0.91,-0.4,0.12,-0.06,-2.38,-2.93,212,281,403,445,344
946,0.91,-0.4,0.12,-0.31,-2.2,-1.65,211,282,404,448,343
947,0.91,-0.39,0.13,1.1,-2.14,-2.87,209,282,403,443,337
948,0.92,-0.39,0.12,0.73,-3.11,-3.6,211,284,404,456,342
949,0.91,-0.39,0.13,0.79,-3.91,-2.69,205,281,402,449,339
950,0.9,-0.38,0.13,-0.43,-2.56,-1.71,211,282,402,454,350
951,0.91,-0.4,0.14,0.12,-3.23,-2.87,208,285,403,448,342
952,0.91,-0.38,0.15,-0.98,-1.65,-1.65,211,280,403,449,342
953,0.91,-0.4,0.1,-5.49,-2.99,-6.1,212,282,406,450,338
954,0.92,-0.38,0.12,1.4,-2.99,-2.93,212,282,397,452,339
955,0.92,-0.38,0.12,-0.55,-2.75,-2.44,211,279,405,451,340
956,0.91,-0.38,0.13,-0.79,-4.33,1.83,212,283,402,452,339
957,0.93,-0.39,0.16,-0.49,-4.27,4.58,213,282,401,449,339
958,0.93,-0.37,0.14,-1.1,-2.32,-0.85,211,280,402,452,338
959,0.91,-0.37,0.12,-0.55,-2.14,-1.83,213,286,401,446,339
960,0.92,-0.39,0.12,0.55,-2.62,-2.26,211,282,404,446,342
961,0.92,-0.37,0.14,-1.04,-3.11,-2.69,213,283,400,449,341
962,0.91,-0.39,0.12,-0.85,-2.44,-1.59,213,281,404,448,343
963,0.92,-0.37,0.12,0.06,-2.93,-2.56,211,281,405,446,339
964,0.93,-0.37,0.13,1.89,-1.83,-2.5,212,282,403,449,344
965,0.93,-0.38,0.14,1.83,-2.69,-2.38,213,281,406,439,340
966,0.91,-0.4,0.12,1.46,-3.17,-2.26,213,282,399,450,344
967,0.91,-0.39,0.13,1.04,-4.82,-0.92,213,279,401,453,344
968,0.93,-0.38,0.1,1.77,-3.48,-3.48,212,283,402,450,339
969,0.9,-0.39,0.14,-1.95,-1.4,-0.85,213,281,401,452,341
970,0.93,-0.36,0.14,-0.24,-4.46,-1.65,215,284,402,448,343
971,0.91,-0.37,0.1,3.48,-1.34,-6.1,212,278,404,448,346
972,0.92,-0.37,0.14,1.1,-2.01,-5.25,212,279,404,451,342
973,0.94,-0.36,0.09,0.79,-1.22,-4.15,205,280,404,451,341
974,0.92,-0.36,0.12,1.04,-2.75,-2.32,209,282,404,444,342
975,0.92,-0.35,0.09,-3.36,-3.17,-1.59,239,282,402,447,338
976,0.93,-0.35,0.15,1.4,-2.32,-3.6,209,282,399,445,337
977,0.93,-0.34,0.12,-1.89,-3.66,-2.99,213,282,406,449,340
978,0.95,-0.33,0.19,2.08,-5.37,-5.86,250,285,402,452,342
979,0.93,-0.31,0.1,-2.14,0.12,-4.52,209,286,402,446,337
980,0.95,-0.31,0.12,-5.43,0.61,-2.26,210,281,403,445,341
981,0.96,-0.28,0.17,-2.32,-2.26,-2.75,206,282,402,445,343
982,0.97,-0.3,0.17,4.88,-2.32,0.12,210,286,402,448,337
983,0.96,-0.3,0.16,0.92,-2.44,0.31,211,282,398,451,340
984,0.92,-0.34,0.14,-3.6,-3.42,-1.04,211,282,398,452,339
985,0.93,-0.34,0.1,0.37,-3.3,-2.99,211,285,402,453,345
986,0.91,-0.35,0.11,-1.65,-2.32,-3.85,213,282,400,449,341
987,0.92,-0.35,0.15,3.54,-3.11,-3.11,212,283,403,445,340
988,0.95,-0.32,0.15,3.6,-2.44,-3.42,221,282,405,445,344
989,0.92,-0.34,0.13,-0.61,-2.87,-1.16,211,283,403,444,340
990,0.93,-0.33,0.15,0.92,-2.44,-2.87,224,284,404,448,341
991,0.94,-0.34,0.16,0.06,-2.32,-2.26,213,284,403,449,339
992,0.94,-0.34,0.15,0.49,-2.99,-2.26,212,288,399,442,341
993,0.93,-0.33,0.14,1.59,-3.42,-2.69,214,282,403,446,342
994,0.94,-0.33,0.14,0.12,-3.3,-2.5,214,285,400,449,343
995,0.93,-0.34,0.14,-0.06,-3.05,-2.44,214,288,402,449,340
996,0.94,-0.33,0.18,2.5,-1.83,0.92,207,282,402,447,338
997,0.92,-0.36,0.13,-0.24,-2.62,-3.48,211,287,402,450,342
998,0.92,-0.35,0.13,-1.59,-3.05,-1.1,211,289,403,440,342
999,0.92,-0.36,0.15,0.79,-2.62,-1.89,213,283,405,448,348
1000,0.93,-0.33,0.15,3.54,-3.78,-3.05,210,277,404,445,337
1001,0.94,-0.33,0.14,-0.43,-2.32,-6.35,210,284,402,447,340
1002,0.93,-0.34,0.14,-2.2,-2.99,-2.38,215,281,402,451,342
1003,0.93,-0.33,0.15,0.0,-2.62,-3.6,242,288,403,452,343
1004,0.93,-0.34,0.15,1.34,-1.89,-3.91,213,282,401,446,341
1005,0.94,-0.34,0.16,0.18,-2.14,-2.26,206,284,402,442,342
1006,0.94,-0.33,0.15,0.49,-3.48,-2.26,214,286,402,453,346
1007,0.93,-0.33,0.14,-0.61,-2.32,-1.53,206,285,403,451,339
1008,0.94,-0.33,0.15,-1.1,-3.17,-1.28,213,285,403,447,345
1009,0.97,-0.32,0.14,0.43,-3.66,-4.46,209,282,402,447,335
1010,0.92,-0.35,0.13,0.55,-2.75,-4.33,211,286,401,448,341
1011,0.93,-0.34,0.14,-1.59,-2.81,-2.75,210,285,402,440,339
1012,0.93,-0.33,0.15,0.18,-1.04,-4.82,206,284,405,444,343
1013,0.96,-0.3,0.18,0.73,-2.81,-2.5,210,288,398,450,345
1014,0.94,-0.32,0.17,-0.92,-2.81,-1.04,215,283,403,453,342
1015,0.94,-0.32,0.17,-0.79,-4.21,-1.77,209,283,402,442,341
1016,0.96,-0.32,0.14,-0.31,-2.75,-0.85,210,287,402,450,344
1017,0.96,-0.33,0.16,-3.72,-2.2,1.95,210,286,403,449,339
1018,0.95,-0.34,0.16,-3.66,-2.2,-1.46,220,289,402,451,342
1019,0.89,-0.38,0.16,4.15,-5.13,-3.78,213,285,404,444,341
1020,0.92,-0.37,0.14,2.75,-2.5,-3.78,213,282,404,452,338
1021,0.92,-0.36,0.13,2.01,-3.66,-1.28,214,283,403,452,341
1022,0.92,-0.36,0.13,0.31,-1.95,-1.83,212,287,402,443,343
1023,0.92,-0.36,0.14,0.49,-2.69,-2.32,211,281,398,444,345
1024,0.91,-0.37,0.15,-1.4,-2.44,-1.89,210,286,401,446,342
1025,0.93,-0.37,0.13,1.1,-1.46,-3.11,215,287,400,444,345
1026,0.96,-0.33,0.14,-3.05,-3.91,-0.92,212,281,403,449,341
1027,0.93,-0.35,0.14,-2.2,-2.69,-2.08,221,283,402,453,344
1028,0.96,-0.33,0.15,3.23,-3.11,-3.05,214,284,401,450,345
1029,0.93,-0.33,0.16,-1.95,-2.14,-1.77,212,286,401,451,338
1030,0.92,-0.35,0.12,1.83,-1.77,-6.65,217,283,404,452,345
1031,0.93,-0.35,0.13,2.2,-3.48,-3.42,211,288,401,449,335
1032,0.91,-0.36,0.13,-2.69,-2.87,-1.04,216,284,400,448,343
1033,0.96,-0.33,0.15,3.72,-4.94,-2.5,211,284,399,451,342
1034,0.92,-0.38,0.09,1.34,-8.91,-0.37,211,283,403,448,341
1035,0.93,-0.4,0.13,-4.64,-6.23,1.1,213,285,401,453,340
1036,0.9,-0.4,0.12,6.96,2.44,-1.34,214,287,401,448,343
1037,0.92,-0.4,0.16,1.89,-3.23,1.59,212,285,400,450,338
1038,0.92,-0.36,0.17,1.04,-2.01,2.32,212,285,405,447,342
1039,0.94,-0.4,0.14,5.86,-10.31,0.31,211,285,397,444,341
1040,0.89,-0.44,0.11,1.71,-2.44,2.56,214,286,403,448,346
1041,0.86,-0.47,0.06,0.06,-4.52,-2.81,207,286,405,449,342
1042,0.91,-0.43,0.11,0.55,-0.67,-5.25,210,284,401,448,340
1043,0.91,-0.41,0.14,-0.43,0.55,-2.75,209,282,397,449,340
1044,0.91,-0.4,0.15,1.1,-3.17,-2.38,212,284,406,442,344
1045,0.89,-0.42,0.13,1.46,-2.81,-1.53,209,284,401,444,342
1046,0.91,-0.41,0.11,0.06,-1.65,-3.17,216,283,404,443,339
1047,0.9,-0.41,0.12,1.89,-2.87,-1.46,214,281,404,448,345
1048,0.9,-0.4,0.12,0.98,-1.04,-3.05,215,287,402,444,343
1049,0.92,-0.39,0.16,-0.49,-2.38,-1.4,213,285,402,449,340
1050,0.85,-0.44,0.13,-1.95,0.24,-5.55,212,281,397,445,345
1051,0.89,-0.36,0.11,1.1,-6.16,1.16,214,282,399,452,344
1052,0.92,-0.36,0.14,-5.19,-7.81,4.27,210,291,399,448,344
1053,0.92,-0.44,0.02,6.04,-4.64,-9.83,213,284,402,448,341
1054,0.86,-0.44,0.08,5.74,-1.77,4.46,209,283,402,450,342
1055,0.89,-0.45,0.09,-2.38,-4.27,-4.52,212,283,402,450,341
1056,0.87,-0.47,0.03,-2.93,-1.71,-7.14,212,284,401,450,342
1057,0.92,-0.4,0.04,-5.07,-4.33,-2.99,217,285,399,443,342
1058,0.95,-0.4,0.09,8.3,-5.07,0.0,209,285,403,451,341
1059,0.9,-0.45,0.0,2.93,-0.49,-6.1,215,283,403,446,340
1060,0.95,-0.39,0.07,0.92,-5.98,-4.58,211,283,399,451,340
1061,0.89,-0.46,0.03,0.79,-2.38,-6.59,217,285,401,450,340
1062,0.91,-0.41,0.02,0.37,-1.04,-4.33,211,283,402,448,348
1063,0.92,-0.39,0.06,-0.67,-2.87,-2.75,216,284,399,449,343
1064,0.92,-0.41,0.04,0.55,-2.44,-2.81,207,284,403,446,341
1065,0.92,-0.4,0.05,0.61,-3.17,-1.65,211,283,400,446,347
1066,0.91,-0.4,0.03,-2.01,-1.77,-1.34,213,284,399,441,340
1067,0.9,-0.42,0.05,-0.12,-2.26,-3.17,212,285,402,450,341
1068,0.9,-0.41,0.05,-3.23,-4.64,-1.16,214,285,397,449,341
1069,0.93,-0.4,0.03,-2.26,-0.18,-0.61,210,290,401,441,344
1070,0.89,-0.41,0.06,2.99,-1.89,-9.4,210,280,403,451,345
1071,0.94,-0.35,0.01,-6.84,1.89,-4.76,210,286,396,448,344
1072,0.95,-0.37,0.09,0.06,8.91,-10.13,215,285,400,452,344
1073,0.93,-0.31,0.16,4.27,-0.31,-9.83,211,285,402,449,343
1074,0.97,-0.3,0.15,-1.83,-3.78,1.59,215,284,397,453,339
1075,0.93,-0.33,0.13,-0.37,-5.0,-0.49,213,284,397,452,343
1076,0.95,-0.33,0.13,-0.37,-4.46,-0.55,205,282,403,445,344
1077,0.94,-0.36,0.11,-0.06,-5.37,-0.85,211,284,401,448,347
1078,0.92,-0.39,0.09,1.59,-4.82,-2.56,211,289,403,453,340
1079,0.9,-0.41,0.1,-0.18,-2.38,-1.04,211,282,401,447,341
1080,0.91,-0.4,0.09,-0.31,-3.17,-3.66,213,284,402,448,344
1081,0.93,-0.37,0.11,2.38,-3.17,-3.85,213,284,401,449,346
1082,0.9,-0.41,0.13,1.16,-2.81,-0.43,211,282,400,446,341
1083,0.92,-0.39,0.11,-0.49,-3.3,-1.77,210,281,401,442,346
1084,0.92,-0.39,0.1,0.49,-1.95,0.06,214,281,399,449,344
1085,0.93,-0.39,0.08,-1.28,-1.34,-4.76,204,283,402,449,343
1086,0.87,-0.46,0.1,1.34,-3.3,-5.92,194,277,437,461,343
1087,0.9,-0.43,0.1,4.52,-1.53,-7.14,198,274,438,466,344
1088,0.9,-0.41,0.13,-0.06,-0.73,-4.46,192,266,437,459,340
1089,0.91,-0.41,0.14,-0.67,-1.77,-2.62,198,270,433,453,342
1090,0.92,-0.39,0.14,0.67,-2.38,-3.05,197,277,436,463,343
1091,0.91,-0.4,0.13,-1.16,-3.3,-2.2,202,271,433,457,351
1092,0.89,-0.41,0.13,0.31,-3.72,-2.38,194,268,433,453,343
1093,0.9,-0.4,0.1,0.73,-2.56,-2.5,198,266,434,454,345
1094,0.91,-0.41,0.13,-1.16,-4.09,-1.89,194,271,433,458,342
1095,0.9,-0.42,0.12,-0.12,-1.95,-0.67,200,267,431,456,340
1096,0.89,-0.43,0.11,0.92,-5.43,1.22,194,275,432,457,344
1097,0.92,-0.41,0.11,-0.06,-2.08,-1.4,198,270,432,464,344
1098,0.9,-0.42,0.1,-0.85,-3.17,-1.04,199,270,431,455,344
1099,0.9,-0.42,0.12,2.32,-0.06,-3.91,214,270,430,449,343
1100,0.92,-0.41,0.11,-0.43,-2.44,-2.44,198,269,430,463,342
1101,0.9,-0.42,0.12,0.43,-3.6,-2.5,191,273,433,459,347
1102,0.91,-0.4,0.11,-1.28,-2.32,-2.5,202,275,431,460,346
1103,0.87,-0.44,0.11,-1.1,-2.75,-3.85,198,271,432,458,342
1104,0.9,-0.42,0.12,-0.18,-1.95,-5.31,200,276,432,460,348
1105,0.88,-0.43,0.13,-3.23,-1.1,-1.16,200,273,427,455,347
1106,0.9,-0.41,0.11,-2.08,-3.05,0.73,199,277,430,459,345
1107,0.91,-0.42,0.12,1.65,-4.09,-2.93,199,278,430,460,342
1108,0.89,-0.44,0.1,1.53,-3.91,-0.73,201,275,425,458,344
1109,0.88,-0.45,0.1,-2.26,-2.87,0.37,198,274,428,455,343
1110,0.89,-0.43,0.09,0.12,-4.46,-1.04,206,274,427,467,345
1111,0.91,-0.43,0.1,3.48,-3.91,-5.55,200,278,431,462,344
1112,0.91,-0.42,0.11,3.85,-3.54,-3.36,200,275,429,461,341
1113,0.89,-0.44,0.1,0.43,-3.54,-2.26,203,277,425,465,340
1114,0.9,-0.42,0.12,5.31,-3.72,-4.21,200,277,434,463,343
1115,0.9,-0.42,0.1,1.1,-1.22,-5.49,200,280,431,460,345
1116,0.91,-0.44,0.1,2.44,-2.5,-1.16,204,278,428,462,343
1117,0.89,-0.42,0.1,0.43,-3.78,-3.42,206,273,426,464,342
1118,0.9,-0.44,0.09,-0.31,-3.17,-3.42,202,279,422,460,344
1119,0.9,-0.42,0.1,0.31,-3.05,-1.1,208,276,431,465,344
1120,0.9,-0.49,0.11,-1.4,-2.75,-4.33,203,279,427,458,343
1121,0.9,-0.44,0.1,-2.56,-4.27,-1.89,205,276,430,461,349
1122,0.9,-0.44,0.1,-1.95,-0.37,-2.62,208,276,422,455,342
1123,0.9,-0.42,0.09,3.05,-3.05,-2.99,203,278,421,460,342
1124,0.89,-0.45,0.09,-0.79,-2.93,-2.81,203,277,423,459,339
1125,0.9,-0.43,0.1,3.36,-4.76,-3.3,200,273,420,449,341
1126,0.9,-0.44,0.1,0.0,-2.62,-2.81,203,279,424,457,342
1127,0.9,-0.44,0.09,2.38,-2.62,-3.85,200,279,422,460,341
1128,0.89,-0.44,0.1,0.49,-2.14,-2.08,203,273,419,456,341
1129,0.89,-0.45,0.1,0.61,-4.64,-2.99,198,282,425,449,341
1130,0.89,-0.45,0.1,-1.77,-3.36,-3.85,199,279,421,458,343
1131,0.9,-0.45,0.09,0.49,-3.05,-1.89,205,287,420,459,339
1132,0.88,-0.46,0.07,0.85,-2.08,-3.91,205,277,424,459,344
1133,0.89,-0.45,0.09,-1.46,-2.62,-0.92,201,279,424,466,343
1134,0.9,-0.43,0.1,1.65,-3.11,-2.62,196,281,423,459,345
1135,0.9,-0.44,0.09,-1.04,-3.23,-2.5,208,278,424,464,344
1136,0.91,-0.44,0.1,0.49,-2.93,-2.5,203,279,422,462,338
1137,0.9,-0.44,0.11,2.38,-1.89,-3.85,202,278,422,462,342
1138,0.9,-0.43,0.1,-2.44,-1.53,-3.54,205,276,424,462,347
1139,0.9,-0.43,0.11,0.61,-2.99,-3.05,203,277,423,464,343
1140,0.89,-0.43,0.09,-0.67,-3.42,-4.39,204,278,422,465,343
1141,0.91,-0.43,0.1,0.06,-2.5,-3.05,206,279,422,462,346
1142,0.91,-0.41,0.1,2.87,-3.11,-4.03,203,275,422,461,341
1143,0.91,-0.42,0.11,0.0,-2.14,-2.38,204,278,422,460,343
1144,0.9,-0.42,0.1,-0.55,-0.31,-2.56,204,280,422,463,340
1145,0.91,-0.41,0.12,1.34,-2.93,-2.69,198,277,424,464,339
1146,0.9,-0.41,0.11,0.31,-2.32,-1.95,203,274,423,461,345
1147,0.91,-0.41,0.11,-0.06,-2.38,-2.81,202,283,422,464,344
1148,0.91,-0.41,0.11,-0.18,-2.44,-3.23,201,277,422,458,343
1149,0.91,-0.41,0.1,0.98,-3.05,-2.87,202,278,414,460,343
1150,0.91,-0.41,0.11,1.34,-4.09,-2.56,205,277,425,459,343
1151,0.91,-0.41,0.11,0.61,-2.81,-2.26,197,276,421,463,343
1152,0.91,-0.42,0.11,0.43,-2.2,-2.99,203,278,421,464,341
1153,0.91,-0.41,0.11,0.0,-2.38,-3.48,201,279,417,459,342
1154,0.91,-0.4,0.12,-0.79,-2.5,-3.05,203,278,419,455,343
1155,0.92,-0.39,0.09,2.2,-3.3,-8.48,204,280,423,462,341
1156,0.91,-0.39,0.12,1.4,-3.85,-6.04,204,277,418,461,341
1157,0.9,-0.39,0.12,1.1,-2.62,-2.44,198,277,415,465,342
1158,0.94,-0.36,0.13,-0.73,-1.83,-2.62,219,280,418,464,341
1159,0.91,-0.38,0.13,-3.91,2.2,-2.2,205,276,421,462,343
1160,0.93,-0.35,0.16,4.39,-3.17,-0.43,211,280,416,459,338
1161,0.99,-0.3,0.11,-5.49,-10.07,-2.69,202,280,418,462,341
1162,0.89,-0.42,0.1,-2.2,0.31,-5.07,209,278,419,464,339
1163,0.94,-0.36,0.09,4.27,-1.34,-2.44,214,274,416,463,343
1164,0.95,-0.37,0.09,2.75,-2.93,-2.87,204,273,419,459,342
1165,0.9,-0.4,0.14,2.2,-5.31,-0.73,205,279,417,460,344
1166,0.93,-0.4,0.12,2.14,-1.89,-0.31,203,276,414,461,343
1167,0.89,-0.44,0.1,3.66,-5.43,-1.83,206,280,421,462,335
1168,0.92,-0.41,0.11,-0.06,-2.62,-3.3,200,271,417,460,350
1169,0.88,-0.44,0.13,-0.73,-3.48,-2.69,204,280,418,468,344
1170,0.89,-0.44,0.17,1.28,-4.7,-0.92,203,277,419,465,345
1171,0.91,-0.43,0.08,0.12,-0.73,-1.95,205,279,422,454,340
1172,0.93,-0.41,0.16,-4.46,-3.72,5.31,203,278,420,455,343
1173,0.88,-0.47,0.14,2.01,-5.13,0.31,197,276,421,464,339
1174,0.85,-0.5,0.12,1.77,-5.68,-3.11,212,278,422,462,341
1175,0.85,-0.46,0.16,-7.02,-10.13,-6.65,201,278,418,457,341
1176,0.87,-0.49,0.02,-5.31,-8.97,1.89,209,278,418,462,345
1177,0.91,-0.48,-0.05,-4.03,-0.79,-5.68,202,277,416,460,341
1178,0.91,-0.46,-0.04,2.5,-5.43,-3.91,203,277,412,457,341
1179,0.87,-0.46,-0.02,1.46,-7.32,-2.5,201,280,416,461,344
1180,0.83,-0.49,-0.1,-3.36,3.78,-5.07,205,281,417,459,343
1181,0.9,-0.44,-0.03,-3.05,-1.95,-2.75,204,279,411,460,342
1182,0.93,-0.42,-0.01,-0.24,-2.62,-4.76,203,278,415,460,341
1183,0.86,-0.49,-0.04,-1.95,-3.85,-3.48,207,278,416,459,342
1184,0.91,-0.43,-0.05,0.06,-1.83,-3.48,203,280,412,457,342
1185,0.89,-0.44,-0.05,2.99,-4.82,-1.04,204,281,417,454,344
1186,0.89,-0.45,-0.06,0.67,-3.17,-2.14,206,280,413,455,338
1187,0.89,-0.45,-0.05,-0.24,-2.81,-1.89,204,274,415,446,345
1188,0.89,-0.44,-0.05,-0.92,-2.14,-1.22,204,281,420,463,339
1189,0.89,-0.44,-0.05,0.0,-2.56,-3.48,205,275,415,443,341
1190,0.9,-0.44,-0.05,-1.1,-3.6,-2.26,205,283,416,460,333
1191,0.89,-0.44,-0.04,-1.1,-2.69,-1.95,203,282,414,459,346
1192,0.9,-0.44,-0.05,-0.12,-3.05,-1.89,203,279,408,453,340
1193,0.9,-0.44,-0.05,0.06,-3.3,-2.5,202,276,415,448,343
1194,0.9,-0.43,-0.05,0.06,-3.11,-2.69,202,275,416,460,344
1195,0.91,-0.43,-0.03,0.37,-2.44,-1.83,203,280,413,458,346
1196,0.9,-0.44,-0.04,0.92,-3.91,-2.01,204,282,413,458,339
1197,0.91,-0.43,-0.04,-0.31,-2.69,-2.01,206,279,417,458,344
1198,0.92,-0.43,-0.03,0.06,-2.56,-1.71,209,281,425,449,339
1199,0.89,-0.46,-0.02,0.55,-2.87,-2.87,204,276,411,457,342
1200,0.87,-0.47,-0.04,-1.34,1.77,-5.0,209,279,415,462,341
1201,0.91,-0.45,-0.04,-1.16,-2.87,-1.4,201,281,414,455,343
1202,0.88,-0.47,-0.05,1.34,-3.48,-2.44,209,279,407,456,343
1203,0.89,-0.46,-0.04,0.24,-2.75,-3.3,198,278,415,461,340
1204,0.9,-0.45,-0.02,-0.31,-3.3,-1.53,202,274,415,459,341
1205,0.9,-0.44,-0.05,4.46,-3.42,-4.88,201,281,417,454,344
1206,0.9,-0.45,-0.04,1.4,-4.76,-2.99,202,280,414,456,345
1207,0.88,-0.46,-0.03,0.67,-2.32,-2.5,207,277,412,457,343
1208,0.9,-0.44,-0.03,-1.04,-1.53,-3.11,207,281,412,457,341
1209,0.91,-0.43,-0.03,0.12,-2.26,-5.62,231,279,413,459,344
1210,0.88,-0.46,-0.05,-0.98,-4.76,-3.91,198,282,414,462,338
1211,0.92,-0.41,0.0,3.42,-2.2,-7.26,204,282,411,456,343
1212,0.89,-0.4,-0.04,-2.5,0.67,-4.03,205,281,411,458,341
1213,0.85,-0.44,-0.0,-5.49,0.55,-1.83,209,282,410,455,343
1214,0.89,-0.41,-0.01,0.37,-2.69,-5.55,194,283,410,458,341
1215,0.94,-0.41,0.05,-4.39,-1.46,2.5,203,278,413,455,346
1216,0.91,-0.42,0.03,-1.04,-2.01,-1.46,210,282,414,459,341
1217,0.91,-0.42,0.05,3.11,-0.55,-2.38,205,280,416,456,341
1218,0.9,-0.42,0.04,0.31,-2.01,-2.99,202,278,413,458,339
1219,0.92,-0.4,0.06,-0.61,-4.39,-2.26,203,279,416,453,341
1220,0.89,-0.42,0.04,0.31,-3.48,-1.77,204,281,412,456,344
1221,0.94,-0.39,0.03,-1.04,-2.56,-2.56,206,280,412,471,345
1222,0.91,-0.41,0.02,-2.87,-2.99,-3.17,202,280,405,455,344
1223,0.89,-0.44,0.04,-4.33,-2.62,-2.93,205,275,410,459,343
1224,0.92,-0.41,0.02,2.56,-2.81,-0.31,205,279,414,456,343
1225,0.89,-0.46,-0.0,6.16,-1.77,3.17,208,284,413,458,345
1226,0.88,-0.45,0.02,-2.69,-4.46,-1.34,204,278,414,453,343
1227,0.89,-0.45,0.05,-1.28,-2.99,-1.28,203,277,412,463,344
1228,0.9,-0.45,0.04,2.87,-1.1,-2.69,209,281,409,452,345
1229,0.9,-0.43,0.05,-1.89,-2.56,-3.17,203,284,415,457,343
1230,0.91,-0.42,0.06,-0.98,-2.62,-3.17,217,282,411,458,339
1231,0.9,-0.43,0.05,-0.85,-4.76,-3.05,204,282,412,452,342
1232,0.91,-0.43,0.05,-0.49,-4.58,-2.62,205,278,415,457,342
1233,0.91,-0.43,0.05,0.79,-2.81,-2.44,207,283,414,459,340
1234,0.9,-0.43,0.04,0.85,-2.75,-4.21,209,277,412,460,339
1235,0.91,-0.42,0.05,0.31,-3.17,-3.66,205,276,412,457,344
1236,0.9,-0.43,0.04,1.16,-2.62,-2.5,197,281,412,458,341
1237,0.9,-0.43,0.05,0.49,-2.26,-2.32,207,283,413,459,339
1238,0.91,-0.43,0.05,0.37,-2.38,-1.77,205,280,409,460,343
1239,0.9,-0.44,0.04,-0.85,-3.72,-2.75,207,281,409,461,342
1240,0.89,-0.43,0.04,1.89,-2.87,-3.6,217,284,410,458,346
1241,0.91,-0.43,0.06,0.92,-2.75,0.79,204,277,412,459,343
1242,0.9,-0.44,0.06,-0.79,-2.01,-2.26,199,282,415,452,341
1243,0.9,-0.43,0.05,-0.31,-3.11,-2.5,206,279,411,457,341
1244,0.9,-0.43,0.07,0.06,-1.95,-2.32,202,276,411,458,343
1245,0.91,-0.43,0.06,-0.18,-3.05,-0.49,197,284,415,451,346
1246,0.9,-0.44,0.06,1.4,-3.3,-1.89,207,280,411,460,343
1247,0.9,-0.45,0.05,1.04,-2.14,-3.72,204,279,410,461,343
1248,0.9,-0.44,0.07,1.16,-3.05,-2.87,208,283,410,457,344
1249,0.9,-0.44,0.05,0.67,-2.81,-2.08,206,277,410,454,343
1250,0.9,-0.44,0.04,-2.2,-3.72,-0.37,206,285,411,457,343
1251,0.91,-0.44,0.07,-2.69,-3.36,-1.4,208,285,416,453,343
1252,0.89,-0.45,0.06,-0.24,-3.48,-3.17,209,280,410,457,346
1253,0.91,-0.44,0.07,1.22,-3.42,-3.11,203,281,411,467,343
1254,0.9,-0.45,0.05,2.87,-2.44,-3.66,206,290,409,461,339
1255,0.9,-0.44,0.04,-0.06,-2.75,-1.77,203,282,409,455,340
1256,0.9,-0.43,0.04,0.0,-2.99,-2.69,206,280,412,456,343
1257,0.9,-0.44,0.04,0.24,-2.2,-3.97,208,279,411,453,342
1258,0.88,-0.45,0.04,0.67,-2.38,-4.52,203,284,408,458,343
1259,0.89,-0.45,0.03,1.95,-0.55,-2.44,208,283,412,456,342
1260,0.87,-0.45,0.04,-0.85,1.16,-5.13,203,278,413,456,342
1261,0.9,-0.41,0.04,0.73,-2.2,-10.44,208,281,410,456,340
1262,0.87,-0.44,0.09,-1.59,-0.85,-4.82,206,278,407,458,344
1263,0.91,-0.41,0.09,0.73,-5.13,-6.59,209,281,414,458,351
1264,0.92,-0.38,0.12,1.28,-4.52,-0.37,205,281,408,457,348
1265,0.91,-0.39,0.09,2.32,-4.03,1.53,206,279,413,457,343
1266,0.94,-0.36,0.13,2.01,-2.2,1.65,206,276,408,453,342
1267,0.97,-0.33,0.13,8.12,-0.49,-14.59,207,282,411,459,342
1268,0.95,-0.37,0.06,-2.62,11.11,-11.9,205,287,408,459,343
1269,0.93,-0.37,0.1,-5.49,0.49,-0.61,208,283,410,457,343
1270,0.92,-0.37,0.11,2.81,-4.27,0.73,202,282,411,456,339
1271,0.93,-0.36,0.13,7.08,-3.05,-11.05,204,279,410,457,339
1272,0.91,-0.38,0.16,-2.62,5.37,-3.36,203,276,409,462,341
1273,0.93,-0.36,0.15,-5.07,-3.6,-0.12,205,278,410,454,341
1274,0.91,-0.38,0.14,-1.34,-1.46,-2.93,206,280,410,456,337
1275,0.94,-0.33,0.14,1.34,-3.17,-3.23,219,278,409,458,340
1276,0.94,-0.35,0.15,0.06,-1.71,-1.04,206,278,408,459,339
1277,0.94,-0.34,0.14,-0.49,-3.42,-4.33,210,278,413,461,336
1278,0.94,-0.33,0.15,-4.88,-4.88,2.32,207,279,412,452,340
1279,0.94,-0.34,0.11,-3.78,-4.21,-3.05,207,278,412,461,338
1280,0.91,-0.38,0.14,-1.04,-5.74,-0.55,203,278,405,459,340
1281,0.94,-0.36,0.13,-2.38,-6.35,3.72,208,278,406,473,336
1282,0.91,-0.41,0.1,-1.1,-3.23,-4.46,210,282,409,456,341
1283,0.89,-0.42,0.08,1.22,-1.16,-2.69,207,290,414,461,339
1284,0.91,-0.39,0.09,-0.37,-3.66,-3.97,202,283,409,457,341
1285,0.91,-0.4,0.1,1.89,-3.17,-1.83,205,282,411,452,340
1286,0.92,-0.4,0.1,-1.28,-2.2,-1.77,231,281,411,456,341
1287,0.91,-0.41,0.09,-0.73,-3.17,-2.5,205,280,411,460,340
1288,0.92,-0.4,0.1,-0.24,-2.93,-1.71,205,280,411,451,338
1289,0.94,-0.38,0.12,-0.37,-2.93,-1.04,207,279,409,451,338
1290,0.92,-0.4,0.09,0.79,-2.93,-3.11,208,279,412,454,344
1291,0.92,-0.41,0.1,-0.31,-2.69,-3.17,202,281,408,454,343
1292,0.91,-0.41,0.11,0.31,-1.59,-1.4,209,284,408,452,341
1293,0.91,-0.4,0.09,0.12,-3.66,-2.26,204,277,408,459,341
1294,0.9,-0.41,0.1,-1.95,-2.01,-0.55,203,279,413,455,342
1295,0.92,-0.41,0.09,0.92,-3.85,-2.75,230,281,405,456,340
1296,0.92,-0.4,0.08,-0.31,-1.83,-2.56,205,279,408,455,343
1297,0.89,-0.42,0.12,2.2,-2.08,-4.88,207,280,406,455,344
1298,0.93,-0.4,0.09,0.55,-5.0,-3.54,209,281,409,451,341
1299,0.92,-0.39,0.1,0.67,-2.93,-4.64,207,282,407,456,338
1300,0.91,-0.4,0.1,4.46,-3.42,-3.91,207,282,409,453,345
1301,0.91,-0.41,0.11,0.79,-2.44,-2.69,208,274,410,453,345
1302,0.92,-0.41,0.1,0.37,-2.2,-3.17,207,284,406,461,344
1303,0.91,-0.41,0.1,1.59,-2.62,-2.99,211,282,409,457,335
1304,0.91,-0.4,0.1,-1.34,-2.01,-2.44,206,275,403,457,341
1305,0.91,-0.41,0.11,1.16,-2.93,-3.6,205,278,410,456,340
1306,0.92,-0.4,0.11,0.92,-3.6,-1.77,208,281,408,456,338
1307,0.92,-0.41,0.09,-3.05,-3.6,-2.38,208,284,410,466,338
1308,0.89,-0.42,0.13,-0.61,-2.38,-1.83,205,280,412,457,342
1309,0.9,-0.4,0.1,0.67,-2.62,-2.08,209,282,409,459,344
1310,0.9,-0.41,0.13,2.01,-4.7,-1.53,202,280,421,465,338
1311,0.91,-0.42,0.1,2.87,-3.3,-2.87,209,284,411,459,340
1312,0.9,-0.42,0.11,-1.04,-2.81,-2.93,204,280,412,465,341
1313,0.94,-0.39,0.09,-1.59,-3.91,-4.52,200,285,425,466,341
1314,0.91,-0.41,0.11,-0.06,-2.32,-2.44,207,274,411,464,336
1315,0.91,-0.4,0.11,-1.22,-2.44,-2.99,208,284,414,461,342
1316,0.92,-0.4,0.13,3.23,-2.87,-4.27,204,279,416,462,338
1317,0.91,-0.4,0.13,2.2,-3.17,-3.3,204,288,411,464,340
1318,0.92,-0.4,0.12,-0.12,-3.42,-1.83,206,286,413,464,337
1319,0.92,-0.4,0.12,1.4,-2.69,-2.32,208,279,413,461,341
1320,0.92,-0.4,0.12,0.49,-2.81,-3.42,204,278,414,463,340
1321,0.92,-0.4,0.11,0.55,-2.75,-2.75,207,280,414,466,341
1322,0.92,-0.4,0.13,-0.31,-3.05,-2.56,210,279,417,459,340
1323,0.92,-0.39,0.12,-0.85,-3.17,-2.14,210,283,414,466,341
1324,0.92,-0.39,0.13,0.98,-3.3,-2.26,199,273,415,464,339
1325,0.9,-0.41,0.1,-0.06,-2.62,-3.05,212,279,413,466,339
1326,0.9,-0.41,0.11,2.56,-3.23,-2.93,206,283,414,465,342
1327,0.92,-0.4,0.13,1.4,-2.93,-2.81,205,281,413,462,341
1328,0.91,-0.4,0.12,-1.1,-2.56,-2.56,207,279,412,459,340
1329,0.91,-0.4,0.12,0.24,-3.05,-2.81,210,275,413,464,340
1330,0.92,-0.4,0.11,0.55,-2.93,-2.69,207,276,409,466,342
1331,0.92,-0.41,0.12,0.79,-2.99,-2.75,209,279,411,469,341
1332,0.91,-0.41,0.12,-0.12,-2.62,-2.69,205,277,412,466,337
1333,0.91,-0.4,0.12,0.12,-3.66,-2.08,206,280,411,466,339
1334,0.92,-0.4,0.12,0.18,-2.93,-2.14,204,274,408,461,342
1335,0.91,-0.41,0.1,0.98,-2.14,-2.26,210,278,412,481,341
1336,0.91,-0.41,0.1,-0.92,-3.23,-2.62,209,282,409,459,340
1337,0.93,-0.39,0.13,1.22,-3.05,-2.93,202,284,415,459,338
1338,0.92,-0.4,0.12,-0.12,-2.87,-2.01,202,286,413,462,341
1339,0.91,-0.41,0.11,0.06,-2.75,-2.38,206,281,414,467,343
1340,0.91,-0.41,0.12,-0.12,-3.05,-2.56,213,277,412,463,337
1341,0.91,-0.4,0.12,0.61,-3.11,-3.23,209,279,413,464,344
1342,0.92,-0.4,0.13,1.59,-3.42,-2.69,208,281,408,459,339
1343,0.91,-0.41,0.11,0.55,-3.05,-2.56,208,277,413,470,339
1344,0.92,-0.39,0.11,1.71,-2.99,-2.08,210,281,415,464,343
1345,0.92,-0.4,0.11,-0.18,-2.56,-2.69,207,281,411,464,341
1346,0.9,-0.41,0.1,0.18,-2.99,-1.46,206,277,414,465,341
1347,0.9,-0.41,0.12,-1.89,-2.75,-0.18,207,279,415,465,340
1348,0.91,-0.4,0.1,-0.55,-2.38,-2.99,211,285,410,463,343
1349,0.91,-0.4,0.12,0.06,-4.27,-0.98,208,281,410,462,341
1350,0.93,-0.39,0.11,-0.85,-3.05,-0.43,201,280,411,468,337
1351,0.9,-0.42,0.08,-1.46,-2.93,-2.38,210,281,412,471,339
1352,0.91,-0.4,0.07,1.53,-2.87,-3.78,203,283,409,465,342
1353,0.9,-0.42,0.1,1.95,-3.91,-6.23,206,285,412,470,340
1354,0.9,-0.43,0.11,-2.08,-2.44,-1.04,206,278,413,467,342
1355,0.88,-0.44,0.16,5.49,-2.38,0.31,208,284,410,466,341
1356,0.9,-0.43,0.13,-5.49,-1.53,-0.06,210,282,413,468,343
1357,0.93,-0.41,0.13,-4.46,-3.11,-0.85,214,286,411,466,340
1358,0.91,-0.41,0.12,1.59,-2.38,-2.08,210,282,409,463,341
1359,0.92,-0.4,0.12,1.53,-2.99,-3.17,209,285,411,466,343
1360,0.9,-0.41,0.11,0.85,-3.05,-1.83,210,278,416,468,340
1361,0.9,-0.41,0.11,-0.37,-2.69,-2.26,213,279,410,465,341
1362,0.9,-0.4,0.13,-0.24,-3.05,-2.14,206,277,411,457,340
1363,0.92,-0.4,0.11,-1.95,-2.56,0.06,209,280,414,468,344
1364,0.92,-0.4,0.11,1.83,-2.93,-3.85,204,283,414,463,339
1365,0.91,-0.41,0.1,0.12,-2.2,-2.44,208,276,408,468,340
1366,0.89,-0.42,0.11,-0.79,-2.44,-0.43,205,284,407,468,346
1367,0.91,-0.41,0.1,-0.98,-3.72,-3.11,203,282,414,469,341
1368,0.92,-0.4,0.12,-0.61,-2.32,-2.2,203,282,402,468,345
1369,0.87,-0.44,0.12,0.18,-1.34,-2.69,207,280,408,465,344
1370,0.9,-0.41,0.11,-1.59,-3.85,-0.43,208,282,409,464,339
1371,0.9,-0.42,0.11,-0.67,-3.05,-2.32,208,285,408,465,342
1372,0.92,-0.4,0.12,-0.37,-3.3,-3.11,217,284,408,466,344
1373,0.92,-0.41,0.12,-0.12,-3.3,-1.59,209,278,410,466,345
1374,0.92,-0.39,0.1,0.0,-4.03,-1.89,207,280,406,461,341
1375,0.92,-0.4,0.12,1.46,-2.62,-2.87,206,281,413,464,342
1376,0.9,-0.41,0.1,1.71,-3.05,-1.89,204,278,412,469,345
1377,0.91,-0.41,0.11,-0.49,-2.99,-1.89,201,285,411,463,343
1378,0.9,-0.41,0.12,0.49,-2.75,-1.59,207,284,414,464,347
1379,0.91,-0.41,0.12,2.69,-2.14,-3.6,212,282,403,465,346
1380,0.91,-0.41,0.11,-1.28,-3.17,-1.34,205,283,411,467,342
1381,0.9,-0.42,0.1,0.49,-2.56,-5.07,208,283,416,470,345
1382,0.91,-0.41,0.12,0.18,-3.23,-1.4,206,281,415,464,342
1383,0.91,-0.41,0.1,0.31,-3.3,-1.59,197,282,410,465,342
1384,0.91,-0.41,0.11,1.04,-2.44,-2.81,237,284,414,468,341
1385,0.91,-0.41,0.11,-1.53,-3.85,-3.6,207,287,407,468,341
1386,0.91,-0.41,0.11,0.06,-3.23,-0.85,206,280,408,469,346
1387,0.88,-0.43,0.09,0.31,-2.5,-2.14,209,282,406,466,344
1388,0.91,-0.42,0.11,0.79,-2.32,-1.34,206,283,413,466,340
1389,0.9,-0.42,0.1,0.73,-2.32,-2.14,209,280,410,461,345
1390,0.89,-0.43,0.11,1.77,-2.26,-4.64,208,284,407,468,342
1391,0.9,-0.41,0.1,-0.18,-2.99,-3.48,204,283,405,464,344
1392,0.91,-0.41,0.11,-0.18,-1.34,-2.93,204,284,413,479,340
1393,0.9,-0.42,0.1,-2.93,-2.56,-2.38,203,284,418,461,344
1394,0.91,-0.41,0.11,-0.37,-2.81,-2.32,209,278,407,461,342
1395,0.91,-0.41,0.12,1.22,-3.23,-3.3,208,274,413,462,343
1396,0.91,-0.41,0.11,-1.04,-2.99,-1.1,202,282,410,470,342
1397,0.91,-0.41,0.11,0.61,-3.11,-3.23,204,284,404,468,343
1398,0.91,-0.4,0.14,1.4,-2.5,-5.37,208,285,409,469,339
1399,0.92,-0.38,0.13,1.1,-3.48,-2.99,207,278,413,466,341
1400,0.92,-0.38,0.13,-1.04,-2.75,-0.12,208,286,412,463,340
1401,0.89,-0.4,0.12,-0.18,-3.23,-2.14,208,284,410,464,340
1402,0.91,-0.4,0.11,0.31,-2.38,-2.32,206,285,407,461,339
1403,0.91,-0.39,0.12,-1.71,-2.2,-0.79,208,285,408,464,342
1404,0.92,-0.39,0.12,-1.04,-2.26,-1.65,202,285,410,469,343
1405,0.92,-0.39,0.13,0.24,-2.69,-2.56,211,283,410,461,339
1406,0.91,-0.39,0.13,-0.43,-2.93,-1.83,216,283,407,461,344
1407,0.92,-0.39,0.12,0.24,-3.17,-2.75,204,284,409,465,341
1408,0.92,-0.39,0.12,0.18,-3.05,-3.05,209,280,409,464,337
1409,0.93,-0.39,0.13,-1.04,-3.54,-2.56,210,286,410,461,340
1410,0.91,-0.4,0.12,-0.18,-3.78,-0.31,206,283,408,471,343
1411,0.91,-0.4,0.11,0.92,-3.72,-0.67,209,281,407,466,340
1412,0.92,-0.4,0.11,-0.06,-2.69,-2.2,206,286,412,467,341
1413,0.9,-0.41,0.12,-1.4,-1.89,-1.04,210,288,410,474,344
1414,0.9,-0.41,0.12,-0.85,-2.99,-1.71,202,284,411,465,343
1415,0.92,-0.41,0.12,0.92,-3.11,-8.79,210,286,406,465,342
1416,0.9,-0.42,0.11,1.04,-4.03,-1.53,207,282,408,461,343
1417,0.9,-0.41,0.11,3.42,-2.14,-2.81,210,284,409,464,344
1418,0.91,-0.4,0.12,0.61,-4.15,-4.33,206,283,410,466,341
1419,0.93,-0.4,0.15,0.37,-2.81,-3.72,199,279,413,466,343
1420,0.98,-0.35,0.17,6.71,-1.95,-3.17,212,282,408,462,342
1421,0.92,-0.37,0.16,-1.1,-4.03,-0.18,208,282,408,465,347
1422,0.91,-0.4,0.13,2.62,-3.48,-4.15,210,283,402,462,345
1423,0.91,-0.4,0.12,-0.92,-3.6,-3.36,205,273,409,467,344
1424,0.91,-0.4,0.1,-1.4,-2.93,-0.67,205,285,406,466,341
1425,0.92,-0.4,0.11,-0.55,-2.56,-2.87,209,277,407,466,341
1426,0.9,-0.41,0.12,-1.4,-3.36,-3.05,210,286,407,467,343
1427,0.92,-0.41,0.13,4.21,-2.87,-3.6,206,282,408,465,341
1428,0.92,-0.42,0.1,0.85,-2.69,-3.48,207,284,408,461,345
1429,0.94,-0.38,0.12,-4.82,-1.65,0.61,211,283,404,459,341
1430,0.93,-0.39,0.12,-2.87,-5.86,-5.31,211,283,407,466,344
1431,0.92,-0.39,0.11,1.77,-2.5,-3.91,210,281,407,465,339
1432,0.9,-0.4,0.1,2.44,-4.88,-4.21,209,282,407,465,343
1433,0.91,-0.39,0.11,4.58,-3.85,-2.08,211,283,404,464,347
1434,0.91,-0.39,0.11,-1.65,-2.69,-2.75,209,282,406,460,341
1435,0.91,-0.39,0.12,0.31,-3.05,-1.83,217,283,401,465,345
1436,0.92,-0.39,0.12,-0.37,-2.69,0.18,212,285,407,467,344
1437,0.93,-0.35,0.18,-6.9,-2.81,10.93,212,285,405,460,344
1438,1.01,-0.32,0.15,0.98,-2.99,-2.75,213,282,405,466,343
1439,0.94,-0.37,0.03,-1.89,-7.75,-3.23,205,291,408,466,344
1440,0.85,-0.44,0.06,-3.36,-3.78,6.59,208,281,405,462,338
1441,0.89,-0.45,0.06,-0.18,-3.54,-4.58,210,281,403,463,347
1442,0.92,-0.42,0.06,3.91,-1.16,-4.27,210,281,403,456,340
1443,0.91,-0.4,0.09,-0.24,0.18,-7.93,214,275,404,453,337
1444,0.92,-0.42,0.11,-2.99,-1.59,2.08,210,284,399,462,335
1445,0.91,-0.41,0.09,-5.49,-3.85,-5.86,209,282,404,461,341
1446,0.93,-0.41,0.1,-0.24,-1.89,-3.42,212,282,404,456,336
1447,0.91,-0.41,0.09,-0.43,-2.08,-1.95,211,281,402,455,336
1448,0.93,-0.4,0.1,1.59,-3.23,-3.6,211,284,401,452,337
1449,0.94,-0.39,0.13,-2.99,-3.23,-1.46,212,285,402,452,341
1450,0.89,-0.43,0.09,-2.69,-2.62,-0.67,211,282,400,459,341
1451,0.91,-0.42,0.09,-3.48,-4.27,3.97,208,284,397,452,344
1452,0.88,-0.4,0.09,-2.26,-2.26,-2.14,211,297,401,450,341
1453,0.9,-0.43,0.1,0.49,-3.3,-2.56,207,284,393,453,341
1454,0.91,-0.4,0.1,0.12,-3.42,-2.69,211,281,396,452,336
1455,0.9,-0.42,0.08,2.5,-2.87,-3.72,210,285,401,452,343
1456,0.89,-0.42,0.1,0.79,-5.49,1.04,203,285,399,454,341
1457,0.89,-0.44,0.11,-0.49,-3.23,-1.89,212,285,401,454,341
1458,0.89,-0.43,0.09,-4.46,-3.11,-5.74,212,284,400,451,340
1459,0.9,-0.43,0.1,2.26,-3.78,-4.03,209,282,395,457,338
1460,0.88,-0.42,0.14,1.53,0.85,-3.6,211,282,397,459,344
1461,0.9,-0.41,0.09,0.61,-3.54,-4.58,210,283,394,451,341
1462,0.89,-0.43,0.12,-1.71,-2.38,-2.38,212,289,393,457,344
1463,0.88,-0.43,0.08,3.78,-0.79,-4.21,214,278,398,457,344
1464,0.88,-0.43,0.08,0.37,-3.6,3.17,209,284,396,458,338
1465,0.9,-0.42,0.11,0.55,-1.65,-5.13,210,283,396,460,342
1466,0.91,-0.41,0.1,1.4,-3.23,-3.3,213,286,397,455,341
1467,0.92,-0.39,0.11,1.28,-3.36,-2.44,214,290,399,458,341
1468,0.93,-0.4,0.11,-1.16,-2.32,-4.39,214,284,394,455,342
1469,0.9,-0.41,0.11,1.89,-3.36,-4.09,235,283,396,453,344
1470,0.91,-0.41,0.11,0.92,-3.11,-4.27,210,283,400,457,347
1471,0.91,-0.41,0.13,0.67,-2.01,-2.93,210,281,402,455,343
1472,0.91,-0.41,0.12,1.04,-2.32,-2.2,212,284,401,455,339
1473,0.9,-0.4,0.14,2.44,-1.34,-1.4,210,284,399,454,344
1474,0.91,-0.4,0.13,-1.53,-3.05,-2.93,205,285,396,459,338
1475,0.9,-0.41,0.13,-5.13,-2.38,-1.1,211,283,402,453,340
1476,0.9,-0.41,0.11,-4.21,-3.6,2.32,212,282,400,452,329
1477,0.93,-0.39,0.11,4.15,-2.75,-5.55,214,279,401,458,342
1478,0.92,-0.4,0.13,3.05,-3.85,-2.14,213,279,398,466,339
1479,0.93,-0.38,0.14,1.22,-3.6,-2.32,216,283,399,470,341
1480,0.91,-0.4,0.12,1.4,-2.44,-3.05,211,283,400,460,338
1481,0.91,-0.39,0.1,-0.37,-3.11,-1.83,211,276,400,454,340
1482,0.92,-0.4,0.11,-0.24,-2.14,-2.44,207,280,402,450,337
1483,0.92,-0.4,0.12,-0.12,-2.87,-2.26,212,281,399,449,337
1484,0.91,-0.4,0.13,0.37,-2.99,-2.44,207,281,402,440,342
1485,0.91,-0.4,0.12,0.85,-3.72,-2.32,214,285,394,441,344
1486,0.92,-0.4,0.11,0.67,-3.23,-3.11,212,282,402,438,341
1487,0.92,-0.4,0.13,1.59,-2.93,-2.32,210,283,399,449,345
1488,0.91,-0.4,0.12,-0.06,-2.38,-2.93,212,281,403,445,344
1489,0.91,-0.4,0.12,-0.31,-2.2,-1.65,211,282,404,448,343
1490,0.91,-0.39,0.13,1.1,-2.14,-2.87,209,282,403,443,337
1491,0.92,-0.39,0.12,0.73,-3.11,-3.6,211,284,404,456,342
1492,0.91,-0.39,0.13,0.79,-3.91,-2.69,205,281,402,449,339
1493,0.9,-0.38,0.13,-0.43,-2.56,-1.71,211,282,402,454,350
1494,0.91,-0.4,0.14,0.12,-3.23,-2.87,208,285,403,448,342
1495,0.91,-0.38,0.15,-0.98,-1.65,-1.65,211,280,403,449,342
1496,0.91,-0.4,0.1,-5.49,-2.99,-6.1,212,282,406,450,338
1497,0.92,-0.38,0.12,1.4,-2.99,-2.93,212,282,397,452,339
1498,0.92,-0.38,0.12,-0.55,-2.75,-2.44,211,279,405,451,340
1499,0.91,-0.38,0.13,-0.79,-4.33,1.83,212,283,402,452,339
1500,0.93,-0.39,0.16,-0.49,-4.27,4.58,213,282,401,449,339
1501,0.93,-0.37,0.14,-1.1,-2.32,-0.85,211,280,402,452,338
1502,0.91,-0.37,0.12,-0.55,-2.14,-1.83,213,286,401,446,339
1503,0.92,-0.39,0.12,0.55,-2.62,-2.26,211,282,404,446,342
1504,0.92,-0.37,0.14,-1.04,-3.11,-2.69,213,283,400,449,341
1505,0.91,-0.39,0.12,-0.85,-2.44,-1.59,213,281,404,448,343
1506,0.92,-0.37,0.12,0.06,-2.93,-2.56,211,281,405,446,339
1507,0.93,-0.37,0.13,1.89,-1.83,-2.5,212,282,403,449,344
1508,0.93,-0.38,0.14,1.83,-2.69,-2.38,213,281,406,439,340
1509,0.91,-0.4,0.12,1.46,-3.17,-2.26,213,282,399,450,344
1510,0.91,-0.39,0.13,1.04,-4.82,-0.92,213,279,401,453,344
1511,0.93,-0.38,0.1,1.77,-3.48,-3.48,212,283,402,450,339
1512,0.9,-0.39,0.14,-1.95,-1.4,-0.85,213,281,401,452,341
1513,0.93,-0.36,0.14,-0.24,-4.46,-1.65,215,284,402,448,343
1514,0.91,-0.37,0.1,3.48,-1.34,-6.1,212,278,404,448,346
1515,0.92,-0.37,0.14,1.1,-2.01,-5.25,212,279,404,451,342
1516,0.94,-0.36,0.09,0.79,-1.22,-4.15,205,280,404,451,341
1517,0.92,-0.36,0.12,1.04,-2.75,-2.32,209,282,404,444,342
1518,0.92,-0.35,0.09,-3.36,-3.17,-1.59,239,282,402,447,338
1519,0.93,-0.35,0.15,1.4,-2.32,-3.6,209,282,399,445,337
1520,0.93,-0.34,0.12,-1.89,-3.66,-2.99,213,282,406,449,340
1521,0.95,-0.33,0.19,2.08,-5.37,-5.86,250,285,402,452,342
1522,0.93,-0.31,0.1,-2.14,0.12,-4.52,209,286,402,446,337
1523,0.95,-0.31,0.12,-5.43,0.61,-2.26,210,281,403,445,341
1524,0.96,-0.28,0.17,-2.32,-2.26,-2.75,206,282,402,445,343
1525,0.97,-0.3,0.17,4.88,-2.32,0.12,210,286,402,448,337
1526,0.96,-0.3,0.16,0.92,-2.44,0.31,211,282,398,451,340
1527,0.92,-0.34,0.14,-3.6,-3.42,-1.04,211,282,398,452,339
1528,0.93,-0.34,0.1,0.37,-3.3,-2.99,211,285,402,453,345
1529,0.91,-0.35,0.11,-1.65,-2.32,-3.85,213,282,400,449,341
1530,0.92,-0.35,0.15,3.54,-3.11,-3.11,212,283,403,445,340
1531,0.95,-0.32,0.15,3.6,-2.44,-3.42,221,282,405,445,344
1532,0.92,-0.34,0.13,-0.61,-2.87,-1.16,211,283,403,444,340
1533,0.93,-0.33,0.15,0.92,-2.44,-2.87,224,284,404,448,341
1534,0.94,-0.34,0.16,0.06,-2.32,-2.26,213,284,403,449,339
1535,0.94,-0.34,0.15,0.49,-2.99,-2.26,212,288,399,442,341
1536,0.93,-0.33,0.14,1.59,-3.42,-2.69,214,282,403,446,342
1537,0.94,-0.33,0.14,0.12,-3.3,-2.5,214,285,400,449,343
1538,0.93,-0.34,0.14,-0.06,-3.05,-2.44,214,288,402,449,340
1539,0.94,-0.33,0.18,2.5,-1.83,0.92,207,282,402,447,338
1540,0.92,-0.36,0.13,-0.24,-2.62,-3.48,211,287,402,450,342
1541,0.92,-0.35,0.13,-1.59,-3.05,-1.1,211,289,403,440,342
1542,0.92,-0.36,0.15,0.79,-2.62,-1.89,213,283,405,448,348
1543,0.93,-0.33,0.15,3.54,-3.78,-3.05,210,277,404,445,337
1544,0.94,-0.33,0.14,-0.43,-2.32,-6.35,210,284,402,447,340
1545,0.93,-0.34,0.14,-2.2,-2.99,-2.38,215,281,402,451,342
1546,0.93,-0.33,0.15,0.0,-2.62,-3.6,242,288,403,452,343
1547,0.93,-0.34,0.15,1.34,-1.89,-3.91,213,282,401,446,341
1548,0.94,-0.34,0.16,0.18,-2.14,-2.26,206,284,402,442,342
1549,0.94,-0.33,0.15,0.49,-3.48,-2.26,214,286,402,453,346
1550,0.93,-0.33,0.14,-0.61,-2.32,-1.53,206,285,403,451,339
1551,0.94,-0.33,0.15,-1.1,-3.17,-1.28,213,285,403,447,345
1552,0.97,-0.32,0.14,0.43,-3.66,-4.46,209,282,402,447,335
1553,0.92,-0.35,0.13,0.55,-2.75,-4.33,211,286,401,448,341
1554,0.93,-0.34,0.14,-1.59,-2.81,-2.75,210,285,402,440,339
1555,0.93,-0.33,0.15,0.18,-1.04,-4.82,206,284,405,444,343
1556,0.96,-0.3,0.18,0.73,-2.81,-2.5,210,288,398,450,345
1557,0.94,-0.32,0.17,-0.92,-2.81,-1.04,215,283,403,453,342
1558,0.94,-0.32,0.17,-0.79,-4.21,-1.77,209,283,402,442,341
1559,0.96,-0.32,0.14,-0.31,-2.75,-0.85,210,287,402,450,344
1560,0.96,-0.33,0.16,-3.72,-2.2,1.95,210,286,403,449,339
1561,0.95,-0.34,0.16,-3.66,-2.2,-1.46,220,289,402,451,342
1562,0.89,-0.38,0.16,4.15,-5.13,-3.78,213,285,404,444,341
1563,0.92,-0.37,0.14,2.75,-2.5,-3.78,213,282,404,452,338
1564,0.92,-0.36,0.13,2.01,-3.66,-1.28,214,283,403,452,341
1565,0.92,-0.36,0.13,0.31,-1.95,-1.83,212,287,402,443,343
1566,0.92,-0.36,0.14,0.49,-2.69,-2.32,211,281,398,444,345
1567,0.91,-0.37,0.15,-1.4,-2.44,-1.89,210,286,401,446,342
1568,0.93,-0.37,0.13,1.1,-1.46,-3.11,215,287,400,444,345
1569,0.96,-0.33,0.14,-3.05,-3.91,-0.92,212,281,403,449,341
1570,0.93,-0.35,0.14,-2.2,-2.69,-2.08,221,283,402,453,344
1571,0.96,-0.33,0.15,3.23,-3.11,-3.05,214,284,401,450,345
1572,0.93,-0.33,0.16,-1.95,-2.14,-1.77,212,286,401,451,338
1573,0.92,-0.35,0.12,1.83,-1.77,-6.65,217,283,404,452,345
1574,0.93,-0.35,0.13,2.2,-3.48,-3.42,211,288,401,449,335
1575,0.91,-0.36,0.13,-2.69,-2.87,-1.04,216,284,400,448,343
1576,0.96,-0.33,0.15,3.72,-4.94,-2.5,211,284,399,451,342
1577,0.92,-0.38,0.09,1.34,-8.91,-0.37,211,283,403,448,341
1578,0.93,-0.4,0.13,-4.64,-6.23,1.1,213,285,401,453,340
1579,0.9,-0.4,0.12,6.96,2.44,-1.34,214,287,401,448,343
1580,0.92,-0.4,0.16,1.89,-3.23,1.59,212,285,400,450,338
1581,0.92,-0.36,0.17,1.04,-2.01,2.32,212,285,405,447,342
1582,0.94,-0.4,0.14,5.86,-10.31,0.31,211,285,397,444,341
1583,0.89,-0.44,0.11,1.71,-2.44,2.56,214,286,403,448,346
1584,0.86,-0.47,0.06,0.06,-4.52,-2.81,207,286,405,449,342
1585,0.91,-0.43,0.11,0.55,-0.67,-5.25,210,284,401,448,340
1586,0.91,-0.41,0.14,-0.43,0.55,-2.75,209,282,397,449,340
1587,0.91,-0.4,0.15,1.1,-3.17,-2.38,212,284,406,442,344
1588,0.89,-0.42,0.13,1.46,-2.81,-1.53,209,284,401,444,342
1589,0.91,-0.41,0.11,0.06,-1.65,-3.17,216,283,404,443,339
1590,0.9,-0.41,0.12,1.89,-2.87,-1.46,214,281,404,448,345
1591,0.9,-0.4,0.12,0.98,-1.04,-3.05,215,287,402,444,343
1592,0.92,-0.39,0.16,-0.49,-2.38,-1.4,213,285,402,449,340
1593,0.85,-0.44,0.13,-1.95,0.24,-5.55,212,281,397,445,345
1594,0.89,-0.36,0.11,1.1,-6.16,1.16,214,282,399,452,344
1595,0.92,-0.36,0.14,-5.19,-7.81,4.27,210,291,399,448,344
1596,0.92,-0.44,0.02,6.04,-4.64,-9.83,213,284,402,448,341
1597,0.86,-0.44,0.08,5.74,-1.77,4.46,209,283,402,450,342
1598,0.89,-0.45,0.09,-2.38,-4.27,-4.52,212,283,402,450,341
1599,0.87,-0.47,0.03,-2.93,-1.71,-7.14,212,284,401,450,342
1600,0.92,-0.4,0.04,-5.07,-4.33,-2.99,217,285,399,443,342
1601,0.95,-0.4,0.09,8.3,-5.07,0.0,209,285,403,451,341
1602,0.9,-0.45,0.0,2.93,-0.49,-6.1,215,283,403,446,340
1603,0.95,-0.39,0.07,0.92,-5.98,-4.58,211,283,399,451,340
1604,0.89,-0.46,0.03,0.79,-2.38,-6.59,217,285,401,450,340
1605,0.91,-0.41,0.02,0.37,-1.04,-4.33,211,283,402,448,348
1606,0.92,-0.39,0.06,-0.67,-2.87,-2.75,216,284,399,449,343
1607,0.92,-0.41,0.04,0.55,-2.44,-2.81,207,284,403,446,341
1608,0.92,-0.4,0.05,0.61,-3.17,-1.65,211,283,400,446,347
1609,0.91,-0.4,0.03,-2.01,-1.77,-1.34,213,284,399,441,340
1610,0.9,-0.42,0.05,-0.12,-2.26,-3.17,212,285,402,450,341
1611,0.9,-0.41,0.05,-3.23,-4.64,-1.16,214,285,397,449,341
1612,0.93,-0.4,0.03,-2.26,-0.18,-0.61,210,290,401,441,344
1613,0.89,-0.41,0.06,2.99,-1.89,-9.4,210,280,403,451,345
1614,0.94,-0.35,0.01,-6.84,1.89,-4.76,210,286,396,448,344
1615,0.95,-0.37,0.09,0.06,8.91,-10.13,215,285,400,452,344
1616,0.93,-0.31,0.16,4.27,-0.31,-9.83,211,285,402,449,343
1617,0.97,-0.3,0.15,-1.83,-3.78,1.59,215,284,397,453,339
1618,0.93,-0.33,0.13,-0.37,-5.0,-0.49,213,284,397,452,343
1619,0.95,-0.33,0.13,-0.37,-4.46,-0.55,205,282,403,445,344
1620,0.94,-0.36,0.11,-0.06,-5.37,-0.85,211,284,401,448,347
1621,0.92,-0.39,0.09,1.59,-4.82,-2.56,211,289,403,453,340
1622,0.9,-0.41,0.1,-0.18,-2.38,-1.04,211,282,401,447,341
1623,0.91,-0.4,0.09,-0.31,-3.17,-3.66,213,284,402,448,344
1624,0.93,-0.37,0.11,2.38,-3.17,-3.85,213,284,401,449,346
1625,0.9,-0.41,0.13,1.16,-2.81,-0.43,211,282,400,446,341
1626,0.92,-0.39,0.11,-0.49,-3.3,-1.77,210,281,401,442,346
1627,0.92,-0.39,0.1,0.49,-1.95,0.06,214,281,399,449,344
1628,0.93,-0.39,0.08,-1.28,-1.34,-4.76,204,283,402,449,343
1629,0.87,-0.46,0.1,1.34,-3.3,-5.92,194,277,437,461,343
1630,0.9,-0.43,0.1,4.52,-1.53,-7.14,198,274,438,466,344
1631,0.9,-0.41,0.13,-0.06,-0.73,-4.46,192,266,437,459,340
1632,0.91,-0.41,0.14,-0.67,-1.77,-2.62,198,270,433,453,342
1633,0.92,-0.39,0.14,0.67,-2.38,-3.05,197,277,436,463,343
1634,0.91,-0.4,0.13,-1.16,-3.3,-2.2,202,271,433,457,351
1635,0.89,-0.41,0.13,0.31,-3.72,-2.38,194,268,433,453,343
1636,0.9,-0.4,0.1,0.73,-2.56,-2.5,198,266,434,454,345
1637,0.91,-0.41,0.13,-1.16,-4.09,-1.89,194,271,433,458,342
1638,0.9,-0.42,0.12,-0.12,-1.95,-0.67,200,267,431,456,340
1639,0.89,-0.43,0.11,0.92,-5.43,1.22,194,275,432,457,344
1640,0.92,-0.41,0.11,-0.06,-2.08,-1.4,198,270,432,464,344
1641,0.9,-0.42,0.1,-0.85,-3.17,-1.04,199,270,431,455,344
1642,0.9,-0.42,0.12,2.32,-0.06,-3.91,214,270,430,449,343
1643,0.92,-0.41,0.11,-0.43,-2.44,-2.44,198,269,430,463,342
1644,0.9,-0.42,0.12,0.43,-3.6,-2.5,191,273,433,459,347
1645,0.91,-0.4,0.11,-1.28,-2.32,-2.5,202,275,431,460,346
1646,0.87,-0.44,0.11,-1.1,-2.75,-3.85,198,271,432,458,342
1647,0.9,-0.42,0.12,-0.18,-1.95,-5.31,200,276,432,460,348
1648,0.88,-0.43,0.13,-3.23,-1.1,-1.16,200,273,427,455,347
1649,0.9,-0.41,0.11,-2.08,-3.05,0.73,199,277,430,459,345
1650,0.91,-0.42,0.12,1.65,-4.09,-2.93,199,278,430,460,342
1651,0.89,-0.44,0.1,1.53,-3.91,-0.73,201,275,425,458,344
1652,0.88,-0.45,0.1,-2.26,-2.87,0.37,198,274,428,455,343
1653,0.89,-0.43,0.09,0.12,-4.46,-1.04,206,274,427,467,345
1654,0.91,-0.43,0.1,3.48,-3.91,-5.55,200,278,431,462,344
1655,0.91,-0.42,0.11,3.85,-3.54,-3.36,200,275,429,461,341
1656,0.89,-0.44,0.1,0.43,-3.54,-2.26,203,277,425,465,340
1657,0.9,-0.42,0.12,5.31,-3.72,-4.21,200,277,434,463,343
1658,0.9,-0.42,0.1,1.1,-1.22,-5.49,200,280,431,460,345
1659,0.91,-0.44,0.1,2.44,-2.5,-1.16,204,278,428,462,343
1660,0.89,-0.42,0.1,0.43,-3.78,-3.42,206,273,426,464,342
1661,0.9,-0.44,0.09,-0.31,-3.17,-3.42,202,279,422,460,344
1662,0.9,-0.42,0.1,0.31,-3.05,-1.1,208,276,431,465,344
1663,0.9,-0.49,0.11,-1.4,-2.75,-4.33,203,279,427,458,343
1664,0.9,-0.44,0.1,-2.56,-4.27,-1.89,205,276,430,461,349
1665,0.9,-0.44,0.1,-1.95,-0.37,-2.62,208,276,422,455,342
1666,0.9,-0.42,0.09,3.05,-3.05,-2.99,203,278,421,460,342
1667,0.89,-0.45,0.09,-0.79,-2.93,-2.81,203,277,423,459,339
1668,0.9,-0.43,0.1,3.36,-4.76,-3.3,200,273,420,449,341
1669,0.9,-0.44,0.1,0.0,-2.62,-2.81,203,279,424,457,342
1670,0.9,-0.44,0.09,2.38,-2.62,-3.85,200,279,422,460,341
1671,0.89,-0.44,0.1,0.49,-2.14,-2.08,203,273,419,456,341
1672,0.89,-0.45,0.1,0.61,-4.64,-2.99,198,282,425,449,341
1673,0.89,-0.45,0.1,-1.77,-3.36,-3.85,199,279,421,458,343
1674,0.9,-0.45,0.09,0.49,-3.05,-1.89,205,287,420,459,339
1675,0.88,-0.46,0.07,0.85,-2.08,-3.91,205,277,424,459,344
1676,0.89,-0.45,0.09,-1.46,-2.62,-0.92,201,279,424,466,343
1677,0.9,-0.43,0.1,1.65,-3.11,-2.62,196,281,423,459,345
1678,0.9,-0.44,0.09,-1.04,-3.23,-2.5,208,278,424,464,344
1679,0.91,-0.44,0.1,0.49,-2.93,-2.5,203,279,422,462,338
1680,0.9,-0.44,0.11,2.38,-1.89,-3.85,202,278,422,462,342
1681,0.9,-0.43,0.1,-2.44,-1.53,-3.54,205,276,424,462,347
1682,0.9,-0.43,0.11,0.61,-2.99,-3.05,203,277,423,464,343
1683,0.89,-0.43,0.09,-0.67,-3.42,-4.39,204,278,422,465,343
1684,0.91,-0.43,0.1,0.06,-2.5,-3.05,206,279,422,462,346
1685,0.91,-0.41,0.1,2.87,-3.11,-4.03,203,275,422,461,341
1686,0.91,-0.42,0.11,0.0,-2.14,-2.38,204,278,422,460,343
1687,0.9,-0.42,0.1,-0.55,-0.31,-2.56,204,280,422,463,340
1688,0.91,-0.41,0.12,1.34,-2.93,-2.69,198,277,424,464,339
1689,0.9,-0.41,0.11,0.31,-2.32,-1.95,203,274,423,461,345
1690,0.91,-0.41,0.11,-0.06,-2.38,-2.81,202,283,422,464,344
1691,0.91,-0.41,0.11,-0.18,-2.44,-3.23,201,277,422,458,343
1692,0.91,-0.41,0.1,0.98,-3.05,-2.87,202,278,414,460,343
1693,0.91,-0.41,0.11,1.34,-4.09,-2.56,205,277,425,459,343
1694,0.91,-0.41,0.11,0.61,-2.81,-2.26,197,276,421,463,343
1695,0.91,-0.42,0.11,0.43,-2.2,-2.99,203,278,421,464,341
1696,0.91,-0.41,0.11,0.0,-2.38,-3.48,201,279,417,459,342
1697,0.91,-0.4,0.12,-0.79,-2.5,-3.05,203,278,419,455,343
1698,0.92,-0.39,0.09,2.2,-3.3,-8.48,204,280,423,462,341
1699,0.91,-0.39,0.12,1.4,-3.85,-6.04,204,277,418,461,341
1700,0.9,-0.39,0.12,1.1,-2.62,-2.44,198,277,415,465,342
1701,0.94,-0.36,0.13,-0.73,-1.83,-2.62,219,280,418,464,341
1702,0.91,-0.38,0.13,-3.91,2.2,-2.2,205,276,421,462,343
1703,0.93,-0.35,0.16,4.39,-3.17,-0.43,211,280,416,459,338
1704,0.99,-0.3,0.11,-5.49,-10.07,-2.69,202,280,418,462,341
1705,0.89,-0.42,0.1,-2.2,0.31,-5.07,209,278,419,464,339
1706,0.94,-0.36,0.09,4.27,-1.34,-2.44,214,274,416,463,343
1707,0.95,-0.37,0.09,2.75,-2.93,-2.87,204,273,419,459,342
1708,0.9,-0.4,0.14,2.2,-5.31,-0.73,205,279,417,460,344
1709,0.93,-0.4,0.12,2.14,-1.89,-0.31,203,276,414,461,343
1710,0.89,-0.44,0.1,3.66,-5.43,-1.83,206,280,421,462,335
1711,0.92,-0.41,0.11,-0.06,-2.62,-3.3,200,271,417,460,350
1712,0.88,-0.44,0.13,-0.73,-3.48,-2.69,204,280,418,468,344
1713,0.89,-0.44,0.17,1.28,-4.7,-0.92,203,277,419,465,345
1714,0.91,-0.43,0.08,0.12,-0.73,-1.95,205,279,422,454,340
1715,0.93,-0.41,0.16,-4.46,-3.72,5.31,203,278,420,455,343
1716,0.88,-0.47,0.14,2.01,-5.13,0.31,197,276,421,464,339
1717,0.85,-0.5,0.12,1.77,-5.68,-3.11,212,278,422,462,341
1718,0.85,-0.46,0.16,-7.02,-10.13,-6.65,201,278,418,457,341
1719,0.87,-0.49,0.02,-5.31,-8.97,1.89,209,278,418,462,345
1720,0.91,-0.48,-0.05,-4.03,-0.79,-5.68,202,277,416,460,341
1721,0.91,-0.46,-0.04,2.5,-5.43,-3.91,203,277,412,457,341
1722,0.87,-0.46,-0.02,1.46,-7.32,-2.5,201,280,416,461,344
1723,0.83,-0.49,-0.1,-3.36,3.78,-5.07,205,281,417,459,343
1724,0.9,-0.44,-0.03,-3.05,-1.95,-2.75,204,279,411,460,342
1725,0.93,-0.42,-0.01,-0.24,-2.62,-4.76,203,278,415,460,341
1726,0.86,-0.49,-0.04,-1.95,-3.85,-3.48,207,278,416,459,342
1727,0.91,-0.43,-0.05,0.06,-1.83,-3.48,203,280,412,457,342
1728,0.89,-0.44,-0.05,2.99,-4.82,-1.04,204,281,417,454,344
1729,0.89,-0.45,-0.06,0.67,-3.17,-2.14,206,280,413,455,338
1730,0.89,-0.45,-0.05,-0.24,-2.81,-1.89,204,274,415,446,345
1731,0.89,-0.44,-0.05,-0.92,-2.14,-1.22,204,281,420,463,339
1732,0.89,-0.44,-0.05,0.0,-2.56,-3.48,205,275,415,443,341
1733,0.9,-0.44,-0.05,-1.1,-3.6,-2.26,205,283,416,460,333
1734,0.89,-0.44,-0.04,-1.1,-2.69,-1.95,203,282,414,459,346
1735,0.9,-0.44,-0.05,-0.12,-3.05,-1.89,203,279,408,453,340
1736,0.9,-0.44,-0.05,0.06,-3.3,-2.5,202,276,415,448,343
1737,0.9,-0.43,-0.05,0.06,-3.11,-2.69,202,275,416,460,344
1738,0.91,-0.43,-0.03,0.37,-2.44,-1.83,203,280,413,458,346
1739,0.9,-0.44,-0.04,0.92,-3.91,-2.01,204,282,413,458,339
1740,0.91,-0.43,-0.04,-0.31,-2.69,-2.01,206,279,417,458,344
1741,0.92,-0.43,-0.03,0.06,-2.56,-1.71,209,281,425,449,339
1742,0.89,-0.46,-0.02,0.55,-2.87,-2.87,204,276,411,457,342
1743,0.87,-0.47,-0.04,-1.34,1.77,-5.0,209,279,415,462,341
1744,0.91,-0.45,-0.04,-1.16,-2.87,-1.4,201,281,414,455,343
1745,0.88,-0.47,-0.05,1.34,-3.48,-2.44,209,279,407,456,343
1746,0.89,-0.46,-0.04,0.24,-2.75,-3.3,198,278,415,461,340
1747,0.9,-0.45,-0.02,-0.31,-3.3,-1.53,202,274,415,459,341
1748,0.9,-0.44,-0.05,4.46,-3.42,-4.88,201,281,417,454,344
1749,0.9,-0.45,-0.04,1.4,-4.76,-2.99,202,280,414,456,345
1750,0.88,-0.46,-0.03,0.67,-2.32,-2.5,207,277,412,457,343
1751,0.9,-0.44,-0.03,-1.04,-1.53,-3.11,207,281,412,457,341
1752,0.91,-0.43,-0.03,0.12,-2.26,-5.62,231,279,413,459,344
1753,0.88,-0.46,-0.05,-0.98,-4.76,-3.91,198,282,414,462,338
1754,0.92,-0.41,0.0,3.42,-2.2,-7.26,204,282,411,456,343
1755,0.89,-0.4,-0.04,-2.5,0.67,-4.03,205,281,411,458,341
1756,0.85,-0.44,-0.0,-5.49,0.55,-1.83,209,282,410,455,343
1757,0.89,-0.41,-0.01,0.37,-2.69,-5.55,194,283,410,458,341
1758,0.94,-0.41,0.05,-4.39,-1.46,2.5,203,278,413,455,346
1759,0.91,-0.42,0.03,-1.04,-2.01,-1.46,210,282,414,459,341
1760,0.91,-0.42,0.05,3.11,-0.55,-2.38,205,280,416,456,341
1761,0.9,-0.42,0.04,0.31,-2.01,-2.99,202,278,413,458,339
1762,0.92,-0.4,0.06,-0.61,-4.39,-2.26,203,279,416,453,341
1763,0.89,-0.42,0.04,0.31,-3.48,-1.77,204,281,412,456,344
1764,0.94,-0.39,0.03,-1.04,-2.56,-2.56,206,280,412,471,345
1765,0.91,-0.41,0.02,-2.87,-2.99,-3.17,202,280,405,455,344
1766,0.89,-0.44,0.04,-4.33,-2.62,-2.93,205,275,410,459,343
1767,0.92,-0.41,0.02,2.56,-2.81,-0.31,205,279,414,456,343
1768,0.89,-0.46,-0.0,6.16,-1.77,3.17,208,284,413,458,345
1769,0.88,-0.45,0.02,-2.69,-4.46,-1.34,204,278,414,453,343
1770,0.89,-0.45,0.05,-1.28,-2.99,-1.28,203,277,412,463,344
1771,0.9,-0.45,0.04,2.87,-1.1,-2.69,209,281,409,452,345
1772,0.9,-0.43,0.05,-1.89,-2.56,-3.17,203,284,415,457,343
1773,0.91,-0.42,0.06,-0.98,-2.62,-3.17,217,282,411,458,339
1774,0.9,-0.43,0.05,-0.85,-4.76,-3.05,204,282,412,452,342
1775,0.91,-0.43,0.05,-0.49,-4.58,-2.62,205,278,415,457,342
1776,0.91,-0.43,0.05,0.79,-2.81,-2.44,207,283,414,459,340
1777,0.9,-0.43,0.04,0.85,-2.75,-4.21,209,277,412,460,339
1778,0.91,-0.42,0.05,0.31,-3.17,-3.66,205,276,412,457,344
1779,0.9,-0.43,0.04,1.16,-2.62,-2.5,197,281,412,458,341
1780,0.9,-0.43,0.05,0.49,-2.26,-2.32,207,283,413,459,339
1781,0.91,-0.43,0.05,0.37,-2.38,-1.77,205,280,409,460,343
1782,0.9,-0.44,0.04,-0.85,-3.72,-2.75,207,281,409,461,342
1783,0.89,-0.43,0.04,1.89,-2.87,-3.6,217,284,410,458,346
1784,0.91,-0.43,0.06,0.92,-2.75,0.79,204,277,412,459,343
1785,0.9,-0.44,0.06,-0.79,-2.01,-2.26,199,282,415,452,341
1786,0.9,-0.43,0.05,-0.31,-3.11,-2.5,206,279,411,457,341
1787,0.9,-0.43,0.07,0.06,-1.95,-2.32,202,276,411,458,343
1788,0.91,-0.43,0.06,-0.18,-3.05,-0.49,197,284,415,451,346
1789,0.9,-0.44,0.06,1.4,-3.3,-1.89,207,280,411,460,343
1790,0.9,-0.45,0.05,1.04,-2.14,-3.72,204,279,410,461,343
1791,0.9,-0.44,0.07,1.16,-3.05,-2.87,208,283,410,457,344
1792,0.9,-0.44,0.05,0.67,-2.81,-2.08,206,277,410,454,343
1793,0.9,-0.44,0.04,-2.2,-3.72,-0.37,206,285,411,457,343
1794,0.91,-0.44,0.07,-2.69,-3.36,-1.4,208,285,416,453,343
1795,0.89,-0.45,0.06,-0.24,-3.48,-3.17,209,280,410,457,346
1796,0.91,-0.44,0.07,1.22,-3.42,-3.11,203,281,411,467,343
1797,0.9,-0.45,0.05,2.87,-2.44,-3.66,206,290,409,461,339
1798,0.9,-0.44,0.04,-0.06,-2.75,-1.77,203,282,409,455,340
1799,0.9,-0.43,0.04,0.0,-2.99,-2.69,206,280,412,456,343
1800,0.9,-0.44,0.04,0.24,-2.2,-3.97,208,279,411,453,342
1801,0.88,-0.45,0.04,0.67,-2.38,-4.52,203,284,408,458,343
1802,0.89,-0.45,0.03,1.95,-0.55,-2.44,208,283,412,456,342
1803,0.87,-0.45,0.04,-0.85,1.16,-5.13,203,278,413,456,342
1804,0.9,-0.41,0.04,0.73,-2.2,-10.44,208,281,410,456,340
1805,0.87,-0.44,0.09,-1.59,-0.85,-4.82,206,278,407,458,344
1806,0.91,-0.41,0.09,0.73,-5.13,-6.59,209,281,414,458,351
1807,0.92,-0.38,0.12,1.28,-4.52,-0.37,205,281,408,457,348
1808,0.91,-0.39,0.09,2.32,-4.03,1.53,206,279,413,457,343
1809,0.94,-0.36,0.13,2.01,-2.2,1.65,206,276,408,453,342
1810,0.97,-0.33,0.13,8.12,-0.49,-14.59,207,282,411,459,342
1811,0.95,-0.37,0.06,-2.62,11.11,-11.9,205,287,408,459,343
1812,0.93,-0.37,0.1,-5.49,0.49,-0.61,208,283,410,457,343
1813,0.92,-0.37,0.11,2.81,-4.27,0.73,202,282,411,456,339
1814,0.93,-0.36,0.13,7.08,-3.05,-11.05,204,279,410,457,339
1815,0.91,-0.38,0.16,-2.62,5.37,-3.36,203,276,409,462,341
1816,0.93,-0.36,0.15,-5.07,-3.6,-0.12,205,278,410,454,341
1817,0.91,-0.38,0.14,-1.34,-1.46,-2.93,206,280,410,456,337
1818,0.94,-0.33,0.14,1.34,-3.17,-3.23,219,278,409,458,340
1819,0.94,-0.35,0.15,0.06,-1.71,-1.04,206,278,408,459,339
1820,0.94,-0.34,0.14,-0.49,-3.42,-4.33,210,278,413,461,336
1821,0.94,-0.33,0.15,-4.88,-4.88,2.32,207,279,412,452,340
1822,0.94,-0.34,0.11,-3.78,-4.21,-3.05,207,278,412,461,338
1823,0.91,-0.38,0.14,-1.04,-5.74,-0.55,203,278,405,459,340
1824,0.94,-0.36,0.13,-2.38,-6.35,3.72,208,278,406,473,336
1825,0.91,-0.41,0.1,-1.1,-3.23,-4.46,210,282,409,456,341
1826,0.89,-0.42,0.08,1.22,-1.16,-2.69,207,290,414,461,339
1827,0.91,-0.39,0.09,-0.37,-3.66,-3.97,202,283,409,457,341
1828,0.91,-0.4,0.1,1.89,-3.17,-1.83,205,282,411,452,340
1829,0.92,-0.4,0.1,-1.28,-2.2,-1.77,231,281,411,456,341
1830,0.91,-0.41,0.09,-0.73,-3.17,-2.5,205,280,411,460,340
1831,0.92,-0.4,0.1,-0.24,-2.93,-1.71,205,280,411,451,338
1832,0.94,-0.38,0.12,-0.37,-2.93,-1.04,207,279,409,451,338
1833,0.92,-0.4,0.09,0.79,-2.93,-3.11,208,279,412,454,344
1834,0.92,-0.41,0.1,-0.31,-2.69,-3.17,202,281,408,454,343
1835,0.91,-0.41,0.11,0.31,-1.59,-1.4,209,284,408,452,341
1836,0.91,-0.4,0.09,0.12,-3.66,-2.26,204,277,408,459,341
1837,0.9,-0.41,0.1,-1.95,-2.01,-0.55,203,279,413,455,342
1838,0.92,-0.41,0.09,0.92,-3.85,-2.75,230,281,405,456,340
1839,0.92,-0.4,0.08,-0.31,-1.83,-2.56,205,279,408,455,343
1840,0.89,-0.42,0.12,2.2,-2.08,-4.88,207,280,406,455,344
1841,0.93,-0.4,0.09,0.55,-5.0,-3.54,209,281,409,451,341
1842,0.92,-0.39,0.1,0.67,-2.93,-4.64,207,282,407,456,338
1843,0.91,-0.4,0.1,4.46,-3.42,-3.91,207,282,409,453,345
1844,0.91,-0.41,0.11,0.79,-2.44,-2.69,208,274,410,453,345
1845,0.92,-0.41,0.1,0.37,-2.2,-3.17,207,284,406,461,344
1846,0.91,-0.41,0.1,1.59,-2.62,-2.99,211,282,409,457,335
1847,0.91,-0.4,0.1,-1.34,-2.01,-2.44,206,275,403,457,341
1848,0.91,-0.41,0.11,1.16,-2.93,-3.6,205,278,410,456,340
1849,0.92,-0.4,0.11,0.92,-3.6,-1.77,208,281,408,456,338
1850,0.92,-0.41,0.09,-3.05,-3.6,-2.38,208,284,410,466,338
1851,0.89,-0.42,0.13,-0.61,-2.38,-1.83,205,280,412,457,342
1852,0.9,-0.4,0.1,0.67,-2.62,-2.08,209,282,409,459,344
1853,0.9,-0.41,0.13,2.01,-4.7,-1.53,202,280,421,465,338
1854,0.91,-0.42,0.1,2.87,-3.3,-2.87,209,284,411,459,340
1855,0.9,-0.42,0.11,-1.04,-2.81,-2.93,204,280,412,465,341
1856,0.94,-0.39,0.09,-1.59,-3.91,-4.52,200,285,425,466,341
1857,0.91,-0.41,0.11,-0.06,-2.32,-2.44,207,274,411,464,336
1858,0.91,-0.4,0.11,-1.22,-2.44,-2.99,208,284,414,461,342
1859,0.92,-0.4,0.13,3.23,-2.87,-4.27,204,279,416,462,338
1860,0.91,-0.4,0.13,2.2,-3.17,-3.3,204,288,411,464,340
1861,0.92,-0.4,0.12,-0.12,-3.42,-1.83,206,286,413,464,337
1862,0.92,-0.4,0.12,1.4,-2.69,-2.32,208,279,413,461,341
1863,0.92,-0.4,0.12,0.49,-2.81,-3.42,204,278,414,463,340
1864,0.92,-0.4,0.11,0.55,-2.75,-2.75,207,280,414,466,341
1865,0.92,-0.4,0.13,-0.31,-3.05,-2.56,210,279,417,459,340
1866,0.92,-0.39,0.12,-0.85,-3.17,-2.14,210,283,414,466,341
1867,0.92,-0.39,0.13,0.98,-3.3,-2.26,199,273,415,464,339
1868,0.9,-0.41,0.1,-0.06,-2.62,-3.05,212,279,413,466,339
1869,0.9,-0.41,0.11,2.56,-3.23,-2.93,206,283,414,465,342
1870,0.92,-0.4,0.13,1.4,-2.93,-2.81,205,281,413,462,341
1871,0.91,-0.4,0.12,-1.1,-2.56,-2.56,207,279,412,459,340
1872,0.91,-0.4,0.12,0.24,-3.05,-2.81,210,275,413,464,340
1873,0.92,-0.4,0.11,0.55,-2.93,-2.69,207,276,409,466,342
1874,0.92,-0.41,0.12,0.79,-2.99,-2.75,209,279,411,469,341
1875,0.91,-0.41,0.12,-0.12,-2.62,-2.69,205,277,412,466,337
1876,0.91,-0.4,0.12,0.12,-3.66,-2.08,206,280,411,466,339
1877,0.92,-0.4,0.12,0.18,-2.93,-2.14,204,274,408,461,342
1878,0.91,-0.41,0.1,0.98,-2.14,-2.26,210,278,412,481,341
1879,0.91,-0.41,0.1,-0.92,-3.23,-2.62,209,282,409,459,340
1880,0.93,-0.39,0.13,1.22,-3.05,-2.93,202,284,415,459,338
1881,0.92,-0.4,0.12,-0.12,-2.87,-2.01,202,286,413,462,341
1882,0.91,-0.41,0.11,0.06,-2.75,-2.38,206,281,414,467,343
1883,0.91,-0.41,0.12,-0.12,-3.05,-2.56,213,277,412,463,337
1884,0.91,-0.4,0.12,0.61,-3.11,-3.23,209,279,413,464,344
1885,0.92,-0.4,0.13,1.59,-3.42,-2.69,208,281,408,459,339
1886,0.91,-0.41,0.11,0.55,-3.05,-2.56,208,277,413,470,339
1887,0.92,-0.39,0.11,1.71,-2.99,-2.08,210,281,415,464,343
1888,0.92,-0.4,0.11,-0.18,-2.56,-2.69,207,281,411,464,341
1889,0.9,-0.41,0.1,0.18,-2.99,-1.46,206,277,414,465,341
1890,0.9,-0.41,0.12,-1.89,-2.75,-0.18,207,279,415,465,340
1891,0.91,-0.4,0.1,-0.55,-2.38,-2.99,211,285,410,463,343
1892,0.91,-0.4,0.12,0.06,-4.27,-0.98,208,281,410,462,341
1893,0.93,-0.39,0.11,-0.85,-3.05,-0.43,201,280,411,468,337
1894,0.9,-0.42,0.08,-1.46,-2.93,-2.38,210,281,412,471,339
1895,0.91,-0.4,0.07,1.53,-2.87,-3.78,203,283,409,465,342
1896,0.9,-0.42,0.1,1.95,-3.91,-6.23,206,285,412,470,340
1897,0.9,-0.43,0.11,-2.08,-2.44,-1.04,206,278,413,467,342
1898,0.88,-0.44,0.16,5.49,-2.38,0.31,208,284,410,466,341
1899,0.9,-0.43,0.13,-5.49,-1.53,-0.06,210,282,413,468,343
1900,0.93,-0.41,0.13,-4.46,-3.11,-0.85,214,286,411,466,340
1901,0.91,-0.41,0.12,1.59,-2.38,-2.08,210,282,409,463,341
1902,0.92,-0.4,0.12,1.53,-2.99,-3.17,209,285,411,466,343
1903,0.9,-0.41,0.11,0.85,-3.05,-1.83,210,278,416,468,340
1904,0.9,-0.41,0.11,-0.37,-2.69,-2.26,213,279,410,465,341
1905,0.9,-0.4,0.13,-0.24,-3.05,-2.14,206,277,411,457,340
1906,0.92,-0.4,0.11,-1.95,-2.56,0.06,209,280,414,468,344
1907,0.92,-0.4,0.11,1.83,-2.93,-3.85,204,283,414,463,339
1908,0.91,-0.41,0.1,0.12,-2.2,-2.44,208,276,408,468,340
1909,0.89,-0.42,0.11,-0.79,-2.44,-0.43,205,284,407,468,346
1910,0.91,-0.41,0.1,-0.98,-3.72,-3.11,203,282,414,469,341
1911,0.92,-0.4,0.12,-0.61,-2.32,-2.2,203,282,402,468,345
1912,0.87,-0.44,0.12,0.18,-1.34,-2.69,207,280,408,465,344
1913,0.9,-0.41,0.11,-1.59,-3.85,-0.43,208,282,409,464,339
1914,0.9,-0.42,0.11,-0.67,-3.05,-2.32,208,285,408,465,342
1915,0.92,-0.4,0.12,-0.37,-3.3,-3.11,217,284,408,466,344
1916,0.92,-0.41,0.12,-0.12,-3.3,-1.59,209,278,410,466,345
1917,0.92,-0.39,0.1,0.0,-4.03,-1.89,207,280,406,461,341
1918,0.92,-0.4,0.12,1.46,-2.62,-2.87,206,281,413,464,342
1919,0.9,-0.41,0.1,1.71,-3.05,-1.89,204,278,412,469,345
1920,0.91,-0.41,0.11,-0.49,-2.99,-1.89,201,285,411,463,343
1921,0.9,-0.41,0.12,0.49,-2.75,-1.59,207,284,414,464,347
1922,0.91,-0.41,0.12,2.69,-2.14,-3.6,212,282,403,465,346
1923,0.91,-0.41,0.11,-1.28,-3.17,-1.34,205,283,411,467,342
1924,0.9,-0.42,0.1,0.49,-2.56,-5.07,208,283,416,470,345
1925,0.91,-0.41,0.12,0.18,-3.23,-1.4,206,281,415,464,342
1926,0.91,-0.41,0.1,0.31,-3.3,-1.59,197,282,410,465,342
1927,0.91,-0.41,0.11,1.04,-2.44,-2.81,237,284,414,468,341
1928,0.91,-0.41,0.11,-1.53,-3.85,-3.6,207,287,407,468,341
1929,0.91,-0.41,0.11,0.06,-3.23,-0.85,206,280,408,469,346
1930,0.88,-0.43,0.09,0.31,-2.5,-2.14,209,282,406,466,344
1931,0.91,-0.42,0.11,0.79,-2.32,-1.34,206,283,413,466,340
1932,0.9,-0.42,0.1,0.73,-2.32,-2.14,209,280,410,461,345
1933,0.89,-0.43,0.11,1.77,-2.26,-4.64,208,284,407,468,342
1934,0.9,-0.41,0.1,-0.18,-2.99,-3.48,204,283,405,464,344
1935,0.91,-0.41,0.11,-0.18,-1.34,-2.93,204,284,413,479,340
1936,0.9,-0.42,0.1,-2.93,-2.56,-2.38,203,284,418,461,344
1937,0.91,-0.41,0.11,-0.37,-2.81,-2.32,209,278,407,461,342
1938,0.91,-0.41,0.12,1.22,-3.23,-3.3,208,274,413,462,343
1939,0.91,-0.41,0.11,-1.04,-2.99,-1.1,202,282,410,470,342
1940,0.91,-0.41,0.11,0.61,-3.11,-3.23,204,284,404,468,343
1941,0.91,-0.4,0.14,1.4,-2.5,-5.37,208,285,409,469,339
1942,0.92,-0.38,0.13,1.1,-3.48,-2.99,207,278,413,466,341
1943,0.92,-0.38,0.13,-1.04,-2.75,-0.12,208,286,412,463,340
1944,0.89,-0.4,0.12,-0.18,-3.23,-2.14,208,284,410,464,340
1945,0.91,-0.4,0.11,0.31,-2.38,-2.32,206,285,407,461,339
1946,0.91,-0.39,0.12,-1.71,-2.2,-0.79,208,285,408,464,342
1947,0.92,-0.39,0.12,-1.04,-2.26,-1.65,202,285,410,469,343
1948,0.92,-0.39,0.13,0.24,-2.69,-2.56,211,283,410,461,339
1949,0.91,-0.39,0.13,-0.43,-2.93,-1.83,216,283,407,461,344
1950,0.92,-0.39,0.12,0.24,-3.17,-2.75,204,284,409,465,341
1951,0.92,-0.39,0.12,0.18,-3.05,-3.05,209,280,409,464,337
1952,0.93,-0.39,0.13,-1.04,-3.54,-2.56,210,286,410,461,340
1953,0.91,-0.4,0.12,-0.18,-3.78,-0.31,206,283,408,471,343
1954,0.91,-0.4,0.11,0.92,-3.72,-0.67,209,281,407,466,340
1955,0.92,-0.4,0.11,-0.06,-2.69,-2.2,206,286,412,467,341
1956,0.9,-0.41,0.12,-1.4,-1.89,-1.04,210,288,410,474,344
1957,0.9,-0.41,0.12,-0.85,-2.99,-1.71,202,284,411,465,343
1958,0.92,-0.41,0.12,0.92,-3.11,-8.79,210,286,406,465,342
1959,0.9,-0.42,0.11,1.04,-4.03,-1.53,207,282,408,461,343
1960,0.9,-0.41,0.11,3.42,-2.14,-2.81,210,284,409,464,344
1961,0.91,-0.4,0.12,0.61,-4.15,-4.33,206,283,410,466,341
1962,0.93,-0.4,0.15,0.37,-2.81,-3.72,199,279,413,466,343
1963,0.98,-0.35,0.17,6.71,-1.95,-3.17,212,282,408,462,342
1964,0.92,-0.37,0.16,-1.1,-4.03,-0.18,208,282,408,465,347
1965,0.91,-0.4,0.13,2.62,-3.48,-4.15,210,283,402,462,345
1966,0.91,-0.4,0.12,-0.92,-3.6,-3.36,205,273,409,467,344
1967,0.91,-0.4,0.1,-1.4,-2.93,-0.67,205,285,406,466,341
1968,0.92,-0.4,0.11,-0.55,-2.56,-2.87,209,277,407,466,341
1969,0.9,-0.41,0.12,-1.4,-3.36,-3.05,210,286,407,467,343
1970,0.92,-0.41,0.13,4.21,-2.87,-3.6,206,282,408,465,341
1971,0.92,-0.42,0.1,0.85,-2.69,-3.48,207,284,408,461,345
1972,0.94,-0.38,0.12,-4.82,-1.65,0.61,211,283,404,459,341
1973,0.93,-0.39,0.12,-2.87,-5.86,-5.31,211,283,407,466,344
1974,0.92,-0.39,0.11,1.77,-2.5,-3.91,210,281,407,465,339
1975,0.9,-0.4,0.1,2.44,-4.88,-4.21,209,282,407,465,343
1976,0.91,-0.39,0.11,4.58,-3.85,-2.08,211,283,404,464,347
1977,0.91,-0.39,0.11,-1.65,-2.69,-2.75,209,282,406,460,341
1978,0.91,-0.39,0.12,0.31,-3.05,-1.83,217,283,401,465,345
1979,0.92,-0.39,0.12,-0.37,-2.69,0.18,212,285,407,467,344
1980,0.93,-0.35,0.18,-6.9,-2.81,10.93,212,285,405,460,344
1981,1.01,-0.32,0.15,0.98,-2.99,-2.75,213,282,405,466,343
1982,0.94,-0.37,0.03,-1.89,-7.75,-3.23,205,291,408,466,344
1983,0.85,-0.44,0.06,-3.36,-3.78,6.59,208,281,405,462,338
1984,0.89,-0.45,0.06,-0.18,-3.54,-4.58,210,281,403,463,347
1985,0.92,-0.42,0.06,3.91,-1.16,-4.27,210,281,403,456,340
1986,0.91,-0.4,0.09,-0.24,0.18,-7.93,214,275,404,453,337
1987,0.92,-0.42,0.11,-2.99,-1.59,2.08,210,284,399,462,335
1988,0.91,-0.41,0.09,-5.49,-3.85,-5.86,209,282,404,461,341
1989,0.93,-0.41,0.1,-0.24,-1.89,-3.42,212,282,404,456,336
1990,0.91,-0.41,0.09,-0.43,-2.08,-1.95,211,281,402,455,336
1991,0.93,-0.4,0.1,1.59,-3.23,-3.6,211,284,401,452,337
1992,0.94,-0.39,0.13,-2.99,-3.23,-1.46,212,285,402,452,341
1993,0.89,-0.43,0.09,-2.69,-2.62,-0.67,211,282,400,459,341
1994,0.91,-0.42,0.09,-3.48,-4.27,3.97,208,284,397,452,344
1995,0.88,-0.4,0.09,-2.26,-2.26,-2.14,211,297,401,450,341
1996,0.9,-0.43,0.1,0.49,-3.3,-2.56,207,284,393,453,341
1997,0.91,-0.4,0.1,0.12,-3.42,-2.69,211,281,396,452,336
1998,0.9,-0.42,0.08,2.5,-2.87,-3.72,210,285,401,452,343
1999,0.89,-0.42,0.1,0.79,-5.49,1.04,203,285,399,454,341
2000,0.89,-0.44,0.11,-0.49,-3.23,-1.89,212,285,401,454,341
2001,0.89,-0.43,0.09,-4.46,-3.11,-5.74,212,284,400,451,340
2002,0.9,-0.43,0.1,2.26,-3.78,-4.03,209,282,395,457,338
2003,0.88,-0.42,0.14,1.53,0.85,-3.6,211,282,397,459,344
2004,0.9,-0.41,0.09,0.61,-3.54,-4.58,210,283,394,451,341
2005,0.89,-0.43,0.12,-1.71,-2.38,-2.38,212,289,393,457,344
2006,0.88,-0.43,0.08,3.78,-0.79,-4.21,214,278,398,457,344
2007,0.88,-0.43,0.08,0.37,-3.6,3.17,209,284,396,458,338
2008,0.9,-0.42,0.11,0.55,-1.65,-5.13,210,283,396,460,342
2009,0.91,-0.41,0.1,1.4,-3.23,-3.3,213,286,397,455,341
2010,0.92,-0.39,0.11,1.28,-3.36,-2.44,214,290,399,458,341
2011,0.93,-0.4,0.11,-1.16,-2.32,-4.39,214,284,394,455,342
2012,0.9,-0.41,0.11,1.89,-3.36,-4.09,235,283,396,453,344
2013,0.91,-0.41,0.11,0.92,-3.11,-4.27,210,283,400,457,347
2014,0.91,-0.41,0.13,0.67,-2.01,-2.93,210,281,402,455,343
2015,0.91,-0.41,0.12,1.04,-2.32,-2.2,212,284,401,455,339
2016,0.9,-0.4,0.14,2.44,-1.34,-1.4,210,284,399,454,344
2017,0.91,-0.4,0.13,-1.53,-3.05,-2.93,205,285,396,459,338
2018,0.9,-0.41,0.13,-5.13,-2.38,-1.1,211,283,402,453,340
2019,0.9,-0.41,0.11,-4.21,-3.6,2.32,212,282,400,452,329
2020,0.93,-0.39,0.11,4.15,-2.75,-5.55,214,279,401,458,342
2021,0.92,-0.4,0.13,3.05,-3.85,-2.14,213,279,398,466,339
2022,0.93,-0.38,0.14,1.22,-3.6,-2.32,216,283,399,470,341
2023,0.91,-0.4,0.12,1.4,-2.44,-3.05,211,283,400,460,338
2024,0.91,-0.39,0.1,-0.37,-3.11,-1.83,211,276,400,454,340
2025,0.92,-0.4,0.11,-0.24,-2.14,-2.44,207,280,402,450,337
2026,0.92,-0.4,0.12,-0.12,-2.87,-2.26,212,281,399,449,337
2027,0.91,-0.4,0.13,0.37,-2.99,-2.44,207,281,402,440,342
2028,0.91,-0.4,0.12,0.85,-3.72,-2.32,214,285,394,441,344
2029,0.92,-0.4,0.11,0.67,-3.23,-3.11,212,282,402,438,341
2030,0.92,-0.4,0.13,1.59,-2.93,-2.32,210,283,399,449,345
2031,0.91,-0.4,0.12,-0.06,-2.38,-2.93,212,281,403,445,344
2032,0.91,-0.4,0.12,-0.31,-2.2,-1.65,211,282,404,448,343
2033,0.91,-0.39,0.13,1.1,-2.14,-2.87,209,282,403,443,337
2034,0.92,-0.39,0.12,0.73,-3.11,-3.6,211,284,404,456,342
2035,0.91,-0.39,0.13,0.79,-3.91,-2.69,205,281,402,449,339
2036,0.9,-0.38,0.13,-0.43,-2.56,-1.71,211,282,402,454,350
2037,0.91,-0.4,0.14,0.12,-3.23,-2.87,208,285,403,448,342
2038,0.91,-0.38,0.15,-0.98,-1.65,-1.65,211,280,403,449,342
2039,0.91,-0.4,0.1,-5.49,-2.99,-6.1,212,282,406,450,338
2040,0.92,-0.38,0.12,1.4,-2.99,-2.93,212,282,397,452,339
2041,0.92,-0.38,0.12,-0.55,-2.75,-2.44,211,279,405,451,340
2042,0.91,-0.38,0.13,-0.79,-4.33,1.83,212,283,402,452,339
2043,0.93,-0.39,0.16,-0.49,-4.27,4.58,213,282,401,449,339
2044,0.93,-0.37,0.14,-1.1,-2.32,-0.85,211,280,402,452,338
2045,0.91,-0.37,0.12,-0.55,-2.14,-1.83,213,286,401,446,339
2046,0.92,-0.39,0.12,0.55,-2.62,-2.26,211,282,404,446,342
2047,0.92,-0.37,0.14,-1.04,-3.11,-2.69,213,283,400,449,341
2048,0.91,-0.39,0.12,-0.85,-2.44,-1.59,213,281,404,448,343
2049,0.92,-0.37,0.12,0.06,-2.93,-2.56,211,281,405,446,339
2050,0.93,-0.37,0.13,1.89,-1.83,-2.5,212,282,403,449,344
2051,0.93,-0.38,0.14,1.83,-2.69,-2.38,213,281,406,439,340
2052,0.91,-0.4,0.12,1.46,-3.17,-2.26,213,282,399,450,344
2053,0.91,-0.39,0.13,1.04,-4.82,-0.92,213,279,401,453,344
2054,0.93,-0.38,0.1,1.77,-3.48,-3.48,212,283,402,450,339
2055,0.9,-0.39,0.14,-1.95,-1.4,-0.85,213,281,401,452,341
2056,0.93,-0.36,0.14,-0.24,-4.46,-1.65,215,284,402,448,343
2057,0.91,-0.37,0.1,3.48,-1.34,-6.1,212,278,404,448,346
2058,0.92,-0.37,0.14,1.1,-2.01,-5.25,212,279,404,451,342
2059,0.94,-0.36,0.09,0.79,-1.22,-4.15,205,280,404,451,341
2060,0.92,-0.36,0.12,1.04,-2.75,-2.32,209,282,404,444,342
2061,0.92,-0.35,0.09,-3.36,-3.17,-1.59,239,282,402,447,338
2062,0.93,-0.35,0.15,1.4,-2.32,-3.6,209,282,399,445,337
2063,0.93,-0.34,0.12,-1.89,-3.66,-2.99,213,282,406,449,340
2064,0.95,-0.33,0.19,2.08,-5.37,-5.86,250,285,402,452,342
2065,0.93,-0.31,0.1,-2.14,0.12,-4.52,209,286,402,446,337
2066,0.95,-0.31,0.12,-5.43,0.61,-2.26,210,281,403,445,341
2067,0.96,-0.28,0.17,-2.32,-2.26,-2.75,206,282,402,445,343
2068,0.97,-0.3,0.17,4.88,-2.32,0.12,210,286,402,448,337
2069,0.96,-0.3,0.16,0.92,-2.44,0.31,211,282,398,451,340
2070,0.92,-0.34,0.14,-3.6,-3.42,-1.04,211,282,398,452,339
2071,0.93,-0.34,0.1,0.37,-3.3,-2.99,211,285,402,453,345
2072,0.91,-0.35,0.11,-1.65,-2.32,-3.85,213,282,400,449,341
2073,0.92,-0.35,0.15,3.54,-3.11,-3.11,212,283,403,445,340
2074,0.95,-0.32,0.15,3.6,-2.44,-3.42,221,282,405,445,344
2075,0.92,-0.34,0.13,-0.61,-2.87,-1.16,211,283,403,444,340
2076,0.93,-0.33,0.15,0.92,-2.44,-2.87,224,284,404,448,341
2077,0.94,-0.34,0.16,0.06,-2.32,-2.26,213,284,403,449,339
2078,0.94,-0.34,0.15,0.49,-2.99,-2.26,212,288,399,442,341
2079,0.93,-0.33,0.14,1.59,-3.42,-2.69,214,282,403,446,342
2080,0.94,-0.33,0.14,0.12,-3.3,-2.5,214,285,400,449,343
2081,0.93,-0.34,0.14,-0.06,-3.05,-2.44,214,288,402,449,340
2082,0.94,-0.33,0.18,2.5,-1.83,0.92,207,282,402,447,338
2083,0.92,-0.36,0.13,-0.24,-2.62,-3.48,211,287,402,450,342
2084,0.92,-0.35,0.13,-1.59,-3.05,-1.1,211,289,403,440,342
2085,0.92,-0.36,0.15,0.79,-2.62,-1.89,213,283,405,448,348
2086,0.93,-0.33,0.15,3.54,-3.78,-3.05,210,277,404,445,337
2087,0.94,-0.33,0.14,-0.43,-2.32,-6.35,210,284,402,447,340
2088,0.93,-0.34,0.14,-2.2,-2.99,-2.38,215,281,402,451,342
2089,0.93,-0.33,0.15,0.0,-2.62,-3.6,242,288,403,452,343
2090,0.93,-0.34,0.15,1.34,-1.89,-3.91,213,282,401,446,341
2091,0.94,-0.34,0.16,0.18,-2.14,-2.26,206,284,402,442,342
2092,0.94,-0.33,0.15,0.49,-3.48,-2.26,214,286,402,453,346
2093,0.93,-0.33,0.14,-0.61,-2.32,-1.53,206,285,403,451,339
2094,0.94,-0.33,0.15,-1.1,-3.17,-1.28,213,285,403,447,345
2095,0.97,-0.32,0.14,0.43,-3.66,-4.46,209,282,402,447,335
2096,0.92,-0.35,0.13,0.55,-2.75,-4.33,211,286,401,448,341
2097,0.93,-0.34,0.14,-1.59,-2.81,-2.75,210,285,402,440,339
2098,0.93,-0.33,0.15,0.18,-1.04,-4.82,206,284,405,444,343
2099,0.96,-0.3,0.18,0.73,-2.81,-2.5,210,288,398,450,345
2100,0.94,-0.32,0.17,-0.92,-2.81,-1.04,215,283,403,453,342
