,aX,aY,aZ,gX,gY,gZ,little,ring,middle,index,thumb
0,0.2,-0.82,-0.06,36.5,1.1,36.01,206,269,187,443,375
1,0.15,-1.03,-0.03,-16.48,4.21,-1.46,202,270,178,447,375
2,0.18,-0.99,-0.07,-11.6,0.18,-2.14,206,269,185,443,381
3,0.19,-0.95,-0.08,-5.0,-5.07,0.0,204,271,180,442,377
4,0.14,-0.94,-0.05,-0.24,-4.94,-3.78,206,274,177,445,378
5,0.2,-1.02,-0.09,-0.55,-1.65,-8.73,207,261,184,439,374
6,0.26,-0.99,-0.11,-5.98,-12.02,-0.98,209,273,186,448,382
7,0.14,-0.97,-0.14,1.16,-6.1,-3.36,210,271,190,447,382
8,0.23,-0.96,-0.16,2.5,-4.33,-2.75,210,274,181,445,380
9,0.21,-0.97,-0.17,-1.22,-3.6,-7.08,206,268,176,442,380
10,0.23,-0.96,-0.13,3.72,-1.89,-1.34,210,274,180,437,379
11,0.26,-0.97,-0.14,2.69,-3.48,-1.83,209,270,187,440,381
12,0.22,-0.97,-0.11,-3.42,-1.95,0.85,213,274,177,440,386
13,0.2,-0.97,-0.13,0.49,-0.85,-1.65,213,273,190,443,382
14,0.24,-0.95,-0.14,3.66,-0.37,-3.42,210,273,188,441,385
15,0.18,-0.99,-0.14,2.81,-1.22,2.26,207,271,186,447,385
16,0.21,-0.98,-0.09,-2.38,6.1,-3.97,211,272,189,443,382
17,0.22,-0.97,-0.08,0.18,-5.68,-2.01,214,279,193,444,384
18,0.2,-0.96,-0.08,7.2,-6.23,0.67,208,268,193,442,383
19,0.21,-0.98,-0.1,5.13,-6.41,4.82,209,273,189,438,383
20,0.18,-0.98,-0.07,1.89,-4.94,-2.01,207,279,184,440,383
21,0.16,-0.99,-0.06,-0.06,-2.99,-3.36,212,271,189,438,383
22,0.16,-0.98,-0.05,0.55,-1.89,-2.81,210,277,191,440,376
23,0.12,-0.98,-0.04,3.48,-5.68,0.49,208,274,189,444,381
24,0.17,-0.99,-0.07,-0.85,-4.64,-5.31,213,273,192,439,384
25,0.09,-0.96,0.02,1.53,1.1,-0.18,212,266,191,439,381
26,0.19,-0.99,-0.08,1.34,-0.61,-2.01,217,275,188,442,384
27,0.17,-0.97,-0.06,0.85,-5.0,-3.11,211,273,192,441,384
28,0.14,-0.98,-0.04,3.66,-4.76,-6.53,211,269,177,445,383
29,0.19,-0.99,-0.11,1.1,4.58,2.14,211,273,190,442,385
30,0.22,-0.99,-0.08,3.11,-5.49,-7.14,200,274,189,441,383
31,0.19,-0.97,-0.11,-2.44,0.12,-1.46,211,269,188,442,384
32,0.18,-0.99,-0.08,-3.42,-8.06,-5.25,213,275,187,443,386
33,0.13,-0.99,-0.07,4.33,-0.49,-0.49,212,271,193,449,376
34,0.16,-0.98,-0.05,-0.24,-4.15,-5.07,216,275,195,449,384
35,0.15,-1.0,-0.09,1.22,-2.81,-2.87,211,272,189,445,385
36,0.16,-0.99,-0.07,1.71,-2.75,-3.11,209,275,185,449,386
37,0.17,-0.98,-0.08,1.04,-2.62,-2.75,211,275,191,443,384
38,0.17,-0.98,-0.05,1.59,-3.23,-3.17,212,273,193,442,387
39,0.17,-0.98,-0.05,0.0,-3.54,-2.69,210,273,189,441,386
40,0.17,-0.99,-0.06,1.28,-3.17,-3.05,210,268,196,442,384
41,0.22,-0.99,-0.11,-0.98,-5.43,-4.46,221,274,190,441,382
42,0.2,-0.98,-0.07,3.11,-2.38,-2.62,207,273,194,444,386
43,0.18,-0.99,-0.08,2.14,-4.52,-2.32,214,277,189,443,384
44,0.15,-0.98,-0.06,3.05,-1.4,-2.93,209,278,192,449,382
45,0.17,-1.0,-0.08,-11.05,-1.34,-5.0,213,277,192,449,380
46,0.14,-1.0,-0.07,4.15,-3.6,-5.55,212,274,193,443,385
47,0.16,-0.98,-0.07,7.75,-1.22,-5.25,217,274,197,443,385
48,0.14,-0.97,-0.06,1.77,-2.08,-2.14,210,283,192,446,383
49,0.15,-0.97,-0.05,0.92,-0.55,0.85,213,276,176,447,384
50,0.17,-0.98,-0.04,1.28,-5.0,-5.0,213,280,190,446,384
51,0.21,-0.98,-0.06,-1.65,-2.69,-7.26,212,279,200,444,387
52,0.22,-0.97,-0.05,-1.1,-1.77,-4.33,211,279,200,442,380
53,0.22,-0.97,-0.06,-1.28,-1.53,-2.08,212,280,199,448,383
54,0.21,-0.97,-0.05,0.92,-3.11,-4.09,215,280,193,449,378
55,0.23,-0.97,-0.05,1.46,-2.93,-2.5,214,278,188,455,383
56,0.22,-0.97,-0.08,0.92,-2.75,-2.14,215,279,190,443,379
57,0.22,-0.97,-0.05,1.16,-3.17,-3.11,212,278,194,440,383
58,0.22,-0.96,-0.05,0.67,-3.11,-2.87,214,280,196,460,383
59,0.22,-0.97,-0.06,-0.92,-2.87,-1.95,216,277,195,444,384
60,0.18,-0.97,-0.03,0.31,-2.56,-2.38,214,280,196,446,382
61,0.19,-0.97,-0.03,1.1,-2.26,2.01,235,278,192,440,382
62,0.19,-0.97,-0.05,1.1,-2.44,-0.79,227,277,194,442,385
63,0.22,-0.97,-0.04,1.53,-7.26,-4.52,214,283,194,447,383
64,0.17,-0.98,-0.02,0.06,-2.32,-2.5,225,280,193,446,382
65,0.19,-0.98,-0.05,0.67,-2.44,-0.92,224,278,190,441,383
66,0.18,-0.97,-0.04,0.79,-3.11,-2.2,216,282,200,448,384
67,0.2,-0.98,-0.05,0.98,-4.27,-2.81,213,277,182,443,379
68,0.19,-0.98,-0.04,-0.18,-2.75,-3.42,214,278,196,442,382
69,0.2,-0.98,-0.04,1.46,-2.93,-2.14,212,281,195,444,381
70,0.2,-0.98,-0.05,0.98,-4.27,-2.2,217,280,197,443,381
71,0.18,-0.99,-0.04,1.89,-2.87,-1.4,217,278,198,450,381
72,0.17,-0.98,-0.02,-2.08,-2.69,-2.81,220,280,197,444,383
73,0.19,-0.97,-0.04,1.1,-3.3,-3.11,222,278,193,447,382
74,0.19,-0.97,-0.0,1.65,-3.3,-0.06,216,284,195,445,383
75,0.16,-0.99,-0.04,-2.2,-4.03,-0.06,216,279,197,450,379
76,0.16,-0.98,-0.04,-0.49,-7.63,-4.58,214,287,195,450,382
77,0.14,-0.94,-0.05,3.78,-4.33,-1.77,214,278,195,446,384
78,0.17,-0.98,-0.05,-0.06,-2.99,-0.79,214,280,202,448,380
79,0.14,-1.0,-0.07,-3.91,-2.56,0.12,214,279,193,450,383
80,0.14,-1.0,-0.11,0.43,-0.37,-5.31,214,279,193,448,384
81,0.19,-0.97,-0.06,1.1,-4.03,-3.23,216,280,197,442,383
82,0.16,-0.98,-0.12,1.95,-2.2,0.18,226,280,198,446,381
83,0.17,-0.98,-0.08,-1.89,-4.46,-4.58,216,281,192,449,385
84,0.19,-0.98,-0.05,3.36,-2.75,-3.66,209,278,195,446,393
85,0.19,-0.99,-0.08,-2.5,-11.47,-6.84,218,275,200,449,379
86,0.14,-1.0,-0.1,-5.8,-7.32,-2.99,212,279,193,449,383
87,0.21,-0.98,-0.12,-4.21,-6.04,-6.71,212,278,197,446,384
88,0.2,-0.96,-0.05,3.23,-1.34,-0.67,219,278,193,450,382
89,0.23,-0.94,-0.14,-7.81,0.0,-4.09,215,276,184,444,380
90,0.2,-0.93,-0.15,-0.24,4.58,-3.6,214,279,195,452,389
91,0.26,-0.92,-0.09,-2.14,0.37,-7.69,212,275,196,445,382
92,0.28,-0.98,-0.11,2.81,0.79,-6.77,214,282,195,445,383
93,0.34,-0.99,-0.08,7.39,12.7,0.06,217,284,195,447,385
94,0.3,-0.91,-0.05,-0.79,0.43,-9.09,219,278,197,441,382
95,0.33,-0.94,-0.15,-2.62,-9.09,-0.85,218,283,201,449,383
96,0.3,-0.95,-0.15,3.11,-2.2,-2.26,215,280,199,445,382
97,0.28,-0.94,-0.09,8.0,-6.77,3.42,218,278,200,444,382
98,0.24,-0.96,-0.1,2.2,-3.17,11.47,215,279,194,451,385
99,0.22,-0.97,-0.14,-0.67,-2.62,-2.62,215,280,199,449,382
100,0.18,-0.97,-0.11,0.43,-3.3,-4.09,219,284,196,452,381
101,0.17,-0.98,-0.12,2.99,-7.02,2.2,216,280,201,440,377
102,0.17,-0.97,-0.11,-4.52,-4.15,-3.97,218,280,199,448,379
103,0.22,-0.98,-0.12,1.34,-1.53,-2.75,217,282,203,445,378
104,0.22,-0.97,-0.11,-0.92,0.73,-4.88,218,284,201,441,378
105,0.19,-0.96,-0.13,-3.72,-6.04,-7.45,224,280,200,445,381
106,0.24,-0.97,-0.16,-0.49,-4.33,-0.61,215,282,195,448,378
107,0.19,-0.97,-0.13,2.32,-4.21,-3.6,218,282,199,448,381
108,0.19,-0.97,-0.14,-5.86,-4.7,-6.77,218,281,197,449,380
109,0.17,-0.97,-0.15,-2.93,8.3,3.23,215,286,199,441,376
110,0.21,-0.98,-0.15,-4.52,-3.3,-3.42,214,278,194,452,380
111,0.2,-0.96,-0.14,1.53,-7.32,-3.6,219,281,198,444,380
112,0.18,-0.97,-0.12,-0.85,-5.49,-2.56,218,275,203,450,378
113,0.18,-0.96,-0.08,-2.01,-2.32,-2.5,214,287,186,443,377
114,0.18,-0.97,-0.09,1.65,-1.95,-2.2,215,284,196,445,383
115,0.18,-0.96,-0.09,-0.24,-0.67,-3.3,213,282,198,447,378
116,0.23,-0.97,-0.15,3.6,-0.61,-1.46,217,282,198,446,380
117,0.23,-0.97,-0.15,3.3,1.1,0.79,217,281,195,449,386
118,0.23,-0.96,-0.14,4.21,-1.46,0.61,217,285,197,443,376
119,0.21,-0.95,-0.14,2.56,-1.16,-1.16,215,285,201,451,369
120,0.22,-0.98,-0.15,1.59,-3.23,-3.23,218,281,193,446,378
121,0.21,-0.97,-0.14,0.37,-4.46,-3.36,216,286,196,449,378
122,0.19,-0.95,-0.13,-2.69,-5.86,-2.26,217,297,199,441,379
123,0.18,-0.97,-0.15,-0.73,-4.94,-4.21,216,282,196,442,376
124,0.18,-0.97,-0.12,3.3,-1.71,-1.46,217,282,199,447,380
125,0.2,-0.98,-0.11,1.65,-3.48,0.31,214,285,204,450,381
126,0.19,-0.98,-0.13,2.75,-1.53,-1.1,220,286,204,445,380
127,0.17,-0.97,-0.1,-0.61,-3.97,-4.33,212,284,198,437,379
128,0.21,-0.98,-0.1,0.85,-0.98,-3.23,217,286,200,446,379
129,0.18,-0.97,-0.08,2.2,-3.17,-2.99,218,286,201,442,384
130,0.18,-0.98,-0.1,-0.61,-3.42,-2.44,220,285,197,442,375
131,0.2,-0.97,-0.1,1.71,-1.53,-2.93,217,281,194,445,380
132,0.19,-0.97,-0.1,-0.12,-4.76,-2.69,218,283,194,447,380
133,0.17,-0.97,-0.13,-2.2,-5.49,-3.72,225,288,189,447,383
134,0.2,-0.97,-0.12,0.43,-2.01,-3.17,218,277,202,443,377
135,0.18,-0.96,-0.11,1.95,-5.62,-4.94,219,286,204,447,380
136,0.18,-0.96,-0.1,-0.61,-4.39,-4.15,211,287,196,448,380
137,0.22,-0.96,-0.1,4.33,-1.89,-1.59,221,279,190,452,383
138,0.21,-0.98,-0.14,0.85,-2.44,-4.46,219,300,195,445,379
139,0.17,-0.95,-0.05,2.2,-5.98,-0.61,218,285,207,448,380
140,0.2,-0.96,-0.05,0.43,-5.43,-4.82,219,283,199,439,378
141,0.17,-0.97,-0.08,3.3,-7.08,-4.58,217,280,199,441,377
142,0.19,-0.98,-0.05,2.01,-1.65,-0.98,219,288,197,443,383
143,0.21,-0.96,-0.05,2.44,-2.93,-1.16,216,283,198,447,376
144,0.21,-0.96,-0.09,-0.73,-2.5,-2.93,218,290,205,450,381
145,0.21,-0.94,-0.13,-4.39,-4.94,-2.32,218,282,193,447,378
146,0.2,-0.97,-0.13,-1.95,-3.85,-3.54,222,283,201,442,378
147,0.21,-0.97,-0.11,2.26,-2.38,-1.83,219,284,198,453,382
148,0.22,-0.97,-0.11,0.79,-3.17,-2.93,217,285,197,446,380
149,0.23,-0.96,-0.11,2.2,-2.2,-2.87,217,284,206,446,379
150,0.2,-0.97,-0.11,-1.4,-4.09,-3.66,220,280,192,449,381
151,0.2,-0.97,-0.09,0.49,-4.03,-3.54,217,283,198,445,376
152,0.19,-0.97,-0.09,0.0,-2.08,-1.95,216,285,197,449,381
153,0.21,-0.97,-0.11,0.92,-1.59,-2.01,217,283,200,447,383
154,0.21,-0.96,-0.11,0.55,-2.38,-1.95,223,282,203,449,381
155,0.23,-0.97,-0.11,0.37,-3.05,-3.54,224,282,201,450,385
156,0.22,-0.97,-0.11,0.61,-3.05,-2.99,217,283,198,450,381
157,0.24,-0.98,-0.13,1.89,-2.75,-2.08,219,286,207,451,380
158,0.24,-0.97,-0.1,4.09,-3.78,-2.87,218,284,203,444,382
159,0.22,-0.98,-0.11,-0.43,-2.75,-3.11,219,284,201,449,378
160,0.22,-0.97,-0.1,-0.79,-4.27,-2.38,216,283,203,451,381
161,0.21,-0.97,-0.11,1.16,-3.48,-2.75,217,286,203,444,383
162,0.19,-0.95,-0.06,-0.79,-0.73,1.04,215,286,196,445,381
163,0.21,-0.96,-0.09,1.59,-1.83,-1.16,223,286,201,448,380
164,0.22,-0.97,-0.11,2.08,-2.26,-1.22,221,278,198,445,379
165,0.21,-0.98,-0.12,-0.12,-3.42,-3.97,213,284,202,446,376
166,0.21,-0.96,-0.1,0.73,-4.27,-2.56,225,282,200,440,376
167,0.21,-0.96,-0.09,0.06,-2.75,-3.05,215,290,203,445,378
168,0.22,-0.97,-0.09,-0.92,-2.99,-0.73,220,284,199,452,379
169,0.21,-0.97,-0.09,0.92,-2.26,-2.87,217,280,201,449,375
170,0.19,-0.97,-0.09,-1.16,-1.28,-1.65,218,286,200,450,380
171,0.2,-0.98,-0.12,1.22,-4.94,-4.64,218,286,197,450,372
172,0.16,-0.98,-0.12,-2.81,-4.7,-4.46,216,279,199,437,377
173,0.2,-0.97,-0.09,-0.92,-5.07,-2.56,214,288,198,450,378
174,0.18,-0.97,-0.07,-1.28,-2.08,-2.69,222,285,198,442,374
175,0.22,-0.96,-0.12,-1.34,-4.82,-1.65,220,288,204,446,381
176,0.2,-0.96,-0.14,-12.08,-2.5,-9.58,218,287,189,449,379
177,0.27,-0.95,-0.14,-5.0,-2.81,-1.77,229,288,205,451,378
178,0.28,-0.98,-0.23,11.35,-6.65,2.01,216,286,204,446,380
179,0.14,-0.99,-0.12,-0.24,-2.08,-1.1,211,286,199,447,379
180,0.18,-0.97,-0.09,2.2,-3.66,-1.28,215,283,202,453,380
181,0.22,-0.97,-0.11,2.2,0.0,-5.92,235,286,198,441,380
182,0.25,-0.98,-0.1,2.44,-3.97,-4.52,216,284,203,448,379
183,0.21,-0.98,-0.1,-1.4,-4.94,-5.74,218,285,204,445,379
184,0.2,-0.98,-0.09,-0.85,-3.17,-1.22,222,286,201,442,387
185,0.21,-0.99,-0.09,-0.49,-3.66,-4.21,218,284,199,444,380
186,0.22,-0.98,-0.09,0.92,-3.17,-3.23,219,292,197,442,381
187,0.24,-0.96,-0.1,0.79,-1.04,-1.83,218,285,201,442,379
188,0.19,-0.97,-0.08,0.67,-2.32,-1.16,218,283,200,440,377
189,0.23,-0.96,-0.1,0.49,-3.78,-2.2,220,286,199,446,381
190,0.21,-0.96,-0.09,-0.18,-4.39,-1.28,221,283,202,446,380
191,0.22,-0.97,-0.09,1.83,-4.88,-1.22,220,289,200,446,379
192,0.32,-0.99,-0.09,13.06,-8.06,-0.18,221,289,203,442,383
193,0.19,-0.98,-0.11,5.55,-8.67,6.47,215,288,200,451,377
194,0.11,-0.99,-0.11,9.7,-5.19,12.45,220,287,200,450,379
195,0.08,-0.99,-0.04,-0.49,-9.77,-3.17,220,281,199,446,379
196,0.06,-0.97,-0.01,4.27,-4.7,2.08,216,287,199,451,379
197,0.07,-1.05,-0.06,-1.77,-7.08,-3.3,217,284,204,455,379
198,0.11,-1.02,-0.08,-3.48,-8.73,-13.79,224,286,199,442,379
199,0.06,-0.98,0.02,6.53,-4.46,-1.28,217,286,200,443,380
200,0.12,-0.96,-0.02,4.09,-6.65,-8.06,214,284,211,449,381
201,0.09,-0.99,-0.03,3.05,-1.4,-7.08,223,286,204,448,378
202,0.15,-0.99,-0.02,0.37,-1.28,0.37,217,285,206,449,380
203,0.13,-1.0,-0.06,1.22,-1.46,-2.2,218,288,202,459,379
204,0.14,-0.99,-0.01,-1.1,-2.93,-3.72,219,285,198,445,382
205,0.1,-1.01,-0.07,0.92,-7.08,-6.23,219,290,195,449,382
206,0.12,-0.99,0.0,-4.82,-1.59,-1.22,214,286,202,450,381
207,0.14,-0.99,0.01,-3.05,-1.83,-6.71,221,289,206,447,383
208,0.16,-0.96,-0.01,-0.12,-2.32,-2.69,216,286,202,445,378
209,0.17,-0.98,-0.07,-2.81,0.73,-4.88,220,286,206,448,379
210,0.17,-0.98,-0.08,-0.06,-5.0,-3.78,218,285,203,446,381
211,0.17,-0.99,-0.09,-1.59,-3.97,-4.39,220,285,203,452,376
212,0.16,-0.99,-0.07,-4.21,-3.23,-2.32,217,282,193,448,376
213,0.17,-1.0,-0.1,-6.16,-2.62,-1.65,213,286,200,451,382
214,0.17,-0.96,-0.08,0.55,-3.05,-2.75,215,287,198,444,376
215,0.2,-0.99,-0.08,0.18,-2.69,-2.56,217,291,205,443,378
216,0.17,-0.96,-0.04,3.05,-1.95,-1.4,220,282,196,444,376
217,0.16,-0.98,-0.09,-0.31,-4.82,-4.82,221,286,203,441,384
218,0.17,-0.98,-0.11,-3.11,-4.88,-3.11,220,285,201,448,381
219,0.16,-0.98,-0.06,0.92,-1.59,-1.83,222,289,214,452,380
220,0.19,-0.98,-0.09,0.98,-1.95,-3.97,212,284,201,447,381
221,0.15,-1.0,-0.08,0.92,-0.61,1.89,219,290,203,448,380
222,0.13,-0.96,-0.04,-2.14,-2.26,-1.59,217,288,200,450,380
223,0.14,-0.98,-0.07,-1.04,-2.75,-4.7,220,284,199,448,382
224,0.18,-0.9,-0.1,-2.14,-3.05,-3.85,216,286,199,442,381
225,0.18,-0.94,-0.13,-2.44,-2.38,-4.52,219,286,203,447,379
226,0.2,-0.95,-0.08,0.43,-3.11,-2.81,218,289,204,449,383
227,0.17,-0.96,-0.11,-2.38,-3.54,-2.62,219,288,199,449,382
228,0.18,-0.97,-0.11,-1.95,-2.38,-5.19,219,287,200,450,381
229,0.21,-0.96,-0.12,-4.09,-1.77,-1.53,221,288,202,445,381
230,0.26,-0.96,-0.18,-9.22,6.65,-11.9,222,286,206,448,380
231,0.22,-0.97,-0.21,-9.34,8.24,-5.8,222,285,205,446,380
232,0.23,-0.93,-0.18,3.42,-0.73,2.38,215,287,206,450,383
233,0.24,-0.95,-0.18,4.03,-6.16,1.83,223,282,203,452,381
234,0.23,-0.91,-0.19,1.83,-5.13,4.27,221,287,212,450,381
235,0.17,-0.96,-0.17,-0.49,-0.49,-1.1,218,285,204,448,382
236,0.2,-0.96,-0.2,-1.59,-4.39,-7.32,217,283,202,446,380
237,0.27,-0.97,-0.22,0.92,-1.1,-1.4,217,289,201,454,381
238,0.22,-0.93,-0.2,1.53,-4.7,-2.75,217,285,206,444,380
239,0.22,-0.94,-0.18,-0.06,-1.95,2.38,219,290,208,451,383
240,0.17,-0.98,-0.21,-1.34,2.14,1.22,219,285,205,448,380
241,0.25,-1.01,-0.28,-0.92,1.53,-8.42,221,287,204,453,381
242,0.24,-0.93,-0.18,-4.76,-6.77,-6.47,219,287,202,447,379
243,0.18,-0.93,-0.16,2.2,-2.26,2.56,219,289,202,450,380
244,0.24,-0.93,-0.21,2.2,-3.23,-2.81,216,287,202,447,379
245,0.2,-0.95,-0.2,1.89,-0.18,-2.08,220,285,202,446,380
246,0.19,-0.92,-0.17,9.34,-2.56,-3.97,223,283,203,445,383
247,0.18,-0.95,-0.18,0.61,-4.88,-4.46,214,286,204,450,381
248,0.18,-0.94,-0.16,0.06,-2.99,-2.2,219,284,203,449,381
249,0.18,-0.97,-0.19,0.31,-2.14,0.31,219,284,202,449,379
250,0.19,-0.95,-0.17,-2.26,-5.0,-4.94,217,283,203,449,383
251,0.16,-0.97,-0.17,1.89,1.4,-5.49,217,284,206,451,384
252,0.18,-0.95,-0.18,2.26,-2.5,-1.4,217,287,203,449,381
253,0.18,-0.96,-0.2,-1.95,-5.25,-2.87,219,287,202,451,383
254,0.19,-0.96,-0.19,-0.49,-3.11,-1.28,221,284,202,445,379
255,0.21,-0.95,-0.17,0.73,-6.71,-2.69,220,282,213,454,381
256,0.23,-0.97,-0.19,-0.61,-2.81,-3.66,221,288,202,444,380
257,0.18,-0.99,-0.27,-3.6,-5.43,-3.3,221,287,209,449,376
258,0.15,-0.97,-0.17,4.88,-2.93,4.88,229,283,206,450,382
259,0.18,-0.97,-0.22,-12.21,-3.42,-7.93,221,279,209,452,381
260,0.19,-0.95,-0.22,-4.21,-5.13,-4.27,222,285,208,448,381
261,0.13,-0.98,-0.18,-12.94,-2.26,-7.14,242,285,204,453,380
262,0.22,-0.93,-0.26,1.34,-1.53,-6.84,215,295,207,442,381
263,0.24,-0.98,-0.27,6.47,-4.82,-2.44,220,286,200,448,379
264,0.24,-0.96,-0.26,0.24,-2.99,-2.87,219,288,203,449,381
265,0.21,-0.97,-0.21,2.5,0.92,2.14,218,293,204,448,380
266,0.26,-0.96,-0.26,-0.98,-2.62,-9.7,217,282,201,452,382
267,0.23,-0.95,-0.25,-0.06,-4.82,-8.18,219,286,205,447,377
268,0.26,-0.96,-0.24,3.05,-1.22,2.99,218,285,206,451,379
269,0.26,-0.93,-0.2,7.2,-5.07,-4.7,235,294,199,463,382
270,0.23,-0.96,-0.23,-1.1,1.04,-3.97,220,287,204,452,383
271,0.17,-0.93,-0.16,-0.06,-0.92,-9.4,220,283,202,447,382
272,0.24,-0.91,-0.23,3.85,-7.14,-8.12,218,288,204,448,379
273,0.17,-0.93,-0.24,6.47,-1.95,4.52,219,290,203,447,377
274,0.19,-0.93,-0.22,0.37,-2.14,-3.3,219,287,203,451,383
275,0.24,-0.94,-0.23,3.91,-0.67,-8.12,215,281,202,452,381
276,0.26,-0.94,-0.25,1.22,-8.91,-4.33,221,283,204,442,380
277,0.25,-0.93,-0.25,2.56,-3.3,-5.25,221,289,198,444,378
278,0.22,-0.93,-0.23,4.21,-3.78,-1.65,220,288,201,447,381
279,0.23,-0.93,-0.21,-4.09,-3.66,-3.05,220,287,205,451,381
280,0.24,-0.94,-0.26,3.6,-1.53,-4.88,215,285,189,446,381
281,0.22,-0.94,-0.23,2.2,-1.4,-0.79,245,284,206,451,379
282,0.24,-0.96,-0.21,0.0,-0.18,-4.15,218,288,205,450,378
283,0.26,-0.93,-0.23,4.39,-4.15,-1.59,219,284,209,448,382
284,0.25,-0.95,-0.23,1.16,-2.5,-1.4,223,284,200,442,379
285,0.26,-0.93,-0.17,-1.4,-3.66,-4.7,216,282,206,447,382
286,0.23,-0.95,-0.21,1.83,-1.16,-3.05,221,287,208,448,376
287,0.26,-0.95,-0.22,2.32,-3.17,-2.75,220,287,199,448,380
288,0.24,-0.94,-0.18,-0.18,-2.08,-2.99,215,288,205,435,380
289,0.24,-0.92,-0.21,-0.06,-3.91,-3.36,221,280,206,445,383
290,0.25,-0.94,-0.19,0.55,-1.59,-2.2,219,290,208,451,380
291,0.25,-0.94,-0.22,-0.49,-2.99,-3.6,222,285,207,451,380
292,0.24,-0.93,-0.19,0.67,-2.87,-2.08,220,287,204,446,380
293,0.29,-0.92,-0.22,3.48,-0.24,-2.87,220,282,195,443,380
294,0.27,-0.94,-0.23,2.87,1.1,0.43,219,284,205,446,382
295,0.22,-0.93,-0.19,6.35,0.92,2.08,222,276,200,452,378
296,0.25,-0.94,-0.21,-2.01,-1.34,-6.35,217,281,206,452,381
297,0.25,-0.95,-0.23,-0.98,-3.6,-4.76,221,288,202,442,382
298,0.26,-0.93,-0.2,0.24,-3.05,-2.81,218,285,202,446,381
299,0.28,-0.95,-0.23,1.77,-3.42,-3.05,218,285,206,449,380
300,0.26,-0.95,-0.21,2.69,-5.86,0.24,218,284,203,448,381
301,0.15,-0.96,-0.19,-1.95,0.67,-1.71,218,285,209,445,377
302,0.15,-0.93,-0.18,1.71,-1.22,-0.18,221,285,202,441,379
303,0.18,-0.97,-0.21,0.61,-1.89,-3.78,220,285,207,448,379
304,0.18,-0.96,-0.2,0.49,-2.69,-2.01,225,286,204,449,375
305,0.17,-0.96,-0.2,1.04,-1.59,-2.14,220,285,218,446,376
306,0.18,-0.96,-0.18,0.98,-0.18,-7.81,217,288,206,448,379
307,0.19,-0.96,-0.17,0.85,-1.22,-2.81,219,281,200,451,381
308,0.19,-0.96,-0.19,0.92,-2.75,-1.4,217,289,205,451,381
309,0.19,-0.96,-0.21,-2.81,-4.39,-2.14,221,283,202,451,380
310,0.19,-0.95,-0.19,3.54,-2.44,-0.31,220,288,207,446,380
311,0.17,-0.96,-0.19,3.11,-2.75,-2.93,221,287,205,443,376
312,0.18,-0.97,-0.25,1.71,-6.35,-5.31,218,289,218,452,377
313,0.18,-0.94,-0.15,5.19,-1.65,-1.28,223,284,204,444,378
314,0.15,-0.96,-0.16,-2.32,-3.54,3.42,220,288,208,451,378
315,0.19,-0.97,-0.22,5.37,0.92,5.43,222,287,202,451,379
316,0.09,-0.97,-0.14,3.54,0.43,-8.06,219,287,206,448,383
317,0.16,-0.97,-0.17,3.42,-3.97,-8.12,221,285,207,450,381
318,0.19,-0.97,-0.17,0.31,-2.26,-7.26,225,285,209,454,374
319,0.15,-0.98,-0.18,-5.49,-8.18,-1.46,221,287,209,446,378
320,0.19,-0.98,-0.22,-3.54,4.46,-7.45,221,289,203,442,379
321,0.22,-0.96,-0.2,0.18,-2.5,-6.23,220,287,219,447,376
322,0.18,-0.96,-0.19,-1.28,-2.93,-2.56,222,284,209,452,377
323,0.22,-0.96,-0.16,0.0,-2.2,-1.83,222,289,207,447,386
324,0.2,-0.96,-0.17,-0.43,-3.23,-1.77,225,285,209,447,376
325,0.21,-0.95,-0.17,1.4,-2.56,-2.32,212,290,198,449,380
326,0.22,-0.96,-0.18,0.18,-2.69,-2.81,219,287,207,453,380
327,0.23,-0.96,-0.18,-1.22,-3.17,-1.4,221,287,207,452,379
328,0.22,-0.96,-0.17,0.73,-1.89,-1.77,217,289,204,444,379
329,0.2,-0.96,-0.19,-2.75,-4.21,-3.6,220,286,205,448,383
330,0.21,-0.95,-0.17,1.71,-2.62,-3.11,223,287,204,444,374
331,0.17,-0.95,-0.16,-2.44,-1.28,-4.03,222,287,204,452,380
332,0.25,-0.96,-0.18,-1.71,0.92,0.67,223,290,205,451,376
333,0.24,-0.96,-0.19,0.85,-2.75,2.99,217,287,212,452,381
334,0.16,-0.98,-0.11,1.28,2.87,0.37,253,286,207,449,375
335,0.14,-0.98,-0.16,0.55,-1.83,-2.44,224,289,205,452,382
336,0.2,-0.96,-0.15,1.53,-5.37,-5.68,220,289,203,448,378
337,0.18,-0.96,-0.09,3.23,-7.14,-3.23,223,282,200,449,380
338,0.17,-0.95,-0.08,6.16,-4.52,-10.13,222,287,203,449,377
339,0.25,-0.97,-0.17,-5.13,-4.09,-8.12,221,295,201,450,379
340,0.21,-0.96,-0.18,1.22,-1.46,-1.1,217,290,204,452,383
341,0.29,-0.94,-0.23,2.56,-8.42,-0.73,219,288,215,448,380
342,0.2,-0.96,-0.15,-5.92,-7.93,3.72,224,286,204,449,377
343,0.17,-0.95,-0.14,9.7,10.56,-5.98,220,290,206,450,378
344,0.26,-0.95,-0.14,4.15,4.27,-5.92,222,285,212,450,377
345,0.26,-0.97,-0.15,7.45,-9.34,-0.37,217,284,201,452,371
346,0.19,-0.96,-0.12,-9.7,-1.16,-4.15,220,287,207,447,377
347,0.23,-0.95,-0.14,0.98,-5.49,-0.85,220,287,205,441,378
348,0.18,-0.96,-0.16,3.66,-4.82,-1.71,216,288,205,452,376
349,0.2,-0.97,-0.14,-2.26,0.55,-0.31,230,289,208,445,377
350,0.21,-0.97,-0.14,3.6,-4.82,-3.05,221,285,205,453,376
351,0.19,-0.97,-0.11,0.85,-2.75,-3.23,221,290,205,448,380
352,0.19,-0.96,-0.12,1.04,-3.05,-2.32,229,285,204,453,378
353,0.18,-0.97,-0.11,-0.98,-1.1,-1.71,224,288,205,448,378
354,0.2,-0.99,-0.15,1.53,-1.65,0.98,218,288,205,448,377
355,0.23,-0.97,-0.13,3.36,-2.2,-2.5,223,290,205,453,377
356,0.18,-0.99,-0.14,4.27,-0.31,-0.43,246,285,205,446,378
357,0.18,-0.97,-0.1,0.73,-3.3,-3.23,220,288,208,450,378
358,0.19,-0.98,-0.1,-1.71,-2.5,-1.95,219,289,207,446,376
359,0.2,-0.98,-0.1,-0.61,-3.97,-3.6,224,289,208,446,377
360,0.21,-0.97,-0.1,1.22,-2.87,-3.54,226,286,216,453,378
361,0.23,-1.0,-0.14,-6.65,-6.65,-3.42,220,287,209,454,377
362,0.21,-0.98,-0.13,3.11,-5.86,-6.35,220,285,208,453,378
363,0.23,-0.97,-0.12,-1.22,-4.76,-5.19,221,291,202,453,379
364,0.21,-0.97,-0.1,2.81,-4.64,-2.01,223,288,206,451,376
365,0.24,-0.95,-0.12,3.91,-1.89,-3.97,223,290,204,450,378
366,0.25,-0.96,-0.12,4.52,-3.05,-6.65,220,289,208,434,377
367,0.22,-0.98,-0.09,-0.31,-7.69,-0.18,221,286,203,449,375
368,0.23,-0.96,-0.08,4.33,-1.95,0.92,220,289,208,454,378
369,0.23,-0.97,-0.09,3.3,0.12,-2.44,223,289,209,450,378
370,0.26,-0.98,-0.1,15.44,-15.81,-1.22,220,290,206,445,381
371,0.23,-0.96,-0.09,-0.24,-17.64,2.08,221,292,207,451,378
372,0.19,-0.97,-0.06,-0.73,-5.86,-3.05,223,288,202,453,379
373,0.2,-0.97,-0.07,0.67,0.12,-4.27,218,287,206,451,376
374,0.19,-0.97,-0.07,0.24,-3.66,-3.05,224,285,206,450,377
375,0.19,-0.98,-0.1,-0.73,-3.23,-3.72,223,290,208,448,375
376,0.17,-0.97,-0.08,-0.73,-3.11,-1.71,223,293,208,450,375
377,0.2,-0.98,-0.08,2.62,-2.62,-2.08,221,288,201,453,377
378,0.19,-0.97,-0.06,1.1,-2.99,-3.3,223,289,208,450,381
379,0.2,-0.97,-0.07,0.31,-3.05,-3.6,224,288,209,450,376
380,0.19,-0.97,-0.08,1.53,-2.44,-2.14,222,291,207,449,377
381,0.19,-0.97,-0.08,1.28,-3.54,-2.93,221,289,206,449,379
382,0.2,-0.97,-0.08,-0.12,-3.66,-3.6,220,286,208,449,378
383,0.19,-0.98,-0.07,-0.06,-2.62,-3.11,220,289,207,454,379
384,0.23,-0.97,-0.07,0.92,-3.42,-3.85,222,294,206,451,379
385,0.2,-0.97,-0.07,0.0,-3.36,-1.71,229,291,208,453,379
386,0.19,-0.99,-0.07,-0.61,-2.44,-2.44,224,290,203,446,385
387,0.19,-0.97,-0.05,1.22,-1.83,-0.37,220,289,211,455,380
388,0.22,-0.99,-0.12,-1.16,-3.66,-3.66,222,289,220,447,377
389,0.21,-0.97,-0.08,-0.24,-2.32,-2.2,223,282,209,450,378
390,0.2,-0.97,-0.07,1.4,-2.75,-1.22,221,288,210,456,375
391,0.19,-1.01,-0.02,0.43,-2.99,-1.89,233,289,202,452,372
392,0.19,-0.97,-0.06,1.77,-2.62,-2.26,220,290,195,447,378
393,0.19,-0.98,-0.08,-1.53,-3.11,-3.42,221,285,211,452,374
394,0.18,-0.97,-0.05,0.79,-2.38,-3.91,224,288,211,454,376
395,0.2,-0.98,-0.08,-0.24,-2.93,-1.77,221,290,206,450,378
396,0.2,-0.98,-0.07,0.92,-5.37,-2.08,223,286,202,452,374
397,0.21,-0.97,-0.08,0.31,-3.6,-2.2,219,290,200,450,378
398,0.2,-0.97,-0.06,0.98,-2.32,-1.83,223,289,208,451,373
399,0.19,-0.97,-0.07,0.37,-3.05,-2.44,221,288,210,454,375
400,0.2,-0.98,-0.07,0.73,-2.38,-2.93,221,289,207,452,377
401,0.2,-0.98,-0.08,1.34,-2.87,-1.16,223,291,209,442,378
402,0.19,-0.98,-0.07,0.85,-3.78,-2.32,222,288,208,450,380
403,0.19,-0.97,-0.06,0.67,-2.75,-2.44,217,287,212,453,377
404,0.2,-0.97,-0.07,0.0,-3.91,-3.05,222,288,212,451,376
405,0.21,-0.98,-0.08,0.79,-3.54,-2.2,219,287,205,451,379
406,0.2,-0.97,-0.07,1.59,-2.81,-2.08,224,284,211,446,378
407,0.18,-0.98,-0.07,1.34,-1.95,-2.5,220,287,209,453,375
408,0.2,-0.98,-0.09,-3.85,-5.13,-3.72,220,288,208,448,378
409,0.22,-0.97,-0.1,3.05,-1.22,-0.98,222,290,196,452,378
410,0.18,-0.94,-0.08,0.37,-1.83,-4.03,224,290,211,450,379
411,0.2,-0.98,-0.08,-2.01,-2.62,-4.27,224,288,204,454,378
412,0.2,-0.98,-0.07,-0.67,-5.13,-3.66,224,289,208,453,373
413,0.2,-0.97,-0.06,-0.37,-2.14,-1.65,220,289,204,449,372
414,0.2,-0.97,-0.05,1.34,-1.71,-0.31,219,288,207,449,380
415,0.21,-0.98,-0.07,1.16,-3.85,-3.36,221,290,212,454,379
416,0.2,-0.97,-0.05,1.4,-3.3,-1.04,225,292,208,452,376
417,0.22,-0.97,-0.09,-3.48,-2.75,-5.55,225,289,206,454,370
418,0.22,-0.95,-0.1,-0.06,-2.01,-1.89,221,284,200,449,370
419,0.24,-0.97,-0.08,0.92,-1.59,-3.23,220,299,207,450,374
420,0.22,-0.98,-0.07,1.53,-3.72,-2.08,222,288,202,452,381
421,0.21,-0.97,-0.08,2.01,-3.54,-2.87,221,290,208,451,376
422,0.17,-0.97,-0.08,0.55,-0.61,0.12,221,290,197,454,377
423,0.16,-0.97,-0.04,0.31,-1.34,-4.33,224,293,206,455,378
424,0.17,-0.98,-0.1,-1.1,-3.66,-2.69,223,288,200,445,374
425,0.19,-0.97,-0.06,-1.77,-3.91,-3.66,223,289,210,446,380
426,0.2,-0.98,-0.07,0.12,-2.81,-2.08,223,289,203,451,376
427,0.2,-0.98,-0.11,2.01,-3.85,-2.62,230,288,207,450,380
428,0.19,-0.97,-0.08,-0.85,-3.3,-4.09,223,289,213,449,385
429,0.15,-0.94,-0.07,0.24,-3.97,-2.69,223,286,209,448,378
430,0.19,-0.99,-0.08,2.69,-1.89,0.12,224,289,202,451,375
431,0.15,-0.98,-0.08,2.5,-1.16,-0.92,226,294,211,457,379
432,0.19,-0.99,-0.07,2.2,-2.99,0.37,222,289,211,454,373
433,0.19,-0.97,-0.03,4.64,-0.61,-0.12,226,293,213,452,377
434,0.21,-0.98,-0.08,0.67,-2.14,-1.46,224,289,207,449,377
435,0.2,-0.97,-0.08,1.59,-1.04,-0.37,221,289,204,451,376
436,0.2,-0.98,-0.07,0.98,-3.05,-2.44,221,284,210,451,376
437,0.2,-0.99,-0.07,1.71,-4.58,-2.14,223,285,210,452,377
438,0.17,-0.98,-0.05,-0.12,-3.23,-3.97,221,287,207,459,377
439,0.19,-0.97,-0.05,2.14,-2.14,-3.11,229,286,197,453,376
440,0.19,-0.97,-0.07,-0.85,-3.11,-3.54,219,286,206,451,374
441,0.18,-0.99,-0.05,1.4,-3.3,-0.43,218,286,204,449,378
442,0.18,-0.98,-0.05,1.89,-2.44,-2.56,221,287,212,452,378
443,0.19,-0.98,-0.05,0.73,-2.69,-3.23,224,288,209,451,375
444,0.18,-0.99,-0.04,1.89,-2.87,-2.99,226,289,212,453,374
445,0.19,-0.97,-0.04,-0.55,-2.26,-2.08,222,283,205,450,378
446,0.19,-0.98,-0.04,0.43,-3.23,-1.65,219,289,209,448,384
447,0.2,-0.97,-0.05,-0.61,-3.42,-2.14,217,286,204,448,377
448,0.15,-0.94,0.0,2.01,1.04,-5.43,218,290,208,451,377
449,0.16,-0.98,-0.08,0.24,-2.56,-6.53,225,287,206,445,377
450,0.16,-0.97,-0.09,3.91,-4.15,-1.46,218,288,206,455,375
451,0.16,-0.97,-0.08,6.35,-5.86,-3.11,225,290,209,452,377
452,0.15,-0.97,-0.08,-4.58,3.72,1.04,225,290,207,452,376
453,0.18,-0.96,-0.07,3.23,-1.77,-0.31,252,284,207,457,376
454,0.18,-0.98,-0.08,1.53,-1.89,-1.83,223,287,203,450,381
455,0.19,-0.97,-0.09,1.65,-3.23,-2.32,225,288,204,455,375
456,0.19,-0.98,-0.09,0.12,-3.17,-3.11,224,289,212,451,375
457,0.18,-0.98,-0.07,1.59,-3.91,-2.56,220,291,208,452,378
458,0.17,-0.98,-0.07,0.67,-3.42,-2.5,224,287,207,445,376
459,0.17,-0.98,-0.07,0.18,-3.17,-2.56,225,289,206,453,375
460,0.17,-0.98,-0.07,-0.24,-2.69,-2.01,222,290,205,453,381
461,0.17,-0.98,-0.07,0.61,-2.69,-2.01,223,291,208,453,377
462,0.18,-0.97,-0.07,0.37,-2.62,-2.62,220,290,196,450,383
463,0.18,-0.98,-0.07,0.49,-2.2,-2.26,222,292,200,450,378
464,0.18,-0.98,-0.08,0.79,-2.87,-2.01,220,289,200,452,377
465,0.17,-0.98,-0.07,0.67,-2.38,-2.01,225,288,206,455,374
466,0.18,-0.97,-0.06,0.61,-2.87,-3.42,223,292,206,454,378
467,0.18,-0.98,-0.07,0.31,-3.3,-2.38,223,288,209,450,380
468,0.19,-1.01,-0.08,0.18,-2.32,-3.11,224,289,207,446,374
469,0.19,-0.99,-0.07,2.99,-2.62,-3.48,222,289,208,446,378
470,0.17,-0.98,-0.07,-0.37,-3.42,-2.2,221,288,210,445,380
471,0.16,-0.98,-0.06,0.85,-3.23,-1.95,225,278,200,455,378
472,0.18,-0.97,-0.06,1.77,-3.3,-2.38,217,292,205,450,378
473,0.18,-0.98,-0.06,1.22,-2.62,-1.4,219,291,205,454,378
474,0.19,-0.98,-0.07,2.56,-2.14,-2.01,219,290,208,452,376
475,0.18,-0.98,-0.07,1.34,-2.56,-2.26,225,286,211,456,380
476,0.18,-0.98,-0.06,0.85,-3.3,-2.38,222,289,216,454,375
477,0.18,-0.98,-0.06,0.85,-3.05,-3.17,226,289,206,451,378
478,0.17,-0.98,-0.05,-0.43,-2.99,-1.95,221,290,208,450,374
479,0.17,-0.98,-0.06,-0.12,-2.62,-2.56,225,286,208,445,378
480,0.17,-0.99,-0.06,0.31,-2.81,-2.87,224,292,208,448,376
481,0.18,-0.98,-0.06,0.49,-2.69,-2.08,223,291,206,452,386
482,0.16,-0.99,-0.06,0.67,-1.46,-2.26,225,286,208,452,380
483,0.17,-0.98,-0.05,0.06,-2.62,-3.23,225,285,210,451,378
484,0.17,-0.98,-0.05,1.53,-2.69,-2.26,234,288,210,450,378
485,0.18,-0.98,-0.06,1.59,-3.42,-3.05,225,292,209,450,377
486,0.18,-0.99,-0.06,-0.06,-2.32,-2.56,221,291,207,451,378
487,0.18,-0.98,-0.05,-0.31,-2.93,-2.38,221,287,213,454,375
488,0.17,-0.98,-0.05,0.18,-2.99,-2.44,223,287,212,447,377
489,0.17,-0.98,-0.06,0.98,-3.11,-2.01,225,292,210,450,377
490,0.17,-0.98,-0.05,0.67,-2.5,-3.11,223,289,200,447,379
491,0.16,-0.99,-0.04,-2.01,-3.3,-2.81,222,290,207,450,381
492,0.18,-0.98,-0.03,0.37,-3.66,-2.62,222,292,206,455,377
493,0.18,-0.99,-0.05,0.18,-2.87,-2.44,221,288,206,446,377
494,0.17,-0.95,-0.06,-0.06,-2.62,-2.44,219,287,211,452,378
495,0.18,-1.0,-0.04,0.73,-3.42,-2.38,224,290,210,451,380
496,0.17,-0.98,-0.04,0.61,-3.17,-2.26,228,288,209,452,377
497,0.18,-0.98,-0.04,1.4,-3.42,-2.81,224,289,208,450,379
498,0.18,-0.98,-0.04,0.37,-3.42,-2.99,225,287,208,455,376
499,0.17,-0.98,-0.04,0.61,-2.44,-1.83,223,289,207,455,376
500,0.17,-0.98,-0.05,-0.37,-2.62,-2.5,219,293,206,452,378
501,0.16,-0.99,-0.05,-0.18,-2.93,-2.44,222,293,206,458,374
502,0.16,-0.98,-0.04,0.49,-2.44,-2.69,223,289,207,450,378
503,0.19,-0.98,-0.07,0.31,-3.36,-4.09,219,288,204,450,373
504,0.19,-0.97,-0.06,-0.43,-3.3,-1.16,222,286,210,446,380
505,0.19,-0.98,-0.07,1.89,-3.42,-0.92,218,286,208,450,381
506,0.15,-0.98,-0.02,2.87,-2.38,0.49,219,286,208,454,379
507,0.14,-0.98,-0.05,0.55,-4.82,-0.55,223,298,215,450,375
508,0.2,-0.82,-0.06,36.5,1.1,36.01,206,269,187,443,375
509,0.15,-1.03,-0.03,-16.48,4.21,-1.46,202,270,178,447,375
510,0.18,-0.99,-0.07,-11.6,0.18,-2.14,206,269,185,443,381
511,0.19,-0.95,-0.08,-5.0,-5.07,0.0,204,271,180,442,377
512,0.14,-0.94,-0.05,-0.24,-4.94,-3.78,206,274,177,445,378
513,0.2,-1.02,-0.09,-0.55,-1.65,-8.73,207,261,184,439,374
514,0.26,-0.99,-0.11,-5.98,-12.02,-0.98,209,273,186,448,382
515,0.14,-0.97,-0.14,1.16,-6.1,-3.36,210,271,190,447,382
516,0.23,-0.96,-0.16,2.5,-4.33,-2.75,210,274,181,445,380
517,0.21,-0.97,-0.17,-1.22,-3.6,-7.08,206,268,176,442,380
518,0.23,-0.96,-0.13,3.72,-1.89,-1.34,210,274,180,437,379
519,0.26,-0.97,-0.14,2.69,-3.48,-1.83,209,270,187,440,381
520,0.22,-0.97,-0.11,-3.42,-1.95,0.85,213,274,177,440,386
521,0.2,-0.97,-0.13,0.49,-0.85,-1.65,213,273,190,443,382
522,0.24,-0.95,-0.14,3.66,-0.37,-3.42,210,273,188,441,385
523,0.18,-0.99,-0.14,2.81,-1.22,2.26,207,271,186,447,385
524,0.21,-0.98,-0.09,-2.38,6.1,-3.97,211,272,189,443,382
525,0.22,-0.97,-0.08,0.18,-5.68,-2.01,214,279,193,444,384
526,0.2,-0.96,-0.08,7.2,-6.23,0.67,208,268,193,442,383
527,0.21,-0.98,-0.1,5.13,-6.41,4.82,209,273,189,438,383
528,0.18,-0.98,-0.07,1.89,-4.94,-2.01,207,279,184,440,383
529,0.16,-0.99,-0.06,-0.06,-2.99,-3.36,212,271,189,438,383
530,0.16,-0.98,-0.05,0.55,-1.89,-2.81,210,277,191,440,376
531,0.12,-0.98,-0.04,3.48,-5.68,0.49,208,274,189,444,381
532,0.17,-0.99,-0.07,-0.85,-4.64,-5.31,213,273,192,439,384
533,0.09,-0.96,0.02,1.53,1.1,-0.18,212,266,191,439,381
534,0.19,-0.99,-0.08,1.34,-0.61,-2.01,217,275,188,442,384
535,0.17,-0.97,-0.06,0.85,-5.0,-3.11,211,273,192,441,384
536,0.14,-0.98,-0.04,3.66,-4.76,-6.53,211,269,177,445,383
537,0.19,-0.99,-0.11,1.1,4.58,2.14,211,273,190,442,385
538,0.22,-0.99,-0.08,3.11,-5.49,-7.14,200,274,189,441,383
539,0.19,-0.97,-0.11,-2.44,0.12,-1.46,211,269,188,442,384
540,0.18,-0.99,-0.08,-3.42,-8.06,-5.25,213,275,187,443,386
541,0.13,-0.99,-0.07,4.33,-0.49,-0.49,212,271,193,449,376
542,0.16,-0.98,-0.05,-0.24,-4.15,-5.07,216,275,195,449,384
543,0.15,-1.0,-0.09,1.22,-2.81,-2.87,211,272,189,445,385
544,0.16,-0.99,-0.07,1.71,-2.75,-3.11,209,275,185,449,386
545,0.17,-0.98,-0.08,1.04,-2.62,-2.75,211,275,191,443,384
546,0.17,-0.98,-0.05,1.59,-3.23,-3.17,212,273,193,442,387
547,0.17,-0.98,-0.05,0.0,-3.54,-2.69,210,273,189,441,386
548,0.17,-0.99,-0.06,1.28,-3.17,-3.05,210,268,196,442,384
549,0.22,-0.99,-0.11,-0.98,-5.43,-4.46,221,274,190,441,382
550,0.2,-0.98,-0.07,3.11,-2.38,-2.62,207,273,194,444,386
551,0.18,-0.99,-0.08,2.14,-4.52,-2.32,214,277,189,443,384
552,0.15,-0.98,-0.06,3.05,-1.4,-2.93,209,278,192,449,382
553,0.17,-1.0,-0.08,-11.05,-1.34,-5.0,213,277,192,449,380
554,0.14,-1.0,-0.07,4.15,-3.6,-5.55,212,274,193,443,385
555,0.16,-0.98,-0.07,7.75,-1.22,-5.25,217,274,197,443,385
556,0.14,-0.97,-0.06,1.77,-2.08,-2.14,210,283,192,446,383
557,0.15,-0.97,-0.05,0.92,-0.55,0.85,213,276,176,447,384
558,0.17,-0.98,-0.04,1.28,-5.0,-5.0,213,280,190,446,384
559,0.21,-0.98,-0.06,-1.65,-2.69,-7.26,212,279,200,444,387
560,0.22,-0.97,-0.05,-1.1,-1.77,-4.33,211,279,200,442,380
561,0.22,-0.97,-0.06,-1.28,-1.53,-2.08,212,280,199,448,383
562,0.21,-0.97,-0.05,0.92,-3.11,-4.09,215,280,193,449,378
563,0.23,-0.97,-0.05,1.46,-2.93,-2.5,214,278,188,455,383
564,0.22,-0.97,-0.08,0.92,-2.75,-2.14,215,279,190,443,379
565,0.22,-0.97,-0.05,1.16,-3.17,-3.11,212,278,194,440,383
566,0.22,-0.96,-0.05,0.67,-3.11,-2.87,214,280,196,460,383
567,0.22,-0.97,-0.06,-0.92,-2.87,-1.95,216,277,195,444,384
568,0.18,-0.97,-0.03,0.31,-2.56,-2.38,214,280,196,446,382
569,0.19,-0.97,-0.03,1.1,-2.26,2.01,235,278,192,440,382
570,0.19,-0.97,-0.05,1.1,-2.44,-0.79,227,277,194,442,385
571,0.22,-0.97,-0.04,1.53,-7.26,-4.52,214,283,194,447,383
572,0.17,-0.98,-0.02,0.06,-2.32,-2.5,225,280,193,446,382
573,0.19,-0.98,-0.05,0.67,-2.44,-0.92,224,278,190,441,383
574,0.18,-0.97,-0.04,0.79,-3.11,-2.2,216,282,200,448,384
575,0.2,-0.98,-0.05,0.98,-4.27,-2.81,213,277,182,443,379
576,0.19,-0.98,-0.04,-0.18,-2.75,-3.42,214,278,196,442,382
577,0.2,-0.98,-0.04,1.46,-2.93,-2.14,212,281,195,444,381
578,0.2,-0.98,-0.05,0.98,-4.27,-2.2,217,280,197,443,381
579,0.18,-0.99,-0.04,1.89,-2.87,-1.4,217,278,198,450,381
580,0.17,-0.98,-0.02,-2.08,-2.69,-2.81,220,280,197,444,383
581,0.19,-0.97,-0.04,1.1,-3.3,-3.11,222,278,193,447,382
582,0.19,-0.97,-0.0,1.65,-3.3,-0.06,216,284,195,445,383
583,0.16,-0.99,-0.04,-2.2,-4.03,-0.06,216,279,197,450,379
584,0.16,-0.98,-0.04,-0.49,-7.63,-4.58,214,287,195,450,382
585,0.14,-0.94,-0.05,3.78,-4.33,-1.77,214,278,195,446,384
586,0.17,-0.98,-0.05,-0.06,-2.99,-0.79,214,280,202,448,380
587,0.14,-1.0,-0.07,-3.91,-2.56,0.12,214,279,193,450,383
588,0.14,-1.0,-0.11,0.43,-0.37,-5.31,214,279,193,448,384
589,0.19,-0.97,-0.06,1.1,-4.03,-3.23,216,280,197,442,383
590,0.16,-0.98,-0.12,1.95,-2.2,0.18,226,280,198,446,381
591,0.17,-0.98,-0.08,-1.89,-4.46,-4.58,216,281,192,449,385
592,0.19,-0.98,-0.05,3.36,-2.75,-3.66,209,278,195,446,393
593,0.19,-0.99,-0.08,-2.5,-11.47,-6.84,218,275,200,449,379
594,0.14,-1.0,-0.1,-5.8,-7.32,-2.99,212,279,193,449,383
595,0.21,-0.98,-0.12,-4.21,-6.04,-6.71,212,278,197,446,384
596,0.2,-0.96,-0.05,3.23,-1.34,-0.67,219,278,193,450,382
597,0.23,-0.94,-0.14,-7.81,0.0,-4.09,215,276,184,444,380
598,0.2,-0.93,-0.15,-0.24,4.58,-3.6,214,279,195,452,389
599,0.26,-0.92,-0.09,-2.14,0.37,-7.69,212,275,196,445,382
600,0.28,-0.98,-0.11,2.81,0.79,-6.77,214,282,195,445,383
601,0.34,-0.99,-0.08,7.39,12.7,0.06,217,284,195,447,385
602,0.3,-0.91,-0.05,-0.79,0.43,-9.09,219,278,197,441,382
603,0.33,-0.94,-0.15,-2.62,-9.09,-0.85,218,283,201,449,383
604,0.3,-0.95,-0.15,3.11,-2.2,-2.26,215,280,199,445,382
605,0.28,-0.94,-0.09,8.0,-6.77,3.42,218,278,200,444,382
606,0.24,-0.96,-0.1,2.2,-3.17,11.47,215,279,194,451,385
607,0.22,-0.97,-0.14,-0.67,-2.62,-2.62,215,280,199,449,382
608,0.18,-0.97,-0.11,0.43,-3.3,-4.09,219,284,196,452,381
609,0.17,-0.98,-0.12,2.99,-7.02,2.2,216,280,201,440,377
610,0.17,-0.97,-0.11,-4.52,-4.15,-3.97,218,280,199,448,379
611,0.22,-0.98,-0.12,1.34,-1.53,-2.75,217,282,203,445,378
612,0.22,-0.97,-0.11,-0.92,0.73,-4.88,218,284,201,441,378
613,0.19,-0.96,-0.13,-3.72,-6.04,-7.45,224,280,200,445,381
614,0.24,-0.97,-0.16,-0.49,-4.33,-0.61,215,282,195,448,378
615,0.19,-0.97,-0.13,2.32,-4.21,-3.6,218,282,199,448,381
616,0.19,-0.97,-0.14,-5.86,-4.7,-6.77,218,281,197,449,380
617,0.17,-0.97,-0.15,-2.93,8.3,3.23,215,286,199,441,376
618,0.21,-0.98,-0.15,-4.52,-3.3,-3.42,214,278,194,452,380
619,0.2,-0.96,-0.14,1.53,-7.32,-3.6,219,281,198,444,380
620,0.18,-0.97,-0.12,-0.85,-5.49,-2.56,218,275,203,450,378
621,0.18,-0.96,-0.08,-2.01,-2.32,-2.5,214,287,186,443,377
622,0.18,-0.97,-0.09,1.65,-1.95,-2.2,215,284,196,445,383
623,0.18,-0.96,-0.09,-0.24,-0.67,-3.3,213,282,198,447,378
624,0.23,-0.97,-0.15,3.6,-0.61,-1.46,217,282,198,446,380
625,0.23,-0.97,-0.15,3.3,1.1,0.79,217,281,195,449,386
626,0.23,-0.96,-0.14,4.21,-1.46,0.61,217,285,197,443,376
627,0.21,-0.95,-0.14,2.56,-1.16,-1.16,215,285,201,451,369
628,0.22,-0.98,-0.15,1.59,-3.23,-3.23,218,281,193,446,378
629,0.21,-0.97,-0.14,0.37,-4.46,-3.36,216,286,196,449,378
630,0.19,-0.95,-0.13,-2.69,-5.86,-2.26,217,297,199,441,379
631,0.18,-0.97,-0.15,-0.73,-4.94,-4.21,216,282,196,442,376
632,0.18,-0.97,-0.12,3.3,-1.71,-1.46,217,282,199,447,380
633,0.2,-0.98,-0.11,1.65,-3.48,0.31,214,285,204,450,381
634,0.19,-0.98,-0.13,2.75,-1.53,-1.1,220,286,204,445,380
635,0.17,-0.97,-0.1,-0.61,-3.97,-4.33,212,284,198,437,379
636,0.21,-0.98,-0.1,0.85,-0.98,-3.23,217,286,200,446,379
637,0.18,-0.97,-0.08,2.2,-3.17,-2.99,218,286,201,442,384
638,0.18,-0.98,-0.1,-0.61,-3.42,-2.44,220,285,197,442,375
639,0.2,-0.97,-0.1,1.71,-1.53,-2.93,217,281,194,445,380
640,0.19,-0.97,-0.1,-0.12,-4.76,-2.69,218,283,194,447,380
641,0.17,-0.97,-0.13,-2.2,-5.49,-3.72,225,288,189,447,383
642,0.2,-0.97,-0.12,0.43,-2.01,-3.17,218,277,202,443,377
643,0.18,-0.96,-0.11,1.95,-5.62,-4.94,219,286,204,447,380
644,0.18,-0.96,-0.1,-0.61,-4.39,-4.15,211,287,196,448,380
645,0.22,-0.96,-0.1,4.33,-1.89,-1.59,221,279,190,452,383
646,0.21,-0.98,-0.14,0.85,-2.44,-4.46,219,300,195,445,379
647,0.17,-0.95,-0.05,2.2,-5.98,-0.61,218,285,207,448,380
648,0.2,-0.96,-0.05,0.43,-5.43,-4.82,219,283,199,439,378
649,0.17,-0.97,-0.08,3.3,-7.08,-4.58,217,280,199,441,377
650,0.19,-0.98,-0.05,2.01,-1.65,-0.98,219,288,197,443,383
651,0.21,-0.96,-0.05,2.44,-2.93,-1.16,216,283,198,447,376
652,0.21,-0.96,-0.09,-0.73,-2.5,-2.93,218,290,205,450,381
653,0.21,-0.94,-0.13,-4.39,-4.94,-2.32,218,282,193,447,378
654,0.2,-0.97,-0.13,-1.95,-3.85,-3.54,222,283,201,442,378
655,0.21,-0.97,-0.11,2.26,-2.38,-1.83,219,284,198,453,382
656,0.22,-0.97,-0.11,0.79,-3.17,-2.93,217,285,197,446,380
657,0.23,-0.96,-0.11,2.2,-2.2,-2.87,217,284,206,446,379
658,0.2,-0.97,-0.11,-1.4,-4.09,-3.66,220,280,192,449,381
659,0.2,-0.97,-0.09,0.49,-4.03,-3.54,217,283,198,445,376
660,0.19,-0.97,-0.09,0.0,-2.08,-1.95,216,285,197,449,381
661,0.21,-0.97,-0.11,0.92,-1.59,-2.01,217,283,200,447,383
662,0.21,-0.96,-0.11,0.55,-2.38,-1.95,223,282,203,449,381
663,0.23,-0.97,-0.11,0.37,-3.05,-3.54,224,282,201,450,385
664,0.22,-0.97,-0.11,0.61,-3.05,-2.99,217,283,198,450,381
665,0.24,-0.98,-0.13,1.89,-2.75,-2.08,219,286,207,451,380
666,0.24,-0.97,-0.1,4.09,-3.78,-2.87,218,284,203,444,382
667,0.22,-0.98,-0.11,-0.43,-2.75,-3.11,219,284,201,449,378
668,0.22,-0.97,-0.1,-0.79,-4.27,-2.38,216,283,203,451,381
669,0.21,-0.97,-0.11,1.16,-3.48,-2.75,217,286,203,444,383
670,0.19,-0.95,-0.06,-0.79,-0.73,1.04,215,286,196,445,381
671,0.21,-0.96,-0.09,1.59,-1.83,-1.16,223,286,201,448,380
672,0.22,-0.97,-0.11,2.08,-2.26,-1.22,221,278,198,445,379
673,0.21,-0.98,-0.12,-0.12,-3.42,-3.97,213,284,202,446,376
674,0.21,-0.96,-0.1,0.73,-4.27,-2.56,225,282,200,440,376
675,0.21,-0.96,-0.09,0.06,-2.75,-3.05,215,290,203,445,378
676,0.22,-0.97,-0.09,-0.92,-2.99,-0.73,220,284,199,452,379
677,0.21,-0.97,-0.09,0.92,-2.26,-2.87,217,280,201,449,375
678,0.19,-0.97,-0.09,-1.16,-1.28,-1.65,218,286,200,450,380
679,0.2,-0.98,-0.12,1.22,-4.94,-4.64,218,286,197,450,372
680,0.16,-0.98,-0.12,-2.81,-4.7,-4.46,216,279,199,437,377
681,0.2,-0.97,-0.09,-0.92,-5.07,-2.56,214,288,198,450,378
682,0.18,-0.97,-0.07,-1.28,-2.08,-2.69,222,285,198,442,374
683,0.22,-0.96,-0.12,-1.34,-4.82,-1.65,220,288,204,446,381
684,0.2,-0.96,-0.14,-12.08,-2.5,-9.58,218,287,189,449,379
685,0.27,-0.95,-0.14,-5.0,-2.81,-1.77,229,288,205,451,378
686,0.28,-0.98,-0.23,11.35,-6.65,2.01,216,286,204,446,380
687,0.14,-0.99,-0.12,-0.24,-2.08,-1.1,211,286,199,447,379
688,0.18,-0.97,-0.09,2.2,-3.66,-1.28,215,283,202,453,380
689,0.22,-0.97,-0.11,2.2,0.0,-5.92,235,286,198,441,380
690,0.25,-0.98,-0.1,2.44,-3.97,-4.52,216,284,203,448,379
691,0.21,-0.98,-0.1,-1.4,-4.94,-5.74,218,285,204,445,379
692,0.2,-0.98,-0.09,-0.85,-3.17,-1.22,222,286,201,442,387
693,0.21,-0.99,-0.09,-0.49,-3.66,-4.21,218,284,199,444,380
694,0.22,-0.98,-0.09,0.92,-3.17,-3.23,219,292,197,442,381
695,0.24,-0.96,-0.1,0.79,-1.04,-1.83,218,285,201,442,379
696,0.19,-0.97,-0.08,0.67,-2.32,-1.16,218,283,200,440,377
697,0.23,-0.96,-0.1,0.49,-3.78,-2.2,220,286,199,446,381
698,0.21,-0.96,-0.09,-0.18,-4.39,-1.28,221,283,202,446,380
699,0.22,-0.97,-0.09,1.83,-4.88,-1.22,220,289,200,446,379
700,0.32,-0.99,-0.09,13.06,-8.06,-0.18,221,289,203,442,383
701,0.19,-0.98,-0.11,5.55,-8.67,6.47,215,288,200,451,377
702,0.11,-0.99,-0.11,9.7,-5.19,12.45,220,287,200,450,379
703,0.08,-0.99,-0.04,-0.49,-9.77,-3.17,220,281,199,446,379
704,0.06,-0.97,-0.01,4.27,-4.7,2.08,216,287,199,451,379
705,0.07,-1.05,-0.06,-1.77,-7.08,-3.3,217,284,204,455,379
706,0.11,-1.02,-0.08,-3.48,-8.73,-13.79,224,286,199,442,379
707,0.06,-0.98,0.02,6.53,-4.46,-1.28,217,286,200,443,380
708,0.12,-0.96,-0.02,4.09,-6.65,-8.06,214,284,211,449,381
709,0.09,-0.99,-0.03,3.05,-1.4,-7.08,223,286,204,448,378
710,0.15,-0.99,-0.02,0.37,-1.28,0.37,217,285,206,449,380
711,0.13,-1.0,-0.06,1.22,-1.46,-2.2,218,288,202,459,379
712,0.14,-0.99,-0.01,-1.1,-2.93,-3.72,219,285,198,445,382
713,0.1,-1.01,-0.07,0.92,-7.08,-6.23,219,290,195,449,382
714,0.12,-0.99,0.0,-4.82,-1.59,-1.22,214,286,202,450,381
715,0.14,-0.99,0.01,-3.05,-1.83,-6.71,221,289,206,447,383
716,0.16,-0.96,-0.01,-0.12,-2.32,-2.69,216,286,202,445,378
717,0.17,-0.98,-0.07,-2.81,0.73,-4.88,220,286,206,448,379
718,0.17,-0.98,-0.08,-0.06,-5.0,-3.78,218,285,203,446,381
719,0.17,-0.99,-0.09,-1.59,-3.97,-4.39,220,285,203,452,376
720,0.16,-0.99,-0.07,-4.21,-3.23,-2.32,217,282,193,448,376
721,0.17,-1.0,-0.1,-6.16,-2.62,-1.65,213,286,200,451,382
722,0.17,-0.96,-0.08,0.55,-3.05,-2.75,215,287,198,444,376
723,0.2,-0.99,-0.08,0.18,-2.69,-2.56,217,291,205,443,378
724,0.17,-0.96,-0.04,3.05,-1.95,-1.4,220,282,196,444,376
725,0.16,-0.98,-0.09,-0.31,-4.82,-4.82,221,286,203,441,384
726,0.17,-0.98,-0.11,-3.11,-4.88,-3.11,220,285,201,448,381
727,0.16,-0.98,-0.06,0.92,-1.59,-1.83,222,289,214,452,380
728,0.19,-0.98,-0.09,0.98,-1.95,-3.97,212,284,201,447,381
729,0.15,-1.0,-0.08,0.92,-0.61,1.89,219,290,203,448,380
730,0.13,-0.96,-0.04,-2.14,-2.26,-1.59,217,288,200,450,380
731,0.14,-0.98,-0.07,-1.04,-2.75,-4.7,220,284,199,448,382
732,0.18,-0.9,-0.1,-2.14,-3.05,-3.85,216,286,199,442,381
733,0.18,-0.94,-0.13,-2.44,-2.38,-4.52,219,286,203,447,379
734,0.2,-0.95,-0.08,0.43,-3.11,-2.81,218,289,204,449,383
735,0.17,-0.96,-0.11,-2.38,-3.54,-2.62,219,288,199,449,382
736,0.18,-0.97,-0.11,-1.95,-2.38,-5.19,219,287,200,450,381
737,0.21,-0.96,-0.12,-4.09,-1.77,-1.53,221,288,202,445,381
738,0.26,-0.96,-0.18,-9.22,6.65,-11.9,222,286,206,448,380
739,0.22,-0.97,-0.21,-9.34,8.24,-5.8,222,285,205,446,380
740,0.23,-0.93,-0.18,3.42,-0.73,2.38,215,287,206,450,383
741,0.24,-0.95,-0.18,4.03,-6.16,1.83,223,282,203,452,381
742,0.23,-0.91,-0.19,1.83,-5.13,4.27,221,287,212,450,381
743,0.17,-0.96,-0.17,-0.49,-0.49,-1.1,218,285,204,448,382
744,0.2,-0.96,-0.2,-1.59,-4.39,-7.32,217,283,202,446,380
745,0.27,-0.97,-0.22,0.92,-1.1,-1.4,217,289,201,454,381
746,0.22,-0.93,-0.2,1.53,-4.7,-2.75,217,285,206,444,380
747,0.22,-0.94,-0.18,-0.06,-1.95,2.38,219,290,208,451,383
748,0.17,-0.98,-0.21,-1.34,2.14,1.22,219,285,205,448,380
749,0.25,-1.01,-0.28,-0.92,1.53,-8.42,221,287,204,453,381
750,0.24,-0.93,-0.18,-4.76,-6.77,-6.47,219,287,202,447,379
751,0.18,-0.93,-0.16,2.2,-2.26,2.56,219,289,202,450,380
752,0.24,-0.93,-0.21,2.2,-3.23,-2.81,216,287,202,447,379
753,0.2,-0.95,-0.2,1.89,-0.18,-2.08,220,285,202,446,380
754,0.19,-0.92,-0.17,9.34,-2.56,-3.97,223,283,203,445,383
755,0.18,-0.95,-0.18,0.61,-4.88,-4.46,214,286,204,450,381
756,0.18,-0.94,-0.16,0.06,-2.99,-2.2,219,284,203,449,381
757,0.18,-0.97,-0.19,0.31,-2.14,0.31,219,284,202,449,379
758,0.19,-0.95,-0.17,-2.26,-5.0,-4.94,217,283,203,449,383
759,0.16,-0.97,-0.17,1.89,1.4,-5.49,217,284,206,451,384
760,0.18,-0.95,-0.18,2.26,-2.5,-1.4,217,287,203,449,381
761,0.18,-0.96,-0.2,-1.95,-5.25,-2.87,219,287,202,451,383
762,0.19,-0.96,-0.19,-0.49,-3.11,-1.28,221,284,202,445,379
763,0.21,-0.95,-0.17,0.73,-6.71,-2.69,220,282,213,454,381
764,0.23,-0.97,-0.19,-0.61,-2.81,-3.66,221,288,202,444,380
765,0.18,-0.99,-0.27,-3.6,-5.43,-3.3,221,287,209,449,376
766,0.15,-0.97,-0.17,4.88,-2.93,4.88,229,283,206,450,382
767,0.18,-0.97,-0.22,-12.21,-3.42,-7.93,221,279,209,452,381
768,0.19,-0.95,-0.22,-4.21,-5.13,-4.27,222,285,208,448,381
769,0.13,-0.98,-0.18,-12.94,-2.26,-7.14,242,285,204,453,380
770,0.22,-0.93,-0.26,1.34,-1.53,-6.84,215,295,207,442,381
771,0.24,-0.98,-0.27,6.47,-4.82,-2.44,220,286,200,448,379
772,0.24,-0.96,-0.26,0.24,-2.99,-2.87,219,288,203,449,381
773,0.21,-0.97,-0.21,2.5,0.92,2.14,218,293,204,448,380
774,0.26,-0.96,-0.26,-0.98,-2.62,-9.7,217,282,201,452,382
775,0.23,-0.95,-0.25,-0.06,-4.82,-8.18,219,286,205,447,377
776,0.26,-0.96,-0.24,3.05,-1.22,2.99,218,285,206,451,379
777,0.26,-0.93,-0.2,7.2,-5.07,-4.7,235,294,199,463,382
778,0.23,-0.96,-0.23,-1.1,1.04,-3.97,220,287,204,452,383
779,0.17,-0.93,-0.16,-0.06,-0.92,-9.4,220,283,202,447,382
780,0.24,-0.91,-0.23,3.85,-7.14,-8.12,218,288,204,448,379
781,0.17,-0.93,-0.24,6.47,-1.95,4.52,219,290,203,447,377
782,0.19,-0.93,-0.22,0.37,-2.14,-3.3,219,287,203,451,383
783,0.24,-0.94,-0.23,3.91,-0.67,-8.12,215,281,202,452,381
784,0.26,-0.94,-0.25,1.22,-8.91,-4.33,221,283,204,442,380
785,0.25,-0.93,-0.25,2.56,-3.3,-5.25,221,289,198,444,378
786,0.22,-0.93,-0.23,4.21,-3.78,-1.65,220,288,201,447,381
787,0.23,-0.93,-0.21,-4.09,-3.66,-3.05,220,287,205,451,381
788,0.24,-0.94,-0.26,3.6,-1.53,-4.88,215,285,189,446,381
789,0.22,-0.94,-0.23,2.2,-1.4,-0.79,245,284,206,451,379
790,0.24,-0.96,-0.21,0.0,-0.18,-4.15,218,288,205,450,378
791,0.26,-0.93,-0.23,4.39,-4.15,-1.59,219,284,209,448,382
792,0.25,-0.95,-0.23,1.16,-2.5,-1.4,223,284,200,442,379
793,0.26,-0.93,-0.17,-1.4,-3.66,-4.7,216,282,206,447,382
794,0.23,-0.95,-0.21,1.83,-1.16,-3.05,221,287,208,448,376
795,0.26,-0.95,-0.22,2.32,-3.17,-2.75,220,287,199,448,380
796,0.24,-0.94,-0.18,-0.18,-2.08,-2.99,215,288,205,435,380
797,0.24,-0.92,-0.21,-0.06,-3.91,-3.36,221,280,206,445,383
798,0.25,-0.94,-0.19,0.55,-1.59,-2.2,219,290,208,451,380
799,0.25,-0.94,-0.22,-0.49,-2.99,-3.6,222,285,207,451,380
800,0.24,-0.93,-0.19,0.67,-2.87,-2.08,220,287,204,446,380
801,0.29,-0.92,-0.22,3.48,-0.24,-2.87,220,282,195,443,380
802,0.27,-0.94,-0.23,2.87,1.1,0.43,219,284,205,446,382
803,0.22,-0.93,-0.19,6.35,0.92,2.08,222,276,200,452,378
804,0.25,-0.94,-0.21,-2.01,-1.34,-6.35,217,281,206,452,381
805,0.25,-0.95,-0.23,-0.98,-3.6,-4.76,221,288,202,442,382
806,0.26,-0.93,-0.2,0.24,-3.05,-2.81,218,285,202,446,381
807,0.28,-0.95,-0.23,1.77,-3.42,-3.05,218,285,206,449,380
808,0.26,-0.95,-0.21,2.69,-5.86,0.24,218,284,203,448,381
809,0.15,-0.96,-0.19,-1.95,0.67,-1.71,218,285,209,445,377
810,0.15,-0.93,-0.18,1.71,-1.22,-0.18,221,285,202,441,379
811,0.18,-0.97,-0.21,0.61,-1.89,-3.78,220,285,207,448,379
812,0.18,-0.96,-0.2,0.49,-2.69,-2.01,225,286,204,449,375
813,0.17,-0.96,-0.2,1.04,-1.59,-2.14,220,285,218,446,376
814,0.18,-0.96,-0.18,0.98,-0.18,-7.81,217,288,206,448,379
815,0.19,-0.96,-0.17,0.85,-1.22,-2.81,219,281,200,451,381
816,0.19,-0.96,-0.19,0.92,-2.75,-1.4,217,289,205,451,381
817,0.19,-0.96,-0.21,-2.81,-4.39,-2.14,221,283,202,451,380
818,0.19,-0.95,-0.19,3.54,-2.44,-0.31,220,288,207,446,380
819,0.17,-0.96,-0.19,3.11,-2.75,-2.93,221,287,205,443,376
820,0.18,-0.97,-0.25,1.71,-6.35,-5.31,218,289,218,452,377
821,0.18,-0.94,-0.15,5.19,-1.65,-1.28,223,284,204,444,378
822,0.15,-0.96,-0.16,-2.32,-3.54,3.42,220,288,208,451,378
823,0.19,-0.97,-0.22,5.37,0.92,5.43,222,287,202,451,379
824,0.09,-0.97,-0.14,3.54,0.43,-8.06,219,287,206,448,383
825,0.16,-0.97,-0.17,3.42,-3.97,-8.12,221,285,207,450,381
826,0.19,-0.97,-0.17,0.31,-2.26,-7.26,225,285,209,454,374
827,0.15,-0.98,-0.18,-5.49,-8.18,-1.46,221,287,209,446,378
828,0.19,-0.98,-0.22,-3.54,4.46,-7.45,221,289,203,442,379
829,0.22,-0.96,-0.2,0.18,-2.5,-6.23,220,287,219,447,376
830,0.18,-0.96,-0.19,-1.28,-2.93,-2.56,222,284,209,452,377
831,0.22,-0.96,-0.16,0.0,-2.2,-1.83,222,289,207,447,386
832,0.2,-0.96,-0.17,-0.43,-3.23,-1.77,225,285,209,447,376
833,0.21,-0.95,-0.17,1.4,-2.56,-2.32,212,290,198,449,380
834,0.22,-0.96,-0.18,0.18,-2.69,-2.81,219,287,207,453,380
835,0.23,-0.96,-0.18,-1.22,-3.17,-1.4,221,287,207,452,379
836,0.22,-0.96,-0.17,0.73,-1.89,-1.77,217,289,204,444,379
837,0.2,-0.96,-0.19,-2.75,-4.21,-3.6,220,286,205,448,383
838,0.21,-0.95,-0.17,1.71,-2.62,-3.11,223,287,204,444,374
839,0.17,-0.95,-0.16,-2.44,-1.28,-4.03,222,287,204,452,380
840,0.25,-0.96,-0.18,-1.71,0.92,0.67,223,290,205,451,376
841,0.24,-0.96,-0.19,0.85,-2.75,2.99,217,287,212,452,381
842,0.16,-0.98,-0.11,1.28,2.87,0.37,253,286,207,449,375
843,0.14,-0.98,-0.16,0.55,-1.83,-2.44,224,289,205,452,382
844,0.2,-0.96,-0.15,1.53,-5.37,-5.68,220,289,203,448,378
845,0.18,-0.96,-0.09,3.23,-7.14,-3.23,223,282,200,449,380
846,0.17,-0.95,-0.08,6.16,-4.52,-10.13,222,287,203,449,377
847,0.25,-0.97,-0.17,-5.13,-4.09,-8.12,221,295,201,450,379
848,0.21,-0.96,-0.18,1.22,-1.46,-1.1,217,290,204,452,383
849,0.29,-0.94,-0.23,2.56,-8.42,-0.73,219,288,215,448,380
850,0.2,-0.96,-0.15,-5.92,-7.93,3.72,224,286,204,449,377
851,0.17,-0.95,-0.14,9.7,10.56,-5.98,220,290,206,450,378
852,0.26,-0.95,-0.14,4.15,4.27,-5.92,222,285,212,450,377
853,0.26,-0.97,-0.15,7.45,-9.34,-0.37,217,284,201,452,371
854,0.19,-0.96,-0.12,-9.7,-1.16,-4.15,220,287,207,447,377
855,0.23,-0.95,-0.14,0.98,-5.49,-0.85,220,287,205,441,378
856,0.18,-0.96,-0.16,3.66,-4.82,-1.71,216,288,205,452,376
857,0.2,-0.97,-0.14,-2.26,0.55,-0.31,230,289,208,445,377
858,0.21,-0.97,-0.14,3.6,-4.82,-3.05,221,285,205,453,376
859,0.19,-0.97,-0.11,0.85,-2.75,-3.23,221,290,205,448,380
860,0.19,-0.96,-0.12,1.04,-3.05,-2.32,229,285,204,453,378
861,0.18,-0.97,-0.11,-0.98,-1.1,-1.71,224,288,205,448,378
862,0.2,-0.99,-0.15,1.53,-1.65,0.98,218,288,205,448,377
863,0.23,-0.97,-0.13,3.36,-2.2,-2.5,223,290,205,453,377
864,0.18,-0.99,-0.14,4.27,-0.31,-0.43,246,285,205,446,378
865,0.18,-0.97,-0.1,0.73,-3.3,-3.23,220,288,208,450,378
866,0.19,-0.98,-0.1,-1.71,-2.5,-1.95,219,289,207,446,376
867,0.2,-0.98,-0.1,-0.61,-3.97,-3.6,224,289,208,446,377
868,0.21,-0.97,-0.1,1.22,-2.87,-3.54,226,286,216,453,378
869,0.23,-1.0,-0.14,-6.65,-6.65,-3.42,220,287,209,454,377
870,0.21,-0.98,-0.13,3.11,-5.86,-6.35,220,285,208,453,378
871,0.23,-0.97,-0.12,-1.22,-4.76,-5.19,221,291,202,453,379
872,0.21,-0.97,-0.1,2.81,-4.64,-2.01,223,288,206,451,376
873,0.24,-0.95,-0.12,3.91,-1.89,-3.97,223,290,204,450,378
874,0.25,-0.96,-0.12,4.52,-3.05,-6.65,220,289,208,434,377
875,0.22,-0.98,-0.09,-0.31,-7.69,-0.18,221,286,203,449,375
876,0.23,-0.96,-0.08,4.33,-1.95,0.92,220,289,208,454,378
877,0.23,-0.97,-0.09,3.3,0.12,-2.44,223,289,209,450,378
878,0.26,-0.98,-0.1,15.44,-15.81,-1.22,220,290,206,445,381
879,0.23,-0.96,-0.09,-0.24,-17.64,2.08,221,292,207,451,378
880,0.19,-0.97,-0.06,-0.73,-5.86,-3.05,223,288,202,453,379
881,0.2,-0.97,-0.07,0.67,0.12,-4.27,218,287,206,451,376
882,0.19,-0.97,-0.07,0.24,-3.66,-3.05,224,285,206,450,377
883,0.19,-0.98,-0.1,-0.73,-3.23,-3.72,223,290,208,448,375
884,0.17,-0.97,-0.08,-0.73,-3.11,-1.71,223,293,208,450,375
885,0.2,-0.98,-0.08,2.62,-2.62,-2.08,221,288,201,453,377
886,0.19,-0.97,-0.06,1.1,-2.99,-3.3,223,289,208,450,381
887,0.2,-0.97,-0.07,0.31,-3.05,-3.6,224,288,209,450,376
888,0.19,-0.97,-0.08,1.53,-2.44,-2.14,222,291,207,449,377
889,0.19,-0.97,-0.08,1.28,-3.54,-2.93,221,289,206,449,379
890,0.2,-0.97,-0.08,-0.12,-3.66,-3.6,220,286,208,449,378
891,0.19,-0.98,-0.07,-0.06,-2.62,-3.11,220,289,207,454,379
892,0.23,-0.97,-0.07,0.92,-3.42,-3.85,222,294,206,451,379
893,0.2,-0.97,-0.07,0.0,-3.36,-1.71,229,291,208,453,379
894,0.19,-0.99,-0.07,-0.61,-2.44,-2.44,224,290,203,446,385
895,0.19,-0.97,-0.05,1.22,-1.83,-0.37,220,289,211,455,380
896,0.22,-0.99,-0.12,-1.16,-3.66,-3.66,222,289,220,447,377
897,0.21,-0.97,-0.08,-0.24,-2.32,-2.2,223,282,209,450,378
898,0.2,-0.97,-0.07,1.4,-2.75,-1.22,221,288,210,456,375
899,0.19,-1.01,-0.02,0.43,-2.99,-1.89,233,289,202,452,372
900,0.19,-0.97,-0.06,1.77,-2.62,-2.26,220,290,195,447,378
901,0.19,-0.98,-0.08,-1.53,-3.11,-3.42,221,285,211,452,374
902,0.18,-0.97,-0.05,0.79,-2.38,-3.91,224,288,211,454,376
903,0.2,-0.98,-0.08,-0.24,-2.93,-1.77,221,290,206,450,378
904,0.2,-0.98,-0.07,0.92,-5.37,-2.08,223,286,202,452,374
905,0.21,-0.97,-0.08,0.31,-3.6,-2.2,219,290,200,450,378
906,0.2,-0.97,-0.06,0.98,-2.32,-1.83,223,289,208,451,373
907,0.19,-0.97,-0.07,0.37,-3.05,-2.44,221,288,210,454,375
908,0.2,-0.98,-0.07,0.73,-2.38,-2.93,221,289,207,452,377
909,0.2,-0.98,-0.08,1.34,-2.87,-1.16,223,291,209,442,378
910,0.19,-0.98,-0.07,0.85,-3.78,-2.32,222,288,208,450,380
911,0.19,-0.97,-0.06,0.67,-2.75,-2.44,217,287,212,453,377
912,0.2,-0.97,-0.07,0.0,-3.91,-3.05,222,288,212,451,376
913,0.21,-0.98,-0.08,0.79,-3.54,-2.2,219,287,205,451,379
914,0.2,-0.97,-0.07,1.59,-2.81,-2.08,224,284,211,446,378
915,0.18,-0.98,-0.07,1.34,-1.95,-2.5,220,287,209,453,375
916,0.2,-0.98,-0.09,-3.85,-5.13,-3.72,220,288,208,448,378
917,0.22,-0.97,-0.1,3.05,-1.22,-0.98,222,290,196,452,378
918,0.18,-0.94,-0.08,0.37,-1.83,-4.03,224,290,211,450,379
919,0.2,-0.98,-0.08,-2.01,-2.62,-4.27,224,288,204,454,378
920,0.2,-0.98,-0.07,-0.67,-5.13,-3.66,224,289,208,453,373
921,0.2,-0.97,-0.06,-0.37,-2.14,-1.65,220,289,204,449,372
922,0.2,-0.97,-0.05,1.34,-1.71,-0.31,219,288,207,449,380
923,0.21,-0.98,-0.07,1.16,-3.85,-3.36,221,290,212,454,379
924,0.2,-0.97,-0.05,1.4,-3.3,-1.04,225,292,208,452,376
925,0.22,-0.97,-0.09,-3.48,-2.75,-5.55,225,289,206,454,370
926,0.22,-0.95,-0.1,-0.06,-2.01,-1.89,221,284,200,449,370
927,0.24,-0.97,-0.08,0.92,-1.59,-3.23,220,299,207,450,374
928,0.22,-0.98,-0.07,1.53,-3.72,-2.08,222,288,202,452,381
929,0.21,-0.97,-0.08,2.01,-3.54,-2.87,221,290,208,451,376
930,0.17,-0.97,-0.08,0.55,-0.61,0.12,221,290,197,454,377
931,0.16,-0.97,-0.04,0.31,-1.34,-4.33,224,293,206,455,378
932,0.17,-0.98,-0.1,-1.1,-3.66,-2.69,223,288,200,445,374
933,0.19,-0.97,-0.06,-1.77,-3.91,-3.66,223,289,210,446,380
934,0.2,-0.98,-0.07,0.12,-2.81,-2.08,223,289,203,451,376
935,0.2,-0.98,-0.11,2.01,-3.85,-2.62,230,288,207,450,380
936,0.19,-0.97,-0.08,-0.85,-3.3,-4.09,223,289,213,449,385
937,0.15,-0.94,-0.07,0.24,-3.97,-2.69,223,286,209,448,378
938,0.19,-0.99,-0.08,2.69,-1.89,0.12,224,289,202,451,375
939,0.15,-0.98,-0.08,2.5,-1.16,-0.92,226,294,211,457,379
940,0.19,-0.99,-0.07,2.2,-2.99,0.37,222,289,211,454,373
941,0.19,-0.97,-0.03,4.64,-0.61,-0.12,226,293,213,452,377
942,0.21,-0.98,-0.08,0.67,-2.14,-1.46,224,289,207,449,377
943,0.2,-0.97,-0.08,1.59,-1.04,-0.37,221,289,204,451,376
944,0.2,-0.98,-0.07,0.98,-3.05,-2.44,221,284,210,451,376
945,0.2,-0.99,-0.07,1.71,-4.58,-2.14,223,285,210,452,377
946,0.17,-0.98,-0.05,-0.12,-3.23,-3.97,221,287,207,459,377
947,0.19,-0.97,-0.05,2.14,-2.14,-3.11,229,286,197,453,376
948,0.19,-0.97,-0.07,-0.85,-3.11,-3.54,219,286,206,451,374
949,0.18,-0.99,-0.05,1.4,-3.3,-0.43,218,286,204,449,378
950,0.18,-0.98,-0.05,1.89,-2.44,-2.56,221,287,212,452,378
951,0.19,-0.98,-0.05,0.73,-2.69,-3.23,224,288,209,451,375
952,0.18,-0.99,-0.04,1.89,-2.87,-2.99,226,289,212,453,374
953,0.19,-0.97,-0.04,-0.55,-2.26,-2.08,222,283,205,450,378
954,0.19,-0.98,-0.04,0.43,-3.23,-1.65,219,289,209,448,384
955,0.2,-0.97,-0.05,-0.61,-3.42,-2.14,217,286,204,448,377
956,0.15,-0.94,0.0,2.01,1.04,-5.43,218,290,208,451,377
957,0.16,-0.98,-0.08,0.24,-2.56,-6.53,225,287,206,445,377
958,0.16,-0.97,-0.09,3.91,-4.15,-1.46,218,288,206,455,375
959,0.16,-0.97,-0.08,6.35,-5.86,-3.11,225,290,209,452,377
960,0.15,-0.97,-0.08,-4.58,3.72,1.04,225,290,207,452,376
961,0.18,-0.96,-0.07,3.23,-1.77,-0.31,252,284,207,457,376
962,0.18,-0.98,-0.08,1.53,-1.89,-1.83,223,287,203,450,381
963,0.19,-0.97,-0.09,1.65,-3.23,-2.32,225,288,204,455,375
964,0.19,-0.98,-0.09,0.12,-3.17,-3.11,224,289,212,451,375
965,0.18,-0.98,-0.07,1.59,-3.91,-2.56,220,291,208,452,378
966,0.17,-0.98,-0.07,0.67,-3.42,-2.5,224,287,207,445,376
967,0.17,-0.98,-0.07,0.18,-3.17,-2.56,225,289,206,453,375
968,0.17,-0.98,-0.07,-0.24,-2.69,-2.01,222,290,205,453,381
969,0.17,-0.98,-0.07,0.61,-2.69,-2.01,223,291,208,453,377
970,0.18,-0.97,-0.07,0.37,-2.62,-2.62,220,290,196,450,383
971,0.18,-0.98,-0.07,0.49,-2.2,-2.26,222,292,200,450,378
972,0.18,-0.98,-0.08,0.79,-2.87,-2.01,220,289,200,452,377
973,0.17,-0.98,-0.07,0.67,-2.38,-2.01,225,288,206,455,374
974,0.18,-0.97,-0.06,0.61,-2.87,-3.42,223,292,206,454,378
975,0.18,-0.98,-0.07,0.31,-3.3,-2.38,223,288,209,450,380
976,0.19,-1.01,-0.08,0.18,-2.32,-3.11,224,289,207,446,374
977,0.19,-0.99,-0.07,2.99,-2.62,-3.48,222,289,208,446,378
978,0.17,-0.98,-0.07,-0.37,-3.42,-2.2,221,288,210,445,380
979,0.16,-0.98,-0.06,0.85,-3.23,-1.95,225,278,200,455,378
980,0.18,-0.97,-0.06,1.77,-3.3,-2.38,217,292,205,450,378
981,0.18,-0.98,-0.06,1.22,-2.62,-1.4,219,291,205,454,378
982,0.19,-0.98,-0.07,2.56,-2.14,-2.01,219,290,208,452,376
983,0.18,-0.98,-0.07,1.34,-2.56,-2.26,225,286,211,456,380
984,0.18,-0.98,-0.06,0.85,-3.3,-2.38,222,289,216,454,375
985,0.18,-0.98,-0.06,0.85,-3.05,-3.17,226,289,206,451,378
986,0.17,-0.98,-0.05,-0.43,-2.99,-1.95,221,290,208,450,374
987,0.17,-0.98,-0.06,-0.12,-2.62,-2.56,225,286,208,445,378
988,0.17,-0.99,-0.06,0.31,-2.81,-2.87,224,292,208,448,376
989,0.18,-0.98,-0.06,0.49,-2.69,-2.08,223,291,206,452,386
990,0.16,-0.99,-0.06,0.67,-1.46,-2.26,225,286,208,452,380
991,0.17,-0.98,-0.05,0.06,-2.62,-3.23,225,285,210,451,378
992,0.17,-0.98,-0.05,1.53,-2.69,-2.26,234,288,210,450,378
993,0.18,-0.98,-0.06,1.59,-3.42,-3.05,225,292,209,450,377
994,0.18,-0.99,-0.06,-0.06,-2.32,-2.56,221,291,207,451,378
995,0.18,-0.98,-0.05,-0.31,-2.93,-2.38,221,287,213,454,375
996,0.17,-0.98,-0.05,0.18,-2.99,-2.44,223,287,212,447,377
997,0.17,-0.98,-0.06,0.98,-3.11,-2.01,225,292,210,450,377
998,0.17,-0.98,-0.05,0.67,-2.5,-3.11,223,289,200,447,379
999,0.16,-0.99,-0.04,-2.01,-3.3,-2.81,222,290,207,450,381
1000,0.18,-0.98,-0.03,0.37,-3.66,-2.62,222,292,206,455,377
1001,0.18,-0.99,-0.05,0.18,-2.87,-2.44,221,288,206,446,377
1002,0.17,-0.95,-0.06,-0.06,-2.62,-2.44,219,287,211,452,378
1003,0.18,-1.0,-0.04,0.73,-3.42,-2.38,224,290,210,451,380
1004,0.17,-0.98,-0.04,0.61,-3.17,-2.26,228,288,209,452,377
1005,0.18,-0.98,-0.04,1.4,-3.42,-2.81,224,289,208,450,379
1006,0.18,-0.98,-0.04,0.37,-3.42,-2.99,225,287,208,455,376
1007,0.17,-0.98,-0.04,0.61,-2.44,-1.83,223,289,207,455,376
1008,0.17,-0.98,-0.05,-0.37,-2.62,-2.5,219,293,206,452,378
1009,0.16,-0.99,-0.05,-0.18,-2.93,-2.44,222,293,206,458,374
1010,0.16,-0.98,-0.04,0.49,-2.44,-2.69,223,289,207,450,378
1011,0.19,-0.98,-0.07,0.31,-3.36,-4.09,219,288,204,450,373
1012,0.19,-0.97,-0.06,-0.43,-3.3,-1.16,222,286,210,446,380
1013,0.19,-0.98,-0.07,1.89,-3.42,-0.92,218,286,208,450,381
1014,0.15,-0.98,-0.02,2.87,-2.38,0.49,219,286,208,454,379
1015,0.14,-0.98,-0.05,0.55,-4.82,-0.55,223,298,215,450,375
1016,0.2,-0.82,-0.06,36.5,1.1,36.01,206,269,187,443,375
1017,0.15,-1.03,-0.03,-16.48,4.21,-1.46,202,270,178,447,375
1018,0.18,-0.99,-0.07,-11.6,0.18,-2.14,206,269,185,443,381
1019,0.19,-0.95,-0.08,-5.0,-5.07,0.0,204,271,180,442,377
1020,0.14,-0.94,-0.05,-0.24,-4.94,-3.78,206,274,177,445,378
1021,0.2,-1.02,-0.09,-0.55,-1.65,-8.73,207,261,184,439,374
1022,0.26,-0.99,-0.11,-5.98,-12.02,-0.98,209,273,186,448,382
1023,0.14,-0.97,-0.14,1.16,-6.1,-3.36,210,271,190,447,382
1024,0.23,-0.96,-0.16,2.5,-4.33,-2.75,210,274,181,445,380
1025,0.21,-0.97,-0.17,-1.22,-3.6,-7.08,206,268,176,442,380
1026,0.23,-0.96,-0.13,3.72,-1.89,-1.34,210,274,180,437,379
1027,0.26,-0.97,-0.14,2.69,-3.48,-1.83,209,270,187,440,381
1028,0.22,-0.97,-0.11,-3.42,-1.95,0.85,213,274,177,440,386
1029,0.2,-0.97,-0.13,0.49,-0.85,-1.65,213,273,190,443,382
1030,0.24,-0.95,-0.14,3.66,-0.37,-3.42,210,273,188,441,385
1031,0.18,-0.99,-0.14,2.81,-1.22,2.26,207,271,186,447,385
1032,0.21,-0.98,-0.09,-2.38,6.1,-3.97,211,272,189,443,382
1033,0.22,-0.97,-0.08,0.18,-5.68,-2.01,214,279,193,444,384
1034,0.2,-0.96,-0.08,7.2,-6.23,0.67,208,268,193,442,383
1035,0.21,-0.98,-0.1,5.13,-6.41,4.82,209,273,189,438,383
1036,0.18,-0.98,-0.07,1.89,-4.94,-2.01,207,279,184,440,383
1037,0.16,-0.99,-0.06,-0.06,-2.99,-3.36,212,271,189,438,383
1038,0.16,-0.98,-0.05,0.55,-1.89,-2.81,210,277,191,440,376
1039,0.12,-0.98,-0.04,3.48,-5.68,0.49,208,274,189,444,381
1040,0.17,-0.99,-0.07,-0.85,-4.64,-5.31,213,273,192,439,384
1041,0.09,-0.96,0.02,1.53,1.1,-0.18,212,266,191,439,381
1042,0.19,-0.99,-0.08,1.34,-0.61,-2.01,217,275,188,442,384
1043,0.17,-0.97,-0.06,0.85,-5.0,-3.11,211,273,192,441,384
1044,0.14,-0.98,-0.04,3.66,-4.76,-6.53,211,269,177,445,383
1045,0.19,-0.99,-0.11,1.1,4.58,2.14,211,273,190,442,385
1046,0.22,-0.99,-0.08,3.11,-5.49,-7.14,200,274,189,441,383
1047,0.19,-0.97,-0.11,-2.44,0.12,-1.46,211,269,188,442,384
1048,0.18,-0.99,-0.08,-3.42,-8.06,-5.25,213,275,187,443,386
1049,0.13,-0.99,-0.07,4.33,-0.49,-0.49,212,271,193,449,376
1050,0.16,-0.98,-0.05,-0.24,-4.15,-5.07,216,275,195,449,384
1051,0.15,-1.0,-0.09,1.22,-2.81,-2.87,211,272,189,445,385
1052,0.16,-0.99,-0.07,1.71,-2.75,-3.11,209,275,185,449,386
1053,0.17,-0.98,-0.08,1.04,-2.62,-2.75,211,275,191,443,384
1054,0.17,-0.98,-0.05,1.59,-3.23,-3.17,212,273,193,442,387
1055,0.17,-0.98,-0.05,0.0,-3.54,-2.69,210,273,189,441,386
1056,0.17,-0.99,-0.06,1.28,-3.17,-3.05,210,268,196,442,384
1057,0.22,-0.99,-0.11,-0.98,-5.43,-4.46,221,274,190,441,382
1058,0.2,-0.98,-0.07,3.11,-2.38,-2.62,207,273,194,444,386
1059,0.18,-0.99,-0.08,2.14,-4.52,-2.32,214,277,189,443,384
1060,0.15,-0.98,-0.06,3.05,-1.4,-2.93,209,278,192,449,382
1061,0.17,-1.0,-0.08,-11.05,-1.34,-5.0,213,277,192,449,380
1062,0.14,-1.0,-0.07,4.15,-3.6,-5.55,212,274,193,443,385
1063,0.16,-0.98,-0.07,7.75,-1.22,-5.25,217,274,197,443,385
1064,0.14,-0.97,-0.06,1.77,-2.08,-2.14,210,283,192,446,383
1065,0.15,-0.97,-0.05,0.92,-0.55,0.85,213,276,176,447,384
1066,0.17,-0.98,-0.04,1.28,-5.0,-5.0,213,280,190,446,384
1067,0.21,-0.98,-0.06,-1.65,-2.69,-7.26,212,279,200,444,387
1068,0.22,-0.97,-0.05,-1.1,-1.77,-4.33,211,279,200,442,380
1069,0.22,-0.97,-0.06,-1.28,-1.53,-2.08,212,280,199,448,383
1070,0.21,-0.97,-0.05,0.92,-3.11,-4.09,215,280,193,449,378
1071,0.23,-0.97,-0.05,1.46,-2.93,-2.5,214,278,188,455,383
1072,0.22,-0.97,-0.08,0.92,-2.75,-2.14,215,279,190,443,379
1073,0.22,-0.97,-0.05,1.16,-3.17,-3.11,212,278,194,440,383
1074,0.22,-0.96,-0.05,0.67,-3.11,-2.87,214,280,196,460,383
1075,0.22,-0.97,-0.06,-0.92,-2.87,-1.95,216,277,195,444,384
1076,0.18,-0.97,-0.03,0.31,-2.56,-2.38,214,280,196,446,382
1077,0.19,-0.97,-0.03,1.1,-2.26,2.01,235,278,192,440,382
1078,0.19,-0.97,-0.05,1.1,-2.44,-0.79,227,277,194,442,385
1079,0.22,-0.97,-0.04,1.53,-7.26,-4.52,214,283,194,447,383
1080,0.17,-0.98,-0.02,0.06,-2.32,-2.5,225,280,193,446,382
1081,0.19,-0.98,-0.05,0.67,-2.44,-0.92,224,278,190,441,383
1082,0.18,-0.97,-0.04,0.79,-3.11,-2.2,216,282,200,448,384
1083,0.2,-0.98,-0.05,0.98,-4.27,-2.81,213,277,182,443,379
1084,0.19,-0.98,-0.04,-0.18,-2.75,-3.42,214,278,196,442,382
1085,0.2,-0.98,-0.04,1.46,-2.93,-2.14,212,281,195,444,381
1086,0.2,-0.98,-0.05,0.98,-4.27,-2.2,217,280,197,443,381
1087,0.18,-0.99,-0.04,1.89,-2.87,-1.4,217,278,198,450,381
1088,0.17,-0.98,-0.02,-2.08,-2.69,-2.81,220,280,197,444,383
1089,0.19,-0.97,-0.04,1.1,-3.3,-3.11,222,278,193,447,382
1090,0.19,-0.97,-0.0,1.65,-3.3,-0.06,216,284,195,445,383
1091,0.16,-0.99,-0.04,-2.2,-4.03,-0.06,216,279,197,450,379
1092,0.16,-0.98,-0.04,-0.49,-7.63,-4.58,214,287,195,450,382
1093,0.14,-0.94,-0.05,3.78,-4.33,-1.77,214,278,195,446,384
1094,0.17,-0.98,-0.05,-0.06,-2.99,-0.79,214,280,202,448,380
1095,0.14,-1.0,-0.07,-3.91,-2.56,0.12,214,279,193,450,383
1096,0.14,-1.0,-0.11,0.43,-0.37,-5.31,214,279,193,448,384
1097,0.19,-0.97,-0.06,1.1,-4.03,-3.23,216,280,197,442,383
1098,0.16,-0.98,-0.12,1.95,-2.2,0.18,226,280,198,446,381
1099,0.17,-0.98,-0.08,-1.89,-4.46,-4.58,216,281,192,449,385
1100,0.19,-0.98,-0.05,3.36,-2.75,-3.66,209,278,195,446,393
1101,0.19,-0.99,-0.08,-2.5,-11.47,-6.84,218,275,200,449,379
1102,0.14,-1.0,-0.1,-5.8,-7.32,-2.99,212,279,193,449,383
1103,0.21,-0.98,-0.12,-4.21,-6.04,-6.71,212,278,197,446,384
1104,0.2,-0.96,-0.05,3.23,-1.34,-0.67,219,278,193,450,382
1105,0.23,-0.94,-0.14,-7.81,0.0,-4.09,215,276,184,444,380
1106,0.2,-0.93,-0.15,-0.24,4.58,-3.6,214,279,195,452,389
1107,0.26,-0.92,-0.09,-2.14,0.37,-7.69,212,275,196,445,382
1108,0.28,-0.98,-0.11,2.81,0.79,-6.77,214,282,195,445,383
1109,0.34,-0.99,-0.08,7.39,12.7,0.06,217,284,195,447,385
1110,0.3,-0.91,-0.05,-0.79,0.43,-9.09,219,278,197,441,382
1111,0.33,-0.94,-0.15,-2.62,-9.09,-0.85,218,283,201,449,383
1112,0.3,-0.95,-0.15,3.11,-2.2,-2.26,215,280,199,445,382
1113,0.28,-0.94,-0.09,8.0,-6.77,3.42,218,278,200,444,382
1114,0.24,-0.96,-0.1,2.2,-3.17,11.47,215,279,194,451,385
1115,0.22,-0.97,-0.14,-0.67,-2.62,-2.62,215,280,199,449,382
1116,0.18,-0.97,-0.11,0.43,-3.3,-4.09,219,284,196,452,381
1117,0.17,-0.98,-0.12,2.99,-7.02,2.2,216,280,201,440,377
1118,0.17,-0.97,-0.11,-4.52,-4.15,-3.97,218,280,199,448,379
1119,0.22,-0.98,-0.12,1.34,-1.53,-2.75,217,282,203,445,378
1120,0.22,-0.97,-0.11,-0.92,0.73,-4.88,218,284,201,441,378
1121,0.19,-0.96,-0.13,-3.72,-6.04,-7.45,224,280,200,445,381
1122,0.24,-0.97,-0.16,-0.49,-4.33,-0.61,215,282,195,448,378
1123,0.19,-0.97,-0.13,2.32,-4.21,-3.6,218,282,199,448,381
1124,0.19,-0.97,-0.14,-5.86,-4.7,-6.77,218,281,197,449,380
1125,0.17,-0.97,-0.15,-2.93,8.3,3.23,215,286,199,441,376
1126,0.21,-0.98,-0.15,-4.52,-3.3,-3.42,214,278,194,452,380
1127,0.2,-0.96,-0.14,1.53,-7.32,-3.6,219,281,198,444,380
1128,0.18,-0.97,-0.12,-0.85,-5.49,-2.56,218,275,203,450,378
1129,0.18,-0.96,-0.08,-2.01,-2.32,-2.5,214,287,186,443,377
1130,0.18,-0.97,-0.09,1.65,-1.95,-2.2,215,284,196,445,383
1131,0.18,-0.96,-0.09,-0.24,-0.67,-3.3,213,282,198,447,378
1132,0.23,-0.97,-0.15,3.6,-0.61,-1.46,217,282,198,446,380
1133,0.23,-0.97,-0.15,3.3,1.1,0.79,217,281,195,449,386
1134,0.23,-0.96,-0.14,4.21,-1.46,0.61,217,285,197,443,376
1135,0.21,-0.95,-0.14,2.56,-1.16,-1.16,215,285,201,451,369
1136,0.22,-0.98,-0.15,1.59,-3.23,-3.23,218,281,193,446,378
1137,0.21,-0.97,-0.14,0.37,-4.46,-3.36,216,286,196,449,378
1138,0.19,-0.95,-0.13,-2.69,-5.86,-2.26,217,297,199,441,379
1139,0.18,-0.97,-0.15,-0.73,-4.94,-4.21,216,282,196,442,376
1140,0.18,-0.97,-0.12,3.3,-1.71,-1.46,217,282,199,447,380
1141,0.2,-0.98,-0.11,1.65,-3.48,0.31,214,285,204,450,381
1142,0.19,-0.98,-0.13,2.75,-1.53,-1.1,220,286,204,445,380
1143,0.17,-0.97,-0.1,-0.61,-3.97,-4.33,212,284,198,437,379
1144,0.21,-0.98,-0.1,0.85,-0.98,-3.23,217,286,200,446,379
1145,0.18,-0.97,-0.08,2.2,-3.17,-2.99,218,286,201,442,384
1146,0.18,-0.98,-0.1,-0.61,-3.42,-2.44,220,285,197,442,375
1147,0.2,-0.97,-0.1,1.71,-1.53,-2.93,217,281,194,445,380
1148,0.19,-0.97,-0.1,-0.12,-4.76,-2.69,218,283,194,447,380
1149,0.17,-0.97,-0.13,-2.2,-5.49,-3.72,225,288,189,447,383
1150,0.2,-0.97,-0.12,0.43,-2.01,-3.17,218,277,202,443,377
1151,0.18,-0.96,-0.11,1.95,-5.62,-4.94,219,286,204,447,380
1152,0.18,-0.96,-0.1,-0.61,-4.39,-4.15,211,287,196,448,380
1153,0.22,-0.96,-0.1,4.33,-1.89,-1.59,221,279,190,452,383
1154,0.21,-0.98,-0.14,0.85,-2.44,-4.46,219,300,195,445,379
1155,0.17,-0.95,-0.05,2.2,-5.98,-0.61,218,285,207,448,380
1156,0.2,-0.96,-0.05,0.43,-5.43,-4.82,219,283,199,439,378
1157,0.17,-0.97,-0.08,3.3,-7.08,-4.58,217,280,199,441,377
1158,0.19,-0.98,-0.05,2.01,-1.65,-0.98,219,288,197,443,383
1159,0.21,-0.96,-0.05,2.44,-2.93,-1.16,216,283,198,447,376
1160,0.21,-0.96,-0.09,-0.73,-2.5,-2.93,218,290,205,450,381
1161,0.21,-0.94,-0.13,-4.39,-4.94,-2.32,218,282,193,447,378
1162,0.2,-0.97,-0.13,-1.95,-3.85,-3.54,222,283,201,442,378
1163,0.21,-0.97,-0.11,2.26,-2.38,-1.83,219,284,198,453,382
1164,0.22,-0.97,-0.11,0.79,-3.17,-2.93,217,285,197,446,380
1165,0.23,-0.96,-0.11,2.2,-2.2,-2.87,217,284,206,446,379
1166,0.2,-0.97,-0.11,-1.4,-4.09,-3.66,220,280,192,449,381
1167,0.2,-0.97,-0.09,0.49,-4.03,-3.54,217,283,198,445,376
1168,0.19,-0.97,-0.09,0.0,-2.08,-1.95,216,285,197,449,381
1169,0.21,-0.97,-0.11,0.92,-1.59,-2.01,217,283,200,447,383
1170,0.21,-0.96,-0.11,0.55,-2.38,-1.95,223,282,203,449,381
1171,0.23,-0.97,-0.11,0.37,-3.05,-3.54,224,282,201,450,385
1172,0.22,-0.97,-0.11,0.61,-3.05,-2.99,217,283,198,450,381
1173,0.24,-0.98,-0.13,1.89,-2.75,-2.08,219,286,207,451,380
1174,0.24,-0.97,-0.1,4.09,-3.78,-2.87,218,284,203,444,382
1175,0.22,-0.98,-0.11,-0.43,-2.75,-3.11,219,284,201,449,378
1176,0.22,-0.97,-0.1,-0.79,-4.27,-2.38,216,283,203,451,381
1177,0.21,-0.97,-0.11,1.16,-3.48,-2.75,217,286,203,444,383
1178,0.19,-0.95,-0.06,-0.79,-0.73,1.04,215,286,196,445,381
1179,0.21,-0.96,-0.09,1.59,-1.83,-1.16,223,286,201,448,380
1180,0.22,-0.97,-0.11,2.08,-2.26,-1.22,221,278,198,445,379
1181,0.21,-0.98,-0.12,-0.12,-3.42,-3.97,213,284,202,446,376
1182,0.21,-0.96,-0.1,0.73,-4.27,-2.56,225,282,200,440,376
1183,0.21,-0.96,-0.09,0.06,-2.75,-3.05,215,290,203,445,378
1184,0.22,-0.97,-0.09,-0.92,-2.99,-0.73,220,284,199,452,379
1185,0.21,-0.97,-0.09,0.92,-2.26,-2.87,217,280,201,449,375
1186,0.19,-0.97,-0.09,-1.16,-1.28,-1.65,218,286,200,450,380
1187,0.2,-0.98,-0.12,1.22,-4.94,-4.64,218,286,197,450,372
1188,0.16,-0.98,-0.12,-2.81,-4.7,-4.46,216,279,199,437,377
1189,0.2,-0.97,-0.09,-0.92,-5.07,-2.56,214,288,198,450,378
1190,0.18,-0.97,-0.07,-1.28,-2.08,-2.69,222,285,198,442,374
1191,0.22,-0.96,-0.12,-1.34,-4.82,-1.65,220,288,204,446,381
1192,0.2,-0.96,-0.14,-12.08,-2.5,-9.58,218,287,189,449,379
1193,0.27,-0.95,-0.14,-5.0,-2.81,-1.77,229,288,205,451,378
1194,0.28,-0.98,-0.23,11.35,-6.65,2.01,216,286,204,446,380
1195,0.14,-0.99,-0.12,-0.24,-2.08,-1.1,211,286,199,447,379
1196,0.18,-0.97,-0.09,2.2,-3.66,-1.28,215,283,202,453,380
1197,0.22,-0.97,-0.11,2.2,0.0,-5.92,235,286,198,441,380
1198,0.25,-0.98,-0.1,2.44,-3.97,-4.52,216,284,203,448,379
1199,0.21,-0.98,-0.1,-1.4,-4.94,-5.74,218,285,204,445,379
1200,0.2,-0.98,-0.09,-0.85,-3.17,-1.22,222,286,201,442,387
1201,0.21,-0.99,-0.09,-0.49,-3.66,-4.21,218,284,199,444,380
1202,0.22,-0.98,-0.09,0.92,-3.17,-3.23,219,292,197,442,381
1203,0.24,-0.96,-0.1,0.79,-1.04,-1.83,218,285,201,442,379
1204,0.19,-0.97,-0.08,0.67,-2.32,-1.16,218,283,200,440,377
1205,0.23,-0.96,-0.1,0.49,-3.78,-2.2,220,286,199,446,381
1206,0.21,-0.96,-0.09,-0.18,-4.39,-1.28,221,283,202,446,380
1207,0.22,-0.97,-0.09,1.83,-4.88,-1.22,220,289,200,446,379
1208,0.32,-0.99,-0.09,13.06,-8.06,-0.18,221,289,203,442,383
1209,0.19,-0.98,-0.11,5.55,-8.67,6.47,215,288,200,451,377
1210,0.11,-0.99,-0.11,9.7,-5.19,12.45,220,287,200,450,379
1211,0.08,-0.99,-0.04,-0.49,-9.77,-3.17,220,281,199,446,379
1212,0.06,-0.97,-0.01,4.27,-4.7,2.08,216,287,199,451,379
1213,0.07,-1.05,-0.06,-1.77,-7.08,-3.3,217,284,204,455,379
1214,0.11,-1.02,-0.08,-3.48,-8.73,-13.79,224,286,199,442,379
1215,0.06,-0.98,0.02,6.53,-4.46,-1.28,217,286,200,443,380
1216,0.12,-0.96,-0.02,4.09,-6.65,-8.06,214,284,211,449,381
1217,0.09,-0.99,-0.03,3.05,-1.4,-7.08,223,286,204,448,378
1218,0.15,-0.99,-0.02,0.37,-1.28,0.37,217,285,206,449,380
1219,0.13,-1.0,-0.06,1.22,-1.46,-2.2,218,288,202,459,379
1220,0.14,-0.99,-0.01,-1.1,-2.93,-3.72,219,285,198,445,382
1221,0.1,-1.01,-0.07,0.92,-7.08,-6.23,219,290,195,449,382
1222,0.12,-0.99,0.0,-4.82,-1.59,-1.22,214,286,202,450,381
1223,0.14,-0.99,0.01,-3.05,-1.83,-6.71,221,289,206,447,383
1224,0.16,-0.96,-0.01,-0.12,-2.32,-2.69,216,286,202,445,378
1225,0.17,-0.98,-0.07,-2.81,0.73,-4.88,220,286,206,448,379
1226,0.17,-0.98,-0.08,-0.06,-5.0,-3.78,218,285,203,446,381
1227,0.17,-0.99,-0.09,-1.59,-3.97,-4.39,220,285,203,452,376
1228,0.16,-0.99,-0.07,-4.21,-3.23,-2.32,217,282,193,448,376
1229,0.17,-1.0,-0.1,-6.16,-2.62,-1.65,213,286,200,451,382
1230,0.17,-0.96,-0.08,0.55,-3.05,-2.75,215,287,198,444,376
1231,0.2,-0.99,-0.08,0.18,-2.69,-2.56,217,291,205,443,378
1232,0.17,-0.96,-0.04,3.05,-1.95,-1.4,220,282,196,444,376
1233,0.16,-0.98,-0.09,-0.31,-4.82,-4.82,221,286,203,441,384
1234,0.17,-0.98,-0.11,-3.11,-4.88,-3.11,220,285,201,448,381
1235,0.16,-0.98,-0.06,0.92,-1.59,-1.83,222,289,214,452,380
1236,0.19,-0.98,-0.09,0.98,-1.95,-3.97,212,284,201,447,381
1237,0.15,-1.0,-0.08,0.92,-0.61,1.89,219,290,203,448,380
1238,0.13,-0.96,-0.04,-2.14,-2.26,-1.59,217,288,200,450,380
1239,0.14,-0.98,-0.07,-1.04,-2.75,-4.7,220,284,199,448,382
1240,0.18,-0.9,-0.1,-2.14,-3.05,-3.85,216,286,199,442,381
1241,0.18,-0.94,-0.13,-2.44,-2.38,-4.52,219,286,203,447,379
1242,0.2,-0.95,-0.08,0.43,-3.11,-2.81,218,289,204,449,383
1243,0.17,-0.96,-0.11,-2.38,-3.54,-2.62,219,288,199,449,382
1244,0.18,-0.97,-0.11,-1.95,-2.38,-5.19,219,287,200,450,381
1245,0.21,-0.96,-0.12,-4.09,-1.77,-1.53,221,288,202,445,381
1246,0.26,-0.96,-0.18,-9.22,6.65,-11.9,222,286,206,448,380
1247,0.22,-0.97,-0.21,-9.34,8.24,-5.8,222,285,205,446,380
1248,0.23,-0.93,-0.18,3.42,-0.73,2.38,215,287,206,450,383
1249,0.24,-0.95,-0.18,4.03,-6.16,1.83,223,282,203,452,381
1250,0.23,-0.91,-0.19,1.83,-5.13,4.27,221,287,212,450,381
1251,0.17,-0.96,-0.17,-0.49,-0.49,-1.1,218,285,204,448,382
1252,0.2,-0.96,-0.2,-1.59,-4.39,-7.32,217,283,202,446,380
1253,0.27,-0.97,-0.22,0.92,-1.1,-1.4,217,289,201,454,381
1254,0.22,-0.93,-0.2,1.53,-4.7,-2.75,217,285,206,444,380
1255,0.22,-0.94,-0.18,-0.06,-1.95,2.38,219,290,208,451,383
1256,0.17,-0.98,-0.21,-1.34,2.14,1.22,219,285,205,448,380
1257,0.25,-1.01,-0.28,-0.92,1.53,-8.42,221,287,204,453,381
1258,0.24,-0.93,-0.18,-4.76,-6.77,-6.47,219,287,202,447,379
1259,0.18,-0.93,-0.16,2.2,-2.26,2.56,219,289,202,450,380
1260,0.24,-0.93,-0.21,2.2,-3.23,-2.81,216,287,202,447,379
1261,0.2,-0.95,-0.2,1.89,-0.18,-2.08,220,285,202,446,380
1262,0.19,-0.92,-0.17,9.34,-2.56,-3.97,223,283,203,445,383
1263,0.18,-0.95,-0.18,0.61,-4.88,-4.46,214,286,204,450,381
1264,0.18,-0.94,-0.16,0.06,-2.99,-2.2,219,284,203,449,381
1265,0.18,-0.97,-0.19,0.31,-2.14,0.31,219,284,202,449,379
1266,0.19,-0.95,-0.17,-2.26,-5.0,-4.94,217,283,203,449,383
1267,0.16,-0.97,-0.17,1.89,1.4,-5.49,217,284,206,451,384
1268,0.18,-0.95,-0.18,2.26,-2.5,-1.4,217,287,203,449,381
1269,0.18,-0.96,-0.2,-1.95,-5.25,-2.87,219,287,202,451,383
1270,0.19,-0.96,-0.19,-0.49,-3.11,-1.28,221,284,202,445,379
1271,0.21,-0.95,-0.17,0.73,-6.71,-2.69,220,282,213,454,381
1272,0.23,-0.97,-0.19,-0.61,-2.81,-3.66,221,288,202,444,380
1273,0.18,-0.99,-0.27,-3.6,-5.43,-3.3,221,287,209,449,376
1274,0.15,-0.97,-0.17,4.88,-2.93,4.88,229,283,206,450,382
1275,0.18,-0.97,-0.22,-12.21,-3.42,-7.93,221,279,209,452,381
1276,0.19,-0.95,-0.22,-4.21,-5.13,-4.27,222,285,208,448,381
1277,0.13,-0.98,-0.18,-12.94,-2.26,-7.14,242,285,204,453,380
1278,0.22,-0.93,-0.26,1.34,-1.53,-6.84,215,295,207,442,381
1279,0.24,-0.98,-0.27,6.47,-4.82,-2.44,220,286,200,448,379
1280,0.24,-0.96,-0.26,0.24,-2.99,-2.87,219,288,203,449,381
1281,0.21,-0.97,-0.21,2.5,0.92,2.14,218,293,204,448,380
1282,0.26,-0.96,-0.26,-0.98,-2.62,-9.7,217,282,201,452,382
1283,0.23,-0.95,-0.25,-0.06,-4.82,-8.18,219,286,205,447,377
1284,0.26,-0.96,-0.24,3.05,-1.22,2.99,218,285,206,451,379
1285,0.26,-0.93,-0.2,7.2,-5.07,-4.7,235,294,199,463,382
1286,0.23,-0.96,-0.23,-1.1,1.04,-3.97,220,287,204,452,383
1287,0.17,-0.93,-0.16,-0.06,-0.92,-9.4,220,283,202,447,382
1288,0.24,-0.91,-0.23,3.85,-7.14,-8.12,218,288,204,448,379
1289,0.17,-0.93,-0.24,6.47,-1.95,4.52,219,290,203,447,377
1290,0.19,-0.93,-0.22,0.37,-2.14,-3.3,219,287,203,451,383
1291,0.24,-0.94,-0.23,3.91,-0.67,-8.12,215,281,202,452,381
1292,0.26,-0.94,-0.25,1.22,-8.91,-4.33,221,283,204,442,380
1293,0.25,-0.93,-0.25,2.56,-3.3,-5.25,221,289,198,444,378
1294,0.22,-0.93,-0.23,4.21,-3.78,-1.65,220,288,201,447,381
1295,0.23,-0.93,-0.21,-4.09,-3.66,-3.05,220,287,205,451,381
1296,0.24,-0.94,-0.26,3.6,-1.53,-4.88,215,285,189,446,381
1297,0.22,-0.94,-0.23,2.2,-1.4,-0.79,245,284,206,451,379
1298,0.24,-0.96,-0.21,0.0,-0.18,-4.15,218,288,205,450,378
1299,0.26,-0.93,-0.23,4.39,-4.15,-1.59,219,284,209,448,382
1300,0.25,-0.95,-0.23,1.16,-2.5,-1.4,223,284,200,442,379
1301,0.26,-0.93,-0.17,-1.4,-3.66,-4.7,216,282,206,447,382
1302,0.23,-0.95,-0.21,1.83,-1.16,-3.05,221,287,208,448,376
1303,0.26,-0.95,-0.22,2.32,-3.17,-2.75,220,287,199,448,380
1304,0.24,-0.94,-0.18,-0.18,-2.08,-2.99,215,288,205,435,380
1305,0.24,-0.92,-0.21,-0.06,-3.91,-3.36,221,280,206,445,383
1306,0.25,-0.94,-0.19,0.55,-1.59,-2.2,219,290,208,451,380
1307,0.25,-0.94,-0.22,-0.49,-2.99,-3.6,222,285,207,451,380
1308,0.24,-0.93,-0.19,0.67,-2.87,-2.08,220,287,204,446,380
1309,0.29,-0.92,-0.22,3.48,-0.24,-2.87,220,282,195,443,380
1310,0.27,-0.94,-0.23,2.87,1.1,0.43,219,284,205,446,382
1311,0.22,-0.93,-0.19,6.35,0.92,2.08,222,276,200,452,378
1312,0.25,-0.94,-0.21,-2.01,-1.34,-6.35,217,281,206,452,381
1313,0.25,-0.95,-0.23,-0.98,-3.6,-4.76,221,288,202,442,382
1314,0.26,-0.93,-0.2,0.24,-3.05,-2.81,218,285,202,446,381
1315,0.28,-0.95,-0.23,1.77,-3.42,-3.05,218,285,206,449,380
1316,0.26,-0.95,-0.21,2.69,-5.86,0.24,218,284,203,448,381
1317,0.15,-0.96,-0.19,-1.95,0.67,-1.71,218,285,209,445,377
1318,0.15,-0.93,-0.18,1.71,-1.22,-0.18,221,285,202,441,379
1319,0.18,-0.97,-0.21,0.61,-1.89,-3.78,220,285,207,448,379
1320,0.18,-0.96,-0.2,0.49,-2.69,-2.01,225,286,204,449,375
1321,0.17,-0.96,-0.2,1.04,-1.59,-2.14,220,285,218,446,376
1322,0.18,-0.96,-0.18,0.98,-0.18,-7.81,217,288,206,448,379
1323,0.19,-0.96,-0.17,0.85,-1.22,-2.81,219,281,200,451,381
1324,0.19,-0.96,-0.19,0.92,-2.75,-1.4,217,289,205,451,381
1325,0.19,-0.96,-0.21,-2.81,-4.39,-2.14,221,283,202,451,380
1326,0.19,-0.95,-0.19,3.54,-2.44,-0.31,220,288,207,446,380
1327,0.17,-0.96,-0.19,3.11,-2.75,-2.93,221,287,205,443,376
1328,0.18,-0.97,-0.25,1.71,-6.35,-5.31,218,289,218,452,377
1329,0.18,-0.94,-0.15,5.19,-1.65,-1.28,223,284,204,444,378
1330,0.15,-0.96,-0.16,-2.32,-3.54,3.42,220,288,208,451,378
1331,0.19,-0.97,-0.22,5.37,0.92,5.43,222,287,202,451,379
1332,0.09,-0.97,-0.14,3.54,0.43,-8.06,219,287,206,448,383
1333,0.16,-0.97,-0.17,3.42,-3.97,-8.12,221,285,207,450,381
1334,0.19,-0.97,-0.17,0.31,-2.26,-7.26,225,285,209,454,374
1335,0.15,-0.98,-0.18,-5.49,-8.18,-1.46,221,287,209,446,378
1336,0.19,-0.98,-0.22,-3.54,4.46,-7.45,221,289,203,442,379
1337,0.22,-0.96,-0.2,0.18,-2.5,-6.23,220,287,219,447,376
1338,0.18,-0.96,-0.19,-1.28,-2.93,-2.56,222,284,209,452,377
1339,0.22,-0.96,-0.16,0.0,-2.2,-1.83,222,289,207,447,386
1340,0.2,-0.96,-0.17,-0.43,-3.23,-1.77,225,285,209,447,376
1341,0.21,-0.95,-0.17,1.4,-2.56,-2.32,212,290,198,449,380
1342,0.22,-0.96,-0.18,0.18,-2.69,-2.81,219,287,207,453,380
1343,0.23,-0.96,-0.18,-1.22,-3.17,-1.4,221,287,207,452,379
1344,0.22,-0.96,-0.17,0.73,-1.89,-1.77,217,289,204,444,379
1345,0.2,-0.96,-0.19,-2.75,-4.21,-3.6,220,286,205,448,383
1346,0.21,-0.95,-0.17,1.71,-2.62,-3.11,223,287,204,444,374
1347,0.17,-0.95,-0.16,-2.44,-1.28,-4.03,222,287,204,452,380
1348,0.25,-0.96,-0.18,-1.71,0.92,0.67,223,290,205,451,376
1349,0.24,-0.96,-0.19,0.85,-2.75,2.99,217,287,212,452,381
1350,0.16,-0.98,-0.11,1.28,2.87,0.37,253,286,207,449,375
1351,0.14,-0.98,-0.16,0.55,-1.83,-2.44,224,289,205,452,382
1352,0.2,-0.96,-0.15,1.53,-5.37,-5.68,220,289,203,448,378
1353,0.18,-0.96,-0.09,3.23,-7.14,-3.23,223,282,200,449,380
1354,0.17,-0.95,-0.08,6.16,-4.52,-10.13,222,287,203,449,377
1355,0.25,-0.97,-0.17,-5.13,-4.09,-8.12,221,295,201,450,379
1356,0.21,-0.96,-0.18,1.22,-1.46,-1.1,217,290,204,452,383
1357,0.29,-0.94,-0.23,2.56,-8.42,-0.73,219,288,215,448,380
1358,0.2,-0.96,-0.15,-5.92,-7.93,3.72,224,286,204,449,377
1359,0.17,-0.95,-0.14,9.7,10.56,-5.98,220,290,206,450,378
1360,0.26,-0.95,-0.14,4.15,4.27,-5.92,222,285,212,450,377
1361,0.26,-0.97,-0.15,7.45,-9.34,-0.37,217,284,201,452,371
1362,0.19,-0.96,-0.12,-9.7,-1.16,-4.15,220,287,207,447,377
1363,0.23,-0.95,-0.14,0.98,-5.49,-0.85,220,287,205,441,378
1364,0.18,-0.96,-0.16,3.66,-4.82,-1.71,216,288,205,452,376
1365,0.2,-0.97,-0.14,-2.26,0.55,-0.31,230,289,208,445,377
1366,0.21,-0.97,-0.14,3.6,-4.82,-3.05,221,285,205,453,376
1367,0.19,-0.97,-0.11,0.85,-2.75,-3.23,221,290,205,448,380
1368,0.19,-0.96,-0.12,1.04,-3.05,-2.32,229,285,204,453,378
1369,0.18,-0.97,-0.11,-0.98,-1.1,-1.71,224,288,205,448,378
1370,0.2,-0.99,-0.15,1.53,-1.65,0.98,218,288,205,448,377
1371,0.23,-0.97,-0.13,3.36,-2.2,-2.5,223,290,205,453,377
1372,0.18,-0.99,-0.14,4.27,-0.31,-0.43,246,285,205,446,378
1373,0.18,-0.97,-0.1,0.73,-3.3,-3.23,220,288,208,450,378
1374,0.19,-0.98,-0.1,-1.71,-2.5,-1.95,219,289,207,446,376
1375,0.2,-0.98,-0.1,-0.61,-3.97,-3.6,224,289,208,446,377
1376,0.21,-0.97,-0.1,1.22,-2.87,-3.54,226,286,216,453,378
1377,0.23,-1.0,-0.14,-6.65,-6.65,-3.42,220,287,209,454,377
1378,0.21,-0.98,-0.13,3.11,-5.86,-6.35,220,285,208,453,378
1379,0.23,-0.97,-0.12,-1.22,-4.76,-5.19,221,291,202,453,379
1380,0.21,-0.97,-0.1,2.81,-4.64,-2.01,223,288,206,451,376
1381,0.24,-0.95,-0.12,3.91,-1.89,-3.97,223,290,204,450,378
1382,0.25,-0.96,-0.12,4.52,-3.05,-6.65,220,289,208,434,377
1383,0.22,-0.98,-0.09,-0.31,-7.69,-0.18,221,286,203,449,375
1384,0.23,-0.96,-0.08,4.33,-1.95,0.92,220,289,208,454,378
1385,0.23,-0.97,-0.09,3.3,0.12,-2.44,223,289,209,450,378
1386,0.26,-0.98,-0.1,15.44,-15.81,-1.22,220,290,206,445,381
1387,0.23,-0.96,-0.09,-0.24,-17.64,2.08,221,292,207,451,378
1388,0.19,-0.97,-0.06,-0.73,-5.86,-3.05,223,288,202,453,379
1389,0.2,-0.97,-0.07,0.67,0.12,-4.27,218,287,206,451,376
1390,0.19,-0.97,-0.07,0.24,-3.66,-3.05,224,285,206,450,377
1391,0.19,-0.98,-0.1,-0.73,-3.23,-3.72,223,290,208,448,375
1392,0.17,-0.97,-0.08,-0.73,-3.11,-1.71,223,293,208,450,375
1393,0.2,-0.98,-0.08,2.62,-2.62,-2.08,221,288,201,453,377
1394,0.19,-0.97,-0.06,1.1,-2.99,-3.3,223,289,208,450,381
1395,0.2,-0.97,-0.07,0.31,-3.05,-3.6,224,288,209,450,376
1396,0.19,-0.97,-0.08,1.53,-2.44,-2.14,222,291,207,449,377
1397,0.19,-0.97,-0.08,1.28,-3.54,-2.93,221,289,206,449,379
1398,0.2,-0.97,-0.08,-0.12,-3.66,-3.6,220,286,208,449,378
1399,0.19,-0.98,-0.07,-0.06,-2.62,-3.11,220,289,207,454,379
1400,0.23,-0.97,-0.07,0.92,-3.42,-3.85,222,294,206,451,379
1401,0.2,-0.97,-0.07,0.0,-3.36,-1.71,229,291,208,453,379
1402,0.19,-0.99,-0.07,-0.61,-2.44,-2.44,224,290,203,446,385
1403,0.19,-0.97,-0.05,1.22,-1.83,-0.37,220,289,211,455,380
1404,0.22,-0.99,-0.12,-1.16,-3.66,-3.66,222,289,220,447,377
1405,0.21,-0.97,-0.08,-0.24,-2.32,-2.2,223,282,209,450,378
1406,0.2,-0.97,-0.07,1.4,-2.75,-1.22,221,288,210,456,375
1407,0.19,-1.01,-0.02,0.43,-2.99,-1.89,233,289,202,452,372
1408,0.19,-0.97,-0.06,1.77,-2.62,-2.26,220,290,195,447,378
1409,0.19,-0.98,-0.08,-1.53,-3.11,-3.42,221,285,211,452,374
1410,0.18,-0.97,-0.05,0.79,-2.38,-3.91,224,288,211,454,376
1411,0.2,-0.98,-0.08,-0.24,-2.93,-1.77,221,290,206,450,378
1412,0.2,-0.98,-0.07,0.92,-5.37,-2.08,223,286,202,452,374
1413,0.21,-0.97,-0.08,0.31,-3.6,-2.2,219,290,200,450,378
1414,0.2,-0.97,-0.06,0.98,-2.32,-1.83,223,289,208,451,373
1415,0.19,-0.97,-0.07,0.37,-3.05,-2.44,221,288,210,454,375
1416,0.2,-0.98,-0.07,0.73,-2.38,-2.93,221,289,207,452,377
1417,0.2,-0.98,-0.08,1.34,-2.87,-1.16,223,291,209,442,378
1418,0.19,-0.98,-0.07,0.85,-3.78,-2.32,222,288,208,450,380
1419,0.19,-0.97,-0.06,0.67,-2.75,-2.44,217,287,212,453,377
1420,0.2,-0.97,-0.07,0.0,-3.91,-3.05,222,288,212,451,376
1421,0.21,-0.98,-0.08,0.79,-3.54,-2.2,219,287,205,451,379
1422,0.2,-0.97,-0.07,1.59,-2.81,-2.08,224,284,211,446,378
1423,0.18,-0.98,-0.07,1.34,-1.95,-2.5,220,287,209,453,375
1424,0.2,-0.98,-0.09,-3.85,-5.13,-3.72,220,288,208,448,378
1425,0.22,-0.97,-0.1,3.05,-1.22,-0.98,222,290,196,452,378
1426,0.18,-0.94,-0.08,0.37,-1.83,-4.03,224,290,211,450,379
1427,0.2,-0.98,-0.08,-2.01,-2.62,-4.27,224,288,204,454,378
1428,0.2,-0.98,-0.07,-0.67,-5.13,-3.66,224,289,208,453,373
1429,0.2,-0.97,-0.06,-0.37,-2.14,-1.65,220,289,204,449,372
1430,0.2,-0.97,-0.05,1.34,-1.71,-0.31,219,288,207,449,380
1431,0.21,-0.98,-0.07,1.16,-3.85,-3.36,221,290,212,454,379
1432,0.2,-0.97,-0.05,1.4,-3.3,-1.04,225,292,208,452,376
1433,0.22,-0.97,-0.09,-3.48,-2.75,-5.55,225,289,206,454,370
1434,0.22,-0.95,-0.1,-0.06,-2.01,-1.89,221,284,200,449,370
1435,0.24,-0.97,-0.08,0.92,-1.59,-3.23,220,299,207,450,374
1436,0.22,-0.98,-0.07,1.53,-3.72,-2.08,222,288,202,452,381
1437,0.21,-0.97,-0.08,2.01,-3.54,-2.87,221,290,208,451,376
1438,0.17,-0.97,-0.08,0.55,-0.61,0.12,221,290,197,454,377
1439,0.16,-0.97,-0.04,0.31,-1.34,-4.33,224,293,206,455,378
1440,0.17,-0.98,-0.1,-1.1,-3.66,-2.69,223,288,200,445,374
1441,0.19,-0.97,-0.06,-1.77,-3.91,-3.66,223,289,210,446,380
1442,0.2,-0.98,-0.07,0.12,-2.81,-2.08,223,289,203,451,376
1443,0.2,-0.98,-0.11,2.01,-3.85,-2.62,230,288,207,450,380
1444,0.19,-0.97,-0.08,-0.85,-3.3,-4.09,223,289,213,449,385
1445,0.15,-0.94,-0.07,0.24,-3.97,-2.69,223,286,209,448,378
1446,0.19,-0.99,-0.08,2.69,-1.89,0.12,224,289,202,451,375
1447,0.15,-0.98,-0.08,2.5,-1.16,-0.92,226,294,211,457,379
1448,0.19,-0.99,-0.07,2.2,-2.99,0.37,222,289,211,454,373
1449,0.19,-0.97,-0.03,4.64,-0.61,-0.12,226,293,213,452,377
1450,0.21,-0.98,-0.08,0.67,-2.14,-1.46,224,289,207,449,377
1451,0.2,-0.97,-0.08,1.59,-1.04,-0.37,221,289,204,451,376
1452,0.2,-0.98,-0.07,0.98,-3.05,-2.44,221,284,210,451,376
1453,0.2,-0.99,-0.07,1.71,-4.58,-2.14,223,285,210,452,377
1454,0.17,-0.98,-0.05,-0.12,-3.23,-3.97,221,287,207,459,377
1455,0.19,-0.97,-0.05,2.14,-2.14,-3.11,229,286,197,453,376
1456,0.19,-0.97,-0.07,-0.85,-3.11,-3.54,219,286,206,451,374
1457,0.18,-0.99,-0.05,1.4,-3.3,-0.43,218,286,204,449,378
1458,0.18,-0.98,-0.05,1.89,-2.44,-2.56,221,287,212,452,378
1459,0.19,-0.98,-0.05,0.73,-2.69,-3.23,224,288,209,451,375
1460,0.18,-0.99,-0.04,1.89,-2.87,-2.99,226,289,212,453,374
1461,0.19,-0.97,-0.04,-0.55,-2.26,-2.08,222,283,205,450,378
1462,0.19,-0.98,-0.04,0.43,-3.23,-1.65,219,289,209,448,384
1463,0.2,-0.97,-0.05,-0.61,-3.42,-2.14,217,286,204,448,377
1464,0.15,-0.94,0.0,2.01,1.04,-5.43,218,290,208,451,377
1465,0.16,-0.98,-0.08,0.24,-2.56,-6.53,225,287,206,445,377
1466,0.16,-0.97,-0.09,3.91,-4.15,-1.46,218,288,206,455,375
1467,0.16,-0.97,-0.08,6.35,-5.86,-3.11,225,290,209,452,377
1468,0.15,-0.97,-0.08,-4.58,3.72,1.04,225,290,207,452,376
1469,0.18,-0.96,-0.07,3.23,-1.77,-0.31,252,284,207,457,376
1470,0.18,-0.98,-0.08,1.53,-1.89,-1.83,223,287,203,450,381
1471,0.19,-0.97,-0.09,1.65,-3.23,-2.32,225,288,204,455,375
1472,0.19,-0.98,-0.09,0.12,-3.17,-3.11,224,289,212,451,375
1473,0.18,-0.98,-0.07,1.59,-3.91,-2.56,220,291,208,452,378
1474,0.17,-0.98,-0.07,0.67,-3.42,-2.5,224,287,207,445,376
1475,0.17,-0.98,-0.07,0.18,-3.17,-2.56,225,289,206,453,375
1476,0.17,-0.98,-0.07,-0.24,-2.69,-2.01,222,290,205,453,381
1477,0.17,-0.98,-0.07,0.61,-2.69,-2.01,223,291,208,453,377
1478,0.18,-0.97,-0.07,0.37,-2.62,-2.62,220,290,196,450,383
1479,0.18,-0.98,-0.07,0.49,-2.2,-2.26,222,292,200,450,378
1480,0.18,-0.98,-0.08,0.79,-2.87,-2.01,220,289,200,452,377
1481,0.17,-0.98,-0.07,0.67,-2.38,-2.01,225,288,206,455,374
1482,0.18,-0.97,-0.06,0.61,-2.87,-3.42,223,292,206,454,378
1483,0.18,-0.98,-0.07,0.31,-3.3,-2.38,223,288,209,450,380
1484,0.19,-1.01,-0.08,0.18,-2.32,-3.11,224,289,207,446,374
1485,0.19,-0.99,-0.07,2.99,-2.62,-3.48,222,289,208,446,378
1486,0.17,-0.98,-0.07,-0.37,-3.42,-2.2,221,288,210,445,380
1487,0.16,-0.98,-0.06,0.85,-3.23,-1.95,225,278,200,455,378
1488,0.18,-0.97,-0.06,1.77,-3.3,-2.38,217,292,205,450,378
1489,0.18,-0.98,-0.06,1.22,-2.62,-1.4,219,291,205,454,378
1490,0.19,-0.98,-0.07,2.56,-2.14,-2.01,219,290,208,452,376
1491,0.18,-0.98,-0.07,1.34,-2.56,-2.26,225,286,211,456,380
1492,0.18,-0.98,-0.06,0.85,-3.3,-2.38,222,289,216,454,375
1493,0.18,-0.98,-0.06,0.85,-3.05,-3.17,226,289,206,451,378
1494,0.17,-0.98,-0.05,-0.43,-2.99,-1.95,221,290,208,450,374
1495,0.17,-0.98,-0.06,-0.12,-2.62,-2.56,225,286,208,445,378
1496,0.17,-0.99,-0.06,0.31,-2.81,-2.87,224,292,208,448,376
1497,0.18,-0.98,-0.06,0.49,-2.69,-2.08,223,291,206,452,386
1498,0.16,-0.99,-0.06,0.67,-1.46,-2.26,225,286,208,452,380
1499,0.17,-0.98,-0.05,0.06,-2.62,-3.23,225,285,210,451,378
1500,0.17,-0.98,-0.05,1.53,-2.69,-2.26,234,288,210,450,378
1501,0.18,-0.98,-0.06,1.59,-3.42,-3.05,225,292,209,450,377
1502,0.18,-0.99,-0.06,-0.06,-2.32,-2.56,221,291,207,451,378
1503,0.18,-0.98,-0.05,-0.31,-2.93,-2.38,221,287,213,454,375
1504,0.17,-0.98,-0.05,0.18,-2.99,-2.44,223,287,212,447,377
1505,0.17,-0.98,-0.06,0.98,-3.11,-2.01,225,292,210,450,377
1506,0.17,-0.98,-0.05,0.67,-2.5,-3.11,223,289,200,447,379
1507,0.16,-0.99,-0.04,-2.01,-3.3,-2.81,222,290,207,450,381
1508,0.18,-0.98,-0.03,0.37,-3.66,-2.62,222,292,206,455,377
1509,0.18,-0.99,-0.05,0.18,-2.87,-2.44,221,288,206,446,377
1510,0.17,-0.95,-0.06,-0.06,-2.62,-2.44,219,287,211,452,378
1511,0.18,-1.0,-0.04,0.73,-3.42,-2.38,224,290,210,451,380
1512,0.17,-0.98,-0.04,0.61,-3.17,-2.26,228,288,209,452,377
1513,0.18,-0.98,-0.04,1.4,-3.42,-2.81,224,289,208,450,379
1514,0.18,-0.98,-0.04,0.37,-3.42,-2.99,225,287,208,455,376
1515,0.17,-0.98,-0.04,0.61,-2.44,-1.83,223,289,207,455,376
1516,0.17,-0.98,-0.05,-0.37,-2.62,-2.5,219,293,206,452,378
1517,0.16,-0.99,-0.05,-0.18,-2.93,-2.44,222,293,206,458,374
1518,0.16,-0.98,-0.04,0.49,-2.44,-2.69,223,289,207,450,378
1519,0.19,-0.98,-0.07,0.31,-3.36,-4.09,219,288,204,450,373
1520,0.19,-0.97,-0.06,-0.43,-3.3,-1.16,222,286,210,446,380
1521,0.19,-0.98,-0.07,1.89,-3.42,-0.92,218,286,208,450,381
1522,0.15,-0.98,-0.02,2.87,-2.38,0.49,219,286,208,454,379
1523,0.14,-0.98,-0.05,0.55,-4.82,-0.55,223,298,215,450,375
1524,0.2,-0.82,-0.06,36.5,1.1,36.01,206,269,187,443,375
1525,0.15,-1.03,-0.03,-16.48,4.21,-1.46,202,270,178,447,375
1526,0.18,-0.99,-0.07,-11.6,0.18,-2.14,206,269,185,443,381
1527,0.19,-0.95,-0.08,-5.0,-5.07,0.0,204,271,180,442,377
1528,0.14,-0.94,-0.05,-0.24,-4.94,-3.78,206,274,177,445,378
1529,0.2,-1.02,-0.09,-0.55,-1.65,-8.73,207,261,184,439,374
1530,0.26,-0.99,-0.11,-5.98,-12.02,-0.98,209,273,186,448,382
1531,0.14,-0.97,-0.14,1.16,-6.1,-3.36,210,271,190,447,382
1532,0.23,-0.96,-0.16,2.5,-4.33,-2.75,210,274,181,445,380
1533,0.21,-0.97,-0.17,-1.22,-3.6,-7.08,206,268,176,442,380
1534,0.23,-0.96,-0.13,3.72,-1.89,-1.34,210,274,180,437,379
1535,0.26,-0.97,-0.14,2.69,-3.48,-1.83,209,270,187,440,381
1536,0.22,-0.97,-0.11,-3.42,-1.95,0.85,213,274,177,440,386
1537,0.2,-0.97,-0.13,0.49,-0.85,-1.65,213,273,190,443,382
1538,0.24,-0.95,-0.14,3.66,-0.37,-3.42,210,273,188,441,385
1539,0.18,-0.99,-0.14,2.81,-1.22,2.26,207,271,186,447,385
1540,0.21,-0.98,-0.09,-2.38,6.1,-3.97,211,272,189,443,382
1541,0.22,-0.97,-0.08,0.18,-5.68,-2.01,214,279,193,444,384
1542,0.2,-0.96,-0.08,7.2,-6.23,0.67,208,268,193,442,383
1543,0.21,-0.98,-0.1,5.13,-6.41,4.82,209,273,189,438,383
1544,0.18,-0.98,-0.07,1.89,-4.94,-2.01,207,279,184,440,383
1545,0.16,-0.99,-0.06,-0.06,-2.99,-3.36,212,271,189,438,383
1546,0.16,-0.98,-0.05,0.55,-1.89,-2.81,210,277,191,440,376
1547,0.12,-0.98,-0.04,3.48,-5.68,0.49,208,274,189,444,381
1548,0.17,-0.99,-0.07,-0.85,-4.64,-5.31,213,273,192,439,384
1549,0.09,-0.96,0.02,1.53,1.1,-0.18,212,266,191,439,381
1550,0.19,-0.99,-0.08,1.34,-0.61,-2.01,217,275,188,442,384
1551,0.17,-0.97,-0.06,0.85,-5.0,-3.11,211,273,192,441,384
1552,0.14,-0.98,-0.04,3.66,-4.76,-6.53,211,269,177,445,383
1553,0.19,-0.99,-0.11,1.1,4.58,2.14,211,273,190,442,385
1554,0.22,-0.99,-0.08,3.11,-5.49,-7.14,200,274,189,441,383
1555,0.19,-0.97,-0.11,-2.44,0.12,-1.46,211,269,188,442,384
1556,0.18,-0.99,-0.08,-3.42,-8.06,-5.25,213,275,187,443,386
1557,0.13,-0.99,-0.07,4.33,-0.49,-0.49,212,271,193,449,376
1558,0.16,-0.98,-0.05,-0.24,-4.15,-5.07,216,275,195,449,384
1559,0.15,-1.0,-0.09,1.22,-2.81,-2.87,211,272,189,445,385
1560,0.16,-0.99,-0.07,1.71,-2.75,-3.11,209,275,185,449,386
1561,0.17,-0.98,-0.08,1.04,-2.62,-2.75,211,275,191,443,384
1562,0.17,-0.98,-0.05,1.59,-3.23,-3.17,212,273,193,442,387
1563,0.17,-0.98,-0.05,0.0,-3.54,-2.69,210,273,189,441,386
1564,0.17,-0.99,-0.06,1.28,-3.17,-3.05,210,268,196,442,384
1565,0.22,-0.99,-0.11,-0.98,-5.43,-4.46,221,274,190,441,382
1566,0.2,-0.98,-0.07,3.11,-2.38,-2.62,207,273,194,444,386
1567,0.18,-0.99,-0.08,2.14,-4.52,-2.32,214,277,189,443,384
1568,0.15,-0.98,-0.06,3.05,-1.4,-2.93,209,278,192,449,382
1569,0.17,-1.0,-0.08,-11.05,-1.34,-5.0,213,277,192,449,380
1570,0.14,-1.0,-0.07,4.15,-3.6,-5.55,212,274,193,443,385
1571,0.16,-0.98,-0.07,7.75,-1.22,-5.25,217,274,197,443,385
1572,0.14,-0.97,-0.06,1.77,-2.08,-2.14,210,283,192,446,383
1573,0.15,-0.97,-0.05,0.92,-0.55,0.85,213,276,176,447,384
1574,0.17,-0.98,-0.04,1.28,-5.0,-5.0,213,280,190,446,384
1575,0.21,-0.98,-0.06,-1.65,-2.69,-7.26,212,279,200,444,387
1576,0.22,-0.97,-0.05,-1.1,-1.77,-4.33,211,279,200,442,380
1577,0.22,-0.97,-0.06,-1.28,-1.53,-2.08,212,280,199,448,383
1578,0.21,-0.97,-0.05,0.92,-3.11,-4.09,215,280,193,449,378
1579,0.23,-0.97,-0.05,1.46,-2.93,-2.5,214,278,188,455,383
1580,0.22,-0.97,-0.08,0.92,-2.75,-2.14,215,279,190,443,379
1581,0.22,-0.97,-0.05,1.16,-3.17,-3.11,212,278,194,440,383
1582,0.22,-0.96,-0.05,0.67,-3.11,-2.87,214,280,196,460,383
1583,0.22,-0.97,-0.06,-0.92,-2.87,-1.95,216,277,195,444,384
1584,0.18,-0.97,-0.03,0.31,-2.56,-2.38,214,280,196,446,382
1585,0.19,-0.97,-0.03,1.1,-2.26,2.01,235,278,192,440,382
1586,0.19,-0.97,-0.05,1.1,-2.44,-0.79,227,277,194,442,385
1587,0.22,-0.97,-0.04,1.53,-7.26,-4.52,214,283,194,447,383
1588,0.17,-0.98,-0.02,0.06,-2.32,-2.5,225,280,193,446,382
1589,0.19,-0.98,-0.05,0.67,-2.44,-0.92,224,278,190,441,383
1590,0.18,-0.97,-0.04,0.79,-3.11,-2.2,216,282,200,448,384
1591,0.2,-0.98,-0.05,0.98,-4.27,-2.81,213,277,182,443,379
1592,0.19,-0.98,-0.04,-0.18,-2.75,-3.42,214,278,196,442,382
1593,0.2,-0.98,-0.04,1.46,-2.93,-2.14,212,281,195,444,381
1594,0.2,-0.98,-0.05,0.98,-4.27,-2.2,217,280,197,443,381
1595,0.18,-0.99,-0.04,1.89,-2.87,-1.4,217,278,198,450,381
1596,0.17,-0.98,-0.02,-2.08,-2.69,-2.81,220,280,197,444,383
1597,0.19,-0.97,-0.04,1.1,-3.3,-3.11,222,278,193,447,382
1598,0.19,-0.97,-0.0,1.65,-3.3,-0.06,216,284,195,445,383
1599,0.16,-0.99,-0.04,-2.2,-4.03,-0.06,216,279,197,450,379
1600,0.16,-0.98,-0.04,-0.49,-7.63,-4.58,214,287,195,450,382
1601,0.14,-0.94,-0.05,3.78,-4.33,-1.77,214,278,195,446,384
1602,0.17,-0.98,-0.05,-0.06,-2.99,-0.79,214,280,202,448,380
1603,0.14,-1.0,-0.07,-3.91,-2.56,0.12,214,279,193,450,383
1604,0.14,-1.0,-0.11,0.43,-0.37,-5.31,214,279,193,448,384
1605,0.19,-0.97,-0.06,1.1,-4.03,-3.23,216,280,197,442,383
1606,0.16,-0.98,-0.12,1.95,-2.2,0.18,226,280,198,446,381
1607,0.17,-0.98,-0.08,-1.89,-4.46,-4.58,216,281,192,449,385
1608,0.19,-0.98,-0.05,3.36,-2.75,-3.66,209,278,195,446,393
1609,0.19,-0.99,-0.08,-2.5,-11.47,-6.84,218,275,200,449,379
1610,0.14,-1.0,-0.1,-5.8,-7.32,-2.99,212,279,193,449,383
1611,0.21,-0.98,-0.12,-4.21,-6.04,-6.71,212,278,197,446,384
1612,0.2,-0.96,-0.05,3.23,-1.34,-0.67,219,278,193,450,382
1613,0.23,-0.94,-0.14,-7.81,0.0,-4.09,215,276,184,444,380
1614,0.2,-0.93,-0.15,-0.24,4.58,-3.6,214,279,195,452,389
1615,0.26,-0.92,-0.09,-2.14,0.37,-7.69,212,275,196,445,382
1616,0.28,-0.98,-0.11,2.81,0.79,-6.77,214,282,195,445,383
1617,0.34,-0.99,-0.08,7.39,12.7,0.06,217,284,195,447,385
1618,0.3,-0.91,-0.05,-0.79,0.43,-9.09,219,278,197,441,382
1619,0.33,-0.94,-0.15,-2.62,-9.09,-0.85,218,283,201,449,383
1620,0.3,-0.95,-0.15,3.11,-2.2,-2.26,215,280,199,445,382
1621,0.28,-0.94,-0.09,8.0,-6.77,3.42,218,278,200,444,382
1622,0.24,-0.96,-0.1,2.2,-3.17,11.47,215,279,194,451,385
1623,0.22,-0.97,-0.14,-0.67,-2.62,-2.62,215,280,199,449,382
1624,0.18,-0.97,-0.11,0.43,-3.3,-4.09,219,284,196,452,381
1625,0.17,-0.98,-0.12,2.99,-7.02,2.2,216,280,201,440,377
1626,0.17,-0.97,-0.11,-4.52,-4.15,-3.97,218,280,199,448,379
1627,0.22,-0.98,-0.12,1.34,-1.53,-2.75,217,282,203,445,378
1628,0.22,-0.97,-0.11,-0.92,0.73,-4.88,218,284,201,441,378
1629,0.19,-0.96,-0.13,-3.72,-6.04,-7.45,224,280,200,445,381
1630,0.24,-0.97,-0.16,-0.49,-4.33,-0.61,215,282,195,448,378
1631,0.19,-0.97,-0.13,2.32,-4.21,-3.6,218,282,199,448,381
1632,0.19,-0.97,-0.14,-5.86,-4.7,-6.77,218,281,197,449,380
1633,0.17,-0.97,-0.15,-2.93,8.3,3.23,215,286,199,441,376
1634,0.21,-0.98,-0.15,-4.52,-3.3,-3.42,214,278,194,452,380
1635,0.2,-0.96,-0.14,1.53,-7.32,-3.6,219,281,198,444,380
1636,0.18,-0.97,-0.12,-0.85,-5.49,-2.56,218,275,203,450,378
1637,0.18,-0.96,-0.08,-2.01,-2.32,-2.5,214,287,186,443,377
1638,0.18,-0.97,-0.09,1.65,-1.95,-2.2,215,284,196,445,383
1639,0.18,-0.96,-0.09,-0.24,-0.67,-3.3,213,282,198,447,378
1640,0.23,-0.97,-0.15,3.6,-0.61,-1.46,217,282,198,446,380
1641,0.23,-0.97,-0.15,3.3,1.1,0.79,217,281,195,449,386
1642,0.23,-0.96,-0.14,4.21,-1.46,0.61,217,285,197,443,376
1643,0.21,-0.95,-0.14,2.56,-1.16,-1.16,215,285,201,451,369
1644,0.22,-0.98,-0.15,1.59,-3.23,-3.23,218,281,193,446,378
1645,0.21,-0.97,-0.14,0.37,-4.46,-3.36,216,286,196,449,378
1646,0.19,-0.95,-0.13,-2.69,-5.86,-2.26,217,297,199,441,379
1647,0.18,-0.97,-0.15,-0.73,-4.94,-4.21,216,282,196,442,376
1648,0.18,-0.97,-0.12,3.3,-1.71,-1.46,217,282,199,447,380
1649,0.2,-0.98,-0.11,1.65,-3.48,0.31,214,285,204,450,381
1650,0.19,-0.98,-0.13,2.75,-1.53,-1.1,220,286,204,445,380
1651,0.17,-0.97,-0.1,-0.61,-3.97,-4.33,212,284,198,437,379
1652,0.21,-0.98,-0.1,0.85,-0.98,-3.23,217,286,200,446,379
1653,0.18,-0.97,-0.08,2.2,-3.17,-2.99,218,286,201,442,384
1654,0.18,-0.98,-0.1,-0.61,-3.42,-2.44,220,285,197,442,375
1655,0.2,-0.97,-0.1,1.71,-1.53,-2.93,217,281,194,445,380
1656,0.19,-0.97,-0.1,-0.12,-4.76,-2.69,218,283,194,447,380
1657,0.17,-0.97,-0.13,-2.2,-5.49,-3.72,225,288,189,447,383
1658,0.2,-0.97,-0.12,0.43,-2.01,-3.17,218,277,202,443,377
1659,0.18,-0.96,-0.11,1.95,-5.62,-4.94,219,286,204,447,380
1660,0.18,-0.96,-0.1,-0.61,-4.39,-4.15,211,287,196,448,380
1661,0.22,-0.96,-0.1,4.33,-1.89,-1.59,221,279,190,452,383
1662,0.21,-0.98,-0.14,0.85,-2.44,-4.46,219,300,195,445,379
1663,0.17,-0.95,-0.05,2.2,-5.98,-0.61,218,285,207,448,380
1664,0.2,-0.96,-0.05,0.43,-5.43,-4.82,219,283,199,439,378
1665,0.17,-0.97,-0.08,3.3,-7.08,-4.58,217,280,199,441,377
1666,0.19,-0.98,-0.05,2.01,-1.65,-0.98,219,288,197,443,383
1667,0.21,-0.96,-0.05,2.44,-2.93,-1.16,216,283,198,447,376
1668,0.21,-0.96,-0.09,-0.73,-2.5,-2.93,218,290,205,450,381
1669,0.21,-0.94,-0.13,-4.39,-4.94,-2.32,218,282,193,447,378
1670,0.2,-0.97,-0.13,-1.95,-3.85,-3.54,222,283,201,442,378
1671,0.21,-0.97,-0.11,2.26,-2.38,-1.83,219,284,198,453,382
1672,0.22,-0.97,-0.11,0.79,-3.17,-2.93,217,285,197,446,380
1673,0.23,-0.96,-0.11,2.2,-2.2,-2.87,217,284,206,446,379
1674,0.2,-0.97,-0.11,-1.4,-4.09,-3.66,220,280,192,449,381
1675,0.2,-0.97,-0.09,0.49,-4.03,-3.54,217,283,198,445,376
1676,0.19,-0.97,-0.09,0.0,-2.08,-1.95,216,285,197,449,381
1677,0.21,-0.97,-0.11,0.92,-1.59,-2.01,217,283,200,447,383
1678,0.21,-0.96,-0.11,0.55,-2.38,-1.95,223,282,203,449,381
1679,0.23,-0.97,-0.11,0.37,-3.05,-3.54,224,282,201,450,385
1680,0.22,-0.97,-0.11,0.61,-3.05,-2.99,217,283,198,450,381
1681,0.24,-0.98,-0.13,1.89,-2.75,-2.08,219,286,207,451,380
1682,0.24,-0.97,-0.1,4.09,-3.78,-2.87,218,284,203,444,382
1683,0.22,-0.98,-0.11,-0.43,-2.75,-3.11,219,284,201,449,378
1684,0.22,-0.97,-0.1,-0.79,-4.27,-2.38,216,283,203,451,381
1685,0.21,-0.97,-0.11,1.16,-3.48,-2.75,217,286,203,444,383
1686,0.19,-0.95,-0.06,-0.79,-0.73,1.04,215,286,196,445,381
1687,0.21,-0.96,-0.09,1.59,-1.83,-1.16,223,286,201,448,380
1688,0.22,-0.97,-0.11,2.08,-2.26,-1.22,221,278,198,445,379
1689,0.21,-0.98,-0.12,-0.12,-3.42,-3.97,213,284,202,446,376
1690,0.21,-0.96,-0.1,0.73,-4.27,-2.56,225,282,200,440,376
1691,0.21,-0.96,-0.09,0.06,-2.75,-3.05,215,290,203,445,378
1692,0.22,-0.97,-0.09,-0.92,-2.99,-0.73,220,284,199,452,379
1693,0.21,-0.97,-0.09,0.92,-2.26,-2.87,217,280,201,449,375
1694,0.19,-0.97,-0.09,-1.16,-1.28,-1.65,218,286,200,450,380
1695,0.2,-0.98,-0.12,1.22,-4.94,-4.64,218,286,197,450,372
1696,0.16,-0.98,-0.12,-2.81,-4.7,-4.46,216,279,199,437,377
1697,0.2,-0.97,-0.09,-0.92,-5.07,-2.56,214,288,198,450,378
1698,0.18,-0.97,-0.07,-1.28,-2.08,-2.69,222,285,198,442,374
1699,0.22,-0.96,-0.12,-1.34,-4.82,-1.65,220,288,204,446,381
1700,0.2,-0.96,-0.14,-12.08,-2.5,-9.58,218,287,189,449,379
1701,0.27,-0.95,-0.14,-5.0,-2.81,-1.77,229,288,205,451,378
1702,0.28,-0.98,-0.23,11.35,-6.65,2.01,216,286,204,446,380
1703,0.14,-0.99,-0.12,-0.24,-2.08,-1.1,211,286,199,447,379
1704,0.18,-0.97,-0.09,2.2,-3.66,-1.28,215,283,202,453,380
1705,0.22,-0.97,-0.11,2.2,0.0,-5.92,235,286,198,441,380
1706,0.25,-0.98,-0.1,2.44,-3.97,-4.52,216,284,203,448,379
1707,0.21,-0.98,-0.1,-1.4,-4.94,-5.74,218,285,204,445,379
1708,0.2,-0.98,-0.09,-0.85,-3.17,-1.22,222,286,201,442,387
1709,0.21,-0.99,-0.09,-0.49,-3.66,-4.21,218,284,199,444,380
1710,0.22,-0.98,-0.09,0.92,-3.17,-3.23,219,292,197,442,381
1711,0.24,-0.96,-0.1,0.79,-1.04,-1.83,218,285,201,442,379
1712,0.19,-0.97,-0.08,0.67,-2.32,-1.16,218,283,200,440,377
1713,0.23,-0.96,-0.1,0.49,-3.78,-2.2,220,286,199,446,381
1714,0.21,-0.96,-0.09,-0.18,-4.39,-1.28,221,283,202,446,380
1715,0.22,-0.97,-0.09,1.83,-4.88,-1.22,220,289,200,446,379
1716,0.32,-0.99,-0.09,13.06,-8.06,-0.18,221,289,203,442,383
1717,0.19,-0.98,-0.11,5.55,-8.67,6.47,215,288,200,451,377
1718,0.11,-0.99,-0.11,9.7,-5.19,12.45,220,287,200,450,379
1719,0.08,-0.99,-0.04,-0.49,-9.77,-3.17,220,281,199,446,379
1720,0.06,-0.97,-0.01,4.27,-4.7,2.08,216,287,199,451,379
1721,0.07,-1.05,-0.06,-1.77,-7.08,-3.3,217,284,204,455,379
1722,0.11,-1.02,-0.08,-3.48,-8.73,-13.79,224,286,199,442,379
1723,0.06,-0.98,0.02,6.53,-4.46,-1.28,217,286,200,443,380
1724,0.12,-0.96,-0.02,4.09,-6.65,-8.06,214,284,211,449,381
1725,0.09,-0.99,-0.03,3.05,-1.4,-7.08,223,286,204,448,378
1726,0.15,-0.99,-0.02,0.37,-1.28,0.37,217,285,206,449,380
1727,0.13,-1.0,-0.06,1.22,-1.46,-2.2,218,288,202,459,379
1728,0.14,-0.99,-0.01,-1.1,-2.93,-3.72,219,285,198,445,382
1729,0.1,-1.01,-0.07,0.92,-7.08,-6.23,219,290,195,449,382
1730,0.12,-0.99,0.0,-4.82,-1.59,-1.22,214,286,202,450,381
1731,0.14,-0.99,0.01,-3.05,-1.83,-6.71,221,289,206,447,383
1732,0.16,-0.96,-0.01,-0.12,-2.32,-2.69,216,286,202,445,378
1733,0.17,-0.98,-0.07,-2.81,0.73,-4.88,220,286,206,448,379
1734,0.17,-0.98,-0.08,-0.06,-5.0,-3.78,218,285,203,446,381
1735,0.17,-0.99,-0.09,-1.59,-3.97,-4.39,220,285,203,452,376
1736,0.16,-0.99,-0.07,-4.21,-3.23,-2.32,217,282,193,448,376
1737,0.17,-1.0,-0.1,-6.16,-2.62,-1.65,213,286,200,451,382
1738,0.17,-0.96,-0.08,0.55,-3.05,-2.75,215,287,198,444,376
1739,0.2,-0.99,-0.08,0.18,-2.69,-2.56,217,291,205,443,378
1740,0.17,-0.96,-0.04,3.05,-1.95,-1.4,220,282,196,444,376
1741,0.16,-0.98,-0.09,-0.31,-4.82,-4.82,221,286,203,441,384
1742,0.17,-0.98,-0.11,-3.11,-4.88,-3.11,220,285,201,448,381
1743,0.16,-0.98,-0.06,0.92,-1.59,-1.83,222,289,214,452,380
1744,0.19,-0.98,-0.09,0.98,-1.95,-3.97,212,284,201,447,381
1745,0.15,-1.0,-0.08,0.92,-0.61,1.89,219,290,203,448,380
1746,0.13,-0.96,-0.04,-2.14,-2.26,-1.59,217,288,200,450,380
1747,0.14,-0.98,-0.07,-1.04,-2.75,-4.7,220,284,199,448,382
1748,0.18,-0.9,-0.1,-2.14,-3.05,-3.85,216,286,199,442,381
1749,0.18,-0.94,-0.13,-2.44,-2.38,-4.52,219,286,203,447,379
1750,0.2,-0.95,-0.08,0.43,-3.11,-2.81,218,289,204,449,383
1751,0.17,-0.96,-0.11,-2.38,-3.54,-2.62,219,288,199,449,382
1752,0.18,-0.97,-0.11,-1.95,-2.38,-5.19,219,287,200,450,381
1753,0.21,-0.96,-0.12,-4.09,-1.77,-1.53,221,288,202,445,381
1754,0.26,-0.96,-0.18,-9.22,6.65,-11.9,222,286,206,448,380
1755,0.22,-0.97,-0.21,-9.34,8.24,-5.8,222,285,205,446,380
1756,0.23,-0.93,-0.18,3.42,-0.73,2.38,215,287,206,450,383
1757,0.24,-0.95,-0.18,4.03,-6.16,1.83,223,282,203,452,381
1758,0.23,-0.91,-0.19,1.83,-5.13,4.27,221,287,212,450,381
1759,0.17,-0.96,-0.17,-0.49,-0.49,-1.1,218,285,204,448,382
1760,0.2,-0.96,-0.2,-1.59,-4.39,-7.32,217,283,202,446,380
1761,0.27,-0.97,-0.22,0.92,-1.1,-1.4,217,289,201,454,381
1762,0.22,-0.93,-0.2,1.53,-4.7,-2.75,217,285,206,444,380
1763,0.22,-0.94,-0.18,-0.06,-1.95,2.38,219,290,208,451,383
1764,0.17,-0.98,-0.21,-1.34,2.14,1.22,219,285,205,448,380
1765,0.25,-1.01,-0.28,-0.92,1.53,-8.42,221,287,204,453,381
1766,0.24,-0.93,-0.18,-4.76,-6.77,-6.47,219,287,202,447,379
1767,0.18,-0.93,-0.16,2.2,-2.26,2.56,219,289,202,450,380
1768,0.24,-0.93,-0.21,2.2,-3.23,-2.81,216,287,202,447,379
1769,0.2,-0.95,-0.2,1.89,-0.18,-2.08,220,285,202,446,380
1770,0.19,-0.92,-0.17,9.34,-2.56,-3.97,223,283,203,445,383
1771,0.18,-0.95,-0.18,0.61,-4.88,-4.46,214,286,204,450,381
1772,0.18,-0.94,-0.16,0.06,-2.99,-2.2,219,284,203,449,381
1773,0.18,-0.97,-0.19,0.31,-2.14,0.31,219,284,202,449,379
1774,0.19,-0.95,-0.17,-2.26,-5.0,-4.94,217,283,203,449,383
1775,0.16,-0.97,-0.17,1.89,1.4,-5.49,217,284,206,451,384
1776,0.18,-0.95,-0.18,2.26,-2.5,-1.4,217,287,203,449,381
1777,0.18,-0.96,-0.2,-1.95,-5.25,-2.87,219,287,202,451,383
1778,0.19,-0.96,-0.19,-0.49,-3.11,-1.28,221,284,202,445,379
1779,0.21,-0.95,-0.17,0.73,-6.71,-2.69,220,282,213,454,381
1780,0.23,-0.97,-0.19,-0.61,-2.81,-3.66,221,288,202,444,380
1781,0.18,-0.99,-0.27,-3.6,-5.43,-3.3,221,287,209,449,376
1782,0.15,-0.97,-0.17,4.88,-2.93,4.88,229,283,206,450,382
1783,0.18,-0.97,-0.22,-12.21,-3.42,-7.93,221,279,209,452,381
1784,0.19,-0.95,-0.22,-4.21,-5.13,-4.27,222,285,208,448,381
1785,0.13,-0.98,-0.18,-12.94,-2.26,-7.14,242,285,204,453,380
1786,0.22,-0.93,-0.26,1.34,-1.53,-6.84,215,295,207,442,381
1787,0.24,-0.98,-0.27,6.47,-4.82,-2.44,220,286,200,448,379
1788,0.24,-0.96,-0.26,0.24,-2.99,-2.87,219,288,203,449,381
1789,0.21,-0.97,-0.21,2.5,0.92,2.14,218,293,204,448,380
1790,0.26,-0.96,-0.26,-0.98,-2.62,-9.7,217,282,201,452,382
1791,0.23,-0.95,-0.25,-0.06,-4.82,-8.18,219,286,205,447,377
1792,0.26,-0.96,-0.24,3.05,-1.22,2.99,218,285,206,451,379
1793,0.26,-0.93,-0.2,7.2,-5.07,-4.7,235,294,199,463,382
1794,0.23,-0.96,-0.23,-1.1,1.04,-3.97,220,287,204,452,383
1795,0.17,-0.93,-0.16,-0.06,-0.92,-9.4,220,283,202,447,382
1796,0.24,-0.91,-0.23,3.85,-7.14,-8.12,218,288,204,448,379
1797,0.17,-0.93,-0.24,6.47,-1.95,4.52,219,290,203,447,377
1798,0.19,-0.93,-0.22,0.37,-2.14,-3.3,219,287,203,451,383
1799,0.24,-0.94,-0.23,3.91,-0.67,-8.12,215,281,202,452,381
1800,0.26,-0.94,-0.25,1.22,-8.91,-4.33,221,283,204,442,380
1801,0.25,-0.93,-0.25,2.56,-3.3,-5.25,221,289,198,444,378
1802,0.22,-0.93,-0.23,4.21,-3.78,-1.65,220,288,201,447,381
1803,0.23,-0.93,-0.21,-4.09,-3.66,-3.05,220,287,205,451,381
1804,0.24,-0.94,-0.26,3.6,-1.53,-4.88,215,285,189,446,381
1805,0.22,-0.94,-0.23,2.2,-1.4,-0.79,245,284,206,451,379
1806,0.24,-0.96,-0.21,0.0,-0.18,-4.15,218,288,205,450,378
1807,0.26,-0.93,-0.23,4.39,-4.15,-1.59,219,284,209,448,382
1808,0.25,-0.95,-0.23,1.16,-2.5,-1.4,223,284,200,442,379
1809,0.26,-0.93,-0.17,-1.4,-3.66,-4.7,216,282,206,447,382
1810,0.23,-0.95,-0.21,1.83,-1.16,-3.05,221,287,208,448,376
1811,0.26,-0.95,-0.22,2.32,-3.17,-2.75,220,287,199,448,380
1812,0.24,-0.94,-0.18,-0.18,-2.08,-2.99,215,288,205,435,380
1813,0.24,-0.92,-0.21,-0.06,-3.91,-3.36,221,280,206,445,383
1814,0.25,-0.94,-0.19,0.55,-1.59,-2.2,219,290,208,451,380
1815,0.25,-0.94,-0.22,-0.49,-2.99,-3.6,222,285,207,451,380
1816,0.24,-0.93,-0.19,0.67,-2.87,-2.08,220,287,204,446,380
1817,0.29,-0.92,-0.22,3.48,-0.24,-2.87,220,282,195,443,380
1818,0.27,-0.94,-0.23,2.87,1.1,0.43,219,284,205,446,382
1819,0.22,-0.93,-0.19,6.35,0.92,2.08,222,276,200,452,378
1820,0.25,-0.94,-0.21,-2.01,-1.34,-6.35,217,281,206,452,381
1821,0.25,-0.95,-0.23,-0.98,-3.6,-4.76,221,288,202,442,382
1822,0.26,-0.93,-0.2,0.24,-3.05,-2.81,218,285,202,446,381
1823,0.28,-0.95,-0.23,1.77,-3.42,-3.05,218,285,206,449,380
1824,0.26,-0.95,-0.21,2.69,-5.86,0.24,218,284,203,448,381
1825,0.15,-0.96,-0.19,-1.95,0.67,-1.71,218,285,209,445,377
1826,0.15,-0.93,-0.18,1.71,-1.22,-0.18,221,285,202,441,379
1827,0.18,-0.97,-0.21,0.61,-1.89,-3.78,220,285,207,448,379
1828,0.18,-0.96,-0.2,0.49,-2.69,-2.01,225,286,204,449,375
1829,0.17,-0.96,-0.2,1.04,-1.59,-2.14,220,285,218,446,376
1830,0.18,-0.96,-0.18,0.98,-0.18,-7.81,217,288,206,448,379
1831,0.19,-0.96,-0.17,0.85,-1.22,-2.81,219,281,200,451,381
1832,0.19,-0.96,-0.19,0.92,-2.75,-1.4,217,289,205,451,381
1833,0.19,-0.96,-0.21,-2.81,-4.39,-2.14,221,283,202,451,380
1834,0.19,-0.95,-0.19,3.54,-2.44,-0.31,220,288,207,446,380
1835,0.17,-0.96,-0.19,3.11,-2.75,-2.93,221,287,205,443,376
1836,0.18,-0.97,-0.25,1.71,-6.35,-5.31,218,289,218,452,377
1837,0.18,-0.94,-0.15,5.19,-1.65,-1.28,223,284,204,444,378
1838,0.15,-0.96,-0.16,-2.32,-3.54,3.42,220,288,208,451,378
1839,0.19,-0.97,-0.22,5.37,0.92,5.43,222,287,202,451,379
1840,0.09,-0.97,-0.14,3.54,0.43,-8.06,219,287,206,448,383
1841,0.16,-0.97,-0.17,3.42,-3.97,-8.12,221,285,207,450,381
1842,0.19,-0.97,-0.17,0.31,-2.26,-7.26,225,285,209,454,374
1843,0.15,-0.98,-0.18,-5.49,-8.18,-1.46,221,287,209,446,378
1844,0.19,-0.98,-0.22,-3.54,4.46,-7.45,221,289,203,442,379
1845,0.22,-0.96,-0.2,0.18,-2.5,-6.23,220,287,219,447,376
1846,0.18,-0.96,-0.19,-1.28,-2.93,-2.56,222,284,209,452,377
1847,0.22,-0.96,-0.16,0.0,-2.2,-1.83,222,289,207,447,386
1848,0.2,-0.96,-0.17,-0.43,-3.23,-1.77,225,285,209,447,376
1849,0.21,-0.95,-0.17,1.4,-2.56,-2.32,212,290,198,449,380
1850,0.22,-0.96,-0.18,0.18,-2.69,-2.81,219,287,207,453,380
1851,0.23,-0.96,-0.18,-1.22,-3.17,-1.4,221,287,207,452,379
1852,0.22,-0.96,-0.17,0.73,-1.89,-1.77,217,289,204,444,379
1853,0.2,-0.96,-0.19,-2.75,-4.21,-3.6,220,286,205,448,383
1854,0.21,-0.95,-0.17,1.71,-2.62,-3.11,223,287,204,444,374
1855,0.17,-0.95,-0.16,-2.44,-1.28,-4.03,222,287,204,452,380
1856,0.25,-0.96,-0.18,-1.71,0.92,0.67,223,290,205,451,376
1857,0.24,-0.96,-0.19,0.85,-2.75,2.99,217,287,212,452,381
1858,0.16,-0.98,-0.11,1.28,2.87,0.37,253,286,207,449,375
1859,0.14,-0.98,-0.16,0.55,-1.83,-2.44,224,289,205,452,382
1860,0.2,-0.96,-0.15,1.53,-5.37,-5.68,220,289,203,448,378
1861,0.18,-0.96,-0.09,3.23,-7.14,-3.23,223,282,200,449,380
1862,0.17,-0.95,-0.08,6.16,-4.52,-10.13,222,287,203,449,377
1863,0.25,-0.97,-0.17,-5.13,-4.09,-8.12,221,295,201,450,379
1864,0.21,-0.96,-0.18,1.22,-1.46,-1.1,217,290,204,452,383
1865,0.29,-0.94,-0.23,2.56,-8.42,-0.73,219,288,215,448,380
1866,0.2,-0.96,-0.15,-5.92,-7.93,3.72,224,286,204,449,377
1867,0.17,-0.95,-0.14,9.7,10.56,-5.98,220,290,206,450,378
1868,0.26,-0.95,-0.14,4.15,4.27,-5.92,222,285,212,450,377
1869,0.26,-0.97,-0.15,7.45,-9.34,-0.37,217,284,201,452,371
1870,0.19,-0.96,-0.12,-9.7,-1.16,-4.15,220,287,207,447,377
1871,0.23,-0.95,-0.14,0.98,-5.49,-0.85,220,287,205,441,378
1872,0.18,-0.96,-0.16,3.66,-4.82,-1.71,216,288,205,452,376
1873,0.2,-0.97,-0.14,-2.26,0.55,-0.31,230,289,208,445,377
1874,0.21,-0.97,-0.14,3.6,-4.82,-3.05,221,285,205,453,376
1875,0.19,-0.97,-0.11,0.85,-2.75,-3.23,221,290,205,448,380
1876,0.19,-0.96,-0.12,1.04,-3.05,-2.32,229,285,204,453,378
1877,0.18,-0.97,-0.11,-0.98,-1.1,-1.71,224,288,205,448,378
1878,0.2,-0.99,-0.15,1.53,-1.65,0.98,218,288,205,448,377
1879,0.23,-0.97,-0.13,3.36,-2.2,-2.5,223,290,205,453,377
1880,0.18,-0.99,-0.14,4.27,-0.31,-0.43,246,285,205,446,378
1881,0.18,-0.97,-0.1,0.73,-3.3,-3.23,220,288,208,450,378
1882,0.19,-0.98,-0.1,-1.71,-2.5,-1.95,219,289,207,446,376
1883,0.2,-0.98,-0.1,-0.61,-3.97,-3.6,224,289,208,446,377
1884,0.21,-0.97,-0.1,1.22,-2.87,-3.54,226,286,216,453,378
1885,0.23,-1.0,-0.14,-6.65,-6.65,-3.42,220,287,209,454,377
1886,0.21,-0.98,-0.13,3.11,-5.86,-6.35,220,285,208,453,378
1887,0.23,-0.97,-0.12,-1.22,-4.76,-5.19,221,291,202,453,379
1888,0.21,-0.97,-0.1,2.81,-4.64,-2.01,223,288,206,451,376
1889,0.24,-0.95,-0.12,3.91,-1.89,-3.97,223,290,204,450,378
1890,0.25,-0.96,-0.12,4.52,-3.05,-6.65,220,289,208,434,377
1891,0.22,-0.98,-0.09,-0.31,-7.69,-0.18,221,286,203,449,375
1892,0.23,-0.96,-0.08,4.33,-1.95,0.92,220,289,208,454,378
1893,0.23,-0.97,-0.09,3.3,0.12,-2.44,223,289,209,450,378
1894,0.26,-0.98,-0.1,15.44,-15.81,-1.22,220,290,206,445,381
1895,0.23,-0.96,-0.09,-0.24,-17.64,2.08,221,292,207,451,378
1896,0.19,-0.97,-0.06,-0.73,-5.86,-3.05,223,288,202,453,379
1897,0.2,-0.97,-0.07,0.67,0.12,-4.27,218,287,206,451,376
1898,0.19,-0.97,-0.07,0.24,-3.66,-3.05,224,285,206,450,377
1899,0.19,-0.98,-0.1,-0.73,-3.23,-3.72,223,290,208,448,375
1900,0.17,-0.97,-0.08,-0.73,-3.11,-1.71,223,293,208,450,375
1901,0.2,-0.98,-0.08,2.62,-2.62,-2.08,221,288,201,453,377
1902,0.19,-0.97,-0.06,1.1,-2.99,-3.3,223,289,208,450,381
1903,0.2,-0.97,-0.07,0.31,-3.05,-3.6,224,288,209,450,376
1904,0.19,-0.97,-0.08,1.53,-2.44,-2.14,222,291,207,449,377
1905,0.19,-0.97,-0.08,1.28,-3.54,-2.93,221,289,206,449,379
1906,0.2,-0.97,-0.08,-0.12,-3.66,-3.6,220,286,208,449,378
1907,0.19,-0.98,-0.07,-0.06,-2.62,-3.11,220,289,207,454,379
1908,0.23,-0.97,-0.07,0.92,-3.42,-3.85,222,294,206,451,379
1909,0.2,-0.97,-0.07,0.0,-3.36,-1.71,229,291,208,453,379
1910,0.19,-0.99,-0.07,-0.61,-2.44,-2.44,224,290,203,446,385
1911,0.19,-0.97,-0.05,1.22,-1.83,-0.37,220,289,211,455,380
1912,0.22,-0.99,-0.12,-1.16,-3.66,-3.66,222,289,220,447,377
1913,0.21,-0.97,-0.08,-0.24,-2.32,-2.2,223,282,209,450,378
1914,0.2,-0.97,-0.07,1.4,-2.75,-1.22,221,288,210,456,375
1915,0.19,-1.01,-0.02,0.43,-2.99,-1.89,233,289,202,452,372
1916,0.19,-0.97,-0.06,1.77,-2.62,-2.26,220,290,195,447,378
1917,0.19,-0.98,-0.08,-1.53,-3.11,-3.42,221,285,211,452,374
1918,0.18,-0.97,-0.05,0.79,-2.38,-3.91,224,288,211,454,376
1919,0.2,-0.98,-0.08,-0.24,-2.93,-1.77,221,290,206,450,378
1920,0.2,-0.98,-0.07,0.92,-5.37,-2.08,223,286,202,452,374
1921,0.21,-0.97,-0.08,0.31,-3.6,-2.2,219,290,200,450,378
1922,0.2,-0.97,-0.06,0.98,-2.32,-1.83,223,289,208,451,373
1923,0.19,-0.97,-0.07,0.37,-3.05,-2.44,221,288,210,454,375
1924,0.2,-0.98,-0.07,0.73,-2.38,-2.93,221,289,207,452,377
1925,0.2,-0.98,-0.08,1.34,-2.87,-1.16,223,291,209,442,378
1926,0.19,-0.98,-0.07,0.85,-3.78,-2.32,222,288,208,450,380
1927,0.19,-0.97,-0.06,0.67,-2.75,-2.44,217,287,212,453,377
1928,0.2,-0.97,-0.07,0.0,-3.91,-3.05,222,288,212,451,376
1929,0.21,-0.98,-0.08,0.79,-3.54,-2.2,219,287,205,451,379
1930,0.2,-0.97,-0.07,1.59,-2.81,-2.08,224,284,211,446,378
1931,0.18,-0.98,-0.07,1.34,-1.95,-2.5,220,287,209,453,375
1932,0.2,-0.98,-0.09,-3.85,-5.13,-3.72,220,288,208,448,378
1933,0.22,-0.97,-0.1,3.05,-1.22,-0.98,222,290,196,452,378
1934,0.18,-0.94,-0.08,0.37,-1.83,-4.03,224,290,211,450,379
1935,0.2,-0.98,-0.08,-2.01,-2.62,-4.27,224,288,204,454,378
1936,0.2,-0.98,-0.07,-0.67,-5.13,-3.66,224,289,208,453,373
1937,0.2,-0.97,-0.06,-0.37,-2.14,-1.65,220,289,204,449,372
1938,0.2,-0.97,-0.05,1.34,-1.71,-0.31,219,288,207,449,380
1939,0.21,-0.98,-0.07,1.16,-3.85,-3.36,221,290,212,454,379
1940,0.2,-0.97,-0.05,1.4,-3.3,-1.04,225,292,208,452,376
1941,0.22,-0.97,-0.09,-3.48,-2.75,-5.55,225,289,206,454,370
1942,0.22,-0.95,-0.1,-0.06,-2.01,-1.89,221,284,200,449,370
1943,0.24,-0.97,-0.08,0.92,-1.59,-3.23,220,299,207,450,374
1944,0.22,-0.98,-0.07,1.53,-3.72,-2.08,222,288,202,452,381
1945,0.21,-0.97,-0.08,2.01,-3.54,-2.87,221,290,208,451,376
1946,0.17,-0.97,-0.08,0.55,-0.61,0.12,221,290,197,454,377
1947,0.16,-0.97,-0.04,0.31,-1.34,-4.33,224,293,206,455,378
1948,0.17,-0.98,-0.1,-1.1,-3.66,-2.69,223,288,200,445,374
1949,0.19,-0.97,-0.06,-1.77,-3.91,-3.66,223,289,210,446,380
1950,0.2,-0.98,-0.07,0.12,-2.81,-2.08,223,289,203,451,376
1951,0.2,-0.98,-0.11,2.01,-3.85,-2.62,230,288,207,450,380
1952,0.19,-0.97,-0.08,-0.85,-3.3,-4.09,223,289,213,449,385
1953,0.15,-0.94,-0.07,0.24,-3.97,-2.69,223,286,209,448,378
1954,0.19,-0.99,-0.08,2.69,-1.89,0.12,224,289,202,451,375
1955,0.15,-0.98,-0.08,2.5,-1.16,-0.92,226,294,211,457,379
1956,0.19,-0.99,-0.07,2.2,-2.99,0.37,222,289,211,454,373
1957,0.19,-0.97,-0.03,4.64,-0.61,-0.12,226,293,213,452,377
1958,0.21,-0.98,-0.08,0.67,-2.14,-1.46,224,289,207,449,377
1959,0.2,-0.97,-0.08,1.59,-1.04,-0.37,221,289,204,451,376
1960,0.2,-0.98,-0.07,0.98,-3.05,-2.44,221,284,210,451,376
1961,0.2,-0.99,-0.07,1.71,-4.58,-2.14,223,285,210,452,377
1962,0.17,-0.98,-0.05,-0.12,-3.23,-3.97,221,287,207,459,377
1963,0.19,-0.97,-0.05,2.14,-2.14,-3.11,229,286,197,453,376
1964,0.19,-0.97,-0.07,-0.85,-3.11,-3.54,219,286,206,451,374
1965,0.18,-0.99,-0.05,1.4,-3.3,-0.43,218,286,204,449,378
1966,0.18,-0.98,-0.05,1.89,-2.44,-2.56,221,287,212,452,378
1967,0.19,-0.98,-0.05,0.73,-2.69,-3.23,224,288,209,451,375
1968,0.18,-0.99,-0.04,1.89,-2.87,-2.99,226,289,212,453,374
1969,0.19,-0.97,-0.04,-0.55,-2.26,-2.08,222,283,205,450,378
1970,0.19,-0.98,-0.04,0.43,-3.23,-1.65,219,289,209,448,384
1971,0.2,-0.97,-0.05,-0.61,-3.42,-2.14,217,286,204,448,377
1972,0.15,-0.94,0.0,2.01,1.04,-5.43,218,290,208,451,377
1973,0.16,-0.98,-0.08,0.24,-2.56,-6.53,225,287,206,445,377
1974,0.16,-0.97,-0.09,3.91,-4.15,-1.46,218,288,206,455,375
1975,0.16,-0.97,-0.08,6.35,-5.86,-3.11,225,290,209,452,377
1976,0.15,-0.97,-0.08,-4.58,3.72,1.04,225,290,207,452,376
1977,0.18,-0.96,-0.07,3.23,-1.77,-0.31,252,284,207,457,376
1978,0.18,-0.98,-0.08,1.53,-1.89,-1.83,223,287,203,450,381
1979,0.19,-0.97,-0.09,1.65,-3.23,-2.32,225,288,204,455,375
1980,0.19,-0.98,-0.09,0.12,-3.17,-3.11,224,289,212,451,375
1981,0.18,-0.98,-0.07,1.59,-3.91,-2.56,220,291,208,452,378
1982,0.17,-0.98,-0.07,0.67,-3.42,-2.5,224,287,207,445,376
1983,0.17,-0.98,-0.07,0.18,-3.17,-2.56,225,289,206,453,375
1984,0.17,-0.98,-0.07,-0.24,-2.69,-2.01,222,290,205,453,381
1985,0.17,-0.98,-0.07,0.61,-2.69,-2.01,223,291,208,453,377
1986,0.18,-0.97,-0.07,0.37,-2.62,-2.62,220,290,196,450,383
1987,0.18,-0.98,-0.07,0.49,-2.2,-2.26,222,292,200,450,378
1988,0.18,-0.98,-0.08,0.79,-2.87,-2.01,220,289,200,452,377
1989,0.17,-0.98,-0.07,0.67,-2.38,-2.01,225,288,206,455,374
1990,0.18,-0.97,-0.06,0.61,-2.87,-3.42,223,292,206,454,378
1991,0.18,-0.98,-0.07,0.31,-3.3,-2.38,223,288,209,450,380
1992,0.19,-1.01,-0.08,0.18,-2.32,-3.11,224,289,207,446,374
1993,0.19,-0.99,-0.07,2.99,-2.62,-3.48,222,289,208,446,378
1994,0.17,-0.98,-0.07,-0.37,-3.42,-2.2,221,288,210,445,380
1995,0.16,-0.98,-0.06,0.85,-3.23,-1.95,225,278,200,455,378
1996,0.18,-0.97,-0.06,1.77,-3.3,-2.38,217,292,205,450,378
1997,0.18,-0.98,-0.06,1.22,-2.62,-1.4,219,291,205,454,378
1998,0.19,-0.98,-0.07,2.56,-2.14,-2.01,219,290,208,452,376
1999,0.18,-0.98,-0.07,1.34,-2.56,-2.26,225,286,211,456,380
2000,0.18,-0.98,-0.06,0.85,-3.3,-2.38,222,289,216,454,375
2001,0.18,-0.98,-0.06,0.85,-3.05,-3.17,226,289,206,451,378
2002,0.17,-0.98,-0.05,-0.43,-2.99,-1.95,221,290,208,450,374
2003,0.17,-0.98,-0.06,-0.12,-2.62,-2.56,225,286,208,445,378
2004,0.17,-0.99,-0.06,0.31,-2.81,-2.87,224,292,208,448,376
2005,0.18,-0.98,-0.06,0.49,-2.69,-2.08,223,291,206,452,386
2006,0.16,-0.99,-0.06,0.67,-1.46,-2.26,225,286,208,452,380
2007,0.17,-0.98,-0.05,0.06,-2.62,-3.23,225,285,210,451,378
2008,0.17,-0.98,-0.05,1.53,-2.69,-2.26,234,288,210,450,378
2009,0.18,-0.98,-0.06,1.59,-3.42,-3.05,225,292,209,450,377
2010,0.18,-0.99,-0.06,-0.06,-2.32,-2.56,221,291,207,451,378
2011,0.18,-0.98,-0.05,-0.31,-2.93,-2.38,221,287,213,454,375
2012,0.17,-0.98,-0.05,0.18,-2.99,-2.44,223,287,212,447,377
2013,0.17,-0.98,-0.06,0.98,-3.11,-2.01,225,292,210,450,377
2014,0.17,-0.98,-0.05,0.67,-2.5,-3.11,223,289,200,447,379
2015,0.16,-0.99,-0.04,-2.01,-3.3,-2.81,222,290,207,450,381
2016,0.18,-0.98,-0.03,0.37,-3.66,-2.62,222,292,206,455,377
2017,0.18,-0.99,-0.05,0.18,-2.87,-2.44,221,288,206,446,377
2018,0.17,-0.95,-0.06,-0.06,-2.62,-2.44,219,287,211,452,378
2019,0.18,-1.0,-0.04,0.73,-3.42,-2.38,224,290,210,451,380
2020,0.17,-0.98,-0.04,0.61,-3.17,-2.26,228,288,209,452,377
2021,0.18,-0.98,-0.04,1.4,-3.42,-2.81,224,289,208,450,379
2022,0.18,-0.98,-0.04,0.37,-3.42,-2.99,225,287,208,455,376
2023,0.17,-0.98,-0.04,0.61,-2.44,-1.83,223,289,207,455,376
2024,0.17,-0.98,-0.05,-0.37,-2.62,-2.5,219,293,206,452,378
2025,0.16,-0.99,-0.05,-0.18,-2.93,-2.44,222,293,206,458,374
2026,0.16,-0.98,-0.04,0.49,-2.44,-2.69,223,289,207,450,378
2027,0.19,-0.98,-0.07,0.31,-3.36,-4.09,219,288,204,450,373
2028,0.19,-0.97,-0.06,-0.43,-3.3,-1.16,222,286,210,446,380
2029,0.19,-0.98,-0.07,1.89,-3.42,-0.92,218,286,208,450,381
2030,0.15,-0.98,-0.02,2.87,-2.38,0.49,219,286,208,454,379
2031,0.14,-0.98,-0.05,0.55,-4.82,-0.55,223,298,215,450,375
