,aX,aY,aZ,gX,gY,gZ,little,ring,middle,index,thumb
0,0.51,0.81,0.09,-3.85,0.49,-6.41,215,270,183,444,305
1,0.54,0.88,0.12,-17.7,0.67,0.92,213,278,181,446,298
2,0.44,0.91,0.13,-8.54,-14.53,-16.48,209,275,185,443,308
3,0.39,0.89,0.17,-0.37,-11.9,-5.86,211,274,183,444,310
4,0.34,0.92,0.14,2.38,-1.95,-17.46,216,273,187,451,310
5,0.34,0.91,0.16,-3.72,-4.88,-2.87,210,270,187,441,307
6,0.27,0.98,0.17,-0.06,-5.43,1.28,215,272,187,447,312
7,0.3,0.88,0.13,4.27,-2.81,-6.04,213,264,187,437,313
8,0.25,0.99,0.13,4.09,2.87,-0.55,217,269,182,439,321
9,0.29,0.94,0.16,-1.4,-4.82,-2.26,212,269,175,442,324
10,0.28,0.95,0.16,2.99,-4.58,-4.09,215,267,182,447,327
11,0.33,1.02,0.12,4.46,-2.26,1.4,211,265,188,458,329
12,0.26,0.89,0.12,-1.4,-5.43,-2.14,215,265,177,450,328
13,0.24,0.93,0.14,-1.53,-3.97,-1.71,218,269,188,450,334
14,0.29,1.0,0.09,6.1,2.5,4.46,218,274,186,448,331
15,0.23,0.91,0.04,-2.99,-2.44,4.76,216,270,180,452,330
16,0.24,0.95,0.11,-0.31,-4.64,-3.6,215,265,194,456,334
17,0.25,0.96,0.07,1.89,-1.77,-1.65,218,270,190,452,329
18,0.29,0.94,0.09,-2.26,-2.56,-5.37,227,283,191,457,328
19,0.28,0.95,0.09,-6.9,-2.99,-2.08,236,273,191,458,328
20,0.3,0.96,0.11,3.11,-3.6,-2.93,215,276,194,455,328
21,0.29,0.99,0.14,-6.16,-0.73,-6.29,210,271,189,461,325
22,0.28,0.96,0.12,-1.22,-6.35,0.79,215,274,192,454,325
23,0.31,0.95,0.13,-0.37,-3.6,-0.24,217,271,187,451,324
24,0.29,0.93,0.12,4.15,-1.95,-0.43,218,270,194,459,329
25,0.31,0.92,0.13,-0.61,-0.12,2.5,217,273,188,451,328
26,0.29,0.94,0.14,-1.83,-4.7,-5.8,216,271,185,454,329
27,0.3,0.93,0.16,-2.69,-1.95,10.25,218,273,194,460,328
28,0.37,0.9,0.16,-1.28,-6.1,0.92,217,281,191,458,328
29,0.37,0.91,0.16,-3.17,-5.0,-2.01,217,273,190,458,327
30,0.35,0.94,0.17,2.75,-0.24,-3.42,220,276,181,453,329
31,0.34,0.94,0.15,2.2,-2.44,-4.94,217,270,196,457,326
32,0.37,0.91,0.12,1.83,-3.23,-1.53,218,265,188,458,327
33,0.34,0.93,0.13,2.93,-2.32,-0.06,228,271,190,460,329
34,0.36,0.93,0.14,1.22,-4.76,-4.64,220,273,195,458,328
35,0.35,0.92,0.15,-6.29,-1.1,-6.47,216,269,198,460,329
36,0.37,0.92,0.13,1.65,0.43,-8.67,218,275,195,462,330
37,0.36,0.92,0.13,1.16,-7.39,-3.3,216,266,187,462,331
38,0.37,0.92,0.16,-0.37,1.89,-0.67,219,275,192,452,330
39,0.41,0.93,0.13,6.59,-5.68,6.35,220,273,193,455,326
40,0.47,0.88,0.11,2.08,0.79,1.04,219,274,190,461,325
41,0.41,0.91,0.17,4.82,-3.17,-2.5,212,268,196,454,329
42,0.38,0.89,0.15,1.22,0.92,-10.8,219,275,193,455,328
43,0.4,0.91,0.14,-0.73,2.62,-5.43,221,262,191,455,326
44,0.4,0.91,0.13,3.36,-5.68,-7.51,219,271,198,456,331
45,0.37,0.91,0.15,6.53,-8.18,-6.59,218,271,189,464,328
46,0.39,0.95,0.15,4.52,-7.69,-6.9,218,274,200,460,329
47,0.37,0.96,0.12,4.52,-2.38,-2.56,217,274,191,456,330
48,0.33,0.92,0.1,-1.16,-3.66,0.92,216,270,195,461,330
49,0.34,0.93,0.11,8.97,-3.97,-1.22,220,272,196,459,328
50,0.35,0.93,0.1,-4.09,-2.14,0.31,220,276,185,453,330
51,0.35,0.94,0.12,2.93,-1.71,-4.39,219,271,194,449,333
52,0.37,0.93,0.09,-2.69,-2.32,-5.74,219,277,202,459,328
53,0.35,0.86,0.12,-0.98,-0.98,5.13,214,275,194,459,330
54,0.37,0.86,0.1,-3.42,1.1,-1.77,243,269,202,451,328
55,0.32,0.92,0.13,8.61,-0.79,-2.99,220,269,195,458,329
56,0.38,0.96,0.13,0.24,-4.58,-3.17,217,275,198,453,329
57,0.31,0.88,0.09,-5.86,-5.25,-1.95,213,268,199,457,331
58,0.32,0.94,0.1,-0.73,-4.64,-1.83,219,271,198,456,328
59,0.32,0.9,0.11,-7.93,-2.38,-3.36,218,275,198,461,320
60,0.32,0.94,0.11,-2.08,-0.67,9.58,214,274,201,455,329
61,0.31,0.93,0.18,13.18,-0.73,-7.69,218,270,201,455,325
62,0.3,0.92,0.16,-3.78,-1.53,2.32,228,277,207,461,332
63,0.26,0.9,0.13,0.85,1.71,-5.19,218,277,198,458,332
64,0.31,0.93,0.19,3.78,-8.61,5.49,217,279,193,462,331
65,0.25,0.96,0.16,-0.67,-4.27,-4.76,221,277,200,459,332
66,0.31,0.95,0.15,0.37,-6.04,-3.42,218,279,196,450,330
67,0.31,0.93,0.14,-0.24,-2.75,-0.98,218,278,205,453,330
68,0.33,0.93,0.15,-4.52,-4.82,-3.85,217,275,206,455,329
69,0.33,0.94,0.14,2.38,0.37,-2.75,220,279,199,456,332
70,0.31,0.95,0.15,1.53,-1.59,-3.23,218,271,200,458,333
71,0.31,0.92,0.12,1.53,-5.19,-2.38,217,278,202,454,331
72,0.32,0.94,0.13,-1.28,-4.94,-2.5,219,276,203,451,334
73,0.21,0.93,0.1,7.14,-12.76,-11.78,221,275,204,450,326
74,0.25,0.95,0.13,-2.38,-1.53,-3.3,221,272,203,455,331
75,0.24,0.95,0.11,-2.81,-7.08,-3.6,221,272,201,460,334
76,0.3,0.97,0.09,2.62,-4.09,-3.6,219,274,199,457,332
77,0.28,0.93,0.08,-3.54,-2.93,-3.78,220,280,198,456,334
78,0.3,0.97,0.09,3.66,-2.32,1.83,218,277,203,453,331
79,0.29,0.91,0.08,-1.65,-4.39,-0.67,209,277,205,460,332
80,0.31,0.95,0.09,-4.88,-4.94,1.34,220,275,199,457,333
81,0.28,0.94,0.1,-2.2,-1.71,-16.85,220,277,197,455,333
82,0.31,0.93,0.11,-0.79,-3.78,-3.36,220,278,198,459,332
83,0.25,0.92,0.14,0.85,1.34,-1.71,219,270,205,454,332
84,0.28,0.95,0.14,3.85,0.49,3.11,220,280,203,456,332
85,0.33,0.93,0.14,3.66,-4.39,3.36,218,281,207,463,332
86,0.3,0.96,0.14,1.16,-2.62,-4.33,221,272,205,462,334
87,0.33,0.93,0.12,1.04,-1.71,-2.44,220,275,201,455,332
88,0.33,0.93,0.14,0.73,-5.07,-0.79,217,280,204,457,332
89,0.33,0.92,0.13,-2.5,-3.05,-1.46,219,278,203,468,331
90,0.3,0.94,0.14,2.93,-1.22,-0.31,220,272,204,453,331
91,0.32,0.91,0.12,-2.75,-2.99,0.43,217,280,209,455,332
92,0.31,0.93,0.15,0.12,-5.25,-1.16,217,277,199,455,331
93,0.31,0.93,0.14,1.04,-2.5,-2.08,218,281,208,453,332
94,0.34,0.91,0.13,1.22,-7.93,0.61,219,279,199,458,332
95,0.31,0.94,0.13,0.37,-1.53,-5.13,221,279,203,455,338
96,0.32,0.94,0.13,2.14,-0.67,-1.34,222,275,200,458,332
97,0.3,0.93,0.14,1.04,-1.16,0.0,227,275,201,451,332
98,0.33,0.93,0.13,-0.79,-4.39,-2.56,226,278,202,454,332
99,0.32,0.94,0.14,1.71,-2.14,-2.69,218,280,207,456,332
100,0.33,0.96,0.11,-2.32,-2.38,-1.89,221,278,206,457,329
101,0.32,0.94,0.12,1.28,-5.68,-3.48,220,275,201,453,336
102,0.33,0.94,0.11,2.2,-0.37,-1.71,218,277,195,457,330
103,0.34,0.94,0.09,-0.55,-2.2,-0.18,218,278,194,446,337
104,0.31,0.92,0.12,-1.28,-2.14,-1.4,220,282,202,454,331
105,0.31,0.93,0.11,-3.85,-5.55,-2.87,222,276,201,455,333
106,0.3,0.93,0.12,-1.04,-3.05,-1.71,218,278,202,455,332
107,0.34,0.95,0.12,1.04,-4.58,-4.88,221,282,204,452,331
108,0.32,0.91,0.13,-2.38,-3.17,-3.66,221,282,208,465,335
109,0.29,0.94,0.15,1.46,-1.1,-2.99,221,278,204,456,332
110,0.25,0.93,0.14,-1.65,-2.14,-2.08,217,280,204,455,336
111,0.28,0.93,0.16,-2.56,-3.48,-1.77,221,278,202,450,332
112,0.26,0.91,0.15,0.18,-1.46,-8.73,218,277,197,447,327
113,0.29,0.95,0.15,1.1,-1.16,0.12,223,279,207,450,332
114,0.26,0.97,0.17,-0.73,-1.1,-2.14,216,276,194,454,332
115,0.29,0.94,0.15,-1.4,-3.05,-2.2,221,277,202,459,335
116,0.3,0.92,0.15,-0.55,-6.84,-1.89,220,284,207,456,332
117,0.29,0.92,0.16,-1.28,-8.67,0.92,222,280,197,453,332
118,0.31,0.94,0.16,0.06,0.79,0.79,216,278,195,459,331
119,0.34,0.94,0.16,-2.14,-3.36,5.0,218,281,205,459,335
120,0.37,0.9,0.17,-1.16,-2.87,-2.75,218,277,209,455,332
121,0.37,0.9,0.2,-3.6,0.55,-3.6,219,270,208,456,334
122,0.41,0.92,0.17,2.44,-2.14,-1.28,219,271,207,450,333
123,0.44,0.91,0.19,1.04,0.43,-3.78,218,277,197,454,324
124,0.39,0.92,0.21,2.38,-1.4,-4.15,220,280,204,458,332
125,0.41,0.92,0.19,1.04,-2.2,-2.14,212,277,203,455,335
126,0.44,0.91,0.18,-2.08,-5.74,1.71,215,278,207,450,329
127,0.46,0.89,0.19,3.23,-0.31,-0.85,219,279,204,455,333
128,0.5,0.86,0.18,-3.42,-3.17,0.24,220,278,203,458,334
129,0.5,0.84,0.23,-3.85,-3.48,-3.42,214,276,205,448,333
130,0.49,0.78,0.26,-2.08,-3.97,4.15,220,277,203,451,332
131,0.45,0.77,0.26,-8.61,-6.71,3.85,220,278,212,441,332
132,0.56,0.84,0.24,1.59,-0.79,-6.96,219,282,202,446,330
133,0.52,0.79,0.23,0.12,-2.99,-0.18,219,274,208,452,333
134,0.54,0.82,0.24,-3.54,-1.71,-5.8,220,280,204,458,331
135,0.5,0.84,0.28,1.95,-3.97,-2.26,224,281,202,452,332
136,0.54,0.75,0.24,3.66,-0.92,-4.46,217,279,204,446,334
137,0.56,0.86,0.23,3.97,-1.46,-12.02,212,272,211,443,330
138,0.51,0.89,0.25,7.51,-2.32,-5.31,217,261,209,448,331
139,0.49,0.85,0.22,1.34,-2.5,-0.85,216,278,204,451,331
140,0.53,0.85,0.25,-3.17,-0.31,-1.1,220,282,205,453,320
141,0.55,0.75,0.22,-1.34,-13.73,2.87,220,279,198,450,330
142,0.57,0.79,0.21,-0.37,-7.75,2.2,221,278,209,452,329
143,0.52,0.81,0.21,-3.78,-5.43,-1.95,219,278,200,450,331
144,0.62,0.82,0.17,-2.08,-7.14,-2.08,221,279,208,450,332
145,0.61,0.79,0.17,-2.08,-13.67,12.94,218,275,204,455,328
146,0.61,0.82,0.18,1.34,-3.54,-10.38,221,279,209,450,328
147,0.56,0.81,0.17,-6.71,3.3,-10.74,220,276,204,451,328
148,0.55,0.83,0.18,0.0,0.49,-0.24,221,279,204,451,328
149,0.53,0.85,0.22,-3.05,-6.9,-4.64,217,278,205,452,333
150,0.49,0.88,0.19,-0.37,-2.08,-10.56,219,278,200,452,333
151,0.44,0.82,0.26,-13.0,-8.24,-0.92,217,277,210,455,325
152,0.36,0.85,0.27,3.6,-1.89,-23.32,219,279,205,453,331
153,0.29,0.96,0.32,6.53,-22.83,-1.16,222,273,204,451,327
154,0.26,0.88,0.29,-11.05,-0.61,2.87,221,274,210,451,330
155,0.34,0.92,0.27,-6.1,-4.64,0.67,217,285,206,458,335
156,0.23,0.9,0.36,-4.15,-0.37,-1.1,217,281,194,454,332
157,0.29,0.87,0.35,-8.97,-4.03,-3.11,222,281,205,454,329
158,0.32,0.91,0.35,0.98,-3.54,-2.5,229,273,205,455,333
159,0.3,0.87,0.35,-3.91,-4.15,0.12,221,280,206,452,330
160,0.35,0.88,0.36,-3.17,-3.36,-1.77,222,283,202,455,333
161,0.33,0.89,0.38,-5.13,-7.2,-10.13,219,275,205,455,334
162,0.39,0.89,0.33,-2.5,-5.19,-4.21,211,280,208,454,331
163,0.36,0.87,0.37,0.73,-4.7,0.37,219,281,210,453,332
164,0.35,0.85,0.35,-0.18,-2.75,-2.14,222,281,203,452,332
165,0.36,0.88,0.35,-2.75,-3.42,-3.23,219,281,208,454,336
166,0.37,0.88,0.36,-2.2,-2.08,-6.47,217,280,208,457,332
167,0.34,0.88,0.37,0.79,-2.26,-2.26,221,280,206,453,334
168,0.36,0.86,0.37,1.83,-2.56,-3.97,221,275,205,453,330
169,0.34,0.86,0.36,-1.28,-3.11,-4.46,220,285,208,452,334
170,0.35,0.88,0.37,1.1,-2.99,-4.88,222,275,209,454,334
171,0.35,0.87,0.36,-0.98,-4.76,-3.48,221,280,209,452,338
172,0.34,0.89,0.35,-0.43,-2.32,-1.65,246,280,209,452,329
173,0.36,0.86,0.34,-1.04,-1.04,-2.32,254,284,209,455,336
174,0.34,0.85,0.35,1.59,-2.2,-1.34,217,281,211,455,335
175,0.29,0.85,0.36,-2.5,-1.65,0.55,225,280,202,450,328
176,0.32,0.87,0.36,0.31,-0.85,-1.89,221,279,207,455,333
177,0.33,0.89,0.35,-0.37,-3.42,-2.32,223,282,209,443,330
178,0.35,0.89,0.33,0.49,-1.04,-3.66,224,281,208,446,329
179,0.32,0.88,0.35,-0.37,-2.38,-1.22,222,283,212,450,331
180,0.34,0.88,0.34,2.5,-3.54,-3.78,221,285,206,446,329
181,0.36,0.86,0.33,0.67,-1.59,-0.73,225,281,203,450,329
182,0.33,0.87,0.33,2.87,-0.92,0.0,227,283,211,448,333
183,0.33,0.87,0.33,1.1,-4.46,-1.95,219,280,207,446,332
184,0.36,0.92,0.33,-1.83,-2.01,-3.6,261,279,208,446,324
185,0.35,0.92,0.34,1.71,-4.46,-4.21,219,279,206,448,332
186,0.35,0.87,0.32,4.03,-4.09,-3.42,218,282,211,453,331
187,0.34,0.87,0.29,-0.31,-2.26,-1.16,224,277,211,450,334
188,0.36,0.87,0.33,2.38,-4.15,-5.55,223,282,199,452,338
189,0.36,0.87,0.32,2.14,-4.21,-2.69,221,273,210,450,333
190,0.35,0.86,0.32,-1.34,-1.28,-2.75,222,275,208,449,334
191,0.39,0.9,0.33,2.38,-4.64,-5.43,220,282,210,453,334
192,0.37,0.88,0.32,-0.73,-0.98,-2.75,223,280,208,451,337
193,0.37,0.87,0.34,1.22,-2.81,-1.28,248,281,210,448,338
194,0.37,0.86,0.33,0.79,-3.3,-2.69,223,278,211,452,333
195,0.33,0.86,0.33,1.89,-3.36,-0.73,217,285,206,449,334
196,0.39,0.89,0.33,-0.79,-0.73,0.98,222,281,211,453,334
197,0.41,0.87,0.33,-2.62,0.67,0.55,217,282,210,450,329
198,0.42,0.85,0.36,-2.32,-6.71,-7.51,217,281,211,445,329
199,0.36,0.83,0.37,-1.95,-5.86,-6.41,218,279,210,450,329
200,0.4,0.92,0.32,2.26,2.01,-0.73,220,282,209,463,332
201,0.31,0.89,0.35,7.08,0.49,-1.95,217,279,218,457,336
202,0.39,0.81,0.38,-4.58,-7.32,-5.92,223,279,210,460,331
203,0.36,0.88,0.36,0.73,-3.05,-2.99,220,279,211,457,336
204,0.38,0.89,0.36,0.98,-1.65,-5.19,220,279,209,449,334
205,0.34,0.86,0.34,-1.04,-3.23,-1.34,221,279,212,453,335
206,0.32,0.89,0.39,-0.55,-5.43,-4.15,222,280,214,458,330
207,0.35,0.88,0.35,2.14,-3.48,-2.14,219,282,210,455,333
208,0.36,0.87,0.34,1.04,1.59,-3.36,219,279,213,460,335
209,0.32,0.87,0.34,-2.08,-2.5,-2.2,220,283,209,454,334
210,0.35,0.88,0.36,1.71,-2.44,-6.16,220,280,204,454,334
211,0.32,0.9,0.33,2.26,-1.22,-3.05,220,279,205,451,335
212,0.32,0.88,0.33,-2.2,-2.26,-1.28,221,280,210,455,334
213,0.31,0.87,0.34,-0.67,-2.81,-0.43,222,286,212,450,336
214,0.32,0.88,0.34,-0.98,-3.36,-1.83,215,282,213,451,343
215,0.33,0.89,0.33,0.12,-2.01,-1.22,220,279,210,450,327
216,0.33,0.87,0.33,1.59,-2.38,-1.04,223,280,212,444,336
217,0.34,0.88,0.32,1.65,-1.28,-2.75,223,283,212,448,336
218,0.34,0.85,0.34,-0.43,-2.69,1.1,223,279,209,452,334
219,0.37,0.82,0.33,-1.28,-0.55,2.01,221,282,211,449,336
220,0.36,0.86,0.32,-0.49,-5.19,-3.91,220,276,213,441,333
221,0.38,0.82,0.32,-4.46,-0.43,3.66,222,281,218,446,336
222,0.34,0.83,0.35,-2.87,-4.03,-1.46,223,284,207,445,335
223,0.37,0.83,0.34,1.1,-2.75,-1.4,221,282,211,449,334
224,0.38,0.89,0.37,0.67,2.32,1.22,224,274,208,446,335
225,0.43,0.92,0.3,5.8,-2.38,-3.17,219,283,212,449,330
226,0.42,0.84,0.33,-5.19,-5.43,0.06,219,278,204,448,335
227,0.41,0.85,0.35,-3.05,1.1,-3.91,223,279,209,447,329
228,0.39,0.86,0.33,1.71,-3.91,-2.87,221,273,208,445,333
229,0.39,0.86,0.33,1.46,0.06,-3.3,222,279,207,449,333
230,0.38,0.86,0.32,-0.43,-2.69,-1.71,222,285,208,451,327
231,0.4,0.87,0.34,-0.31,-3.91,-3.11,220,278,213,448,330
232,0.37,0.86,0.34,1.4,-2.2,-3.66,222,282,209,448,336
233,0.39,0.87,0.34,-0.55,-3.6,-2.56,222,276,223,444,334
234,0.38,0.86,0.33,-0.12,-2.69,-2.99,223,281,202,448,330
235,0.37,0.87,0.34,0.73,-0.98,-3.05,222,284,208,449,333
236,0.38,0.86,0.34,-0.61,-1.65,-2.81,220,281,204,445,331
237,0.39,0.87,0.33,2.5,-1.28,-2.38,221,283,212,444,331
238,0.41,0.88,0.32,0.85,-3.72,-0.98,221,280,211,450,331
239,0.4,0.86,0.33,0.85,-5.07,-2.26,220,283,207,448,330
240,0.38,0.85,0.32,1.16,-3.91,-2.38,221,281,209,447,338
241,0.38,0.87,0.33,1.22,-2.81,-1.16,223,286,212,442,332
242,0.37,0.86,0.35,1.28,-1.53,-1.28,217,282,213,442,334
243,0.37,0.86,0.35,-1.22,-2.93,-3.3,220,281,210,448,331
244,0.38,0.86,0.33,0.37,-1.83,-2.5,221,275,204,453,334
245,0.37,0.88,0.34,6.35,-2.01,-2.14,218,282,211,454,334
246,0.37,0.86,0.33,0.49,-2.44,-1.83,220,276,209,454,335
247,0.32,0.82,0.35,2.75,-0.92,4.39,219,275,208,451,336
248,0.34,0.86,0.35,3.72,-4.58,-0.85,221,282,200,450,335
249,0.37,0.88,0.33,1.22,-2.69,-2.99,220,281,212,446,332
250,0.37,0.87,0.33,0.43,-3.05,-2.14,222,276,209,451,334
251,0.36,0.86,0.34,1.4,-5.43,-1.77,221,282,208,451,335
252,0.34,0.8,0.34,1.53,-5.49,-2.56,219,281,210,451,334
253,0.37,0.88,0.3,-0.55,-5.0,-6.04,219,279,213,453,331
254,0.37,0.9,0.3,-0.49,-2.5,-2.01,218,277,209,446,335
255,0.37,0.89,0.3,1.65,-1.71,-2.38,225,278,211,454,331
256,0.37,0.88,0.31,-1.22,-3.72,-2.38,224,281,215,460,335
257,0.4,0.9,0.32,1.71,-7.32,-3.6,216,281,212,451,332
258,0.38,0.92,0.33,0.37,-3.54,-4.27,222,286,216,453,336
259,0.33,0.87,0.34,-0.49,0.85,-5.13,220,281,218,450,335
260,0.37,0.87,0.33,1.89,-0.98,-3.48,224,279,215,449,333
261,0.37,0.88,0.34,0.85,-3.97,-1.1,217,278,215,449,331
262,0.35,0.85,0.37,-1.59,-4.7,-1.71,220,285,210,453,334
263,0.33,0.86,0.36,-1.95,-4.76,-3.78,223,283,209,450,333
264,0.35,0.84,0.35,-3.72,-5.55,-4.82,222,284,212,454,336
265,0.37,0.87,0.35,-1.22,-3.6,-4.33,220,285,209,455,336
266,0.37,0.86,0.35,-0.67,-3.36,-2.32,221,282,213,447,336
267,0.35,0.86,0.36,-3.72,-3.6,-1.4,221,277,208,450,338
268,0.35,0.87,0.36,-2.5,-2.56,-2.75,221,282,215,454,337
269,0.36,0.86,0.36,0.67,-2.2,-2.81,224,283,208,451,333
270,0.35,0.86,0.35,-1.53,-2.87,-0.98,224,281,212,452,336
271,0.34,0.86,0.36,-0.12,-2.5,-2.14,221,282,213,452,332
272,0.36,0.86,0.36,-0.06,-3.42,-2.62,225,280,198,452,339
273,0.34,0.86,0.36,1.04,-2.81,-1.89,221,283,215,448,337
274,0.35,0.86,0.36,0.61,-2.99,-0.61,221,285,213,452,335
275,0.36,0.84,0.36,0.49,-3.11,-2.93,223,278,206,454,333
276,0.34,0.87,0.37,0.24,0.24,0.06,223,283,211,452,329
277,0.42,0.89,0.35,3.97,-0.18,-3.72,224,277,211,451,331
278,0.37,0.88,0.36,1.4,-4.88,-3.6,217,277,212,448,332
279,0.36,0.86,0.36,2.62,-3.85,-1.89,221,278,218,453,337
280,0.36,0.87,0.35,0.73,-3.05,-3.11,223,277,207,460,334
281,0.36,0.86,0.36,0.24,-1.89,-3.17,223,277,216,453,334
282,0.35,0.86,0.34,0.67,-1.71,-1.22,225,277,212,453,333
283,0.34,0.86,0.36,0.73,-6.65,-2.93,225,280,214,454,334
284,0.32,0.85,0.38,-0.37,-4.52,-1.04,219,278,219,456,329
285,0.34,0.86,0.34,-0.06,-4.15,-2.56,225,280,209,448,336
286,0.36,0.86,0.35,-2.93,-5.0,-2.62,219,278,216,452,335
287,0.34,0.85,0.34,-0.18,-2.44,-3.17,224,284,210,455,330
288,0.34,0.87,0.36,-1.04,-2.5,-3.05,220,280,213,455,331
289,0.34,0.88,0.36,-0.92,-1.77,-2.2,220,281,213,453,335
290,0.32,0.86,0.36,2.26,-1.28,-0.92,223,282,217,452,336
291,0.33,0.86,0.36,0.43,-1.4,-2.5,220,283,213,451,334
292,0.35,0.88,0.34,1.59,-3.6,-1.53,222,280,209,452,337
293,0.35,0.87,0.35,0.24,-3.78,-1.46,220,281,219,446,336
294,0.36,0.89,0.35,-2.08,-2.5,-3.05,220,280,223,449,334
295,0.38,0.87,0.34,-2.56,-3.3,-2.26,232,283,201,451,337
296,0.35,0.84,0.36,2.38,-5.98,-2.14,220,282,210,451,330
297,0.34,0.85,0.36,0.85,-2.56,-2.87,223,280,209,455,337
298,0.33,0.88,0.35,-0.06,-3.6,-2.44,222,279,212,453,336
299,0.37,0.86,0.36,-0.73,-2.81,-2.81,222,281,213,455,333
300,0.38,0.89,0.34,4.09,0.55,-3.54,222,282,215,456,334
301,0.37,0.85,0.35,0.37,-6.29,-2.56,220,279,211,451,336
302,0.34,0.85,0.35,-0.67,-1.89,-1.46,222,279,214,452,337
303,0.36,0.88,0.35,-1.46,-4.03,-1.65,222,281,210,452,335
304,0.39,0.87,0.35,-0.43,-3.23,-2.14,223,278,212,453,331
305,0.36,0.86,0.35,0.31,-2.01,-2.56,221,281,212,450,331
306,0.37,0.8,0.37,1.34,-2.32,0.06,218,278,210,464,335
307,0.37,0.84,0.35,3.78,-1.16,-1.46,218,292,220,455,332
308,0.39,0.88,0.34,2.14,-2.99,-2.14,222,279,212,449,336
309,0.37,0.84,0.36,0.0,-4.7,-1.34,221,282,209,448,338
310,0.41,0.84,0.33,-0.31,-4.27,-0.37,225,279,209,456,331
311,0.42,0.86,0.34,-0.92,-3.23,-6.1,221,278,212,452,336
312,0.41,0.87,0.34,-0.67,-8.06,-4.15,223,280,213,453,333
313,0.41,0.84,0.33,-0.98,-2.5,-1.77,224,281,210,453,337
314,0.42,0.87,0.34,0.43,-3.72,-2.75,224,281,211,450,332
315,0.4,0.84,0.34,-0.31,-2.2,-1.53,220,280,210,451,335
316,0.38,0.87,0.34,2.99,-2.32,-2.81,223,279,219,448,336
317,0.39,0.86,0.33,4.64,-5.0,-0.79,222,281,215,451,335
318,0.4,0.88,0.33,3.42,-1.4,-3.17,221,279,214,450,335
319,0.39,0.86,0.32,1.83,-3.36,4.7,221,279,204,448,334
320,0.35,0.82,0.32,-1.77,-2.2,3.85,223,281,211,451,334
321,0.4,0.85,0.32,1.28,0.24,-1.71,216,278,209,456,334
322,0.4,0.87,0.34,0.06,-1.16,-2.87,221,280,213,456,333
323,0.41,0.86,0.33,3.3,-0.98,-6.65,219,282,210,454,340
324,0.46,0.9,0.34,2.93,-2.81,-3.85,226,277,214,455,336
325,0.37,0.82,0.35,1.89,-7.32,-2.87,222,282,202,453,336
326,0.42,0.84,0.34,0.67,-9.52,-2.5,218,277,207,458,337
327,0.43,0.85,0.35,1.04,-1.95,-6.96,223,276,214,455,333
328,0.42,0.87,0.36,0.43,0.85,-4.52,227,281,217,452,335
329,0.44,0.81,0.33,1.1,-3.54,-3.85,221,277,214,456,331
330,0.45,0.86,0.35,2.08,-3.6,-4.39,218,282,210,453,329
331,0.44,0.83,0.32,4.33,-0.98,-4.82,220,282,215,453,337
332,0.43,0.83,0.35,0.18,-2.14,-4.15,225,281,213,456,337
333,0.44,0.83,0.37,1.4,-4.27,-4.33,225,281,213,455,331
334,0.43,0.84,0.33,1.89,-5.13,0.67,225,281,215,462,334
335,0.46,0.83,0.34,-1.4,-2.26,-3.91,220,282,210,447,337
336,0.45,0.84,0.34,2.26,-2.81,0.49,221,279,214,450,333
337,0.43,0.82,0.34,1.95,-2.2,-2.08,221,283,214,446,336
338,0.45,0.86,0.34,-0.79,-3.36,0.12,220,283,214,448,340
339,0.45,0.82,0.36,1.16,-3.72,-3.54,220,280,210,452,335
340,0.43,0.82,0.33,-2.44,-0.12,-2.01,232,280,214,451,335
341,0.55,0.83,0.3,-2.26,-12.82,-1.4,220,280,209,451,333
342,0.47,0.84,0.34,-2.01,-6.96,-2.99,221,280,212,460,335
343,0.47,0.83,0.34,-0.61,-3.66,-3.85,221,285,211,456,328
344,0.42,0.85,0.36,2.14,0.24,-4.94,223,287,213,456,331
345,0.43,0.83,0.34,1.53,-2.69,-1.34,224,283,203,450,334
346,0.44,0.84,0.34,-1.95,-1.77,-3.11,223,280,217,449,337
347,0.41,0.83,0.36,0.24,-1.04,-3.54,218,278,214,452,336
348,0.36,0.83,0.37,-3.11,0.55,-4.82,221,280,210,449,335
349,0.41,0.84,0.36,-0.67,-4.64,-2.2,223,284,209,443,330
350,0.43,0.84,0.34,-0.12,-4.15,-1.22,223,276,211,449,332
351,0.41,0.84,0.38,0.12,-2.14,-2.56,223,282,213,449,333
352,0.41,0.84,0.36,-0.67,-2.44,-3.48,240,283,213,447,330
353,0.42,0.82,0.36,0.18,-4.03,-2.5,222,282,214,443,337
354,0.4,0.83,0.34,3.91,0.79,-3.05,218,280,211,451,335
355,0.39,0.86,0.35,6.23,1.04,-5.13,218,283,205,450,330
356,0.45,0.85,0.35,1.65,-4.76,0.37,218,280,215,450,336
357,0.44,0.86,0.33,1.77,-2.2,-1.89,221,282,211,447,335
358,0.42,0.86,0.33,-1.59,-0.92,-1.04,220,285,211,448,338
359,0.44,0.84,0.34,5.0,-4.27,-2.14,219,279,208,449,339
360,0.47,0.86,0.3,0.49,-10.56,1.83,219,282,216,451,334
361,0.47,0.82,0.32,-5.43,-4.52,-4.33,223,279,212,451,333
362,0.41,0.84,0.38,-4.58,-1.65,-4.27,223,281,210,451,332
363,0.47,0.8,0.37,0.67,-9.7,-7.45,222,282,211,449,334
364,0.46,0.79,0.34,-0.06,-5.25,-1.71,223,282,214,448,338
365,0.43,0.79,0.34,-3.23,-3.48,-0.85,226,282,216,449,334
366,0.48,0.85,0.35,-3.66,-1.77,-7.26,222,276,214,446,336
367,0.42,0.79,0.36,-0.85,2.08,-0.43,223,285,215,451,331
368,0.43,0.79,0.35,2.87,-2.44,2.56,222,283,215,448,336
369,0.46,0.94,0.4,4.09,0.12,-7.32,216,281,215,443,336
370,0.49,0.8,0.33,-2.99,-4.58,-6.71,217,280,212,455,335
371,0.45,0.82,0.39,9.28,-7.26,0.67,221,282,219,449,338
372,0.42,0.79,0.33,-2.99,-1.71,2.87,223,275,214,446,332
373,0.45,0.82,0.38,-2.08,-2.2,1.53,221,285,211,449,336
374,0.48,0.82,0.36,-1.89,-6.16,-2.38,225,280,212,451,330
375,0.48,0.81,0.36,-3.3,-1.59,2.08,221,285,209,448,339
376,0.49,0.77,0.36,-0.55,-6.71,0.24,224,278,212,446,339
377,0.48,0.78,0.37,-2.01,-1.89,0.18,220,275,214,451,336
378,0.51,0.79,0.37,-2.5,-2.99,-2.62,223,284,221,448,332
379,0.51,0.78,0.38,-1.16,-8.91,-2.44,220,285,212,448,337
380,0.5,0.74,0.39,-5.74,-4.27,2.75,221,284,212,451,336
381,0.52,0.76,0.44,-8.36,-1.71,-10.8,216,280,210,446,336
382,0.52,0.75,0.51,-13.79,-6.04,-1.83,222,283,216,446,338
383,0.49,0.73,0.51,-18.55,-9.46,2.99,223,281,215,444,336
384,0.5,0.71,0.53,-3.05,-5.0,-2.5,222,282,213,448,334
385,0.46,0.7,0.53,0.31,-0.55,-4.88,221,282,211,450,338
386,0.43,0.69,0.53,4.09,2.5,-8.91,227,288,213,446,339
387,0.42,0.71,0.54,2.99,-3.23,-0.37,223,284,212,443,337
388,0.43,0.73,0.54,-0.67,-5.19,-1.34,223,282,216,451,338
389,0.42,0.72,0.54,-1.65,-2.56,0.18,223,280,214,440,336
390,0.44,0.72,0.55,2.56,-4.58,-2.56,220,279,215,454,336
391,0.44,0.73,0.54,1.95,-3.85,-2.14,222,281,211,446,339
392,0.42,0.77,0.52,14.47,-3.17,-12.27,220,284,214,447,334
393,0.41,0.85,0.46,18.92,-6.71,-9.4,218,281,216,448,335
394,0.41,0.92,0.35,23.99,-3.05,-11.6,222,283,214,444,331
395,0.34,0.85,0.27,-11.11,-1.4,8.36,218,282,215,447,335
396,0.42,0.84,0.31,0.24,-6.16,0.73,221,279,215,442,338
397,0.41,0.86,0.31,-7.08,-5.92,-2.5,223,281,212,447,335
398,0.44,0.83,0.34,-3.85,-5.07,-3.36,220,281,213,448,331
399,0.43,0.84,0.36,-0.12,-1.28,-5.07,220,284,226,451,339
400,0.45,0.84,0.36,-2.08,-1.4,-1.89,220,283,215,448,337
401,0.42,0.82,0.37,0.0,-2.01,-1.71,221,283,212,449,329
402,0.43,0.83,0.39,2.32,-2.69,-2.26,222,281,213,448,328
403,0.43,0.83,0.38,1.46,-2.38,-2.93,223,285,217,449,336
404,0.43,0.82,0.36,0.49,-3.36,0.12,222,282,213,447,335
405,0.45,0.81,0.39,-4.15,-4.39,-0.79,223,284,215,446,335
406,0.47,0.77,0.34,3.23,-3.23,-1.34,222,281,216,449,336
407,0.42,0.81,0.39,-0.61,-2.14,-3.91,219,282,216,438,333
408,0.41,0.8,0.39,-2.08,-1.53,-2.87,223,283,219,443,337
409,0.41,0.81,0.39,2.14,0.43,-3.85,222,282,212,445,335
410,0.42,0.82,0.4,0.43,-3.97,-0.98,220,285,218,446,332
411,0.44,0.84,0.4,2.01,-1.89,-2.69,221,281,218,449,336
412,0.43,0.84,0.41,-1.46,-2.5,0.12,224,285,218,441,332
413,0.4,0.79,0.4,-1.28,-2.99,-3.6,221,282,218,450,331
414,0.42,0.81,0.42,-2.44,-2.56,-4.15,221,283,211,446,334
415,0.42,0.82,0.41,1.4,-1.46,-1.34,221,279,215,450,335
416,0.42,0.81,0.42,-1.71,-1.77,-3.23,221,283,217,445,336
417,0.44,0.81,0.41,3.42,-2.08,-1.53,220,281,213,449,337
418,0.41,0.81,0.41,-0.61,-3.23,0.18,227,281,217,450,337
419,0.46,0.83,0.41,-0.55,-4.58,-1.65,221,280,214,449,335
420,0.45,0.81,0.43,0.55,-4.09,-2.93,222,282,219,445,334
421,0.45,0.81,0.43,-1.4,-4.03,-3.54,222,278,217,447,335
422,0.43,0.81,0.44,0.85,-0.85,-2.14,222,280,213,440,332
423,0.42,0.81,0.44,0.43,-3.05,-3.17,249,278,210,451,338
424,0.43,0.81,0.43,-0.43,-3.17,-2.44,222,281,217,450,335
425,0.42,0.82,0.43,-0.61,-1.53,-2.69,220,277,213,449,337
426,0.41,0.8,0.42,0.43,-2.75,-2.81,222,280,210,445,338
427,0.41,0.81,0.43,0.49,-1.83,-1.59,223,283,215,446,338
428,0.39,0.79,0.43,0.55,-5.07,-2.69,226,281,210,447,337
429,0.42,0.79,0.42,-0.37,-3.66,-2.69,223,280,215,445,333
430,0.41,0.8,0.43,0.49,-5.07,-4.15,223,280,212,445,343
431,0.42,0.8,0.42,0.61,-3.36,-2.44,221,283,208,448,335
432,0.41,0.81,0.44,1.1,-3.42,-2.38,222,285,209,446,337
433,0.42,0.81,0.43,-0.37,-1.77,-2.5,218,281,208,444,333
434,0.44,0.8,0.43,0.85,-2.87,-2.14,221,281,215,441,336
435,0.42,0.8,0.44,1.4,-2.56,-2.99,223,281,215,453,336
436,0.42,0.79,0.43,-0.98,-2.93,-2.62,221,284,213,442,336
437,0.45,0.79,0.42,2.32,-6.41,-3.72,221,280,220,446,337
438,0.44,0.8,0.42,1.59,-2.08,-2.08,224,281,222,450,332
439,0.44,0.79,0.43,0.67,-3.23,-3.42,222,277,215,446,331
440,0.44,0.8,0.42,-0.31,-3.3,-1.71,224,282,214,442,337
441,0.43,0.79,0.42,1.04,-2.08,-2.5,221,281,218,447,328
442,0.46,0.79,0.43,0.49,-4.03,-1.59,222,281,215,444,334
443,0.42,0.79,0.42,-0.49,-2.14,-2.08,223,282,216,449,335
444,0.42,0.78,0.44,1.1,-3.17,-4.15,222,283,213,443,335
445,0.44,0.81,0.41,1.59,-2.08,-2.75,222,279,215,450,338
446,0.44,0.8,0.41,-1.16,-3.23,-1.28,223,297,210,451,334
447,0.44,0.8,0.42,-0.24,-3.3,-1.77,220,282,216,444,338
448,0.44,0.8,0.42,-0.24,-3.05,-1.71,220,281,214,445,336
449,0.44,0.79,0.42,-0.49,-3.72,-2.62,222,282,213,446,337
450,0.44,0.8,0.42,0.61,-2.62,-2.2,221,283,215,448,332
451,0.44,0.8,0.43,0.73,-2.56,-2.26,225,283,210,449,333
452,0.44,0.8,0.42,0.0,-3.11,-2.81,219,280,215,447,336
453,0.44,0.8,0.43,0.85,-3.78,-1.95,224,282,210,446,336
454,0.44,0.79,0.42,-0.55,-2.01,-2.44,231,284,209,450,337
455,0.43,0.79,0.42,1.1,-3.66,-3.23,222,284,209,457,334
456,0.44,0.79,0.41,0.55,-1.89,-2.62,220,281,213,451,330
457,0.44,0.8,0.41,1.16,-2.5,-2.44,218,284,210,449,338
458,0.44,0.8,0.41,-0.67,-2.44,-0.73,224,281,212,449,333
459,0.44,0.79,0.42,0.37,-4.58,-2.5,222,287,213,448,337
460,0.44,0.78,0.42,0.92,-3.23,-3.3,223,281,213,445,338
461,0.45,0.8,0.42,-1.4,-3.91,-2.5,224,281,215,445,337
462,0.45,0.81,0.42,0.12,-3.05,-2.75,222,281,220,449,338
463,0.44,0.81,0.44,-0.49,-0.73,-2.44,222,281,218,450,335
464,0.42,0.8,0.4,1.65,-2.44,-0.61,224,285,219,457,334
465,0.46,0.8,0.42,-1.65,-2.81,-2.32,220,281,217,446,335
466,0.44,0.8,0.43,0.06,-4.09,-1.46,222,282,216,445,337
467,0.43,0.79,0.41,1.59,-1.77,-2.5,222,280,216,442,336
468,0.42,0.79,0.42,-0.06,-2.62,-2.69,218,273,215,450,334
469,0.49,0.79,0.4,-4.15,0.0,1.34,225,284,213,449,336
470,0.47,0.78,0.43,0.79,-1.46,-0.49,223,283,216,448,334
471,0.46,0.79,0.44,1.59,-2.44,-6.35,222,284,220,443,333
472,0.45,0.78,0.4,1.95,-0.18,-1.04,222,282,217,446,340
473,0.42,0.81,0.42,0.06,-2.99,-2.26,224,280,216,446,336
474,0.44,0.79,0.41,-2.81,-3.54,-3.54,222,283,213,444,336
475,0.45,0.81,0.43,-0.55,-1.95,-3.78,221,280,215,444,336
476,0.44,0.8,0.39,-0.55,-2.87,-1.4,220,283,210,461,339
477,0.45,0.83,0.42,0.67,-2.44,-4.21,222,279,215,447,336
478,0.47,0.8,0.38,0.85,-1.71,-2.32,221,285,212,449,336
479,0.44,0.8,0.4,1.89,-3.48,-0.85,221,282,213,446,338
480,0.44,0.8,0.41,-2.26,-2.81,-2.26,220,277,214,448,337
481,0.48,0.78,0.39,-2.87,-3.72,1.46,221,280,216,451,336
482,0.45,0.78,0.43,1.71,1.16,0.43,221,285,216,449,336
483,0.46,0.76,0.42,2.69,0.18,-1.65,223,283,214,448,336
484,0.49,0.8,0.42,4.88,-2.62,-0.31,226,284,215,450,334
485,0.45,0.77,0.41,0.31,-0.31,-1.77,223,282,219,445,334
486,0.46,0.78,0.42,-3.23,-3.91,-6.53,223,277,218,448,334
487,0.47,0.82,0.44,2.44,-3.42,-2.32,220,282,212,448,335
488,0.47,0.77,0.46,4.03,-2.5,-3.91,217,284,213,446,334
489,0.46,0.75,0.44,1.34,-3.66,-3.6,222,278,214,446,336
490,0.49,0.76,0.46,-0.79,-3.23,-3.66,221,281,214,446,330
491,0.47,0.75,0.44,1.53,-4.64,-1.1,223,285,209,448,331
492,0.5,0.77,0.42,3.11,-0.73,1.53,222,283,216,449,339
493,0.51,0.79,0.41,9.52,-1.22,-5.07,220,280,214,445,334
494,0.51,0.78,0.41,-1.71,-2.56,-2.44,222,281,214,446,338
495,0.5,0.76,0.41,0.0,-3.36,-2.56,220,283,213,446,336
496,0.49,0.76,0.43,-0.92,-2.93,-3.3,225,283,215,446,337
497,0.48,0.77,0.43,0.73,-0.37,-3.36,222,283,216,445,339
498,0.49,0.76,0.43,-1.71,-4.46,-1.53,224,284,215,448,336
499,0.49,0.77,0.43,-0.31,-3.6,-0.18,223,297,216,446,332
500,0.49,0.76,0.44,-0.24,-1.53,-2.69,221,280,229,446,336
501,0.48,0.76,0.44,1.59,-7.45,-2.75,221,280,217,443,336
502,0.46,0.76,0.44,0.12,-4.33,-5.0,226,284,211,445,333
503,0.51,0.81,0.09,-3.85,0.49,-6.41,215,270,183,444,305
504,0.54,0.88,0.12,-17.7,0.67,0.92,213,278,181,446,298
505,0.44,0.91,0.13,-8.54,-14.53,-16.48,209,275,185,443,308
506,0.39,0.89,0.17,-0.37,-11.9,-5.86,211,274,183,444,310
507,0.34,0.92,0.14,2.38,-1.95,-17.46,216,273,187,451,310
508,0.34,0.91,0.16,-3.72,-4.88,-2.87,210,270,187,441,307
509,0.27,0.98,0.17,-0.06,-5.43,1.28,215,272,187,447,312
510,0.3,0.88,0.13,4.27,-2.81,-6.04,213,264,187,437,313
511,0.25,0.99,0.13,4.09,2.87,-0.55,217,269,182,439,321
512,0.29,0.94,0.16,-1.4,-4.82,-2.26,212,269,175,442,324
513,0.28,0.95,0.16,2.99,-4.58,-4.09,215,267,182,447,327
514,0.33,1.02,0.12,4.46,-2.26,1.4,211,265,188,458,329
515,0.26,0.89,0.12,-1.4,-5.43,-2.14,215,265,177,450,328
516,0.24,0.93,0.14,-1.53,-3.97,-1.71,218,269,188,450,334
517,0.29,1.0,0.09,6.1,2.5,4.46,218,274,186,448,331
518,0.23,0.91,0.04,-2.99,-2.44,4.76,216,270,180,452,330
519,0.24,0.95,0.11,-0.31,-4.64,-3.6,215,265,194,456,334
520,0.25,0.96,0.07,1.89,-1.77,-1.65,218,270,190,452,329
521,0.29,0.94,0.09,-2.26,-2.56,-5.37,227,283,191,457,328
522,0.28,0.95,0.09,-6.9,-2.99,-2.08,236,273,191,458,328
523,0.3,0.96,0.11,3.11,-3.6,-2.93,215,276,194,455,328
524,0.29,0.99,0.14,-6.16,-0.73,-6.29,210,271,189,461,325
525,0.28,0.96,0.12,-1.22,-6.35,0.79,215,274,192,454,325
526,0.31,0.95,0.13,-0.37,-3.6,-0.24,217,271,187,451,324
527,0.29,0.93,0.12,4.15,-1.95,-0.43,218,270,194,459,329
528,0.31,0.92,0.13,-0.61,-0.12,2.5,217,273,188,451,328
529,0.29,0.94,0.14,-1.83,-4.7,-5.8,216,271,185,454,329
530,0.3,0.93,0.16,-2.69,-1.95,10.25,218,273,194,460,328
531,0.37,0.9,0.16,-1.28,-6.1,0.92,217,281,191,458,328
532,0.37,0.91,0.16,-3.17,-5.0,-2.01,217,273,190,458,327
533,0.35,0.94,0.17,2.75,-0.24,-3.42,220,276,181,453,329
534,0.34,0.94,0.15,2.2,-2.44,-4.94,217,270,196,457,326
535,0.37,0.91,0.12,1.83,-3.23,-1.53,218,265,188,458,327
536,0.34,0.93,0.13,2.93,-2.32,-0.06,228,271,190,460,329
537,0.36,0.93,0.14,1.22,-4.76,-4.64,220,273,195,458,328
538,0.35,0.92,0.15,-6.29,-1.1,-6.47,216,269,198,460,329
539,0.37,0.92,0.13,1.65,0.43,-8.67,218,275,195,462,330
540,0.36,0.92,0.13,1.16,-7.39,-3.3,216,266,187,462,331
541,0.37,0.92,0.16,-0.37,1.89,-0.67,219,275,192,452,330
542,0.41,0.93,0.13,6.59,-5.68,6.35,220,273,193,455,326
543,0.47,0.88,0.11,2.08,0.79,1.04,219,274,190,461,325
544,0.41,0.91,0.17,4.82,-3.17,-2.5,212,268,196,454,329
545,0.38,0.89,0.15,1.22,0.92,-10.8,219,275,193,455,328
546,0.4,0.91,0.14,-0.73,2.62,-5.43,221,262,191,455,326
547,0.4,0.91,0.13,3.36,-5.68,-7.51,219,271,198,456,331
548,0.37,0.91,0.15,6.53,-8.18,-6.59,218,271,189,464,328
549,0.39,0.95,0.15,4.52,-7.69,-6.9,218,274,200,460,329
550,0.37,0.96,0.12,4.52,-2.38,-2.56,217,274,191,456,330
551,0.33,0.92,0.1,-1.16,-3.66,0.92,216,270,195,461,330
552,0.34,0.93,0.11,8.97,-3.97,-1.22,220,272,196,459,328
553,0.35,0.93,0.1,-4.09,-2.14,0.31,220,276,185,453,330
554,0.35,0.94,0.12,2.93,-1.71,-4.39,219,271,194,449,333
555,0.37,0.93,0.09,-2.69,-2.32,-5.74,219,277,202,459,328
556,0.35,0.86,0.12,-0.98,-0.98,5.13,214,275,194,459,330
557,0.37,0.86,0.1,-3.42,1.1,-1.77,243,269,202,451,328
558,0.32,0.92,0.13,8.61,-0.79,-2.99,220,269,195,458,329
559,0.38,0.96,0.13,0.24,-4.58,-3.17,217,275,198,453,329
560,0.31,0.88,0.09,-5.86,-5.25,-1.95,213,268,199,457,331
561,0.32,0.94,0.1,-0.73,-4.64,-1.83,219,271,198,456,328
562,0.32,0.9,0.11,-7.93,-2.38,-3.36,218,275,198,461,320
563,0.32,0.94,0.11,-2.08,-0.67,9.58,214,274,201,455,329
564,0.31,0.93,0.18,13.18,-0.73,-7.69,218,270,201,455,325
565,0.3,0.92,0.16,-3.78,-1.53,2.32,228,277,207,461,332
566,0.26,0.9,0.13,0.85,1.71,-5.19,218,277,198,458,332
567,0.31,0.93,0.19,3.78,-8.61,5.49,217,279,193,462,331
568,0.25,0.96,0.16,-0.67,-4.27,-4.76,221,277,200,459,332
569,0.31,0.95,0.15,0.37,-6.04,-3.42,218,279,196,450,330
570,0.31,0.93,0.14,-0.24,-2.75,-0.98,218,278,205,453,330
571,0.33,0.93,0.15,-4.52,-4.82,-3.85,217,275,206,455,329
572,0.33,0.94,0.14,2.38,0.37,-2.75,220,279,199,456,332
573,0.31,0.95,0.15,1.53,-1.59,-3.23,218,271,200,458,333
574,0.31,0.92,0.12,1.53,-5.19,-2.38,217,278,202,454,331
575,0.32,0.94,0.13,-1.28,-4.94,-2.5,219,276,203,451,334
576,0.21,0.93,0.1,7.14,-12.76,-11.78,221,275,204,450,326
577,0.25,0.95,0.13,-2.38,-1.53,-3.3,221,272,203,455,331
578,0.24,0.95,0.11,-2.81,-7.08,-3.6,221,272,201,460,334
579,0.3,0.97,0.09,2.62,-4.09,-3.6,219,274,199,457,332
580,0.28,0.93,0.08,-3.54,-2.93,-3.78,220,280,198,456,334
581,0.3,0.97,0.09,3.66,-2.32,1.83,218,277,203,453,331
582,0.29,0.91,0.08,-1.65,-4.39,-0.67,209,277,205,460,332
583,0.31,0.95,0.09,-4.88,-4.94,1.34,220,275,199,457,333
584,0.28,0.94,0.1,-2.2,-1.71,-16.85,220,277,197,455,333
585,0.31,0.93,0.11,-0.79,-3.78,-3.36,220,278,198,459,332
586,0.25,0.92,0.14,0.85,1.34,-1.71,219,270,205,454,332
587,0.28,0.95,0.14,3.85,0.49,3.11,220,280,203,456,332
588,0.33,0.93,0.14,3.66,-4.39,3.36,218,281,207,463,332
589,0.3,0.96,0.14,1.16,-2.62,-4.33,221,272,205,462,334
590,0.33,0.93,0.12,1.04,-1.71,-2.44,220,275,201,455,332
591,0.33,0.93,0.14,0.73,-5.07,-0.79,217,280,204,457,332
592,0.33,0.92,0.13,-2.5,-3.05,-1.46,219,278,203,468,331
593,0.3,0.94,0.14,2.93,-1.22,-0.31,220,272,204,453,331
594,0.32,0.91,0.12,-2.75,-2.99,0.43,217,280,209,455,332
595,0.31,0.93,0.15,0.12,-5.25,-1.16,217,277,199,455,331
596,0.31,0.93,0.14,1.04,-2.5,-2.08,218,281,208,453,332
597,0.34,0.91,0.13,1.22,-7.93,0.61,219,279,199,458,332
598,0.31,0.94,0.13,0.37,-1.53,-5.13,221,279,203,455,338
599,0.32,0.94,0.13,2.14,-0.67,-1.34,222,275,200,458,332
600,0.3,0.93,0.14,1.04,-1.16,0.0,227,275,201,451,332
601,0.33,0.93,0.13,-0.79,-4.39,-2.56,226,278,202,454,332
602,0.32,0.94,0.14,1.71,-2.14,-2.69,218,280,207,456,332
603,0.33,0.96,0.11,-2.32,-2.38,-1.89,221,278,206,457,329
604,0.32,0.94,0.12,1.28,-5.68,-3.48,220,275,201,453,336
605,0.33,0.94,0.11,2.2,-0.37,-1.71,218,277,195,457,330
606,0.34,0.94,0.09,-0.55,-2.2,-0.18,218,278,194,446,337
607,0.31,0.92,0.12,-1.28,-2.14,-1.4,220,282,202,454,331
608,0.31,0.93,0.11,-3.85,-5.55,-2.87,222,276,201,455,333
609,0.3,0.93,0.12,-1.04,-3.05,-1.71,218,278,202,455,332
610,0.34,0.95,0.12,1.04,-4.58,-4.88,221,282,204,452,331
611,0.32,0.91,0.13,-2.38,-3.17,-3.66,221,282,208,465,335
612,0.29,0.94,0.15,1.46,-1.1,-2.99,221,278,204,456,332
613,0.25,0.93,0.14,-1.65,-2.14,-2.08,217,280,204,455,336
614,0.28,0.93,0.16,-2.56,-3.48,-1.77,221,278,202,450,332
615,0.26,0.91,0.15,0.18,-1.46,-8.73,218,277,197,447,327
616,0.29,0.95,0.15,1.1,-1.16,0.12,223,279,207,450,332
617,0.26,0.97,0.17,-0.73,-1.1,-2.14,216,276,194,454,332
618,0.29,0.94,0.15,-1.4,-3.05,-2.2,221,277,202,459,335
619,0.3,0.92,0.15,-0.55,-6.84,-1.89,220,284,207,456,332
620,0.29,0.92,0.16,-1.28,-8.67,0.92,222,280,197,453,332
621,0.31,0.94,0.16,0.06,0.79,0.79,216,278,195,459,331
622,0.34,0.94,0.16,-2.14,-3.36,5.0,218,281,205,459,335
623,0.37,0.9,0.17,-1.16,-2.87,-2.75,218,277,209,455,332
624,0.37,0.9,0.2,-3.6,0.55,-3.6,219,270,208,456,334
625,0.41,0.92,0.17,2.44,-2.14,-1.28,219,271,207,450,333
626,0.44,0.91,0.19,1.04,0.43,-3.78,218,277,197,454,324
627,0.39,0.92,0.21,2.38,-1.4,-4.15,220,280,204,458,332
628,0.41,0.92,0.19,1.04,-2.2,-2.14,212,277,203,455,335
629,0.44,0.91,0.18,-2.08,-5.74,1.71,215,278,207,450,329
630,0.46,0.89,0.19,3.23,-0.31,-0.85,219,279,204,455,333
631,0.5,0.86,0.18,-3.42,-3.17,0.24,220,278,203,458,334
632,0.5,0.84,0.23,-3.85,-3.48,-3.42,214,276,205,448,333
633,0.49,0.78,0.26,-2.08,-3.97,4.15,220,277,203,451,332
634,0.45,0.77,0.26,-8.61,-6.71,3.85,220,278,212,441,332
635,0.56,0.84,0.24,1.59,-0.79,-6.96,219,282,202,446,330
636,0.52,0.79,0.23,0.12,-2.99,-0.18,219,274,208,452,333
637,0.54,0.82,0.24,-3.54,-1.71,-5.8,220,280,204,458,331
638,0.5,0.84,0.28,1.95,-3.97,-2.26,224,281,202,452,332
639,0.54,0.75,0.24,3.66,-0.92,-4.46,217,279,204,446,334
640,0.56,0.86,0.23,3.97,-1.46,-12.02,212,272,211,443,330
641,0.51,0.89,0.25,7.51,-2.32,-5.31,217,261,209,448,331
642,0.49,0.85,0.22,1.34,-2.5,-0.85,216,278,204,451,331
643,0.53,0.85,0.25,-3.17,-0.31,-1.1,220,282,205,453,320
644,0.55,0.75,0.22,-1.34,-13.73,2.87,220,279,198,450,330
645,0.57,0.79,0.21,-0.37,-7.75,2.2,221,278,209,452,329
646,0.52,0.81,0.21,-3.78,-5.43,-1.95,219,278,200,450,331
647,0.62,0.82,0.17,-2.08,-7.14,-2.08,221,279,208,450,332
648,0.61,0.79,0.17,-2.08,-13.67,12.94,218,275,204,455,328
649,0.61,0.82,0.18,1.34,-3.54,-10.38,221,279,209,450,328
650,0.56,0.81,0.17,-6.71,3.3,-10.74,220,276,204,451,328
651,0.55,0.83,0.18,0.0,0.49,-0.24,221,279,204,451,328
652,0.53,0.85,0.22,-3.05,-6.9,-4.64,217,278,205,452,333
653,0.49,0.88,0.19,-0.37,-2.08,-10.56,219,278,200,452,333
654,0.44,0.82,0.26,-13.0,-8.24,-0.92,217,277,210,455,325
655,0.36,0.85,0.27,3.6,-1.89,-23.32,219,279,205,453,331
656,0.29,0.96,0.32,6.53,-22.83,-1.16,222,273,204,451,327
657,0.26,0.88,0.29,-11.05,-0.61,2.87,221,274,210,451,330
658,0.34,0.92,0.27,-6.1,-4.64,0.67,217,285,206,458,335
659,0.23,0.9,0.36,-4.15,-0.37,-1.1,217,281,194,454,332
660,0.29,0.87,0.35,-8.97,-4.03,-3.11,222,281,205,454,329
661,0.32,0.91,0.35,0.98,-3.54,-2.5,229,273,205,455,333
662,0.3,0.87,0.35,-3.91,-4.15,0.12,221,280,206,452,330
663,0.35,0.88,0.36,-3.17,-3.36,-1.77,222,283,202,455,333
664,0.33,0.89,0.38,-5.13,-7.2,-10.13,219,275,205,455,334
665,0.39,0.89,0.33,-2.5,-5.19,-4.21,211,280,208,454,331
666,0.36,0.87,0.37,0.73,-4.7,0.37,219,281,210,453,332
667,0.35,0.85,0.35,-0.18,-2.75,-2.14,222,281,203,452,332
668,0.36,0.88,0.35,-2.75,-3.42,-3.23,219,281,208,454,336
669,0.37,0.88,0.36,-2.2,-2.08,-6.47,217,280,208,457,332
670,0.34,0.88,0.37,0.79,-2.26,-2.26,221,280,206,453,334
671,0.36,0.86,0.37,1.83,-2.56,-3.97,221,275,205,453,330
672,0.34,0.86,0.36,-1.28,-3.11,-4.46,220,285,208,452,334
673,0.35,0.88,0.37,1.1,-2.99,-4.88,222,275,209,454,334
674,0.35,0.87,0.36,-0.98,-4.76,-3.48,221,280,209,452,338
675,0.34,0.89,0.35,-0.43,-2.32,-1.65,246,280,209,452,329
676,0.36,0.86,0.34,-1.04,-1.04,-2.32,254,284,209,455,336
677,0.34,0.85,0.35,1.59,-2.2,-1.34,217,281,211,455,335
678,0.29,0.85,0.36,-2.5,-1.65,0.55,225,280,202,450,328
679,0.32,0.87,0.36,0.31,-0.85,-1.89,221,279,207,455,333
680,0.33,0.89,0.35,-0.37,-3.42,-2.32,223,282,209,443,330
681,0.35,0.89,0.33,0.49,-1.04,-3.66,224,281,208,446,329
682,0.32,0.88,0.35,-0.37,-2.38,-1.22,222,283,212,450,331
683,0.34,0.88,0.34,2.5,-3.54,-3.78,221,285,206,446,329
684,0.36,0.86,0.33,0.67,-1.59,-0.73,225,281,203,450,329
685,0.33,0.87,0.33,2.87,-0.92,0.0,227,283,211,448,333
686,0.33,0.87,0.33,1.1,-4.46,-1.95,219,280,207,446,332
687,0.36,0.92,0.33,-1.83,-2.01,-3.6,261,279,208,446,324
688,0.35,0.92,0.34,1.71,-4.46,-4.21,219,279,206,448,332
689,0.35,0.87,0.32,4.03,-4.09,-3.42,218,282,211,453,331
690,0.34,0.87,0.29,-0.31,-2.26,-1.16,224,277,211,450,334
691,0.36,0.87,0.33,2.38,-4.15,-5.55,223,282,199,452,338
692,0.36,0.87,0.32,2.14,-4.21,-2.69,221,273,210,450,333
693,0.35,0.86,0.32,-1.34,-1.28,-2.75,222,275,208,449,334
694,0.39,0.9,0.33,2.38,-4.64,-5.43,220,282,210,453,334
695,0.37,0.88,0.32,-0.73,-0.98,-2.75,223,280,208,451,337
696,0.37,0.87,0.34,1.22,-2.81,-1.28,248,281,210,448,338
697,0.37,0.86,0.33,0.79,-3.3,-2.69,223,278,211,452,333
698,0.33,0.86,0.33,1.89,-3.36,-0.73,217,285,206,449,334
699,0.39,0.89,0.33,-0.79,-0.73,0.98,222,281,211,453,334
700,0.41,0.87,0.33,-2.62,0.67,0.55,217,282,210,450,329
701,0.42,0.85,0.36,-2.32,-6.71,-7.51,217,281,211,445,329
702,0.36,0.83,0.37,-1.95,-5.86,-6.41,218,279,210,450,329
703,0.4,0.92,0.32,2.26,2.01,-0.73,220,282,209,463,332
704,0.31,0.89,0.35,7.08,0.49,-1.95,217,279,218,457,336
705,0.39,0.81,0.38,-4.58,-7.32,-5.92,223,279,210,460,331
706,0.36,0.88,0.36,0.73,-3.05,-2.99,220,279,211,457,336
707,0.38,0.89,0.36,0.98,-1.65,-5.19,220,279,209,449,334
708,0.34,0.86,0.34,-1.04,-3.23,-1.34,221,279,212,453,335
709,0.32,0.89,0.39,-0.55,-5.43,-4.15,222,280,214,458,330
710,0.35,0.88,0.35,2.14,-3.48,-2.14,219,282,210,455,333
711,0.36,0.87,0.34,1.04,1.59,-3.36,219,279,213,460,335
712,0.32,0.87,0.34,-2.08,-2.5,-2.2,220,283,209,454,334
713,0.35,0.88,0.36,1.71,-2.44,-6.16,220,280,204,454,334
714,0.32,0.9,0.33,2.26,-1.22,-3.05,220,279,205,451,335
715,0.32,0.88,0.33,-2.2,-2.26,-1.28,221,280,210,455,334
716,0.31,0.87,0.34,-0.67,-2.81,-0.43,222,286,212,450,336
717,0.32,0.88,0.34,-0.98,-3.36,-1.83,215,282,213,451,343
718,0.33,0.89,0.33,0.12,-2.01,-1.22,220,279,210,450,327
719,0.33,0.87,0.33,1.59,-2.38,-1.04,223,280,212,444,336
720,0.34,0.88,0.32,1.65,-1.28,-2.75,223,283,212,448,336
721,0.34,0.85,0.34,-0.43,-2.69,1.1,223,279,209,452,334
722,0.37,0.82,0.33,-1.28,-0.55,2.01,221,282,211,449,336
723,0.36,0.86,0.32,-0.49,-5.19,-3.91,220,276,213,441,333
724,0.38,0.82,0.32,-4.46,-0.43,3.66,222,281,218,446,336
725,0.34,0.83,0.35,-2.87,-4.03,-1.46,223,284,207,445,335
726,0.37,0.83,0.34,1.1,-2.75,-1.4,221,282,211,449,334
727,0.38,0.89,0.37,0.67,2.32,1.22,224,274,208,446,335
728,0.43,0.92,0.3,5.8,-2.38,-3.17,219,283,212,449,330
729,0.42,0.84,0.33,-5.19,-5.43,0.06,219,278,204,448,335
730,0.41,0.85,0.35,-3.05,1.1,-3.91,223,279,209,447,329
731,0.39,0.86,0.33,1.71,-3.91,-2.87,221,273,208,445,333
732,0.39,0.86,0.33,1.46,0.06,-3.3,222,279,207,449,333
733,0.38,0.86,0.32,-0.43,-2.69,-1.71,222,285,208,451,327
734,0.4,0.87,0.34,-0.31,-3.91,-3.11,220,278,213,448,330
735,0.37,0.86,0.34,1.4,-2.2,-3.66,222,282,209,448,336
736,0.39,0.87,0.34,-0.55,-3.6,-2.56,222,276,223,444,334
737,0.38,0.86,0.33,-0.12,-2.69,-2.99,223,281,202,448,330
738,0.37,0.87,0.34,0.73,-0.98,-3.05,222,284,208,449,333
739,0.38,0.86,0.34,-0.61,-1.65,-2.81,220,281,204,445,331
740,0.39,0.87,0.33,2.5,-1.28,-2.38,221,283,212,444,331
741,0.41,0.88,0.32,0.85,-3.72,-0.98,221,280,211,450,331
742,0.4,0.86,0.33,0.85,-5.07,-2.26,220,283,207,448,330
743,0.38,0.85,0.32,1.16,-3.91,-2.38,221,281,209,447,338
744,0.38,0.87,0.33,1.22,-2.81,-1.16,223,286,212,442,332
745,0.37,0.86,0.35,1.28,-1.53,-1.28,217,282,213,442,334
746,0.37,0.86,0.35,-1.22,-2.93,-3.3,220,281,210,448,331
747,0.38,0.86,0.33,0.37,-1.83,-2.5,221,275,204,453,334
748,0.37,0.88,0.34,6.35,-2.01,-2.14,218,282,211,454,334
749,0.37,0.86,0.33,0.49,-2.44,-1.83,220,276,209,454,335
750,0.32,0.82,0.35,2.75,-0.92,4.39,219,275,208,451,336
751,0.34,0.86,0.35,3.72,-4.58,-0.85,221,282,200,450,335
752,0.37,0.88,0.33,1.22,-2.69,-2.99,220,281,212,446,332
753,0.37,0.87,0.33,0.43,-3.05,-2.14,222,276,209,451,334
754,0.36,0.86,0.34,1.4,-5.43,-1.77,221,282,208,451,335
755,0.34,0.8,0.34,1.53,-5.49,-2.56,219,281,210,451,334
756,0.37,0.88,0.3,-0.55,-5.0,-6.04,219,279,213,453,331
757,0.37,0.9,0.3,-0.49,-2.5,-2.01,218,277,209,446,335
758,0.37,0.89,0.3,1.65,-1.71,-2.38,225,278,211,454,331
759,0.37,0.88,0.31,-1.22,-3.72,-2.38,224,281,215,460,335
760,0.4,0.9,0.32,1.71,-7.32,-3.6,216,281,212,451,332
761,0.38,0.92,0.33,0.37,-3.54,-4.27,222,286,216,453,336
762,0.33,0.87,0.34,-0.49,0.85,-5.13,220,281,218,450,335
763,0.37,0.87,0.33,1.89,-0.98,-3.48,224,279,215,449,333
764,0.37,0.88,0.34,0.85,-3.97,-1.1,217,278,215,449,331
765,0.35,0.85,0.37,-1.59,-4.7,-1.71,220,285,210,453,334
766,0.33,0.86,0.36,-1.95,-4.76,-3.78,223,283,209,450,333
767,0.35,0.84,0.35,-3.72,-5.55,-4.82,222,284,212,454,336
768,0.37,0.87,0.35,-1.22,-3.6,-4.33,220,285,209,455,336
769,0.37,0.86,0.35,-0.67,-3.36,-2.32,221,282,213,447,336
770,0.35,0.86,0.36,-3.72,-3.6,-1.4,221,277,208,450,338
771,0.35,0.87,0.36,-2.5,-2.56,-2.75,221,282,215,454,337
772,0.36,0.86,0.36,0.67,-2.2,-2.81,224,283,208,451,333
773,0.35,0.86,0.35,-1.53,-2.87,-0.98,224,281,212,452,336
774,0.34,0.86,0.36,-0.12,-2.5,-2.14,221,282,213,452,332
775,0.36,0.86,0.36,-0.06,-3.42,-2.62,225,280,198,452,339
776,0.34,0.86,0.36,1.04,-2.81,-1.89,221,283,215,448,337
777,0.35,0.86,0.36,0.61,-2.99,-0.61,221,285,213,452,335
778,0.36,0.84,0.36,0.49,-3.11,-2.93,223,278,206,454,333
779,0.34,0.87,0.37,0.24,0.24,0.06,223,283,211,452,329
780,0.42,0.89,0.35,3.97,-0.18,-3.72,224,277,211,451,331
781,0.37,0.88,0.36,1.4,-4.88,-3.6,217,277,212,448,332
782,0.36,0.86,0.36,2.62,-3.85,-1.89,221,278,218,453,337
783,0.36,0.87,0.35,0.73,-3.05,-3.11,223,277,207,460,334
784,0.36,0.86,0.36,0.24,-1.89,-3.17,223,277,216,453,334
785,0.35,0.86,0.34,0.67,-1.71,-1.22,225,277,212,453,333
786,0.34,0.86,0.36,0.73,-6.65,-2.93,225,280,214,454,334
787,0.32,0.85,0.38,-0.37,-4.52,-1.04,219,278,219,456,329
788,0.34,0.86,0.34,-0.06,-4.15,-2.56,225,280,209,448,336
789,0.36,0.86,0.35,-2.93,-5.0,-2.62,219,278,216,452,335
790,0.34,0.85,0.34,-0.18,-2.44,-3.17,224,284,210,455,330
791,0.34,0.87,0.36,-1.04,-2.5,-3.05,220,280,213,455,331
792,0.34,0.88,0.36,-0.92,-1.77,-2.2,220,281,213,453,335
793,0.32,0.86,0.36,2.26,-1.28,-0.92,223,282,217,452,336
794,0.33,0.86,0.36,0.43,-1.4,-2.5,220,283,213,451,334
795,0.35,0.88,0.34,1.59,-3.6,-1.53,222,280,209,452,337
796,0.35,0.87,0.35,0.24,-3.78,-1.46,220,281,219,446,336
797,0.36,0.89,0.35,-2.08,-2.5,-3.05,220,280,223,449,334
798,0.38,0.87,0.34,-2.56,-3.3,-2.26,232,283,201,451,337
799,0.35,0.84,0.36,2.38,-5.98,-2.14,220,282,210,451,330
800,0.34,0.85,0.36,0.85,-2.56,-2.87,223,280,209,455,337
801,0.33,0.88,0.35,-0.06,-3.6,-2.44,222,279,212,453,336
802,0.37,0.86,0.36,-0.73,-2.81,-2.81,222,281,213,455,333
803,0.38,0.89,0.34,4.09,0.55,-3.54,222,282,215,456,334
804,0.37,0.85,0.35,0.37,-6.29,-2.56,220,279,211,451,336
805,0.34,0.85,0.35,-0.67,-1.89,-1.46,222,279,214,452,337
806,0.36,0.88,0.35,-1.46,-4.03,-1.65,222,281,210,452,335
807,0.39,0.87,0.35,-0.43,-3.23,-2.14,223,278,212,453,331
808,0.36,0.86,0.35,0.31,-2.01,-2.56,221,281,212,450,331
809,0.37,0.8,0.37,1.34,-2.32,0.06,218,278,210,464,335
810,0.37,0.84,0.35,3.78,-1.16,-1.46,218,292,220,455,332
811,0.39,0.88,0.34,2.14,-2.99,-2.14,222,279,212,449,336
812,0.37,0.84,0.36,0.0,-4.7,-1.34,221,282,209,448,338
813,0.41,0.84,0.33,-0.31,-4.27,-0.37,225,279,209,456,331
814,0.42,0.86,0.34,-0.92,-3.23,-6.1,221,278,212,452,336
815,0.41,0.87,0.34,-0.67,-8.06,-4.15,223,280,213,453,333
816,0.41,0.84,0.33,-0.98,-2.5,-1.77,224,281,210,453,337
817,0.42,0.87,0.34,0.43,-3.72,-2.75,224,281,211,450,332
818,0.4,0.84,0.34,-0.31,-2.2,-1.53,220,280,210,451,335
819,0.38,0.87,0.34,2.99,-2.32,-2.81,223,279,219,448,336
820,0.39,0.86,0.33,4.64,-5.0,-0.79,222,281,215,451,335
821,0.4,0.88,0.33,3.42,-1.4,-3.17,221,279,214,450,335
822,0.39,0.86,0.32,1.83,-3.36,4.7,221,279,204,448,334
823,0.35,0.82,0.32,-1.77,-2.2,3.85,223,281,211,451,334
824,0.4,0.85,0.32,1.28,0.24,-1.71,216,278,209,456,334
825,0.4,0.87,0.34,0.06,-1.16,-2.87,221,280,213,456,333
826,0.41,0.86,0.33,3.3,-0.98,-6.65,219,282,210,454,340
827,0.46,0.9,0.34,2.93,-2.81,-3.85,226,277,214,455,336
828,0.37,0.82,0.35,1.89,-7.32,-2.87,222,282,202,453,336
829,0.42,0.84,0.34,0.67,-9.52,-2.5,218,277,207,458,337
830,0.43,0.85,0.35,1.04,-1.95,-6.96,223,276,214,455,333
831,0.42,0.87,0.36,0.43,0.85,-4.52,227,281,217,452,335
832,0.44,0.81,0.33,1.1,-3.54,-3.85,221,277,214,456,331
833,0.45,0.86,0.35,2.08,-3.6,-4.39,218,282,210,453,329
834,0.44,0.83,0.32,4.33,-0.98,-4.82,220,282,215,453,337
835,0.43,0.83,0.35,0.18,-2.14,-4.15,225,281,213,456,337
836,0.44,0.83,0.37,1.4,-4.27,-4.33,225,281,213,455,331
837,0.43,0.84,0.33,1.89,-5.13,0.67,225,281,215,462,334
838,0.46,0.83,0.34,-1.4,-2.26,-3.91,220,282,210,447,337
839,0.45,0.84,0.34,2.26,-2.81,0.49,221,279,214,450,333
840,0.43,0.82,0.34,1.95,-2.2,-2.08,221,283,214,446,336
841,0.45,0.86,0.34,-0.79,-3.36,0.12,220,283,214,448,340
842,0.45,0.82,0.36,1.16,-3.72,-3.54,220,280,210,452,335
843,0.43,0.82,0.33,-2.44,-0.12,-2.01,232,280,214,451,335
844,0.55,0.83,0.3,-2.26,-12.82,-1.4,220,280,209,451,333
845,0.47,0.84,0.34,-2.01,-6.96,-2.99,221,280,212,460,335
846,0.47,0.83,0.34,-0.61,-3.66,-3.85,221,285,211,456,328
847,0.42,0.85,0.36,2.14,0.24,-4.94,223,287,213,456,331
848,0.43,0.83,0.34,1.53,-2.69,-1.34,224,283,203,450,334
849,0.44,0.84,0.34,-1.95,-1.77,-3.11,223,280,217,449,337
850,0.41,0.83,0.36,0.24,-1.04,-3.54,218,278,214,452,336
851,0.36,0.83,0.37,-3.11,0.55,-4.82,221,280,210,449,335
852,0.41,0.84,0.36,-0.67,-4.64,-2.2,223,284,209,443,330
853,0.43,0.84,0.34,-0.12,-4.15,-1.22,223,276,211,449,332
854,0.41,0.84,0.38,0.12,-2.14,-2.56,223,282,213,449,333
855,0.41,0.84,0.36,-0.67,-2.44,-3.48,240,283,213,447,330
856,0.42,0.82,0.36,0.18,-4.03,-2.5,222,282,214,443,337
857,0.4,0.83,0.34,3.91,0.79,-3.05,218,280,211,451,335
858,0.39,0.86,0.35,6.23,1.04,-5.13,218,283,205,450,330
859,0.45,0.85,0.35,1.65,-4.76,0.37,218,280,215,450,336
860,0.44,0.86,0.33,1.77,-2.2,-1.89,221,282,211,447,335
861,0.42,0.86,0.33,-1.59,-0.92,-1.04,220,285,211,448,338
862,0.44,0.84,0.34,5.0,-4.27,-2.14,219,279,208,449,339
863,0.47,0.86,0.3,0.49,-10.56,1.83,219,282,216,451,334
864,0.47,0.82,0.32,-5.43,-4.52,-4.33,223,279,212,451,333
865,0.41,0.84,0.38,-4.58,-1.65,-4.27,223,281,210,451,332
866,0.47,0.8,0.37,0.67,-9.7,-7.45,222,282,211,449,334
867,0.46,0.79,0.34,-0.06,-5.25,-1.71,223,282,214,448,338
868,0.43,0.79,0.34,-3.23,-3.48,-0.85,226,282,216,449,334
869,0.48,0.85,0.35,-3.66,-1.77,-7.26,222,276,214,446,336
870,0.42,0.79,0.36,-0.85,2.08,-0.43,223,285,215,451,331
871,0.43,0.79,0.35,2.87,-2.44,2.56,222,283,215,448,336
872,0.46,0.94,0.4,4.09,0.12,-7.32,216,281,215,443,336
873,0.49,0.8,0.33,-2.99,-4.58,-6.71,217,280,212,455,335
874,0.45,0.82,0.39,9.28,-7.26,0.67,221,282,219,449,338
875,0.42,0.79,0.33,-2.99,-1.71,2.87,223,275,214,446,332
876,0.45,0.82,0.38,-2.08,-2.2,1.53,221,285,211,449,336
877,0.48,0.82,0.36,-1.89,-6.16,-2.38,225,280,212,451,330
878,0.48,0.81,0.36,-3.3,-1.59,2.08,221,285,209,448,339
879,0.49,0.77,0.36,-0.55,-6.71,0.24,224,278,212,446,339
880,0.48,0.78,0.37,-2.01,-1.89,0.18,220,275,214,451,336
881,0.51,0.79,0.37,-2.5,-2.99,-2.62,223,284,221,448,332
882,0.51,0.78,0.38,-1.16,-8.91,-2.44,220,285,212,448,337
883,0.5,0.74,0.39,-5.74,-4.27,2.75,221,284,212,451,336
884,0.52,0.76,0.44,-8.36,-1.71,-10.8,216,280,210,446,336
885,0.52,0.75,0.51,-13.79,-6.04,-1.83,222,283,216,446,338
886,0.49,0.73,0.51,-18.55,-9.46,2.99,223,281,215,444,336
887,0.5,0.71,0.53,-3.05,-5.0,-2.5,222,282,213,448,334
888,0.46,0.7,0.53,0.31,-0.55,-4.88,221,282,211,450,338
889,0.43,0.69,0.53,4.09,2.5,-8.91,227,288,213,446,339
890,0.42,0.71,0.54,2.99,-3.23,-0.37,223,284,212,443,337
891,0.43,0.73,0.54,-0.67,-5.19,-1.34,223,282,216,451,338
892,0.42,0.72,0.54,-1.65,-2.56,0.18,223,280,214,440,336
893,0.44,0.72,0.55,2.56,-4.58,-2.56,220,279,215,454,336
894,0.44,0.73,0.54,1.95,-3.85,-2.14,222,281,211,446,339
895,0.42,0.77,0.52,14.47,-3.17,-12.27,220,284,214,447,334
896,0.41,0.85,0.46,18.92,-6.71,-9.4,218,281,216,448,335
897,0.41,0.92,0.35,23.99,-3.05,-11.6,222,283,214,444,331
898,0.34,0.85,0.27,-11.11,-1.4,8.36,218,282,215,447,335
899,0.42,0.84,0.31,0.24,-6.16,0.73,221,279,215,442,338
900,0.41,0.86,0.31,-7.08,-5.92,-2.5,223,281,212,447,335
901,0.44,0.83,0.34,-3.85,-5.07,-3.36,220,281,213,448,331
902,0.43,0.84,0.36,-0.12,-1.28,-5.07,220,284,226,451,339
903,0.45,0.84,0.36,-2.08,-1.4,-1.89,220,283,215,448,337
904,0.42,0.82,0.37,0.0,-2.01,-1.71,221,283,212,449,329
905,0.43,0.83,0.39,2.32,-2.69,-2.26,222,281,213,448,328
906,0.43,0.83,0.38,1.46,-2.38,-2.93,223,285,217,449,336
907,0.43,0.82,0.36,0.49,-3.36,0.12,222,282,213,447,335
908,0.45,0.81,0.39,-4.15,-4.39,-0.79,223,284,215,446,335
909,0.47,0.77,0.34,3.23,-3.23,-1.34,222,281,216,449,336
910,0.42,0.81,0.39,-0.61,-2.14,-3.91,219,282,216,438,333
911,0.41,0.8,0.39,-2.08,-1.53,-2.87,223,283,219,443,337
912,0.41,0.81,0.39,2.14,0.43,-3.85,222,282,212,445,335
913,0.42,0.82,0.4,0.43,-3.97,-0.98,220,285,218,446,332
914,0.44,0.84,0.4,2.01,-1.89,-2.69,221,281,218,449,336
915,0.43,0.84,0.41,-1.46,-2.5,0.12,224,285,218,441,332
916,0.4,0.79,0.4,-1.28,-2.99,-3.6,221,282,218,450,331
917,0.42,0.81,0.42,-2.44,-2.56,-4.15,221,283,211,446,334
918,0.42,0.82,0.41,1.4,-1.46,-1.34,221,279,215,450,335
919,0.42,0.81,0.42,-1.71,-1.77,-3.23,221,283,217,445,336
920,0.44,0.81,0.41,3.42,-2.08,-1.53,220,281,213,449,337
921,0.41,0.81,0.41,-0.61,-3.23,0.18,227,281,217,450,337
922,0.46,0.83,0.41,-0.55,-4.58,-1.65,221,280,214,449,335
923,0.45,0.81,0.43,0.55,-4.09,-2.93,222,282,219,445,334
924,0.45,0.81,0.43,-1.4,-4.03,-3.54,222,278,217,447,335
925,0.43,0.81,0.44,0.85,-0.85,-2.14,222,280,213,440,332
926,0.42,0.81,0.44,0.43,-3.05,-3.17,249,278,210,451,338
927,0.43,0.81,0.43,-0.43,-3.17,-2.44,222,281,217,450,335
928,0.42,0.82,0.43,-0.61,-1.53,-2.69,220,277,213,449,337
929,0.41,0.8,0.42,0.43,-2.75,-2.81,222,280,210,445,338
930,0.41,0.81,0.43,0.49,-1.83,-1.59,223,283,215,446,338
931,0.39,0.79,0.43,0.55,-5.07,-2.69,226,281,210,447,337
932,0.42,0.79,0.42,-0.37,-3.66,-2.69,223,280,215,445,333
933,0.41,0.8,0.43,0.49,-5.07,-4.15,223,280,212,445,343
934,0.42,0.8,0.42,0.61,-3.36,-2.44,221,283,208,448,335
935,0.41,0.81,0.44,1.1,-3.42,-2.38,222,285,209,446,337
936,0.42,0.81,0.43,-0.37,-1.77,-2.5,218,281,208,444,333
937,0.44,0.8,0.43,0.85,-2.87,-2.14,221,281,215,441,336
938,0.42,0.8,0.44,1.4,-2.56,-2.99,223,281,215,453,336
939,0.42,0.79,0.43,-0.98,-2.93,-2.62,221,284,213,442,336
940,0.45,0.79,0.42,2.32,-6.41,-3.72,221,280,220,446,337
941,0.44,0.8,0.42,1.59,-2.08,-2.08,224,281,222,450,332
942,0.44,0.79,0.43,0.67,-3.23,-3.42,222,277,215,446,331
943,0.44,0.8,0.42,-0.31,-3.3,-1.71,224,282,214,442,337
944,0.43,0.79,0.42,1.04,-2.08,-2.5,221,281,218,447,328
945,0.46,0.79,0.43,0.49,-4.03,-1.59,222,281,215,444,334
946,0.42,0.79,0.42,-0.49,-2.14,-2.08,223,282,216,449,335
947,0.42,0.78,0.44,1.1,-3.17,-4.15,222,283,213,443,335
948,0.44,0.81,0.41,1.59,-2.08,-2.75,222,279,215,450,338
949,0.44,0.8,0.41,-1.16,-3.23,-1.28,223,297,210,451,334
950,0.44,0.8,0.42,-0.24,-3.3,-1.77,220,282,216,444,338
951,0.44,0.8,0.42,-0.24,-3.05,-1.71,220,281,214,445,336
952,0.44,0.79,0.42,-0.49,-3.72,-2.62,222,282,213,446,337
953,0.44,0.8,0.42,0.61,-2.62,-2.2,221,283,215,448,332
954,0.44,0.8,0.43,0.73,-2.56,-2.26,225,283,210,449,333
955,0.44,0.8,0.42,0.0,-3.11,-2.81,219,280,215,447,336
956,0.44,0.8,0.43,0.85,-3.78,-1.95,224,282,210,446,336
957,0.44,0.79,0.42,-0.55,-2.01,-2.44,231,284,209,450,337
958,0.43,0.79,0.42,1.1,-3.66,-3.23,222,284,209,457,334
959,0.44,0.79,0.41,0.55,-1.89,-2.62,220,281,213,451,330
960,0.44,0.8,0.41,1.16,-2.5,-2.44,218,284,210,449,338
961,0.44,0.8,0.41,-0.67,-2.44,-0.73,224,281,212,449,333
962,0.44,0.79,0.42,0.37,-4.58,-2.5,222,287,213,448,337
963,0.44,0.78,0.42,0.92,-3.23,-3.3,223,281,213,445,338
964,0.45,0.8,0.42,-1.4,-3.91,-2.5,224,281,215,445,337
965,0.45,0.81,0.42,0.12,-3.05,-2.75,222,281,220,449,338
966,0.44,0.81,0.44,-0.49,-0.73,-2.44,222,281,218,450,335
967,0.42,0.8,0.4,1.65,-2.44,-0.61,224,285,219,457,334
968,0.46,0.8,0.42,-1.65,-2.81,-2.32,220,281,217,446,335
969,0.44,0.8,0.43,0.06,-4.09,-1.46,222,282,216,445,337
970,0.43,0.79,0.41,1.59,-1.77,-2.5,222,280,216,442,336
971,0.42,0.79,0.42,-0.06,-2.62,-2.69,218,273,215,450,334
972,0.49,0.79,0.4,-4.15,0.0,1.34,225,284,213,449,336
973,0.47,0.78,0.43,0.79,-1.46,-0.49,223,283,216,448,334
974,0.46,0.79,0.44,1.59,-2.44,-6.35,222,284,220,443,333
975,0.45,0.78,0.4,1.95,-0.18,-1.04,222,282,217,446,340
976,0.42,0.81,0.42,0.06,-2.99,-2.26,224,280,216,446,336
977,0.44,0.79,0.41,-2.81,-3.54,-3.54,222,283,213,444,336
978,0.45,0.81,0.43,-0.55,-1.95,-3.78,221,280,215,444,336
979,0.44,0.8,0.39,-0.55,-2.87,-1.4,220,283,210,461,339
980,0.45,0.83,0.42,0.67,-2.44,-4.21,222,279,215,447,336
981,0.47,0.8,0.38,0.85,-1.71,-2.32,221,285,212,449,336
982,0.44,0.8,0.4,1.89,-3.48,-0.85,221,282,213,446,338
983,0.44,0.8,0.41,-2.26,-2.81,-2.26,220,277,214,448,337
984,0.48,0.78,0.39,-2.87,-3.72,1.46,221,280,216,451,336
985,0.45,0.78,0.43,1.71,1.16,0.43,221,285,216,449,336
986,0.46,0.76,0.42,2.69,0.18,-1.65,223,283,214,448,336
987,0.49,0.8,0.42,4.88,-2.62,-0.31,226,284,215,450,334
988,0.45,0.77,0.41,0.31,-0.31,-1.77,223,282,219,445,334
989,0.46,0.78,0.42,-3.23,-3.91,-6.53,223,277,218,448,334
990,0.47,0.82,0.44,2.44,-3.42,-2.32,220,282,212,448,335
991,0.47,0.77,0.46,4.03,-2.5,-3.91,217,284,213,446,334
992,0.46,0.75,0.44,1.34,-3.66,-3.6,222,278,214,446,336
993,0.49,0.76,0.46,-0.79,-3.23,-3.66,221,281,214,446,330
994,0.47,0.75,0.44,1.53,-4.64,-1.1,223,285,209,448,331
995,0.5,0.77,0.42,3.11,-0.73,1.53,222,283,216,449,339
996,0.51,0.79,0.41,9.52,-1.22,-5.07,220,280,214,445,334
997,0.51,0.78,0.41,-1.71,-2.56,-2.44,222,281,214,446,338
998,0.5,0.76,0.41,0.0,-3.36,-2.56,220,283,213,446,336
999,0.49,0.76,0.43,-0.92,-2.93,-3.3,225,283,215,446,337
1000,0.48,0.77,0.43,0.73,-0.37,-3.36,222,283,216,445,339
1001,0.49,0.76,0.43,-1.71,-4.46,-1.53,224,284,215,448,336
1002,0.49,0.77,0.43,-0.31,-3.6,-0.18,223,297,216,446,332
1003,0.49,0.76,0.44,-0.24,-1.53,-2.69,221,280,229,446,336
1004,0.48,0.76,0.44,1.59,-7.45,-2.75,221,280,217,443,336
1005,0.46,0.76,0.44,0.12,-4.33,-5.0,226,284,211,445,333
1006,0.51,0.81,0.09,-3.85,0.49,-6.41,215,270,183,444,305
1007,0.54,0.88,0.12,-17.7,0.67,0.92,213,278,181,446,298
1008,0.44,0.91,0.13,-8.54,-14.53,-16.48,209,275,185,443,308
1009,0.39,0.89,0.17,-0.37,-11.9,-5.86,211,274,183,444,310
1010,0.34,0.92,0.14,2.38,-1.95,-17.46,216,273,187,451,310
1011,0.34,0.91,0.16,-3.72,-4.88,-2.87,210,270,187,441,307
1012,0.27,0.98,0.17,-0.06,-5.43,1.28,215,272,187,447,312
1013,0.3,0.88,0.13,4.27,-2.81,-6.04,213,264,187,437,313
1014,0.25,0.99,0.13,4.09,2.87,-0.55,217,269,182,439,321
1015,0.29,0.94,0.16,-1.4,-4.82,-2.26,212,269,175,442,324
1016,0.28,0.95,0.16,2.99,-4.58,-4.09,215,267,182,447,327
1017,0.33,1.02,0.12,4.46,-2.26,1.4,211,265,188,458,329
1018,0.26,0.89,0.12,-1.4,-5.43,-2.14,215,265,177,450,328
1019,0.24,0.93,0.14,-1.53,-3.97,-1.71,218,269,188,450,334
1020,0.29,1.0,0.09,6.1,2.5,4.46,218,274,186,448,331
1021,0.23,0.91,0.04,-2.99,-2.44,4.76,216,270,180,452,330
1022,0.24,0.95,0.11,-0.31,-4.64,-3.6,215,265,194,456,334
1023,0.25,0.96,0.07,1.89,-1.77,-1.65,218,270,190,452,329
1024,0.29,0.94,0.09,-2.26,-2.56,-5.37,227,283,191,457,328
1025,0.28,0.95,0.09,-6.9,-2.99,-2.08,236,273,191,458,328
1026,0.3,0.96,0.11,3.11,-3.6,-2.93,215,276,194,455,328
1027,0.29,0.99,0.14,-6.16,-0.73,-6.29,210,271,189,461,325
1028,0.28,0.96,0.12,-1.22,-6.35,0.79,215,274,192,454,325
1029,0.31,0.95,0.13,-0.37,-3.6,-0.24,217,271,187,451,324
1030,0.29,0.93,0.12,4.15,-1.95,-0.43,218,270,194,459,329
1031,0.31,0.92,0.13,-0.61,-0.12,2.5,217,273,188,451,328
1032,0.29,0.94,0.14,-1.83,-4.7,-5.8,216,271,185,454,329
1033,0.3,0.93,0.16,-2.69,-1.95,10.25,218,273,194,460,328
1034,0.37,0.9,0.16,-1.28,-6.1,0.92,217,281,191,458,328
1035,0.37,0.91,0.16,-3.17,-5.0,-2.01,217,273,190,458,327
1036,0.35,0.94,0.17,2.75,-0.24,-3.42,220,276,181,453,329
1037,0.34,0.94,0.15,2.2,-2.44,-4.94,217,270,196,457,326
1038,0.37,0.91,0.12,1.83,-3.23,-1.53,218,265,188,458,327
1039,0.34,0.93,0.13,2.93,-2.32,-0.06,228,271,190,460,329
1040,0.36,0.93,0.14,1.22,-4.76,-4.64,220,273,195,458,328
1041,0.35,0.92,0.15,-6.29,-1.1,-6.47,216,269,198,460,329
1042,0.37,0.92,0.13,1.65,0.43,-8.67,218,275,195,462,330
1043,0.36,0.92,0.13,1.16,-7.39,-3.3,216,266,187,462,331
1044,0.37,0.92,0.16,-0.37,1.89,-0.67,219,275,192,452,330
1045,0.41,0.93,0.13,6.59,-5.68,6.35,220,273,193,455,326
1046,0.47,0.88,0.11,2.08,0.79,1.04,219,274,190,461,325
1047,0.41,0.91,0.17,4.82,-3.17,-2.5,212,268,196,454,329
1048,0.38,0.89,0.15,1.22,0.92,-10.8,219,275,193,455,328
1049,0.4,0.91,0.14,-0.73,2.62,-5.43,221,262,191,455,326
1050,0.4,0.91,0.13,3.36,-5.68,-7.51,219,271,198,456,331
1051,0.37,0.91,0.15,6.53,-8.18,-6.59,218,271,189,464,328
1052,0.39,0.95,0.15,4.52,-7.69,-6.9,218,274,200,460,329
1053,0.37,0.96,0.12,4.52,-2.38,-2.56,217,274,191,456,330
1054,0.33,0.92,0.1,-1.16,-3.66,0.92,216,270,195,461,330
1055,0.34,0.93,0.11,8.97,-3.97,-1.22,220,272,196,459,328
1056,0.35,0.93,0.1,-4.09,-2.14,0.31,220,276,185,453,330
1057,0.35,0.94,0.12,2.93,-1.71,-4.39,219,271,194,449,333
1058,0.37,0.93,0.09,-2.69,-2.32,-5.74,219,277,202,459,328
1059,0.35,0.86,0.12,-0.98,-0.98,5.13,214,275,194,459,330
1060,0.37,0.86,0.1,-3.42,1.1,-1.77,243,269,202,451,328
1061,0.32,0.92,0.13,8.61,-0.79,-2.99,220,269,195,458,329
1062,0.38,0.96,0.13,0.24,-4.58,-3.17,217,275,198,453,329
1063,0.31,0.88,0.09,-5.86,-5.25,-1.95,213,268,199,457,331
1064,0.32,0.94,0.1,-0.73,-4.64,-1.83,219,271,198,456,328
1065,0.32,0.9,0.11,-7.93,-2.38,-3.36,218,275,198,461,320
1066,0.32,0.94,0.11,-2.08,-0.67,9.58,214,274,201,455,329
1067,0.31,0.93,0.18,13.18,-0.73,-7.69,218,270,201,455,325
1068,0.3,0.92,0.16,-3.78,-1.53,2.32,228,277,207,461,332
1069,0.26,0.9,0.13,0.85,1.71,-5.19,218,277,198,458,332
1070,0.31,0.93,0.19,3.78,-8.61,5.49,217,279,193,462,331
1071,0.25,0.96,0.16,-0.67,-4.27,-4.76,221,277,200,459,332
1072,0.31,0.95,0.15,0.37,-6.04,-3.42,218,279,196,450,330
1073,0.31,0.93,0.14,-0.24,-2.75,-0.98,218,278,205,453,330
1074,0.33,0.93,0.15,-4.52,-4.82,-3.85,217,275,206,455,329
1075,0.33,0.94,0.14,2.38,0.37,-2.75,220,279,199,456,332
1076,0.31,0.95,0.15,1.53,-1.59,-3.23,218,271,200,458,333
1077,0.31,0.92,0.12,1.53,-5.19,-2.38,217,278,202,454,331
1078,0.32,0.94,0.13,-1.28,-4.94,-2.5,219,276,203,451,334
1079,0.21,0.93,0.1,7.14,-12.76,-11.78,221,275,204,450,326
1080,0.25,0.95,0.13,-2.38,-1.53,-3.3,221,272,203,455,331
1081,0.24,0.95,0.11,-2.81,-7.08,-3.6,221,272,201,460,334
1082,0.3,0.97,0.09,2.62,-4.09,-3.6,219,274,199,457,332
1083,0.28,0.93,0.08,-3.54,-2.93,-3.78,220,280,198,456,334
1084,0.3,0.97,0.09,3.66,-2.32,1.83,218,277,203,453,331
1085,0.29,0.91,0.08,-1.65,-4.39,-0.67,209,277,205,460,332
1086,0.31,0.95,0.09,-4.88,-4.94,1.34,220,275,199,457,333
1087,0.28,0.94,0.1,-2.2,-1.71,-16.85,220,277,197,455,333
1088,0.31,0.93,0.11,-0.79,-3.78,-3.36,220,278,198,459,332
1089,0.25,0.92,0.14,0.85,1.34,-1.71,219,270,205,454,332
1090,0.28,0.95,0.14,3.85,0.49,3.11,220,280,203,456,332
1091,0.33,0.93,0.14,3.66,-4.39,3.36,218,281,207,463,332
1092,0.3,0.96,0.14,1.16,-2.62,-4.33,221,272,205,462,334
1093,0.33,0.93,0.12,1.04,-1.71,-2.44,220,275,201,455,332
1094,0.33,0.93,0.14,0.73,-5.07,-0.79,217,280,204,457,332
1095,0.33,0.92,0.13,-2.5,-3.05,-1.46,219,278,203,468,331
1096,0.3,0.94,0.14,2.93,-1.22,-0.31,220,272,204,453,331
1097,0.32,0.91,0.12,-2.75,-2.99,0.43,217,280,209,455,332
1098,0.31,0.93,0.15,0.12,-5.25,-1.16,217,277,199,455,331
1099,0.31,0.93,0.14,1.04,-2.5,-2.08,218,281,208,453,332
1100,0.34,0.91,0.13,1.22,-7.93,0.61,219,279,199,458,332
1101,0.31,0.94,0.13,0.37,-1.53,-5.13,221,279,203,455,338
1102,0.32,0.94,0.13,2.14,-0.67,-1.34,222,275,200,458,332
1103,0.3,0.93,0.14,1.04,-1.16,0.0,227,275,201,451,332
1104,0.33,0.93,0.13,-0.79,-4.39,-2.56,226,278,202,454,332
1105,0.32,0.94,0.14,1.71,-2.14,-2.69,218,280,207,456,332
1106,0.33,0.96,0.11,-2.32,-2.38,-1.89,221,278,206,457,329
1107,0.32,0.94,0.12,1.28,-5.68,-3.48,220,275,201,453,336
1108,0.33,0.94,0.11,2.2,-0.37,-1.71,218,277,195,457,330
1109,0.34,0.94,0.09,-0.55,-2.2,-0.18,218,278,194,446,337
1110,0.31,0.92,0.12,-1.28,-2.14,-1.4,220,282,202,454,331
1111,0.31,0.93,0.11,-3.85,-5.55,-2.87,222,276,201,455,333
1112,0.3,0.93,0.12,-1.04,-3.05,-1.71,218,278,202,455,332
1113,0.34,0.95,0.12,1.04,-4.58,-4.88,221,282,204,452,331
1114,0.32,0.91,0.13,-2.38,-3.17,-3.66,221,282,208,465,335
1115,0.29,0.94,0.15,1.46,-1.1,-2.99,221,278,204,456,332
1116,0.25,0.93,0.14,-1.65,-2.14,-2.08,217,280,204,455,336
1117,0.28,0.93,0.16,-2.56,-3.48,-1.77,221,278,202,450,332
1118,0.26,0.91,0.15,0.18,-1.46,-8.73,218,277,197,447,327
1119,0.29,0.95,0.15,1.1,-1.16,0.12,223,279,207,450,332
1120,0.26,0.97,0.17,-0.73,-1.1,-2.14,216,276,194,454,332
1121,0.29,0.94,0.15,-1.4,-3.05,-2.2,221,277,202,459,335
1122,0.3,0.92,0.15,-0.55,-6.84,-1.89,220,284,207,456,332
1123,0.29,0.92,0.16,-1.28,-8.67,0.92,222,280,197,453,332
1124,0.31,0.94,0.16,0.06,0.79,0.79,216,278,195,459,331
1125,0.34,0.94,0.16,-2.14,-3.36,5.0,218,281,205,459,335
1126,0.37,0.9,0.17,-1.16,-2.87,-2.75,218,277,209,455,332
1127,0.37,0.9,0.2,-3.6,0.55,-3.6,219,270,208,456,334
1128,0.41,0.92,0.17,2.44,-2.14,-1.28,219,271,207,450,333
1129,0.44,0.91,0.19,1.04,0.43,-3.78,218,277,197,454,324
1130,0.39,0.92,0.21,2.38,-1.4,-4.15,220,280,204,458,332
1131,0.41,0.92,0.19,1.04,-2.2,-2.14,212,277,203,455,335
1132,0.44,0.91,0.18,-2.08,-5.74,1.71,215,278,207,450,329
1133,0.46,0.89,0.19,3.23,-0.31,-0.85,219,279,204,455,333
1134,0.5,0.86,0.18,-3.42,-3.17,0.24,220,278,203,458,334
1135,0.5,0.84,0.23,-3.85,-3.48,-3.42,214,276,205,448,333
1136,0.49,0.78,0.26,-2.08,-3.97,4.15,220,277,203,451,332
1137,0.45,0.77,0.26,-8.61,-6.71,3.85,220,278,212,441,332
1138,0.56,0.84,0.24,1.59,-0.79,-6.96,219,282,202,446,330
1139,0.52,0.79,0.23,0.12,-2.99,-0.18,219,274,208,452,333
1140,0.54,0.82,0.24,-3.54,-1.71,-5.8,220,280,204,458,331
1141,0.5,0.84,0.28,1.95,-3.97,-2.26,224,281,202,452,332
1142,0.54,0.75,0.24,3.66,-0.92,-4.46,217,279,204,446,334
1143,0.56,0.86,0.23,3.97,-1.46,-12.02,212,272,211,443,330
1144,0.51,0.89,0.25,7.51,-2.32,-5.31,217,261,209,448,331
1145,0.49,0.85,0.22,1.34,-2.5,-0.85,216,278,204,451,331
1146,0.53,0.85,0.25,-3.17,-0.31,-1.1,220,282,205,453,320
1147,0.55,0.75,0.22,-1.34,-13.73,2.87,220,279,198,450,330
1148,0.57,0.79,0.21,-0.37,-7.75,2.2,221,278,209,452,329
1149,0.52,0.81,0.21,-3.78,-5.43,-1.95,219,278,200,450,331
1150,0.62,0.82,0.17,-2.08,-7.14,-2.08,221,279,208,450,332
1151,0.61,0.79,0.17,-2.08,-13.67,12.94,218,275,204,455,328
1152,0.61,0.82,0.18,1.34,-3.54,-10.38,221,279,209,450,328
1153,0.56,0.81,0.17,-6.71,3.3,-10.74,220,276,204,451,328
1154,0.55,0.83,0.18,0.0,0.49,-0.24,221,279,204,451,328
1155,0.53,0.85,0.22,-3.05,-6.9,-4.64,217,278,205,452,333
1156,0.49,0.88,0.19,-0.37,-2.08,-10.56,219,278,200,452,333
1157,0.44,0.82,0.26,-13.0,-8.24,-0.92,217,277,210,455,325
1158,0.36,0.85,0.27,3.6,-1.89,-23.32,219,279,205,453,331
1159,0.29,0.96,0.32,6.53,-22.83,-1.16,222,273,204,451,327
1160,0.26,0.88,0.29,-11.05,-0.61,2.87,221,274,210,451,330
1161,0.34,0.92,0.27,-6.1,-4.64,0.67,217,285,206,458,335
1162,0.23,0.9,0.36,-4.15,-0.37,-1.1,217,281,194,454,332
1163,0.29,0.87,0.35,-8.97,-4.03,-3.11,222,281,205,454,329
1164,0.32,0.91,0.35,0.98,-3.54,-2.5,229,273,205,455,333
1165,0.3,0.87,0.35,-3.91,-4.15,0.12,221,280,206,452,330
1166,0.35,0.88,0.36,-3.17,-3.36,-1.77,222,283,202,455,333
1167,0.33,0.89,0.38,-5.13,-7.2,-10.13,219,275,205,455,334
1168,0.39,0.89,0.33,-2.5,-5.19,-4.21,211,280,208,454,331
1169,0.36,0.87,0.37,0.73,-4.7,0.37,219,281,210,453,332
1170,0.35,0.85,0.35,-0.18,-2.75,-2.14,222,281,203,452,332
1171,0.36,0.88,0.35,-2.75,-3.42,-3.23,219,281,208,454,336
1172,0.37,0.88,0.36,-2.2,-2.08,-6.47,217,280,208,457,332
1173,0.34,0.88,0.37,0.79,-2.26,-2.26,221,280,206,453,334
1174,0.36,0.86,0.37,1.83,-2.56,-3.97,221,275,205,453,330
1175,0.34,0.86,0.36,-1.28,-3.11,-4.46,220,285,208,452,334
1176,0.35,0.88,0.37,1.1,-2.99,-4.88,222,275,209,454,334
1177,0.35,0.87,0.36,-0.98,-4.76,-3.48,221,280,209,452,338
1178,0.34,0.89,0.35,-0.43,-2.32,-1.65,246,280,209,452,329
1179,0.36,0.86,0.34,-1.04,-1.04,-2.32,254,284,209,455,336
1180,0.34,0.85,0.35,1.59,-2.2,-1.34,217,281,211,455,335
1181,0.29,0.85,0.36,-2.5,-1.65,0.55,225,280,202,450,328
1182,0.32,0.87,0.36,0.31,-0.85,-1.89,221,279,207,455,333
1183,0.33,0.89,0.35,-0.37,-3.42,-2.32,223,282,209,443,330
1184,0.35,0.89,0.33,0.49,-1.04,-3.66,224,281,208,446,329
1185,0.32,0.88,0.35,-0.37,-2.38,-1.22,222,283,212,450,331
1186,0.34,0.88,0.34,2.5,-3.54,-3.78,221,285,206,446,329
1187,0.36,0.86,0.33,0.67,-1.59,-0.73,225,281,203,450,329
1188,0.33,0.87,0.33,2.87,-0.92,0.0,227,283,211,448,333
1189,0.33,0.87,0.33,1.1,-4.46,-1.95,219,280,207,446,332
1190,0.36,0.92,0.33,-1.83,-2.01,-3.6,261,279,208,446,324
1191,0.35,0.92,0.34,1.71,-4.46,-4.21,219,279,206,448,332
1192,0.35,0.87,0.32,4.03,-4.09,-3.42,218,282,211,453,331
1193,0.34,0.87,0.29,-0.31,-2.26,-1.16,224,277,211,450,334
1194,0.36,0.87,0.33,2.38,-4.15,-5.55,223,282,199,452,338
1195,0.36,0.87,0.32,2.14,-4.21,-2.69,221,273,210,450,333
1196,0.35,0.86,0.32,-1.34,-1.28,-2.75,222,275,208,449,334
1197,0.39,0.9,0.33,2.38,-4.64,-5.43,220,282,210,453,334
1198,0.37,0.88,0.32,-0.73,-0.98,-2.75,223,280,208,451,337
1199,0.37,0.87,0.34,1.22,-2.81,-1.28,248,281,210,448,338
1200,0.37,0.86,0.33,0.79,-3.3,-2.69,223,278,211,452,333
1201,0.33,0.86,0.33,1.89,-3.36,-0.73,217,285,206,449,334
1202,0.39,0.89,0.33,-0.79,-0.73,0.98,222,281,211,453,334
1203,0.41,0.87,0.33,-2.62,0.67,0.55,217,282,210,450,329
1204,0.42,0.85,0.36,-2.32,-6.71,-7.51,217,281,211,445,329
1205,0.36,0.83,0.37,-1.95,-5.86,-6.41,218,279,210,450,329
1206,0.4,0.92,0.32,2.26,2.01,-0.73,220,282,209,463,332
1207,0.31,0.89,0.35,7.08,0.49,-1.95,217,279,218,457,336
1208,0.39,0.81,0.38,-4.58,-7.32,-5.92,223,279,210,460,331
1209,0.36,0.88,0.36,0.73,-3.05,-2.99,220,279,211,457,336
1210,0.38,0.89,0.36,0.98,-1.65,-5.19,220,279,209,449,334
1211,0.34,0.86,0.34,-1.04,-3.23,-1.34,221,279,212,453,335
1212,0.32,0.89,0.39,-0.55,-5.43,-4.15,222,280,214,458,330
1213,0.35,0.88,0.35,2.14,-3.48,-2.14,219,282,210,455,333
1214,0.36,0.87,0.34,1.04,1.59,-3.36,219,279,213,460,335
1215,0.32,0.87,0.34,-2.08,-2.5,-2.2,220,283,209,454,334
1216,0.35,0.88,0.36,1.71,-2.44,-6.16,220,280,204,454,334
1217,0.32,0.9,0.33,2.26,-1.22,-3.05,220,279,205,451,335
1218,0.32,0.88,0.33,-2.2,-2.26,-1.28,221,280,210,455,334
1219,0.31,0.87,0.34,-0.67,-2.81,-0.43,222,286,212,450,336
1220,0.32,0.88,0.34,-0.98,-3.36,-1.83,215,282,213,451,343
1221,0.33,0.89,0.33,0.12,-2.01,-1.22,220,279,210,450,327
1222,0.33,0.87,0.33,1.59,-2.38,-1.04,223,280,212,444,336
1223,0.34,0.88,0.32,1.65,-1.28,-2.75,223,283,212,448,336
1224,0.34,0.85,0.34,-0.43,-2.69,1.1,223,279,209,452,334
1225,0.37,0.82,0.33,-1.28,-0.55,2.01,221,282,211,449,336
1226,0.36,0.86,0.32,-0.49,-5.19,-3.91,220,276,213,441,333
1227,0.38,0.82,0.32,-4.46,-0.43,3.66,222,281,218,446,336
1228,0.34,0.83,0.35,-2.87,-4.03,-1.46,223,284,207,445,335
1229,0.37,0.83,0.34,1.1,-2.75,-1.4,221,282,211,449,334
1230,0.38,0.89,0.37,0.67,2.32,1.22,224,274,208,446,335
1231,0.43,0.92,0.3,5.8,-2.38,-3.17,219,283,212,449,330
1232,0.42,0.84,0.33,-5.19,-5.43,0.06,219,278,204,448,335
1233,0.41,0.85,0.35,-3.05,1.1,-3.91,223,279,209,447,329
1234,0.39,0.86,0.33,1.71,-3.91,-2.87,221,273,208,445,333
1235,0.39,0.86,0.33,1.46,0.06,-3.3,222,279,207,449,333
1236,0.38,0.86,0.32,-0.43,-2.69,-1.71,222,285,208,451,327
1237,0.4,0.87,0.34,-0.31,-3.91,-3.11,220,278,213,448,330
1238,0.37,0.86,0.34,1.4,-2.2,-3.66,222,282,209,448,336
1239,0.39,0.87,0.34,-0.55,-3.6,-2.56,222,276,223,444,334
1240,0.38,0.86,0.33,-0.12,-2.69,-2.99,223,281,202,448,330
1241,0.37,0.87,0.34,0.73,-0.98,-3.05,222,284,208,449,333
1242,0.38,0.86,0.34,-0.61,-1.65,-2.81,220,281,204,445,331
1243,0.39,0.87,0.33,2.5,-1.28,-2.38,221,283,212,444,331
1244,0.41,0.88,0.32,0.85,-3.72,-0.98,221,280,211,450,331
1245,0.4,0.86,0.33,0.85,-5.07,-2.26,220,283,207,448,330
1246,0.38,0.85,0.32,1.16,-3.91,-2.38,221,281,209,447,338
1247,0.38,0.87,0.33,1.22,-2.81,-1.16,223,286,212,442,332
1248,0.37,0.86,0.35,1.28,-1.53,-1.28,217,282,213,442,334
1249,0.37,0.86,0.35,-1.22,-2.93,-3.3,220,281,210,448,331
1250,0.38,0.86,0.33,0.37,-1.83,-2.5,221,275,204,453,334
1251,0.37,0.88,0.34,6.35,-2.01,-2.14,218,282,211,454,334
1252,0.37,0.86,0.33,0.49,-2.44,-1.83,220,276,209,454,335
1253,0.32,0.82,0.35,2.75,-0.92,4.39,219,275,208,451,336
1254,0.34,0.86,0.35,3.72,-4.58,-0.85,221,282,200,450,335
1255,0.37,0.88,0.33,1.22,-2.69,-2.99,220,281,212,446,332
1256,0.37,0.87,0.33,0.43,-3.05,-2.14,222,276,209,451,334
1257,0.36,0.86,0.34,1.4,-5.43,-1.77,221,282,208,451,335
1258,0.34,0.8,0.34,1.53,-5.49,-2.56,219,281,210,451,334
1259,0.37,0.88,0.3,-0.55,-5.0,-6.04,219,279,213,453,331
1260,0.37,0.9,0.3,-0.49,-2.5,-2.01,218,277,209,446,335
1261,0.37,0.89,0.3,1.65,-1.71,-2.38,225,278,211,454,331
1262,0.37,0.88,0.31,-1.22,-3.72,-2.38,224,281,215,460,335
1263,0.4,0.9,0.32,1.71,-7.32,-3.6,216,281,212,451,332
1264,0.38,0.92,0.33,0.37,-3.54,-4.27,222,286,216,453,336
1265,0.33,0.87,0.34,-0.49,0.85,-5.13,220,281,218,450,335
1266,0.37,0.87,0.33,1.89,-0.98,-3.48,224,279,215,449,333
1267,0.37,0.88,0.34,0.85,-3.97,-1.1,217,278,215,449,331
1268,0.35,0.85,0.37,-1.59,-4.7,-1.71,220,285,210,453,334
1269,0.33,0.86,0.36,-1.95,-4.76,-3.78,223,283,209,450,333
1270,0.35,0.84,0.35,-3.72,-5.55,-4.82,222,284,212,454,336
1271,0.37,0.87,0.35,-1.22,-3.6,-4.33,220,285,209,455,336
1272,0.37,0.86,0.35,-0.67,-3.36,-2.32,221,282,213,447,336
1273,0.35,0.86,0.36,-3.72,-3.6,-1.4,221,277,208,450,338
1274,0.35,0.87,0.36,-2.5,-2.56,-2.75,221,282,215,454,337
1275,0.36,0.86,0.36,0.67,-2.2,-2.81,224,283,208,451,333
1276,0.35,0.86,0.35,-1.53,-2.87,-0.98,224,281,212,452,336
1277,0.34,0.86,0.36,-0.12,-2.5,-2.14,221,282,213,452,332
1278,0.36,0.86,0.36,-0.06,-3.42,-2.62,225,280,198,452,339
1279,0.34,0.86,0.36,1.04,-2.81,-1.89,221,283,215,448,337
1280,0.35,0.86,0.36,0.61,-2.99,-0.61,221,285,213,452,335
1281,0.36,0.84,0.36,0.49,-3.11,-2.93,223,278,206,454,333
1282,0.34,0.87,0.37,0.24,0.24,0.06,223,283,211,452,329
1283,0.42,0.89,0.35,3.97,-0.18,-3.72,224,277,211,451,331
1284,0.37,0.88,0.36,1.4,-4.88,-3.6,217,277,212,448,332
1285,0.36,0.86,0.36,2.62,-3.85,-1.89,221,278,218,453,337
1286,0.36,0.87,0.35,0.73,-3.05,-3.11,223,277,207,460,334
1287,0.36,0.86,0.36,0.24,-1.89,-3.17,223,277,216,453,334
1288,0.35,0.86,0.34,0.67,-1.71,-1.22,225,277,212,453,333
1289,0.34,0.86,0.36,0.73,-6.65,-2.93,225,280,214,454,334
1290,0.32,0.85,0.38,-0.37,-4.52,-1.04,219,278,219,456,329
1291,0.34,0.86,0.34,-0.06,-4.15,-2.56,225,280,209,448,336
1292,0.36,0.86,0.35,-2.93,-5.0,-2.62,219,278,216,452,335
1293,0.34,0.85,0.34,-0.18,-2.44,-3.17,224,284,210,455,330
1294,0.34,0.87,0.36,-1.04,-2.5,-3.05,220,280,213,455,331
1295,0.34,0.88,0.36,-0.92,-1.77,-2.2,220,281,213,453,335
1296,0.32,0.86,0.36,2.26,-1.28,-0.92,223,282,217,452,336
1297,0.33,0.86,0.36,0.43,-1.4,-2.5,220,283,213,451,334
1298,0.35,0.88,0.34,1.59,-3.6,-1.53,222,280,209,452,337
1299,0.35,0.87,0.35,0.24,-3.78,-1.46,220,281,219,446,336
1300,0.36,0.89,0.35,-2.08,-2.5,-3.05,220,280,223,449,334
1301,0.38,0.87,0.34,-2.56,-3.3,-2.26,232,283,201,451,337
1302,0.35,0.84,0.36,2.38,-5.98,-2.14,220,282,210,451,330
1303,0.34,0.85,0.36,0.85,-2.56,-2.87,223,280,209,455,337
1304,0.33,0.88,0.35,-0.06,-3.6,-2.44,222,279,212,453,336
1305,0.37,0.86,0.36,-0.73,-2.81,-2.81,222,281,213,455,333
1306,0.38,0.89,0.34,4.09,0.55,-3.54,222,282,215,456,334
1307,0.37,0.85,0.35,0.37,-6.29,-2.56,220,279,211,451,336
1308,0.34,0.85,0.35,-0.67,-1.89,-1.46,222,279,214,452,337
1309,0.36,0.88,0.35,-1.46,-4.03,-1.65,222,281,210,452,335
1310,0.39,0.87,0.35,-0.43,-3.23,-2.14,223,278,212,453,331
1311,0.36,0.86,0.35,0.31,-2.01,-2.56,221,281,212,450,331
1312,0.37,0.8,0.37,1.34,-2.32,0.06,218,278,210,464,335
1313,0.37,0.84,0.35,3.78,-1.16,-1.46,218,292,220,455,332
1314,0.39,0.88,0.34,2.14,-2.99,-2.14,222,279,212,449,336
1315,0.37,0.84,0.36,0.0,-4.7,-1.34,221,282,209,448,338
1316,0.41,0.84,0.33,-0.31,-4.27,-0.37,225,279,209,456,331
1317,0.42,0.86,0.34,-0.92,-3.23,-6.1,221,278,212,452,336
1318,0.41,0.87,0.34,-0.67,-8.06,-4.15,223,280,213,453,333
1319,0.41,0.84,0.33,-0.98,-2.5,-1.77,224,281,210,453,337
1320,0.42,0.87,0.34,0.43,-3.72,-2.75,224,281,211,450,332
1321,0.4,0.84,0.34,-0.31,-2.2,-1.53,220,280,210,451,335
1322,0.38,0.87,0.34,2.99,-2.32,-2.81,223,279,219,448,336
1323,0.39,0.86,0.33,4.64,-5.0,-0.79,222,281,215,451,335
1324,0.4,0.88,0.33,3.42,-1.4,-3.17,221,279,214,450,335
1325,0.39,0.86,0.32,1.83,-3.36,4.7,221,279,204,448,334
1326,0.35,0.82,0.32,-1.77,-2.2,3.85,223,281,211,451,334
1327,0.4,0.85,0.32,1.28,0.24,-1.71,216,278,209,456,334
1328,0.4,0.87,0.34,0.06,-1.16,-2.87,221,280,213,456,333
1329,0.41,0.86,0.33,3.3,-0.98,-6.65,219,282,210,454,340
1330,0.46,0.9,0.34,2.93,-2.81,-3.85,226,277,214,455,336
1331,0.37,0.82,0.35,1.89,-7.32,-2.87,222,282,202,453,336
1332,0.42,0.84,0.34,0.67,-9.52,-2.5,218,277,207,458,337
1333,0.43,0.85,0.35,1.04,-1.95,-6.96,223,276,214,455,333
1334,0.42,0.87,0.36,0.43,0.85,-4.52,227,281,217,452,335
1335,0.44,0.81,0.33,1.1,-3.54,-3.85,221,277,214,456,331
1336,0.45,0.86,0.35,2.08,-3.6,-4.39,218,282,210,453,329
1337,0.44,0.83,0.32,4.33,-0.98,-4.82,220,282,215,453,337
1338,0.43,0.83,0.35,0.18,-2.14,-4.15,225,281,213,456,337
1339,0.44,0.83,0.37,1.4,-4.27,-4.33,225,281,213,455,331
1340,0.43,0.84,0.33,1.89,-5.13,0.67,225,281,215,462,334
1341,0.46,0.83,0.34,-1.4,-2.26,-3.91,220,282,210,447,337
1342,0.45,0.84,0.34,2.26,-2.81,0.49,221,279,214,450,333
1343,0.43,0.82,0.34,1.95,-2.2,-2.08,221,283,214,446,336
1344,0.45,0.86,0.34,-0.79,-3.36,0.12,220,283,214,448,340
1345,0.45,0.82,0.36,1.16,-3.72,-3.54,220,280,210,452,335
1346,0.43,0.82,0.33,-2.44,-0.12,-2.01,232,280,214,451,335
1347,0.55,0.83,0.3,-2.26,-12.82,-1.4,220,280,209,451,333
1348,0.47,0.84,0.34,-2.01,-6.96,-2.99,221,280,212,460,335
1349,0.47,0.83,0.34,-0.61,-3.66,-3.85,221,285,211,456,328
1350,0.42,0.85,0.36,2.14,0.24,-4.94,223,287,213,456,331
1351,0.43,0.83,0.34,1.53,-2.69,-1.34,224,283,203,450,334
1352,0.44,0.84,0.34,-1.95,-1.77,-3.11,223,280,217,449,337
1353,0.41,0.83,0.36,0.24,-1.04,-3.54,218,278,214,452,336
1354,0.36,0.83,0.37,-3.11,0.55,-4.82,221,280,210,449,335
1355,0.41,0.84,0.36,-0.67,-4.64,-2.2,223,284,209,443,330
1356,0.43,0.84,0.34,-0.12,-4.15,-1.22,223,276,211,449,332
1357,0.41,0.84,0.38,0.12,-2.14,-2.56,223,282,213,449,333
1358,0.41,0.84,0.36,-0.67,-2.44,-3.48,240,283,213,447,330
1359,0.42,0.82,0.36,0.18,-4.03,-2.5,222,282,214,443,337
1360,0.4,0.83,0.34,3.91,0.79,-3.05,218,280,211,451,335
1361,0.39,0.86,0.35,6.23,1.04,-5.13,218,283,205,450,330
1362,0.45,0.85,0.35,1.65,-4.76,0.37,218,280,215,450,336
1363,0.44,0.86,0.33,1.77,-2.2,-1.89,221,282,211,447,335
1364,0.42,0.86,0.33,-1.59,-0.92,-1.04,220,285,211,448,338
1365,0.44,0.84,0.34,5.0,-4.27,-2.14,219,279,208,449,339
1366,0.47,0.86,0.3,0.49,-10.56,1.83,219,282,216,451,334
1367,0.47,0.82,0.32,-5.43,-4.52,-4.33,223,279,212,451,333
1368,0.41,0.84,0.38,-4.58,-1.65,-4.27,223,281,210,451,332
1369,0.47,0.8,0.37,0.67,-9.7,-7.45,222,282,211,449,334
1370,0.46,0.79,0.34,-0.06,-5.25,-1.71,223,282,214,448,338
1371,0.43,0.79,0.34,-3.23,-3.48,-0.85,226,282,216,449,334
1372,0.48,0.85,0.35,-3.66,-1.77,-7.26,222,276,214,446,336
1373,0.42,0.79,0.36,-0.85,2.08,-0.43,223,285,215,451,331
1374,0.43,0.79,0.35,2.87,-2.44,2.56,222,283,215,448,336
1375,0.46,0.94,0.4,4.09,0.12,-7.32,216,281,215,443,336
1376,0.49,0.8,0.33,-2.99,-4.58,-6.71,217,280,212,455,335
1377,0.45,0.82,0.39,9.28,-7.26,0.67,221,282,219,449,338
1378,0.42,0.79,0.33,-2.99,-1.71,2.87,223,275,214,446,332
1379,0.45,0.82,0.38,-2.08,-2.2,1.53,221,285,211,449,336
1380,0.48,0.82,0.36,-1.89,-6.16,-2.38,225,280,212,451,330
1381,0.48,0.81,0.36,-3.3,-1.59,2.08,221,285,209,448,339
1382,0.49,0.77,0.36,-0.55,-6.71,0.24,224,278,212,446,339
1383,0.48,0.78,0.37,-2.01,-1.89,0.18,220,275,214,451,336
1384,0.51,0.79,0.37,-2.5,-2.99,-2.62,223,284,221,448,332
1385,0.51,0.78,0.38,-1.16,-8.91,-2.44,220,285,212,448,337
1386,0.5,0.74,0.39,-5.74,-4.27,2.75,221,284,212,451,336
1387,0.52,0.76,0.44,-8.36,-1.71,-10.8,216,280,210,446,336
1388,0.52,0.75,0.51,-13.79,-6.04,-1.83,222,283,216,446,338
1389,0.49,0.73,0.51,-18.55,-9.46,2.99,223,281,215,444,336
1390,0.5,0.71,0.53,-3.05,-5.0,-2.5,222,282,213,448,334
1391,0.46,0.7,0.53,0.31,-0.55,-4.88,221,282,211,450,338
1392,0.43,0.69,0.53,4.09,2.5,-8.91,227,288,213,446,339
1393,0.42,0.71,0.54,2.99,-3.23,-0.37,223,284,212,443,337
1394,0.43,0.73,0.54,-0.67,-5.19,-1.34,223,282,216,451,338
1395,0.42,0.72,0.54,-1.65,-2.56,0.18,223,280,214,440,336
1396,0.44,0.72,0.55,2.56,-4.58,-2.56,220,279,215,454,336
1397,0.44,0.73,0.54,1.95,-3.85,-2.14,222,281,211,446,339
1398,0.42,0.77,0.52,14.47,-3.17,-12.27,220,284,214,447,334
1399,0.41,0.85,0.46,18.92,-6.71,-9.4,218,281,216,448,335
1400,0.41,0.92,0.35,23.99,-3.05,-11.6,222,283,214,444,331
1401,0.34,0.85,0.27,-11.11,-1.4,8.36,218,282,215,447,335
1402,0.42,0.84,0.31,0.24,-6.16,0.73,221,279,215,442,338
1403,0.41,0.86,0.31,-7.08,-5.92,-2.5,223,281,212,447,335
1404,0.44,0.83,0.34,-3.85,-5.07,-3.36,220,281,213,448,331
1405,0.43,0.84,0.36,-0.12,-1.28,-5.07,220,284,226,451,339
1406,0.45,0.84,0.36,-2.08,-1.4,-1.89,220,283,215,448,337
1407,0.42,0.82,0.37,0.0,-2.01,-1.71,221,283,212,449,329
1408,0.43,0.83,0.39,2.32,-2.69,-2.26,222,281,213,448,328
1409,0.43,0.83,0.38,1.46,-2.38,-2.93,223,285,217,449,336
1410,0.43,0.82,0.36,0.49,-3.36,0.12,222,282,213,447,335
1411,0.45,0.81,0.39,-4.15,-4.39,-0.79,223,284,215,446,335
1412,0.47,0.77,0.34,3.23,-3.23,-1.34,222,281,216,449,336
1413,0.42,0.81,0.39,-0.61,-2.14,-3.91,219,282,216,438,333
1414,0.41,0.8,0.39,-2.08,-1.53,-2.87,223,283,219,443,337
1415,0.41,0.81,0.39,2.14,0.43,-3.85,222,282,212,445,335
1416,0.42,0.82,0.4,0.43,-3.97,-0.98,220,285,218,446,332
1417,0.44,0.84,0.4,2.01,-1.89,-2.69,221,281,218,449,336
1418,0.43,0.84,0.41,-1.46,-2.5,0.12,224,285,218,441,332
1419,0.4,0.79,0.4,-1.28,-2.99,-3.6,221,282,218,450,331
1420,0.42,0.81,0.42,-2.44,-2.56,-4.15,221,283,211,446,334
1421,0.42,0.82,0.41,1.4,-1.46,-1.34,221,279,215,450,335
1422,0.42,0.81,0.42,-1.71,-1.77,-3.23,221,283,217,445,336
1423,0.44,0.81,0.41,3.42,-2.08,-1.53,220,281,213,449,337
1424,0.41,0.81,0.41,-0.61,-3.23,0.18,227,281,217,450,337
1425,0.46,0.83,0.41,-0.55,-4.58,-1.65,221,280,214,449,335
1426,0.45,0.81,0.43,0.55,-4.09,-2.93,222,282,219,445,334
1427,0.45,0.81,0.43,-1.4,-4.03,-3.54,222,278,217,447,335
1428,0.43,0.81,0.44,0.85,-0.85,-2.14,222,280,213,440,332
1429,0.42,0.81,0.44,0.43,-3.05,-3.17,249,278,210,451,338
1430,0.43,0.81,0.43,-0.43,-3.17,-2.44,222,281,217,450,335
1431,0.42,0.82,0.43,-0.61,-1.53,-2.69,220,277,213,449,337
1432,0.41,0.8,0.42,0.43,-2.75,-2.81,222,280,210,445,338
1433,0.41,0.81,0.43,0.49,-1.83,-1.59,223,283,215,446,338
1434,0.39,0.79,0.43,0.55,-5.07,-2.69,226,281,210,447,337
1435,0.42,0.79,0.42,-0.37,-3.66,-2.69,223,280,215,445,333
1436,0.41,0.8,0.43,0.49,-5.07,-4.15,223,280,212,445,343
1437,0.42,0.8,0.42,0.61,-3.36,-2.44,221,283,208,448,335
1438,0.41,0.81,0.44,1.1,-3.42,-2.38,222,285,209,446,337
1439,0.42,0.81,0.43,-0.37,-1.77,-2.5,218,281,208,444,333
1440,0.44,0.8,0.43,0.85,-2.87,-2.14,221,281,215,441,336
1441,0.42,0.8,0.44,1.4,-2.56,-2.99,223,281,215,453,336
1442,0.42,0.79,0.43,-0.98,-2.93,-2.62,221,284,213,442,336
1443,0.45,0.79,0.42,2.32,-6.41,-3.72,221,280,220,446,337
1444,0.44,0.8,0.42,1.59,-2.08,-2.08,224,281,222,450,332
1445,0.44,0.79,0.43,0.67,-3.23,-3.42,222,277,215,446,331
1446,0.44,0.8,0.42,-0.31,-3.3,-1.71,224,282,214,442,337
1447,0.43,0.79,0.42,1.04,-2.08,-2.5,221,281,218,447,328
1448,0.46,0.79,0.43,0.49,-4.03,-1.59,222,281,215,444,334
1449,0.42,0.79,0.42,-0.49,-2.14,-2.08,223,282,216,449,335
1450,0.42,0.78,0.44,1.1,-3.17,-4.15,222,283,213,443,335
1451,0.44,0.81,0.41,1.59,-2.08,-2.75,222,279,215,450,338
1452,0.44,0.8,0.41,-1.16,-3.23,-1.28,223,297,210,451,334
1453,0.44,0.8,0.42,-0.24,-3.3,-1.77,220,282,216,444,338
1454,0.44,0.8,0.42,-0.24,-3.05,-1.71,220,281,214,445,336
1455,0.44,0.79,0.42,-0.49,-3.72,-2.62,222,282,213,446,337
1456,0.44,0.8,0.42,0.61,-2.62,-2.2,221,283,215,448,332
1457,0.44,0.8,0.43,0.73,-2.56,-2.26,225,283,210,449,333
1458,0.44,0.8,0.42,0.0,-3.11,-2.81,219,280,215,447,336
1459,0.44,0.8,0.43,0.85,-3.78,-1.95,224,282,210,446,336
1460,0.44,0.79,0.42,-0.55,-2.01,-2.44,231,284,209,450,337
1461,0.43,0.79,0.42,1.1,-3.66,-3.23,222,284,209,457,334
1462,0.44,0.79,0.41,0.55,-1.89,-2.62,220,281,213,451,330
1463,0.44,0.8,0.41,1.16,-2.5,-2.44,218,284,210,449,338
1464,0.44,0.8,0.41,-0.67,-2.44,-0.73,224,281,212,449,333
1465,0.44,0.79,0.42,0.37,-4.58,-2.5,222,287,213,448,337
1466,0.44,0.78,0.42,0.92,-3.23,-3.3,223,281,213,445,338
1467,0.45,0.8,0.42,-1.4,-3.91,-2.5,224,281,215,445,337
1468,0.45,0.81,0.42,0.12,-3.05,-2.75,222,281,220,449,338
1469,0.44,0.81,0.44,-0.49,-0.73,-2.44,222,281,218,450,335
1470,0.42,0.8,0.4,1.65,-2.44,-0.61,224,285,219,457,334
1471,0.46,0.8,0.42,-1.65,-2.81,-2.32,220,281,217,446,335
1472,0.44,0.8,0.43,0.06,-4.09,-1.46,222,282,216,445,337
1473,0.43,0.79,0.41,1.59,-1.77,-2.5,222,280,216,442,336
1474,0.42,0.79,0.42,-0.06,-2.62,-2.69,218,273,215,450,334
1475,0.49,0.79,0.4,-4.15,0.0,1.34,225,284,213,449,336
1476,0.47,0.78,0.43,0.79,-1.46,-0.49,223,283,216,448,334
1477,0.46,0.79,0.44,1.59,-2.44,-6.35,222,284,220,443,333
1478,0.45,0.78,0.4,1.95,-0.18,-1.04,222,282,217,446,340
1479,0.42,0.81,0.42,0.06,-2.99,-2.26,224,280,216,446,336
1480,0.44,0.79,0.41,-2.81,-3.54,-3.54,222,283,213,444,336
1481,0.45,0.81,0.43,-0.55,-1.95,-3.78,221,280,215,444,336
1482,0.44,0.8,0.39,-0.55,-2.87,-1.4,220,283,210,461,339
1483,0.45,0.83,0.42,0.67,-2.44,-4.21,222,279,215,447,336
1484,0.47,0.8,0.38,0.85,-1.71,-2.32,221,285,212,449,336
1485,0.44,0.8,0.4,1.89,-3.48,-0.85,221,282,213,446,338
1486,0.44,0.8,0.41,-2.26,-2.81,-2.26,220,277,214,448,337
1487,0.48,0.78,0.39,-2.87,-3.72,1.46,221,280,216,451,336
1488,0.45,0.78,0.43,1.71,1.16,0.43,221,285,216,449,336
1489,0.46,0.76,0.42,2.69,0.18,-1.65,223,283,214,448,336
1490,0.49,0.8,0.42,4.88,-2.62,-0.31,226,284,215,450,334
1491,0.45,0.77,0.41,0.31,-0.31,-1.77,223,282,219,445,334
1492,0.46,0.78,0.42,-3.23,-3.91,-6.53,223,277,218,448,334
1493,0.47,0.82,0.44,2.44,-3.42,-2.32,220,282,212,448,335
1494,0.47,0.77,0.46,4.03,-2.5,-3.91,217,284,213,446,334
1495,0.46,0.75,0.44,1.34,-3.66,-3.6,222,278,214,446,336
1496,0.49,0.76,0.46,-0.79,-3.23,-3.66,221,281,214,446,330
1497,0.47,0.75,0.44,1.53,-4.64,-1.1,223,285,209,448,331
1498,0.5,0.77,0.42,3.11,-0.73,1.53,222,283,216,449,339
1499,0.51,0.79,0.41,9.52,-1.22,-5.07,220,280,214,445,334
1500,0.51,0.78,0.41,-1.71,-2.56,-2.44,222,281,214,446,338
1501,0.5,0.76,0.41,0.0,-3.36,-2.56,220,283,213,446,336
1502,0.49,0.76,0.43,-0.92,-2.93,-3.3,225,283,215,446,337
1503,0.48,0.77,0.43,0.73,-0.37,-3.36,222,283,216,445,339
1504,0.49,0.76,0.43,-1.71,-4.46,-1.53,224,284,215,448,336
1505,0.49,0.77,0.43,-0.31,-3.6,-0.18,223,297,216,446,332
1506,0.49,0.76,0.44,-0.24,-1.53,-2.69,221,280,229,446,336
1507,0.48,0.76,0.44,1.59,-7.45,-2.75,221,280,217,443,336
1508,0.46,0.76,0.44,0.12,-4.33,-5.0,226,284,211,445,333
1509,0.51,0.81,0.09,-3.85,0.49,-6.41,215,270,183,444,305
1510,0.54,0.88,0.12,-17.7,0.67,0.92,213,278,181,446,298
1511,0.44,0.91,0.13,-8.54,-14.53,-16.48,209,275,185,443,308
1512,0.39,0.89,0.17,-0.37,-11.9,-5.86,211,274,183,444,310
1513,0.34,0.92,0.14,2.38,-1.95,-17.46,216,273,187,451,310
1514,0.34,0.91,0.16,-3.72,-4.88,-2.87,210,270,187,441,307
1515,0.27,0.98,0.17,-0.06,-5.43,1.28,215,272,187,447,312
1516,0.3,0.88,0.13,4.27,-2.81,-6.04,213,264,187,437,313
1517,0.25,0.99,0.13,4.09,2.87,-0.55,217,269,182,439,321
1518,0.29,0.94,0.16,-1.4,-4.82,-2.26,212,269,175,442,324
1519,0.28,0.95,0.16,2.99,-4.58,-4.09,215,267,182,447,327
1520,0.33,1.02,0.12,4.46,-2.26,1.4,211,265,188,458,329
1521,0.26,0.89,0.12,-1.4,-5.43,-2.14,215,265,177,450,328
1522,0.24,0.93,0.14,-1.53,-3.97,-1.71,218,269,188,450,334
1523,0.29,1.0,0.09,6.1,2.5,4.46,218,274,186,448,331
1524,0.23,0.91,0.04,-2.99,-2.44,4.76,216,270,180,452,330
1525,0.24,0.95,0.11,-0.31,-4.64,-3.6,215,265,194,456,334
1526,0.25,0.96,0.07,1.89,-1.77,-1.65,218,270,190,452,329
1527,0.29,0.94,0.09,-2.26,-2.56,-5.37,227,283,191,457,328
1528,0.28,0.95,0.09,-6.9,-2.99,-2.08,236,273,191,458,328
1529,0.3,0.96,0.11,3.11,-3.6,-2.93,215,276,194,455,328
1530,0.29,0.99,0.14,-6.16,-0.73,-6.29,210,271,189,461,325
1531,0.28,0.96,0.12,-1.22,-6.35,0.79,215,274,192,454,325
1532,0.31,0.95,0.13,-0.37,-3.6,-0.24,217,271,187,451,324
1533,0.29,0.93,0.12,4.15,-1.95,-0.43,218,270,194,459,329
1534,0.31,0.92,0.13,-0.61,-0.12,2.5,217,273,188,451,328
1535,0.29,0.94,0.14,-1.83,-4.7,-5.8,216,271,185,454,329
1536,0.3,0.93,0.16,-2.69,-1.95,10.25,218,273,194,460,328
1537,0.37,0.9,0.16,-1.28,-6.1,0.92,217,281,191,458,328
1538,0.37,0.91,0.16,-3.17,-5.0,-2.01,217,273,190,458,327
1539,0.35,0.94,0.17,2.75,-0.24,-3.42,220,276,181,453,329
1540,0.34,0.94,0.15,2.2,-2.44,-4.94,217,270,196,457,326
1541,0.37,0.91,0.12,1.83,-3.23,-1.53,218,265,188,458,327
1542,0.34,0.93,0.13,2.93,-2.32,-0.06,228,271,190,460,329
1543,0.36,0.93,0.14,1.22,-4.76,-4.64,220,273,195,458,328
1544,0.35,0.92,0.15,-6.29,-1.1,-6.47,216,269,198,460,329
1545,0.37,0.92,0.13,1.65,0.43,-8.67,218,275,195,462,330
1546,0.36,0.92,0.13,1.16,-7.39,-3.3,216,266,187,462,331
1547,0.37,0.92,0.16,-0.37,1.89,-0.67,219,275,192,452,330
1548,0.41,0.93,0.13,6.59,-5.68,6.35,220,273,193,455,326
1549,0.47,0.88,0.11,2.08,0.79,1.04,219,274,190,461,325
1550,0.41,0.91,0.17,4.82,-3.17,-2.5,212,268,196,454,329
1551,0.38,0.89,0.15,1.22,0.92,-10.8,219,275,193,455,328
1552,0.4,0.91,0.14,-0.73,2.62,-5.43,221,262,191,455,326
1553,0.4,0.91,0.13,3.36,-5.68,-7.51,219,271,198,456,331
1554,0.37,0.91,0.15,6.53,-8.18,-6.59,218,271,189,464,328
1555,0.39,0.95,0.15,4.52,-7.69,-6.9,218,274,200,460,329
1556,0.37,0.96,0.12,4.52,-2.38,-2.56,217,274,191,456,330
1557,0.33,0.92,0.1,-1.16,-3.66,0.92,216,270,195,461,330
1558,0.34,0.93,0.11,8.97,-3.97,-1.22,220,272,196,459,328
1559,0.35,0.93,0.1,-4.09,-2.14,0.31,220,276,185,453,330
1560,0.35,0.94,0.12,2.93,-1.71,-4.39,219,271,194,449,333
1561,0.37,0.93,0.09,-2.69,-2.32,-5.74,219,277,202,459,328
1562,0.35,0.86,0.12,-0.98,-0.98,5.13,214,275,194,459,330
1563,0.37,0.86,0.1,-3.42,1.1,-1.77,243,269,202,451,328
1564,0.32,0.92,0.13,8.61,-0.79,-2.99,220,269,195,458,329
1565,0.38,0.96,0.13,0.24,-4.58,-3.17,217,275,198,453,329
1566,0.31,0.88,0.09,-5.86,-5.25,-1.95,213,268,199,457,331
1567,0.32,0.94,0.1,-0.73,-4.64,-1.83,219,271,198,456,328
1568,0.32,0.9,0.11,-7.93,-2.38,-3.36,218,275,198,461,320
1569,0.32,0.94,0.11,-2.08,-0.67,9.58,214,274,201,455,329
1570,0.31,0.93,0.18,13.18,-0.73,-7.69,218,270,201,455,325
1571,0.3,0.92,0.16,-3.78,-1.53,2.32,228,277,207,461,332
1572,0.26,0.9,0.13,0.85,1.71,-5.19,218,277,198,458,332
1573,0.31,0.93,0.19,3.78,-8.61,5.49,217,279,193,462,331
1574,0.25,0.96,0.16,-0.67,-4.27,-4.76,221,277,200,459,332
1575,0.31,0.95,0.15,0.37,-6.04,-3.42,218,279,196,450,330
1576,0.31,0.93,0.14,-0.24,-2.75,-0.98,218,278,205,453,330
1577,0.33,0.93,0.15,-4.52,-4.82,-3.85,217,275,206,455,329
1578,0.33,0.94,0.14,2.38,0.37,-2.75,220,279,199,456,332
1579,0.31,0.95,0.15,1.53,-1.59,-3.23,218,271,200,458,333
1580,0.31,0.92,0.12,1.53,-5.19,-2.38,217,278,202,454,331
1581,0.32,0.94,0.13,-1.28,-4.94,-2.5,219,276,203,451,334
1582,0.21,0.93,0.1,7.14,-12.76,-11.78,221,275,204,450,326
1583,0.25,0.95,0.13,-2.38,-1.53,-3.3,221,272,203,455,331
1584,0.24,0.95,0.11,-2.81,-7.08,-3.6,221,272,201,460,334
1585,0.3,0.97,0.09,2.62,-4.09,-3.6,219,274,199,457,332
1586,0.28,0.93,0.08,-3.54,-2.93,-3.78,220,280,198,456,334
1587,0.3,0.97,0.09,3.66,-2.32,1.83,218,277,203,453,331
1588,0.29,0.91,0.08,-1.65,-4.39,-0.67,209,277,205,460,332
1589,0.31,0.95,0.09,-4.88,-4.94,1.34,220,275,199,457,333
1590,0.28,0.94,0.1,-2.2,-1.71,-16.85,220,277,197,455,333
1591,0.31,0.93,0.11,-0.79,-3.78,-3.36,220,278,198,459,332
1592,0.25,0.92,0.14,0.85,1.34,-1.71,219,270,205,454,332
1593,0.28,0.95,0.14,3.85,0.49,3.11,220,280,203,456,332
1594,0.33,0.93,0.14,3.66,-4.39,3.36,218,281,207,463,332
1595,0.3,0.96,0.14,1.16,-2.62,-4.33,221,272,205,462,334
1596,0.33,0.93,0.12,1.04,-1.71,-2.44,220,275,201,455,332
1597,0.33,0.93,0.14,0.73,-5.07,-0.79,217,280,204,457,332
1598,0.33,0.92,0.13,-2.5,-3.05,-1.46,219,278,203,468,331
1599,0.3,0.94,0.14,2.93,-1.22,-0.31,220,272,204,453,331
1600,0.32,0.91,0.12,-2.75,-2.99,0.43,217,280,209,455,332
1601,0.31,0.93,0.15,0.12,-5.25,-1.16,217,277,199,455,331
1602,0.31,0.93,0.14,1.04,-2.5,-2.08,218,281,208,453,332
1603,0.34,0.91,0.13,1.22,-7.93,0.61,219,279,199,458,332
1604,0.31,0.94,0.13,0.37,-1.53,-5.13,221,279,203,455,338
1605,0.32,0.94,0.13,2.14,-0.67,-1.34,222,275,200,458,332
1606,0.3,0.93,0.14,1.04,-1.16,0.0,227,275,201,451,332
1607,0.33,0.93,0.13,-0.79,-4.39,-2.56,226,278,202,454,332
1608,0.32,0.94,0.14,1.71,-2.14,-2.69,218,280,207,456,332
1609,0.33,0.96,0.11,-2.32,-2.38,-1.89,221,278,206,457,329
1610,0.32,0.94,0.12,1.28,-5.68,-3.48,220,275,201,453,336
1611,0.33,0.94,0.11,2.2,-0.37,-1.71,218,277,195,457,330
1612,0.34,0.94,0.09,-0.55,-2.2,-0.18,218,278,194,446,337
1613,0.31,0.92,0.12,-1.28,-2.14,-1.4,220,282,202,454,331
1614,0.31,0.93,0.11,-3.85,-5.55,-2.87,222,276,201,455,333
1615,0.3,0.93,0.12,-1.04,-3.05,-1.71,218,278,202,455,332
1616,0.34,0.95,0.12,1.04,-4.58,-4.88,221,282,204,452,331
1617,0.32,0.91,0.13,-2.38,-3.17,-3.66,221,282,208,465,335
1618,0.29,0.94,0.15,1.46,-1.1,-2.99,221,278,204,456,332
1619,0.25,0.93,0.14,-1.65,-2.14,-2.08,217,280,204,455,336
1620,0.28,0.93,0.16,-2.56,-3.48,-1.77,221,278,202,450,332
1621,0.26,0.91,0.15,0.18,-1.46,-8.73,218,277,197,447,327
1622,0.29,0.95,0.15,1.1,-1.16,0.12,223,279,207,450,332
1623,0.26,0.97,0.17,-0.73,-1.1,-2.14,216,276,194,454,332
1624,0.29,0.94,0.15,-1.4,-3.05,-2.2,221,277,202,459,335
1625,0.3,0.92,0.15,-0.55,-6.84,-1.89,220,284,207,456,332
1626,0.29,0.92,0.16,-1.28,-8.67,0.92,222,280,197,453,332
1627,0.31,0.94,0.16,0.06,0.79,0.79,216,278,195,459,331
1628,0.34,0.94,0.16,-2.14,-3.36,5.0,218,281,205,459,335
1629,0.37,0.9,0.17,-1.16,-2.87,-2.75,218,277,209,455,332
1630,0.37,0.9,0.2,-3.6,0.55,-3.6,219,270,208,456,334
1631,0.41,0.92,0.17,2.44,-2.14,-1.28,219,271,207,450,333
1632,0.44,0.91,0.19,1.04,0.43,-3.78,218,277,197,454,324
1633,0.39,0.92,0.21,2.38,-1.4,-4.15,220,280,204,458,332
1634,0.41,0.92,0.19,1.04,-2.2,-2.14,212,277,203,455,335
1635,0.44,0.91,0.18,-2.08,-5.74,1.71,215,278,207,450,329
1636,0.46,0.89,0.19,3.23,-0.31,-0.85,219,279,204,455,333
1637,0.5,0.86,0.18,-3.42,-3.17,0.24,220,278,203,458,334
1638,0.5,0.84,0.23,-3.85,-3.48,-3.42,214,276,205,448,333
1639,0.49,0.78,0.26,-2.08,-3.97,4.15,220,277,203,451,332
1640,0.45,0.77,0.26,-8.61,-6.71,3.85,220,278,212,441,332
1641,0.56,0.84,0.24,1.59,-0.79,-6.96,219,282,202,446,330
1642,0.52,0.79,0.23,0.12,-2.99,-0.18,219,274,208,452,333
1643,0.54,0.82,0.24,-3.54,-1.71,-5.8,220,280,204,458,331
1644,0.5,0.84,0.28,1.95,-3.97,-2.26,224,281,202,452,332
1645,0.54,0.75,0.24,3.66,-0.92,-4.46,217,279,204,446,334
1646,0.56,0.86,0.23,3.97,-1.46,-12.02,212,272,211,443,330
1647,0.51,0.89,0.25,7.51,-2.32,-5.31,217,261,209,448,331
1648,0.49,0.85,0.22,1.34,-2.5,-0.85,216,278,204,451,331
1649,0.53,0.85,0.25,-3.17,-0.31,-1.1,220,282,205,453,320
1650,0.55,0.75,0.22,-1.34,-13.73,2.87,220,279,198,450,330
1651,0.57,0.79,0.21,-0.37,-7.75,2.2,221,278,209,452,329
1652,0.52,0.81,0.21,-3.78,-5.43,-1.95,219,278,200,450,331
1653,0.62,0.82,0.17,-2.08,-7.14,-2.08,221,279,208,450,332
1654,0.61,0.79,0.17,-2.08,-13.67,12.94,218,275,204,455,328
1655,0.61,0.82,0.18,1.34,-3.54,-10.38,221,279,209,450,328
1656,0.56,0.81,0.17,-6.71,3.3,-10.74,220,276,204,451,328
1657,0.55,0.83,0.18,0.0,0.49,-0.24,221,279,204,451,328
1658,0.53,0.85,0.22,-3.05,-6.9,-4.64,217,278,205,452,333
1659,0.49,0.88,0.19,-0.37,-2.08,-10.56,219,278,200,452,333
1660,0.44,0.82,0.26,-13.0,-8.24,-0.92,217,277,210,455,325
1661,0.36,0.85,0.27,3.6,-1.89,-23.32,219,279,205,453,331
1662,0.29,0.96,0.32,6.53,-22.83,-1.16,222,273,204,451,327
1663,0.26,0.88,0.29,-11.05,-0.61,2.87,221,274,210,451,330
1664,0.34,0.92,0.27,-6.1,-4.64,0.67,217,285,206,458,335
1665,0.23,0.9,0.36,-4.15,-0.37,-1.1,217,281,194,454,332
1666,0.29,0.87,0.35,-8.97,-4.03,-3.11,222,281,205,454,329
1667,0.32,0.91,0.35,0.98,-3.54,-2.5,229,273,205,455,333
1668,0.3,0.87,0.35,-3.91,-4.15,0.12,221,280,206,452,330
1669,0.35,0.88,0.36,-3.17,-3.36,-1.77,222,283,202,455,333
1670,0.33,0.89,0.38,-5.13,-7.2,-10.13,219,275,205,455,334
1671,0.39,0.89,0.33,-2.5,-5.19,-4.21,211,280,208,454,331
1672,0.36,0.87,0.37,0.73,-4.7,0.37,219,281,210,453,332
1673,0.35,0.85,0.35,-0.18,-2.75,-2.14,222,281,203,452,332
1674,0.36,0.88,0.35,-2.75,-3.42,-3.23,219,281,208,454,336
1675,0.37,0.88,0.36,-2.2,-2.08,-6.47,217,280,208,457,332
1676,0.34,0.88,0.37,0.79,-2.26,-2.26,221,280,206,453,334
1677,0.36,0.86,0.37,1.83,-2.56,-3.97,221,275,205,453,330
1678,0.34,0.86,0.36,-1.28,-3.11,-4.46,220,285,208,452,334
1679,0.35,0.88,0.37,1.1,-2.99,-4.88,222,275,209,454,334
1680,0.35,0.87,0.36,-0.98,-4.76,-3.48,221,280,209,452,338
1681,0.34,0.89,0.35,-0.43,-2.32,-1.65,246,280,209,452,329
1682,0.36,0.86,0.34,-1.04,-1.04,-2.32,254,284,209,455,336
1683,0.34,0.85,0.35,1.59,-2.2,-1.34,217,281,211,455,335
1684,0.29,0.85,0.36,-2.5,-1.65,0.55,225,280,202,450,328
1685,0.32,0.87,0.36,0.31,-0.85,-1.89,221,279,207,455,333
1686,0.33,0.89,0.35,-0.37,-3.42,-2.32,223,282,209,443,330
1687,0.35,0.89,0.33,0.49,-1.04,-3.66,224,281,208,446,329
1688,0.32,0.88,0.35,-0.37,-2.38,-1.22,222,283,212,450,331
1689,0.34,0.88,0.34,2.5,-3.54,-3.78,221,285,206,446,329
1690,0.36,0.86,0.33,0.67,-1.59,-0.73,225,281,203,450,329
1691,0.33,0.87,0.33,2.87,-0.92,0.0,227,283,211,448,333
1692,0.33,0.87,0.33,1.1,-4.46,-1.95,219,280,207,446,332
1693,0.36,0.92,0.33,-1.83,-2.01,-3.6,261,279,208,446,324
1694,0.35,0.92,0.34,1.71,-4.46,-4.21,219,279,206,448,332
1695,0.35,0.87,0.32,4.03,-4.09,-3.42,218,282,211,453,331
1696,0.34,0.87,0.29,-0.31,-2.26,-1.16,224,277,211,450,334
1697,0.36,0.87,0.33,2.38,-4.15,-5.55,223,282,199,452,338
1698,0.36,0.87,0.32,2.14,-4.21,-2.69,221,273,210,450,333
1699,0.35,0.86,0.32,-1.34,-1.28,-2.75,222,275,208,449,334
1700,0.39,0.9,0.33,2.38,-4.64,-5.43,220,282,210,453,334
1701,0.37,0.88,0.32,-0.73,-0.98,-2.75,223,280,208,451,337
1702,0.37,0.87,0.34,1.22,-2.81,-1.28,248,281,210,448,338
1703,0.37,0.86,0.33,0.79,-3.3,-2.69,223,278,211,452,333
1704,0.33,0.86,0.33,1.89,-3.36,-0.73,217,285,206,449,334
1705,0.39,0.89,0.33,-0.79,-0.73,0.98,222,281,211,453,334
1706,0.41,0.87,0.33,-2.62,0.67,0.55,217,282,210,450,329
1707,0.42,0.85,0.36,-2.32,-6.71,-7.51,217,281,211,445,329
1708,0.36,0.83,0.37,-1.95,-5.86,-6.41,218,279,210,450,329
1709,0.4,0.92,0.32,2.26,2.01,-0.73,220,282,209,463,332
1710,0.31,0.89,0.35,7.08,0.49,-1.95,217,279,218,457,336
1711,0.39,0.81,0.38,-4.58,-7.32,-5.92,223,279,210,460,331
1712,0.36,0.88,0.36,0.73,-3.05,-2.99,220,279,211,457,336
1713,0.38,0.89,0.36,0.98,-1.65,-5.19,220,279,209,449,334
1714,0.34,0.86,0.34,-1.04,-3.23,-1.34,221,279,212,453,335
1715,0.32,0.89,0.39,-0.55,-5.43,-4.15,222,280,214,458,330
1716,0.35,0.88,0.35,2.14,-3.48,-2.14,219,282,210,455,333
1717,0.36,0.87,0.34,1.04,1.59,-3.36,219,279,213,460,335
1718,0.32,0.87,0.34,-2.08,-2.5,-2.2,220,283,209,454,334
1719,0.35,0.88,0.36,1.71,-2.44,-6.16,220,280,204,454,334
1720,0.32,0.9,0.33,2.26,-1.22,-3.05,220,279,205,451,335
1721,0.32,0.88,0.33,-2.2,-2.26,-1.28,221,280,210,455,334
1722,0.31,0.87,0.34,-0.67,-2.81,-0.43,222,286,212,450,336
1723,0.32,0.88,0.34,-0.98,-3.36,-1.83,215,282,213,451,343
1724,0.33,0.89,0.33,0.12,-2.01,-1.22,220,279,210,450,327
1725,0.33,0.87,0.33,1.59,-2.38,-1.04,223,280,212,444,336
1726,0.34,0.88,0.32,1.65,-1.28,-2.75,223,283,212,448,336
1727,0.34,0.85,0.34,-0.43,-2.69,1.1,223,279,209,452,334
1728,0.37,0.82,0.33,-1.28,-0.55,2.01,221,282,211,449,336
1729,0.36,0.86,0.32,-0.49,-5.19,-3.91,220,276,213,441,333
1730,0.38,0.82,0.32,-4.46,-0.43,3.66,222,281,218,446,336
1731,0.34,0.83,0.35,-2.87,-4.03,-1.46,223,284,207,445,335
1732,0.37,0.83,0.34,1.1,-2.75,-1.4,221,282,211,449,334
1733,0.38,0.89,0.37,0.67,2.32,1.22,224,274,208,446,335
1734,0.43,0.92,0.3,5.8,-2.38,-3.17,219,283,212,449,330
1735,0.42,0.84,0.33,-5.19,-5.43,0.06,219,278,204,448,335
1736,0.41,0.85,0.35,-3.05,1.1,-3.91,223,279,209,447,329
1737,0.39,0.86,0.33,1.71,-3.91,-2.87,221,273,208,445,333
1738,0.39,0.86,0.33,1.46,0.06,-3.3,222,279,207,449,333
1739,0.38,0.86,0.32,-0.43,-2.69,-1.71,222,285,208,451,327
1740,0.4,0.87,0.34,-0.31,-3.91,-3.11,220,278,213,448,330
1741,0.37,0.86,0.34,1.4,-2.2,-3.66,222,282,209,448,336
1742,0.39,0.87,0.34,-0.55,-3.6,-2.56,222,276,223,444,334
1743,0.38,0.86,0.33,-0.12,-2.69,-2.99,223,281,202,448,330
1744,0.37,0.87,0.34,0.73,-0.98,-3.05,222,284,208,449,333
1745,0.38,0.86,0.34,-0.61,-1.65,-2.81,220,281,204,445,331
1746,0.39,0.87,0.33,2.5,-1.28,-2.38,221,283,212,444,331
1747,0.41,0.88,0.32,0.85,-3.72,-0.98,221,280,211,450,331
1748,0.4,0.86,0.33,0.85,-5.07,-2.26,220,283,207,448,330
1749,0.38,0.85,0.32,1.16,-3.91,-2.38,221,281,209,447,338
1750,0.38,0.87,0.33,1.22,-2.81,-1.16,223,286,212,442,332
1751,0.37,0.86,0.35,1.28,-1.53,-1.28,217,282,213,442,334
1752,0.37,0.86,0.35,-1.22,-2.93,-3.3,220,281,210,448,331
1753,0.38,0.86,0.33,0.37,-1.83,-2.5,221,275,204,453,334
1754,0.37,0.88,0.34,6.35,-2.01,-2.14,218,282,211,454,334
1755,0.37,0.86,0.33,0.49,-2.44,-1.83,220,276,209,454,335
1756,0.32,0.82,0.35,2.75,-0.92,4.39,219,275,208,451,336
1757,0.34,0.86,0.35,3.72,-4.58,-0.85,221,282,200,450,335
1758,0.37,0.88,0.33,1.22,-2.69,-2.99,220,281,212,446,332
1759,0.37,0.87,0.33,0.43,-3.05,-2.14,222,276,209,451,334
1760,0.36,0.86,0.34,1.4,-5.43,-1.77,221,282,208,451,335
1761,0.34,0.8,0.34,1.53,-5.49,-2.56,219,281,210,451,334
1762,0.37,0.88,0.3,-0.55,-5.0,-6.04,219,279,213,453,331
1763,0.37,0.9,0.3,-0.49,-2.5,-2.01,218,277,209,446,335
1764,0.37,0.89,0.3,1.65,-1.71,-2.38,225,278,211,454,331
1765,0.37,0.88,0.31,-1.22,-3.72,-2.38,224,281,215,460,335
1766,0.4,0.9,0.32,1.71,-7.32,-3.6,216,281,212,451,332
1767,0.38,0.92,0.33,0.37,-3.54,-4.27,222,286,216,453,336
1768,0.33,0.87,0.34,-0.49,0.85,-5.13,220,281,218,450,335
1769,0.37,0.87,0.33,1.89,-0.98,-3.48,224,279,215,449,333
1770,0.37,0.88,0.34,0.85,-3.97,-1.1,217,278,215,449,331
1771,0.35,0.85,0.37,-1.59,-4.7,-1.71,220,285,210,453,334
1772,0.33,0.86,0.36,-1.95,-4.76,-3.78,223,283,209,450,333
1773,0.35,0.84,0.35,-3.72,-5.55,-4.82,222,284,212,454,336
1774,0.37,0.87,0.35,-1.22,-3.6,-4.33,220,285,209,455,336
1775,0.37,0.86,0.35,-0.67,-3.36,-2.32,221,282,213,447,336
1776,0.35,0.86,0.36,-3.72,-3.6,-1.4,221,277,208,450,338
1777,0.35,0.87,0.36,-2.5,-2.56,-2.75,221,282,215,454,337
1778,0.36,0.86,0.36,0.67,-2.2,-2.81,224,283,208,451,333
1779,0.35,0.86,0.35,-1.53,-2.87,-0.98,224,281,212,452,336
1780,0.34,0.86,0.36,-0.12,-2.5,-2.14,221,282,213,452,332
1781,0.36,0.86,0.36,-0.06,-3.42,-2.62,225,280,198,452,339
1782,0.34,0.86,0.36,1.04,-2.81,-1.89,221,283,215,448,337
1783,0.35,0.86,0.36,0.61,-2.99,-0.61,221,285,213,452,335
1784,0.36,0.84,0.36,0.49,-3.11,-2.93,223,278,206,454,333
1785,0.34,0.87,0.37,0.24,0.24,0.06,223,283,211,452,329
1786,0.42,0.89,0.35,3.97,-0.18,-3.72,224,277,211,451,331
1787,0.37,0.88,0.36,1.4,-4.88,-3.6,217,277,212,448,332
1788,0.36,0.86,0.36,2.62,-3.85,-1.89,221,278,218,453,337
1789,0.36,0.87,0.35,0.73,-3.05,-3.11,223,277,207,460,334
1790,0.36,0.86,0.36,0.24,-1.89,-3.17,223,277,216,453,334
1791,0.35,0.86,0.34,0.67,-1.71,-1.22,225,277,212,453,333
1792,0.34,0.86,0.36,0.73,-6.65,-2.93,225,280,214,454,334
1793,0.32,0.85,0.38,-0.37,-4.52,-1.04,219,278,219,456,329
1794,0.34,0.86,0.34,-0.06,-4.15,-2.56,225,280,209,448,336
1795,0.36,0.86,0.35,-2.93,-5.0,-2.62,219,278,216,452,335
1796,0.34,0.85,0.34,-0.18,-2.44,-3.17,224,284,210,455,330
1797,0.34,0.87,0.36,-1.04,-2.5,-3.05,220,280,213,455,331
1798,0.34,0.88,0.36,-0.92,-1.77,-2.2,220,281,213,453,335
1799,0.32,0.86,0.36,2.26,-1.28,-0.92,223,282,217,452,336
1800,0.33,0.86,0.36,0.43,-1.4,-2.5,220,283,213,451,334
1801,0.35,0.88,0.34,1.59,-3.6,-1.53,222,280,209,452,337
1802,0.35,0.87,0.35,0.24,-3.78,-1.46,220,281,219,446,336
1803,0.36,0.89,0.35,-2.08,-2.5,-3.05,220,280,223,449,334
1804,0.38,0.87,0.34,-2.56,-3.3,-2.26,232,283,201,451,337
1805,0.35,0.84,0.36,2.38,-5.98,-2.14,220,282,210,451,330
1806,0.34,0.85,0.36,0.85,-2.56,-2.87,223,280,209,455,337
1807,0.33,0.88,0.35,-0.06,-3.6,-2.44,222,279,212,453,336
1808,0.37,0.86,0.36,-0.73,-2.81,-2.81,222,281,213,455,333
1809,0.38,0.89,0.34,4.09,0.55,-3.54,222,282,215,456,334
1810,0.37,0.85,0.35,0.37,-6.29,-2.56,220,279,211,451,336
1811,0.34,0.85,0.35,-0.67,-1.89,-1.46,222,279,214,452,337
1812,0.36,0.88,0.35,-1.46,-4.03,-1.65,222,281,210,452,335
1813,0.39,0.87,0.35,-0.43,-3.23,-2.14,223,278,212,453,331
1814,0.36,0.86,0.35,0.31,-2.01,-2.56,221,281,212,450,331
1815,0.37,0.8,0.37,1.34,-2.32,0.06,218,278,210,464,335
1816,0.37,0.84,0.35,3.78,-1.16,-1.46,218,292,220,455,332
1817,0.39,0.88,0.34,2.14,-2.99,-2.14,222,279,212,449,336
1818,0.37,0.84,0.36,0.0,-4.7,-1.34,221,282,209,448,338
1819,0.41,0.84,0.33,-0.31,-4.27,-0.37,225,279,209,456,331
1820,0.42,0.86,0.34,-0.92,-3.23,-6.1,221,278,212,452,336
1821,0.41,0.87,0.34,-0.67,-8.06,-4.15,223,280,213,453,333
1822,0.41,0.84,0.33,-0.98,-2.5,-1.77,224,281,210,453,337
1823,0.42,0.87,0.34,0.43,-3.72,-2.75,224,281,211,450,332
1824,0.4,0.84,0.34,-0.31,-2.2,-1.53,220,280,210,451,335
1825,0.38,0.87,0.34,2.99,-2.32,-2.81,223,279,219,448,336
1826,0.39,0.86,0.33,4.64,-5.0,-0.79,222,281,215,451,335
1827,0.4,0.88,0.33,3.42,-1.4,-3.17,221,279,214,450,335
1828,0.39,0.86,0.32,1.83,-3.36,4.7,221,279,204,448,334
1829,0.35,0.82,0.32,-1.77,-2.2,3.85,223,281,211,451,334
1830,0.4,0.85,0.32,1.28,0.24,-1.71,216,278,209,456,334
1831,0.4,0.87,0.34,0.06,-1.16,-2.87,221,280,213,456,333
1832,0.41,0.86,0.33,3.3,-0.98,-6.65,219,282,210,454,340
1833,0.46,0.9,0.34,2.93,-2.81,-3.85,226,277,214,455,336
1834,0.37,0.82,0.35,1.89,-7.32,-2.87,222,282,202,453,336
1835,0.42,0.84,0.34,0.67,-9.52,-2.5,218,277,207,458,337
1836,0.43,0.85,0.35,1.04,-1.95,-6.96,223,276,214,455,333
1837,0.42,0.87,0.36,0.43,0.85,-4.52,227,281,217,452,335
1838,0.44,0.81,0.33,1.1,-3.54,-3.85,221,277,214,456,331
1839,0.45,0.86,0.35,2.08,-3.6,-4.39,218,282,210,453,329
1840,0.44,0.83,0.32,4.33,-0.98,-4.82,220,282,215,453,337
1841,0.43,0.83,0.35,0.18,-2.14,-4.15,225,281,213,456,337
1842,0.44,0.83,0.37,1.4,-4.27,-4.33,225,281,213,455,331
1843,0.43,0.84,0.33,1.89,-5.13,0.67,225,281,215,462,334
1844,0.46,0.83,0.34,-1.4,-2.26,-3.91,220,282,210,447,337
1845,0.45,0.84,0.34,2.26,-2.81,0.49,221,279,214,450,333
1846,0.43,0.82,0.34,1.95,-2.2,-2.08,221,283,214,446,336
1847,0.45,0.86,0.34,-0.79,-3.36,0.12,220,283,214,448,340
1848,0.45,0.82,0.36,1.16,-3.72,-3.54,220,280,210,452,335
1849,0.43,0.82,0.33,-2.44,-0.12,-2.01,232,280,214,451,335
1850,0.55,0.83,0.3,-2.26,-12.82,-1.4,220,280,209,451,333
1851,0.47,0.84,0.34,-2.01,-6.96,-2.99,221,280,212,460,335
1852,0.47,0.83,0.34,-0.61,-3.66,-3.85,221,285,211,456,328
1853,0.42,0.85,0.36,2.14,0.24,-4.94,223,287,213,456,331
1854,0.43,0.83,0.34,1.53,-2.69,-1.34,224,283,203,450,334
1855,0.44,0.84,0.34,-1.95,-1.77,-3.11,223,280,217,449,337
1856,0.41,0.83,0.36,0.24,-1.04,-3.54,218,278,214,452,336
1857,0.36,0.83,0.37,-3.11,0.55,-4.82,221,280,210,449,335
1858,0.41,0.84,0.36,-0.67,-4.64,-2.2,223,284,209,443,330
1859,0.43,0.84,0.34,-0.12,-4.15,-1.22,223,276,211,449,332
1860,0.41,0.84,0.38,0.12,-2.14,-2.56,223,282,213,449,333
1861,0.41,0.84,0.36,-0.67,-2.44,-3.48,240,283,213,447,330
1862,0.42,0.82,0.36,0.18,-4.03,-2.5,222,282,214,443,337
1863,0.4,0.83,0.34,3.91,0.79,-3.05,218,280,211,451,335
1864,0.39,0.86,0.35,6.23,1.04,-5.13,218,283,205,450,330
1865,0.45,0.85,0.35,1.65,-4.76,0.37,218,280,215,450,336
1866,0.44,0.86,0.33,1.77,-2.2,-1.89,221,282,211,447,335
1867,0.42,0.86,0.33,-1.59,-0.92,-1.04,220,285,211,448,338
1868,0.44,0.84,0.34,5.0,-4.27,-2.14,219,279,208,449,339
1869,0.47,0.86,0.3,0.49,-10.56,1.83,219,282,216,451,334
1870,0.47,0.82,0.32,-5.43,-4.52,-4.33,223,279,212,451,333
1871,0.41,0.84,0.38,-4.58,-1.65,-4.27,223,281,210,451,332
1872,0.47,0.8,0.37,0.67,-9.7,-7.45,222,282,211,449,334
1873,0.46,0.79,0.34,-0.06,-5.25,-1.71,223,282,214,448,338
1874,0.43,0.79,0.34,-3.23,-3.48,-0.85,226,282,216,449,334
1875,0.48,0.85,0.35,-3.66,-1.77,-7.26,222,276,214,446,336
1876,0.42,0.79,0.36,-0.85,2.08,-0.43,223,285,215,451,331
1877,0.43,0.79,0.35,2.87,-2.44,2.56,222,283,215,448,336
1878,0.46,0.94,0.4,4.09,0.12,-7.32,216,281,215,443,336
1879,0.49,0.8,0.33,-2.99,-4.58,-6.71,217,280,212,455,335
1880,0.45,0.82,0.39,9.28,-7.26,0.67,221,282,219,449,338
1881,0.42,0.79,0.33,-2.99,-1.71,2.87,223,275,214,446,332
1882,0.45,0.82,0.38,-2.08,-2.2,1.53,221,285,211,449,336
1883,0.48,0.82,0.36,-1.89,-6.16,-2.38,225,280,212,451,330
1884,0.48,0.81,0.36,-3.3,-1.59,2.08,221,285,209,448,339
1885,0.49,0.77,0.36,-0.55,-6.71,0.24,224,278,212,446,339
1886,0.48,0.78,0.37,-2.01,-1.89,0.18,220,275,214,451,336
1887,0.51,0.79,0.37,-2.5,-2.99,-2.62,223,284,221,448,332
1888,0.51,0.78,0.38,-1.16,-8.91,-2.44,220,285,212,448,337
1889,0.5,0.74,0.39,-5.74,-4.27,2.75,221,284,212,451,336
1890,0.52,0.76,0.44,-8.36,-1.71,-10.8,216,280,210,446,336
1891,0.52,0.75,0.51,-13.79,-6.04,-1.83,222,283,216,446,338
1892,0.49,0.73,0.51,-18.55,-9.46,2.99,223,281,215,444,336
1893,0.5,0.71,0.53,-3.05,-5.0,-2.5,222,282,213,448,334
1894,0.46,0.7,0.53,0.31,-0.55,-4.88,221,282,211,450,338
1895,0.43,0.69,0.53,4.09,2.5,-8.91,227,288,213,446,339
1896,0.42,0.71,0.54,2.99,-3.23,-0.37,223,284,212,443,337
1897,0.43,0.73,0.54,-0.67,-5.19,-1.34,223,282,216,451,338
1898,0.42,0.72,0.54,-1.65,-2.56,0.18,223,280,214,440,336
1899,0.44,0.72,0.55,2.56,-4.58,-2.56,220,279,215,454,336
1900,0.44,0.73,0.54,1.95,-3.85,-2.14,222,281,211,446,339
1901,0.42,0.77,0.52,14.47,-3.17,-12.27,220,284,214,447,334
1902,0.41,0.85,0.46,18.92,-6.71,-9.4,218,281,216,448,335
1903,0.41,0.92,0.35,23.99,-3.05,-11.6,222,283,214,444,331
1904,0.34,0.85,0.27,-11.11,-1.4,8.36,218,282,215,447,335
1905,0.42,0.84,0.31,0.24,-6.16,0.73,221,279,215,442,338
1906,0.41,0.86,0.31,-7.08,-5.92,-2.5,223,281,212,447,335
1907,0.44,0.83,0.34,-3.85,-5.07,-3.36,220,281,213,448,331
1908,0.43,0.84,0.36,-0.12,-1.28,-5.07,220,284,226,451,339
1909,0.45,0.84,0.36,-2.08,-1.4,-1.89,220,283,215,448,337
1910,0.42,0.82,0.37,0.0,-2.01,-1.71,221,283,212,449,329
1911,0.43,0.83,0.39,2.32,-2.69,-2.26,222,281,213,448,328
1912,0.43,0.83,0.38,1.46,-2.38,-2.93,223,285,217,449,336
1913,0.43,0.82,0.36,0.49,-3.36,0.12,222,282,213,447,335
1914,0.45,0.81,0.39,-4.15,-4.39,-0.79,223,284,215,446,335
1915,0.47,0.77,0.34,3.23,-3.23,-1.34,222,281,216,449,336
1916,0.42,0.81,0.39,-0.61,-2.14,-3.91,219,282,216,438,333
1917,0.41,0.8,0.39,-2.08,-1.53,-2.87,223,283,219,443,337
1918,0.41,0.81,0.39,2.14,0.43,-3.85,222,282,212,445,335
1919,0.42,0.82,0.4,0.43,-3.97,-0.98,220,285,218,446,332
1920,0.44,0.84,0.4,2.01,-1.89,-2.69,221,281,218,449,336
1921,0.43,0.84,0.41,-1.46,-2.5,0.12,224,285,218,441,332
1922,0.4,0.79,0.4,-1.28,-2.99,-3.6,221,282,218,450,331
1923,0.42,0.81,0.42,-2.44,-2.56,-4.15,221,283,211,446,334
1924,0.42,0.82,0.41,1.4,-1.46,-1.34,221,279,215,450,335
1925,0.42,0.81,0.42,-1.71,-1.77,-3.23,221,283,217,445,336
1926,0.44,0.81,0.41,3.42,-2.08,-1.53,220,281,213,449,337
1927,0.41,0.81,0.41,-0.61,-3.23,0.18,227,281,217,450,337
1928,0.46,0.83,0.41,-0.55,-4.58,-1.65,221,280,214,449,335
1929,0.45,0.81,0.43,0.55,-4.09,-2.93,222,282,219,445,334
1930,0.45,0.81,0.43,-1.4,-4.03,-3.54,222,278,217,447,335
1931,0.43,0.81,0.44,0.85,-0.85,-2.14,222,280,213,440,332
1932,0.42,0.81,0.44,0.43,-3.05,-3.17,249,278,210,451,338
1933,0.43,0.81,0.43,-0.43,-3.17,-2.44,222,281,217,450,335
1934,0.42,0.82,0.43,-0.61,-1.53,-2.69,220,277,213,449,337
1935,0.41,0.8,0.42,0.43,-2.75,-2.81,222,280,210,445,338
1936,0.41,0.81,0.43,0.49,-1.83,-1.59,223,283,215,446,338
1937,0.39,0.79,0.43,0.55,-5.07,-2.69,226,281,210,447,337
1938,0.42,0.79,0.42,-0.37,-3.66,-2.69,223,280,215,445,333
1939,0.41,0.8,0.43,0.49,-5.07,-4.15,223,280,212,445,343
1940,0.42,0.8,0.42,0.61,-3.36,-2.44,221,283,208,448,335
1941,0.41,0.81,0.44,1.1,-3.42,-2.38,222,285,209,446,337
1942,0.42,0.81,0.43,-0.37,-1.77,-2.5,218,281,208,444,333
1943,0.44,0.8,0.43,0.85,-2.87,-2.14,221,281,215,441,336
1944,0.42,0.8,0.44,1.4,-2.56,-2.99,223,281,215,453,336
1945,0.42,0.79,0.43,-0.98,-2.93,-2.62,221,284,213,442,336
1946,0.45,0.79,0.42,2.32,-6.41,-3.72,221,280,220,446,337
1947,0.44,0.8,0.42,1.59,-2.08,-2.08,224,281,222,450,332
1948,0.44,0.79,0.43,0.67,-3.23,-3.42,222,277,215,446,331
1949,0.44,0.8,0.42,-0.31,-3.3,-1.71,224,282,214,442,337
1950,0.43,0.79,0.42,1.04,-2.08,-2.5,221,281,218,447,328
1951,0.46,0.79,0.43,0.49,-4.03,-1.59,222,281,215,444,334
1952,0.42,0.79,0.42,-0.49,-2.14,-2.08,223,282,216,449,335
1953,0.42,0.78,0.44,1.1,-3.17,-4.15,222,283,213,443,335
1954,0.44,0.81,0.41,1.59,-2.08,-2.75,222,279,215,450,338
1955,0.44,0.8,0.41,-1.16,-3.23,-1.28,223,297,210,451,334
1956,0.44,0.8,0.42,-0.24,-3.3,-1.77,220,282,216,444,338
1957,0.44,0.8,0.42,-0.24,-3.05,-1.71,220,281,214,445,336
1958,0.44,0.79,0.42,-0.49,-3.72,-2.62,222,282,213,446,337
1959,0.44,0.8,0.42,0.61,-2.62,-2.2,221,283,215,448,332
1960,0.44,0.8,0.43,0.73,-2.56,-2.26,225,283,210,449,333
1961,0.44,0.8,0.42,0.0,-3.11,-2.81,219,280,215,447,336
1962,0.44,0.8,0.43,0.85,-3.78,-1.95,224,282,210,446,336
1963,0.44,0.79,0.42,-0.55,-2.01,-2.44,231,284,209,450,337
1964,0.43,0.79,0.42,1.1,-3.66,-3.23,222,284,209,457,334
1965,0.44,0.79,0.41,0.55,-1.89,-2.62,220,281,213,451,330
1966,0.44,0.8,0.41,1.16,-2.5,-2.44,218,284,210,449,338
1967,0.44,0.8,0.41,-0.67,-2.44,-0.73,224,281,212,449,333
1968,0.44,0.79,0.42,0.37,-4.58,-2.5,222,287,213,448,337
1969,0.44,0.78,0.42,0.92,-3.23,-3.3,223,281,213,445,338
1970,0.45,0.8,0.42,-1.4,-3.91,-2.5,224,281,215,445,337
1971,0.45,0.81,0.42,0.12,-3.05,-2.75,222,281,220,449,338
1972,0.44,0.81,0.44,-0.49,-0.73,-2.44,222,281,218,450,335
1973,0.42,0.8,0.4,1.65,-2.44,-0.61,224,285,219,457,334
1974,0.46,0.8,0.42,-1.65,-2.81,-2.32,220,281,217,446,335
1975,0.44,0.8,0.43,0.06,-4.09,-1.46,222,282,216,445,337
1976,0.43,0.79,0.41,1.59,-1.77,-2.5,222,280,216,442,336
1977,0.42,0.79,0.42,-0.06,-2.62,-2.69,218,273,215,450,334
1978,0.49,0.79,0.4,-4.15,0.0,1.34,225,284,213,449,336
1979,0.47,0.78,0.43,0.79,-1.46,-0.49,223,283,216,448,334
1980,0.46,0.79,0.44,1.59,-2.44,-6.35,222,284,220,443,333
1981,0.45,0.78,0.4,1.95,-0.18,-1.04,222,282,217,446,340
1982,0.42,0.81,0.42,0.06,-2.99,-2.26,224,280,216,446,336
1983,0.44,0.79,0.41,-2.81,-3.54,-3.54,222,283,213,444,336
1984,0.45,0.81,0.43,-0.55,-1.95,-3.78,221,280,215,444,336
1985,0.44,0.8,0.39,-0.55,-2.87,-1.4,220,283,210,461,339
1986,0.45,0.83,0.42,0.67,-2.44,-4.21,222,279,215,447,336
1987,0.47,0.8,0.38,0.85,-1.71,-2.32,221,285,212,449,336
1988,0.44,0.8,0.4,1.89,-3.48,-0.85,221,282,213,446,338
1989,0.44,0.8,0.41,-2.26,-2.81,-2.26,220,277,214,448,337
1990,0.48,0.78,0.39,-2.87,-3.72,1.46,221,280,216,451,336
1991,0.45,0.78,0.43,1.71,1.16,0.43,221,285,216,449,336
1992,0.46,0.76,0.42,2.69,0.18,-1.65,223,283,214,448,336
1993,0.49,0.8,0.42,4.88,-2.62,-0.31,226,284,215,450,334
1994,0.45,0.77,0.41,0.31,-0.31,-1.77,223,282,219,445,334
1995,0.46,0.78,0.42,-3.23,-3.91,-6.53,223,277,218,448,334
1996,0.47,0.82,0.44,2.44,-3.42,-2.32,220,282,212,448,335
1997,0.47,0.77,0.46,4.03,-2.5,-3.91,217,284,213,446,334
1998,0.46,0.75,0.44,1.34,-3.66,-3.6,222,278,214,446,336
1999,0.49,0.76,0.46,-0.79,-3.23,-3.66,221,281,214,446,330
2000,0.47,0.75,0.44,1.53,-4.64,-1.1,223,285,209,448,331
2001,0.5,0.77,0.42,3.11,-0.73,1.53,222,283,216,449,339
2002,0.51,0.79,0.41,9.52,-1.22,-5.07,220,280,214,445,334
2003,0.51,0.78,0.41,-1.71,-2.56,-2.44,222,281,214,446,338
2004,0.5,0.76,0.41,0.0,-3.36,-2.56,220,283,213,446,336
2005,0.49,0.76,0.43,-0.92,-2.93,-3.3,225,283,215,446,337
2006,0.48,0.77,0.43,0.73,-0.37,-3.36,222,283,216,445,339
2007,0.49,0.76,0.43,-1.71,-4.46,-1.53,224,284,215,448,336
2008,0.49,0.77,0.43,-0.31,-3.6,-0.18,223,297,216,446,332
2009,0.49,0.76,0.44,-0.24,-1.53,-2.69,221,280,229,446,336
2010,0.48,0.76,0.44,1.59,-7.45,-2.75,221,280,217,443,336
2011,0.46,0.76,0.44,0.12,-4.33,-5.0,226,284,211,445,333
