,aX,aY,aZ,gX,gY,gZ,little,ring,middle,index,thumb
0,0.91,-0.25,-0.16,3.97,5.92,-8.06,222,279,173,437,340
1,0.92,-0.34,-0.09,12.45,-8.0,-4.88,226,282,178,433,345
2,0.97,-0.34,-0.12,-13.49,-2.93,-6.9,226,281,169,432,334
3,0.95,-0.32,-0.09,-1.89,-3.85,-2.38,226,283,180,440,335
4,0.96,-0.32,-0.11,-3.97,-3.23,1.28,232,282,176,435,337
5,0.96,-0.31,-0.08,-3.66,1.28,-3.54,230,280,178,431,337
6,0.94,-0.32,-0.07,-5.55,1.65,4.82,231,275,179,439,333
7,0.95,-0.34,-0.05,-2.81,2.32,-0.37,230,281,181,442,336
8,0.93,-0.33,0.02,-3.05,-3.23,-0.67,230,282,183,441,333
9,0.95,-0.32,-0.01,-2.01,-4.27,-7.39,229,282,182,446,338
10,1.0,-0.3,-0.02,-4.94,-5.86,-5.25,236,282,180,439,340
11,0.98,-0.26,-0.06,-0.73,-4.76,-4.7,233,276,183,446,341
12,0.95,-0.27,-0.0,-2.32,-1.1,-2.81,229,291,175,447,340
13,0.97,-0.25,-0.02,1.77,-4.58,-3.85,229,279,188,452,338
14,0.97,-0.26,-0.02,0.55,-2.32,-2.99,228,284,183,451,342
15,0.97,-0.25,-0.01,-0.55,-4.03,-1.28,226,282,184,445,338
16,0.97,-0.25,-0.03,1.4,-2.56,-3.66,231,284,182,449,339
17,0.97,-0.25,-0.02,-2.2,-5.68,-4.15,230,285,186,444,339
18,0.98,-0.24,-0.05,-1.16,-5.25,-3.11,231,282,175,450,342
19,0.98,-0.23,-0.05,0.85,-3.72,-2.01,228,282,183,451,344
20,0.98,-0.24,-0.07,-0.79,-2.75,-0.92,227,281,188,450,341
21,0.96,-0.24,-0.07,6.16,-9.46,-12.08,229,283,187,450,339
22,0.99,-0.22,-0.1,-6.84,-3.48,1.22,228,283,183,458,336
23,0.98,-0.22,-0.08,2.26,-6.23,-2.87,229,283,183,449,340
24,0.96,-0.25,-0.08,-0.73,-3.17,-1.59,229,283,185,455,341
25,0.95,-0.26,-0.09,-2.56,-2.93,-1.34,230,278,190,446,345
26,0.93,-0.26,-0.07,-1.16,-0.31,0.06,228,286,185,453,344
27,0.95,-0.27,-0.09,-0.06,-1.28,-2.14,230,282,186,457,343
28,0.94,-0.28,-0.1,-0.61,-4.03,-2.99,230,283,187,451,349
29,0.96,-0.26,-0.11,-0.12,-2.08,-2.2,229,284,188,457,346
30,0.96,-0.27,-0.12,-0.12,-1.46,-1.89,229,278,186,452,345
31,1.0,-0.25,-0.15,4.64,-2.81,-5.55,226,282,185,450,347
32,0.98,-0.24,-0.12,0.55,-4.21,-3.36,233,284,192,451,341
33,0.97,-0.26,-0.12,0.31,-4.39,-3.23,229,281,193,450,346
34,0.96,-0.26,-0.13,-0.06,-2.62,-3.6,228,284,191,446,347
35,0.96,-0.26,-0.12,0.49,-4.39,-2.26,225,283,193,454,346
36,0.96,-0.25,-0.12,0.55,-2.26,-2.81,230,282,190,451,347
37,0.95,-0.26,-0.12,0.43,-2.75,-4.64,233,284,188,453,345
38,0.94,-0.27,-0.11,0.43,-3.54,-2.26,233,277,197,448,349
39,0.96,-0.26,-0.12,0.06,-4.46,-1.83,231,290,190,447,341
40,0.96,-0.27,-0.1,-0.98,-1.65,1.34,224,282,192,449,344
41,0.96,-0.28,-0.11,0.18,-1.77,-1.77,232,285,193,452,343
42,0.95,-0.3,-0.1,-0.67,-1.89,-0.31,229,285,192,453,345
43,0.94,-0.31,-0.09,-0.67,-2.26,-0.37,228,286,188,448,346
44,0.95,-0.31,-0.09,2.2,-3.6,-3.36,232,284,186,449,343
45,0.95,-0.31,-0.08,0.67,-3.17,-2.44,233,287,189,453,346
46,0.94,-0.32,-0.08,-1.22,-2.38,-1.95,228,283,188,455,338
47,0.95,-0.32,-0.09,-0.49,-2.99,-2.87,225,285,190,453,347
48,0.94,-0.31,-0.09,1.04,-1.22,-1.53,235,283,189,447,342
49,0.95,-0.3,-0.08,0.98,-3.66,-3.66,230,284,189,451,348
50,0.94,-0.3,-0.08,1.34,-2.38,-2.44,244,281,187,453,349
51,0.96,-0.3,-0.11,0.67,-4.88,-5.98,231,288,183,454,349
52,0.94,-0.31,-0.08,-0.24,-2.75,-2.32,231,286,185,451,338
53,0.95,-0.31,-0.1,-1.46,-4.39,-4.82,233,284,190,453,346
54,0.96,-0.29,-0.11,-0.55,-2.93,-2.99,226,281,192,454,345
55,0.94,-0.31,-0.1,1.71,-3.36,-2.32,232,281,195,454,342
56,0.96,-0.29,-0.12,1.28,-4.58,-5.55,232,283,188,451,346
57,0.95,-0.29,-0.1,0.43,-4.58,-3.85,231,291,191,446,345
58,0.96,-0.29,-0.12,1.28,-3.3,-1.46,231,288,197,450,349
59,0.95,-0.3,-0.08,0.67,-1.77,-2.44,232,286,198,449,344
60,0.94,-0.3,-0.11,-0.79,-2.2,-2.01,232,284,190,448,347
61,0.96,-0.3,-0.1,1.65,-3.48,-2.75,228,282,194,454,344
62,0.93,-0.31,-0.09,-0.06,-3.17,-2.62,231,280,199,449,345
63,0.94,-0.32,-0.1,-0.49,-1.53,-1.53,228,286,194,449,346
64,0.95,-0.31,-0.11,-0.06,-3.42,-3.48,236,285,195,453,348
65,0.96,-0.29,-0.09,-0.18,-2.81,-2.62,229,288,195,452,345
66,0.97,-0.29,-0.09,0.85,-3.6,-2.93,231,286,196,453,349
67,0.96,-0.29,-0.1,0.12,-3.42,-0.73,232,285,196,446,345
68,0.94,-0.32,-0.08,0.55,-3.23,-2.2,232,289,184,453,346
69,0.93,-0.33,-0.1,-2.32,-2.5,-2.38,229,287,193,452,343
70,0.95,-0.31,-0.08,-0.37,-3.23,-3.11,233,286,196,455,350
71,0.95,-0.31,-0.09,0.92,-2.99,-3.05,227,283,196,456,346
72,0.93,-0.32,-0.08,-0.43,-3.36,-0.73,233,287,195,453,344
73,0.93,-0.32,-0.08,0.98,-3.17,-2.62,232,284,191,451,345
74,0.96,-0.3,-0.08,0.61,-3.78,-2.69,229,285,195,452,346
75,0.94,-0.31,-0.08,3.97,-3.54,-2.87,229,287,195,455,347
76,0.95,-0.31,-0.08,1.34,-3.23,-3.6,230,285,191,456,346
77,0.94,-0.33,-0.08,0.49,-3.23,-2.62,229,276,197,450,345
78,0.94,-0.32,-0.08,-0.06,-2.38,-2.38,230,278,198,449,348
79,0.94,-0.32,-0.06,0.06,-1.46,-0.79,228,284,193,456,345
80,0.95,-0.31,-0.08,0.06,-2.81,-2.14,228,286,186,452,349
81,0.96,-0.31,-0.07,0.06,-2.14,-1.89,228,287,193,454,358
82,0.95,-0.32,-0.08,0.85,-3.05,-2.26,230,285,192,452,346
83,0.94,-0.31,-0.07,0.85,-3.66,-2.26,233,284,193,454,347
84,0.94,-0.31,-0.07,1.22,-3.23,-2.2,231,282,197,453,345
85,0.95,-0.31,-0.09,-0.73,-2.99,-2.87,228,283,199,456,347
86,0.94,-0.32,-0.08,-0.12,-2.5,-2.93,228,286,194,457,348
87,0.94,-0.32,-0.07,1.22,-2.62,-2.62,230,288,195,451,346
88,0.95,-0.31,-0.08,0.31,-3.11,-2.26,227,285,199,457,347
89,0.95,-0.31,-0.08,0.55,-2.75,-2.14,231,285,200,453,346
90,0.96,-0.31,-0.09,0.24,-3.17,-2.32,230,286,196,452,348
91,0.95,-0.32,-0.08,-0.92,-2.32,-2.32,231,283,199,456,346
92,0.95,-0.32,-0.07,0.43,-2.5,-2.32,222,283,200,453,345
93,0.95,-0.32,-0.08,0.24,-2.93,-2.56,232,283,204,455,348
94,0.94,-0.32,-0.08,0.18,-3.48,-2.32,232,283,201,456,345
95,0.93,-0.32,-0.07,0.49,-4.15,-4.58,231,283,196,454,346
96,0.97,-0.3,-0.08,1.71,-2.99,-3.11,228,283,196,455,347
97,0.94,-0.32,-0.08,0.79,-2.44,-1.4,231,282,196,451,344
98,0.95,-0.31,-0.08,0.43,-3.91,-2.08,235,284,199,452,347
99,0.97,-0.3,-0.06,1.65,-3.66,-4.03,225,284,186,451,351
100,0.95,-0.3,-0.08,0.24,-3.54,-2.2,229,284,196,453,347
101,0.95,-0.33,-0.08,0.0,-2.99,-2.93,226,286,198,454,346
102,0.94,-0.32,-0.07,-0.43,-2.44,-2.5,232,289,198,457,346
103,0.95,-0.31,-0.07,0.79,-2.08,-1.1,229,285,196,454,348
104,0.96,-0.31,-0.09,0.79,-3.23,-2.44,232,282,201,455,359
105,0.95,-0.31,-0.08,-0.31,-3.72,-2.32,229,284,202,453,345
106,0.95,-0.3,-0.07,1.16,-5.19,-6.41,230,284,204,456,343
107,0.95,-0.31,-0.1,0.12,-1.46,-2.5,226,283,196,462,346
108,0.94,-0.31,-0.09,-0.43,-2.69,-2.87,234,301,195,454,348
109,0.95,-0.31,-0.07,0.55,-2.32,-3.36,232,288,198,455,345
110,0.96,-0.3,-0.07,0.31,-2.44,-2.08,232,289,187,454,348
111,0.96,-0.3,-0.08,1.95,-3.85,-2.75,231,291,196,458,348
112,0.93,-0.32,-0.06,2.14,-6.9,-2.99,236,285,197,452,350
113,0.92,-0.34,-0.08,-0.18,-2.81,-2.75,229,279,199,456,349
114,0.95,-0.32,-0.08,-0.55,-1.46,-3.23,231,285,196,462,343
115,0.94,-0.33,-0.08,0.55,-2.44,-1.46,226,279,195,460,348
116,0.93,-0.33,-0.08,-0.06,-3.42,-1.53,232,287,201,453,347
117,0.92,-0.35,-0.11,-1.4,-2.32,-0.43,234,281,194,455,347
118,0.95,-0.32,-0.08,1.34,-3.78,-4.39,233,293,199,459,350
119,0.94,-0.32,-0.1,-0.31,-2.08,-2.44,232,283,203,457,344
120,0.94,-0.33,-0.09,-1.28,-2.87,-2.44,231,283,201,451,348
121,0.91,-0.35,-0.08,-2.08,-4.33,-3.6,232,283,193,457,349
122,0.94,-0.33,-0.08,1.04,-4.33,-3.17,230,287,198,455,348
123,0.95,-0.32,-0.08,1.65,-2.69,-2.99,232,283,198,460,343
124,0.95,-0.32,-0.09,-0.12,-4.27,-1.1,233,285,200,456,349
125,0.95,-0.34,-0.11,2.99,-6.84,-0.98,228,290,197,456,345
126,0.92,-0.35,-0.1,-0.73,-2.75,-2.44,231,285,205,452,346
127,0.93,-0.33,-0.07,-1.71,0.73,-2.14,230,286,203,455,350
128,0.94,-0.32,-0.07,1.34,-3.6,-3.23,233,286,201,456,353
129,0.94,-0.33,-0.07,1.83,-3.91,-1.89,232,288,189,455,349
130,0.94,-0.35,-0.09,-2.5,-3.36,-1.65,233,289,202,452,347
131,0.94,-0.34,-0.07,-1.53,-3.11,-2.99,233,285,198,455,347
132,0.93,-0.34,-0.07,-0.61,-3.17,-2.56,233,281,192,457,349
133,0.94,-0.34,-0.07,-0.79,-3.66,-2.75,232,282,202,456,347
134,0.95,-0.33,-0.06,0.49,-1.53,-1.71,231,287,192,466,348
135,0.94,-0.34,-0.07,1.95,-1.65,-2.62,233,286,200,458,349
136,0.94,-0.34,-0.06,0.73,-3.17,-3.17,234,283,200,461,346
137,0.95,-0.34,-0.07,2.14,-2.62,-2.75,234,289,205,458,347
138,0.93,-0.35,-0.06,-0.43,-2.5,-2.08,233,283,202,459,347
139,0.93,-0.36,-0.06,0.49,-1.71,-1.1,232,285,200,458,345
140,0.95,-0.34,-0.07,-0.18,-4.09,-1.77,228,287,200,456,349
141,0.94,-0.35,-0.08,1.34,-0.98,-1.46,231,287,201,456,349
142,0.93,-0.34,-0.05,2.08,-2.56,-3.48,232,284,201,457,349
143,0.95,-0.36,-0.08,1.04,-0.31,-1.59,233,283,199,464,345
144,0.93,-0.36,-0.06,0.37,-1.59,-2.38,231,286,204,456,349
145,0.95,-0.33,-0.07,-1.28,-3.36,-3.91,233,284,202,456,351
146,0.94,-0.35,-0.07,0.73,-2.14,-2.01,233,288,202,454,349
147,0.96,-0.33,-0.07,1.04,-1.71,-1.46,232,287,201,461,346
148,0.93,-0.36,-0.07,-1.89,-3.66,-4.09,243,284,205,461,344
149,0.91,-0.39,-0.09,1.1,-6.04,-5.13,231,281,203,453,348
150,0.95,-0.36,-0.08,2.08,-4.7,-2.93,233,287,203,456,348
151,0.93,-0.37,-0.07,5.07,-9.77,-5.37,231,289,200,451,351
152,0.95,-0.33,-0.08,-0.06,-6.77,-7.93,234,284,204,457,349
153,0.97,-0.32,-0.14,0.85,-3.11,-2.5,230,288,204,456,350
154,0.94,-0.34,-0.08,1.22,-2.32,-1.1,233,287,201,456,349
155,0.95,-0.34,-0.09,5.98,-8.54,1.04,229,287,206,457,343
156,0.91,-0.38,-0.05,-1.1,-4.52,-2.32,234,285,198,458,349
157,0.91,-0.38,-0.06,0.67,-1.95,-1.89,237,287,205,459,345
158,0.93,-0.38,-0.07,1.22,-3.11,-2.26,244,284,197,469,353
159,0.93,-0.37,-0.08,0.49,-2.87,-1.71,231,285,201,456,347
160,0.91,-0.39,-0.06,-0.61,-2.01,-0.06,229,288,203,460,348
161,0.93,-0.38,-0.08,0.67,-3.78,-2.99,234,285,203,461,355
162,0.9,-0.39,-0.07,0.18,-1.95,-1.28,233,288,203,456,352
163,0.92,-0.38,-0.07,0.18,-3.85,-3.48,234,288,205,461,349
164,0.92,-0.37,-0.06,-0.85,-4.09,-2.99,233,286,201,459,358
165,0.92,-0.37,-0.08,0.0,-3.54,-3.11,234,286,204,455,358
166,0.92,-0.38,-0.1,-0.31,-2.75,-3.36,233,283,202,457,349
167,0.94,-0.36,-0.1,0.67,-3.85,-3.17,231,287,203,459,349
168,0.93,-0.35,-0.09,1.4,-4.76,-3.42,234,286,203,457,352
169,0.93,-0.37,-0.1,0.49,-3.42,-3.66,231,285,215,462,351
170,0.94,-0.35,-0.1,1.77,-3.17,-2.01,230,286,202,457,348
171,0.92,-0.36,-0.08,0.12,-1.65,-0.79,235,289,205,456,347
172,0.92,-0.36,-0.09,-0.12,-2.32,-2.69,230,283,201,461,349
173,0.89,-0.39,-0.08,0.92,-1.65,-0.18,229,285,205,453,348
174,0.94,-0.34,-0.1,6.04,-2.32,-2.81,228,284,206,458,350
175,0.96,-0.33,-0.11,0.37,-0.67,-1.71,234,287,201,456,349
176,0.94,-0.36,-0.1,1.22,-1.46,-1.22,230,286,205,452,348
177,0.93,-0.4,-0.12,5.55,-9.46,-2.93,231,290,204,452,346
178,0.95,-0.34,-0.12,1.83,-3.85,-4.58,233,295,204,461,347
179,0.94,-0.36,-0.1,1.1,-3.05,-3.23,233,288,204,459,349
180,0.96,-0.34,-0.15,2.01,-4.94,-5.0,229,289,206,448,349
181,0.95,-0.34,-0.12,-0.12,-2.01,-2.2,233,290,205,461,351
182,0.92,-0.35,-0.1,0.0,-3.3,-3.17,232,286,203,459,352
183,0.92,-0.37,-0.11,0.55,-0.98,-1.34,230,290,202,451,346
184,0.96,-0.33,-0.1,4.33,0.79,-3.42,231,286,205,460,350
185,0.93,-0.36,-0.07,0.55,-1.95,-2.32,257,289,205,451,341
186,0.94,-0.36,-0.07,2.87,-1.83,0.24,231,286,205,452,346
187,0.93,-0.37,-0.05,0.92,-3.91,-2.69,232,289,202,453,349
188,0.94,-0.36,-0.06,-0.12,-2.81,-2.2,233,286,200,453,350
189,0.93,-0.38,-0.06,-0.61,-2.32,-1.28,234,288,209,457,347
190,0.93,-0.37,-0.05,0.67,-2.81,-2.56,233,285,213,456,347
191,0.92,-0.38,-0.04,0.85,-2.69,-1.22,235,288,203,459,349
192,0.92,-0.39,-0.05,0.61,-3.23,-1.77,234,288,200,458,349
193,0.92,-0.38,-0.05,-1.1,-2.56,-2.75,231,289,203,458,348
194,0.94,-0.37,-0.05,-0.43,-3.11,-2.14,231,288,203,460,351
195,0.93,-0.38,-0.05,-0.49,-3.23,-2.56,228,287,206,457,350
196,0.93,-0.39,-0.05,0.73,-2.93,-2.26,233,288,203,456,347
197,0.93,-0.38,-0.04,0.61,-1.95,-2.14,234,289,208,453,346
198,0.93,-0.38,-0.05,0.85,-2.69,-2.99,231,294,201,461,349
199,0.93,-0.38,-0.05,0.06,-2.44,-2.2,231,290,202,460,353
200,0.91,-0.39,-0.05,-0.55,-2.69,-2.32,233,292,204,457,350
201,0.93,-0.38,-0.05,0.37,-3.85,-2.81,232,303,212,462,350
202,0.93,-0.37,-0.06,-1.04,0.06,-0.85,230,290,202,454,347
203,0.93,-0.37,-0.05,0.43,-3.05,-2.87,236,292,202,455,351
204,0.93,-0.38,-0.04,1.16,-3.17,-2.32,232,291,205,454,349
205,0.92,-0.38,-0.05,0.85,-2.38,-1.34,237,287,195,456,351
206,0.94,-0.38,-0.06,0.55,-3.72,-2.99,232,280,202,453,352
207,0.92,-0.39,-0.06,-0.43,-3.78,-2.93,227,292,204,456,348
208,0.92,-0.38,-0.05,-0.55,-2.5,-2.62,229,287,213,460,348
209,0.93,-0.38,-0.05,0.49,-3.23,-2.93,232,287,205,458,351
210,0.91,-0.37,-0.04,-0.24,-2.5,-1.83,233,285,203,460,350
211,0.92,-0.38,-0.04,0.92,-1.83,-2.56,232,291,204,453,349
212,0.93,-0.38,-0.06,0.24,-2.69,-1.83,235,288,207,457,352
213,0.93,-0.37,-0.05,0.67,-2.99,-2.2,232,293,207,456,351
214,0.91,-0.38,-0.05,0.49,-3.17,-1.71,245,290,210,455,351
215,0.93,-0.39,-0.05,-0.06,-2.93,-1.34,229,289,208,455,349
216,0.93,-0.38,-0.05,0.49,-2.44,-2.75,232,288,205,459,348
217,0.91,-0.38,-0.05,-0.18,-2.38,-2.44,235,290,205,456,349
218,0.92,-0.38,-0.05,0.49,-2.75,-2.2,235,287,218,472,354
219,0.93,-0.37,-0.05,0.55,-2.93,-2.69,235,290,206,458,344
220,0.92,-0.38,-0.05,0.98,-3.3,-2.62,231,289,202,456,342
221,0.92,-0.38,-0.06,1.1,-3.17,-2.62,231,288,199,454,351
222,0.94,-0.37,-0.06,-0.98,-2.62,-2.08,235,289,204,456,351
223,0.92,-0.37,-0.05,1.59,-2.93,-2.87,234,293,206,456,347
224,0.93,-0.38,-0.06,0.06,-2.99,-2.75,233,293,203,460,352
225,0.92,-0.38,-0.05,-0.31,-2.56,-2.26,233,289,201,453,353
226,0.94,-0.36,-0.05,0.0,-3.23,-2.81,235,286,205,454,349
227,0.91,-0.39,-0.05,0.37,-2.62,-2.87,229,290,206,459,348
228,0.94,-0.37,-0.05,-0.43,-3.11,-2.32,237,290,208,452,346
229,0.91,-0.38,-0.05,0.43,-2.93,-1.46,232,287,209,457,349
230,0.92,-0.38,-0.05,0.43,-3.05,-2.2,230,291,205,461,353
231,0.93,-0.38,-0.05,0.49,-2.32,-2.56,233,290,208,458,348
232,0.93,-0.38,-0.06,0.18,-2.69,-3.6,229,283,206,457,347
233,0.92,-0.38,-0.05,0.31,-2.32,-2.08,233,285,203,456,349
234,0.94,-0.37,-0.05,0.31,-2.87,-2.26,233,287,206,458,350
235,0.92,-0.38,-0.05,1.1,-3.05,-2.5,230,289,206,460,351
236,0.93,-0.38,-0.06,0.55,-3.36,-2.56,235,283,206,456,348
237,0.94,-0.37,-0.06,0.49,-2.2,-1.83,234,286,203,472,350
238,0.92,-0.38,-0.04,-0.12,-2.14,-2.38,232,289,205,450,349
239,0.91,-0.39,-0.05,-0.18,-2.56,-2.69,232,290,209,456,349
240,0.92,-0.39,-0.05,-0.06,-3.91,-2.44,234,292,206,453,350
241,0.94,-0.37,-0.06,0.12,-3.3,-2.01,231,291,202,456,349
242,0.92,-0.39,-0.05,0.24,-2.38,-2.32,232,292,208,452,347
243,0.93,-0.38,-0.06,0.12,-2.38,-1.95,236,288,208,452,352
244,0.92,-0.38,-0.05,-4.58,-1.53,-0.31,228,284,201,460,351
245,0.93,-0.37,-0.06,-1.46,-6.16,-4.27,234,288,208,451,351
246,0.91,-0.39,-0.06,0.06,-1.1,-0.92,232,285,204,459,354
247,0.92,-0.38,-0.06,-1.65,-2.38,-0.67,235,285,206,462,351
248,0.92,-0.38,-0.07,1.04,-2.32,-2.69,233,286,205,459,350
249,0.92,-0.4,-0.07,-0.43,-2.56,-2.5,229,288,208,452,348
250,0.93,-0.37,-0.07,0.73,-2.81,-1.89,234,290,208,452,346
251,0.92,-0.39,-0.07,-0.18,-2.56,-2.99,235,290,206,458,351
252,0.92,-0.38,-0.07,1.89,-2.99,-2.14,230,287,208,450,346
253,0.91,-0.39,-0.07,0.12,-3.48,-1.95,234,291,206,458,342
254,0.91,-0.39,-0.07,0.79,-2.08,-2.5,227,287,219,455,350
255,0.92,-0.38,-0.08,-0.37,-2.38,-1.77,230,290,209,458,349
256,0.92,-0.39,-0.09,-0.06,-2.69,-2.81,229,285,208,460,346
257,0.92,-0.39,-0.08,-0.06,-2.93,-3.3,232,288,209,456,352
258,0.9,-0.39,-0.05,1.59,-3.91,-2.81,232,287,208,457,345
259,0.92,-0.39,-0.08,-1.1,-3.3,-1.53,231,283,207,460,348
260,0.94,-0.38,-0.1,0.06,-4.15,-3.6,233,289,205,454,348
261,0.92,-0.39,-0.08,-0.79,-3.05,-3.05,232,295,208,451,351
262,0.91,-0.39,-0.06,1.77,-4.15,-4.27,238,287,209,460,351
263,0.91,-0.39,-0.07,0.98,-2.26,-2.26,231,290,204,451,347
264,0.92,-0.39,-0.09,0.06,-3.05,-3.11,244,288,208,458,349
265,0.92,-0.39,-0.08,0.67,-8.54,-5.55,227,290,205,456,352
266,0.98,-0.34,-0.12,-0.43,-0.43,-2.5,229,291,207,453,350
267,0.91,-0.38,-0.08,2.81,-3.6,-3.78,230,289,211,451,346
268,0.93,-0.37,-0.08,1.77,-4.58,-3.23,230,290,208,461,347
269,0.93,-0.37,-0.08,0.43,-2.38,-1.53,231,292,207,461,349
270,0.92,-0.38,-0.08,1.16,-2.62,-2.38,232,289,208,455,351
271,0.93,-0.38,-0.08,0.37,-1.95,-2.81,257,291,212,457,347
272,0.93,-0.37,-0.07,1.04,-2.69,-2.75,236,290,218,461,352
273,0.94,-0.37,-0.08,0.37,-3.54,-3.78,261,291,206,461,347
274,0.91,-0.39,-0.07,0.79,-1.89,-2.32,230,290,206,458,351
275,0.92,-0.38,-0.08,1.04,-3.36,-3.54,232,284,208,451,351
276,0.92,-0.38,-0.09,0.55,-2.87,-2.75,233,290,206,454,350
277,0.92,-0.37,-0.1,-1.95,-4.76,-2.87,231,289,217,462,349
278,0.93,-0.38,-0.07,1.71,-4.15,-3.48,231,288,206,459,350
279,0.94,-0.37,-0.09,0.31,-2.62,-2.5,232,288,198,456,347
280,0.93,-0.38,-0.08,1.1,-2.99,-3.36,237,282,208,458,356
281,0.91,-0.39,-0.09,0.55,-3.17,-2.99,230,288,210,453,349
282,0.94,-0.37,-0.08,-0.31,-2.26,-2.2,245,292,209,450,347
283,0.96,-0.35,-0.1,0.06,-2.5,-4.09,232,290,208,459,348
284,0.92,-0.36,-0.08,-0.85,-3.97,-5.55,230,286,206,456,352
285,0.95,-0.34,-0.1,3.48,-4.82,-1.04,231,286,207,460,348
286,0.94,-0.35,-0.09,2.2,-4.27,-4.09,232,288,207,452,348
287,0.95,-0.35,-0.11,0.98,-4.09,-3.17,231,286,210,457,349
288,0.94,-0.35,-0.08,1.28,-1.28,-0.24,232,289,205,461,352
289,0.95,-0.34,-0.09,1.83,-4.7,-4.39,232,290,206,449,349
290,0.95,-0.35,-0.11,-1.34,-2.75,-5.25,227,289,209,457,352
291,0.96,-0.34,-0.12,1.89,-2.62,-2.32,233,289,206,455,350
292,0.91,-0.37,-0.07,-1.22,-4.21,-2.2,231,287,207,458,350
293,0.91,-0.36,-0.05,-0.55,-3.05,-1.77,231,303,209,460,350
294,0.91,-0.36,-0.09,2.26,-3.6,-0.92,237,289,209,456,349
295,0.95,-0.35,-0.07,0.06,-1.65,-0.67,236,289,211,456,348
296,0.94,-0.35,-0.1,-0.61,-5.62,-6.84,231,290,210,455,348
297,0.94,-0.35,-0.09,1.46,-3.36,-4.33,231,292,211,459,351
298,0.97,-0.36,-0.12,-2.75,-6.84,-6.1,230,288,207,458,348
299,0.99,-0.32,-0.16,1.53,-3.17,-3.85,230,287,210,459,349
300,0.94,-0.34,-0.12,-1.71,-3.05,-3.23,233,290,210,452,345
301,0.95,-0.33,-0.13,0.55,-2.32,-3.72,229,287,204,456,345
302,0.96,-0.34,-0.13,2.62,0.31,-3.23,233,283,211,453,349
303,0.93,-0.35,-0.11,1.1,-4.09,-4.7,230,289,208,460,343
304,0.94,-0.34,-0.12,-0.37,-3.36,-2.14,232,288,211,454,345
305,0.94,-0.34,-0.12,0.49,-2.56,-1.83,235,289,216,458,347
306,0.93,-0.34,-0.11,0.79,-3.11,-2.62,230,284,208,459,345
307,0.93,-0.34,-0.11,0.24,-3.11,-2.5,238,289,211,462,344
308,0.94,-0.34,-0.1,0.06,-2.56,-2.08,231,289,210,453,345
309,0.94,-0.34,-0.11,2.26,-2.99,-4.09,231,291,210,455,347
310,0.94,-0.34,-0.13,0.24,-2.75,-1.65,232,287,203,456,346
311,0.94,-0.34,-0.12,0.18,-5.13,-3.6,234,290,212,455,349
312,0.93,-0.34,-0.12,0.55,-2.75,-2.01,233,288,221,459,349
313,0.93,-0.33,-0.12,-0.43,-3.91,-3.72,231,289,215,458,345
314,0.94,-0.32,-0.12,1.46,-3.23,-3.23,241,287,213,451,349
315,0.95,-0.33,-0.12,1.46,-2.87,-2.87,231,294,213,458,343
316,0.93,-0.33,-0.12,-0.98,-3.11,-2.14,241,289,206,457,349
317,0.93,-0.33,-0.12,0.37,-2.44,-4.33,235,286,209,457,348
318,0.94,-0.33,-0.12,0.43,-2.62,-2.2,230,285,206,473,344
319,0.94,-0.33,-0.11,0.43,-1.59,-1.04,233,288,204,455,349
320,0.94,-0.34,-0.12,5.8,-1.34,6.29,235,288,211,456,341
321,0.91,-0.4,-0.09,0.85,-2.93,-0.12,232,291,214,455,342
322,0.87,-0.44,-0.06,6.77,3.42,2.62,231,291,210,458,345
323,0.92,-0.4,-0.07,-0.85,-3.72,-4.09,236,291,210,460,344
324,0.92,-0.39,-0.07,-0.18,-4.09,-2.99,231,289,213,452,345
325,0.92,-0.4,-0.07,0.73,-2.56,-3.91,238,288,209,453,345
326,0.92,-0.4,-0.08,0.31,-3.17,-3.42,232,285,211,458,347
327,0.92,-0.39,-0.07,-1.28,-3.23,-1.4,223,289,200,460,341
328,0.9,-0.41,-0.07,-1.04,-2.38,-2.69,236,290,212,459,345
329,0.9,-0.4,-0.06,1.28,-2.44,-2.62,235,289,210,456,346
330,0.91,-0.4,-0.07,-0.12,-2.87,-2.56,231,291,207,457,347
331,0.91,-0.39,-0.07,1.1,-2.26,-2.14,230,293,215,461,345
332,0.92,-0.39,-0.07,-0.06,-3.97,-4.58,233,292,212,463,346
333,0.92,-0.38,-0.08,-0.79,-4.15,-3.48,234,292,214,452,347
334,0.93,-0.38,-0.08,-0.43,-4.15,-2.93,232,291,206,454,346
335,0.94,-0.37,-0.08,0.73,-4.09,-2.69,234,288,207,461,347
336,0.93,-0.37,-0.08,0.92,-2.87,-3.05,228,293,204,457,346
337,0.92,-0.38,-0.08,-0.79,-6.1,-5.0,235,288,216,452,349
338,0.93,-0.37,-0.08,0.55,-3.36,-2.56,233,293,203,460,343
339,0.91,-0.38,-0.09,0.24,-3.48,-2.32,228,289,207,454,346
340,0.92,-0.37,-0.09,0.49,-2.93,-2.81,235,288,212,459,346
341,0.94,-0.36,-0.08,1.4,-1.71,-2.38,233,290,208,460,344
342,0.93,-0.37,-0.09,1.4,-2.93,-2.75,233,292,197,455,342
343,0.94,-0.36,-0.09,-0.12,-3.11,-1.83,232,294,210,452,346
344,0.92,-0.37,-0.09,0.31,-2.5,-2.56,232,289,205,462,346
345,0.94,-0.37,-0.09,-0.06,-2.81,-2.87,233,291,213,456,346
346,0.93,-0.37,-0.08,-0.06,-3.3,-2.2,236,290,212,462,347
347,0.92,-0.38,-0.09,0.67,-3.11,-1.65,232,299,212,455,347
348,0.93,-0.36,-0.07,0.18,-2.38,-2.56,234,292,202,460,344
349,0.93,-0.35,-0.08,0.98,-2.2,-1.71,233,291,212,457,345
350,0.94,-0.36,-0.08,2.08,-3.54,-3.91,232,290,213,459,346
351,0.93,-0.37,-0.1,0.61,-2.99,-2.5,230,286,211,458,347
352,0.92,-0.37,-0.09,-0.49,-2.93,-2.32,234,293,208,453,348
353,0.93,-0.37,-0.08,0.92,-2.69,-3.36,234,289,208,457,347
354,0.93,-0.37,-0.09,0.24,-2.01,-2.2,234,289,211,457,347
355,0.93,-0.37,-0.09,0.61,-3.05,-2.38,233,289,201,457,346
356,0.93,-0.37,-0.09,0.55,-3.17,-2.69,230,295,211,458,347
357,0.93,-0.36,-0.09,1.59,-3.36,-2.69,234,291,209,454,346
358,0.94,-0.37,-0.1,0.67,-2.26,-2.38,235,288,204,455,343
359,0.91,-0.37,-0.09,-0.43,-2.56,-2.14,235,293,210,462,345
360,0.92,-0.37,-0.08,0.12,-2.75,-1.77,234,290,208,457,348
361,0.95,-0.35,-0.09,-1.83,0.73,-3.54,232,292,212,457,346
362,0.93,-0.36,-0.09,0.73,-2.2,-2.5,232,290,221,452,346
363,0.93,-0.37,-0.09,0.0,-2.44,-2.5,237,293,215,455,343
364,0.93,-0.36,-0.09,0.37,-3.05,-2.87,238,291,208,451,344
365,0.92,-0.37,-0.08,0.98,-2.75,-2.44,236,292,212,457,347
366,0.93,-0.37,-0.08,-0.73,-2.56,-1.95,234,286,209,461,346
367,0.92,-0.36,-0.08,0.24,-2.87,-2.5,222,292,215,462,345
368,0.93,-0.37,-0.09,0.18,-2.99,-2.81,235,291,226,454,351
369,0.93,-0.36,-0.09,0.92,-2.87,-2.01,237,291,210,461,346
370,0.93,-0.36,-0.09,-0.31,-2.75,-2.5,230,290,215,464,349
371,0.93,-0.37,-0.1,0.98,-3.05,-3.11,232,295,214,462,347
372,0.93,-0.36,-0.09,0.92,-3.17,-2.69,230,290,208,459,350
373,0.91,-0.37,-0.08,-0.67,-1.71,-0.67,232,289,215,458,347
374,0.95,-0.33,-0.09,1.53,-2.14,-3.72,233,286,209,455,346
375,0.95,-0.36,-0.1,0.55,-2.69,-4.33,234,287,210,461,350
376,0.94,-0.36,-0.09,1.46,-3.78,-3.66,233,289,210,471,343
377,0.94,-0.37,-0.08,0.67,-1.95,-1.53,237,291,212,457,347
378,0.92,-0.37,-0.08,-0.37,-3.05,-2.87,234,286,213,456,344
379,0.93,-0.36,-0.08,0.31,-2.69,-1.89,236,291,215,461,345
380,0.91,-0.36,-0.07,-1.22,-2.81,-0.85,256,289,215,457,348
381,0.92,-0.36,-0.06,0.92,-2.01,-1.77,236,293,209,461,348
382,0.92,-0.36,-0.06,-1.53,-1.22,-0.73,231,291,216,457,342
383,0.91,-0.37,-0.05,0.73,-2.62,-1.65,232,292,213,453,344
384,0.93,-0.37,-0.08,1.28,-1.71,-1.83,234,287,213,465,350
385,0.93,-0.37,-0.08,0.49,-3.05,-2.99,238,291,211,454,344
386,0.92,-0.36,-0.08,0.0,-2.87,-2.87,235,297,207,454,348
387,0.92,-0.37,-0.07,0.18,-2.93,-2.87,230,287,206,463,351
388,0.94,-0.35,-0.08,0.98,-2.87,-2.81,234,287,212,454,347
389,0.93,-0.36,-0.07,0.61,-2.5,-2.08,233,287,208,462,350
390,0.92,-0.37,-0.08,0.12,-2.32,-1.83,233,289,207,458,347
391,0.93,-0.36,-0.07,1.1,-2.69,-2.56,232,291,214,457,348
392,0.94,-0.36,-0.08,0.92,-3.11,-2.32,231,284,212,456,343
393,0.93,-0.37,-0.08,-0.06,-3.11,-2.32,234,292,213,458,345
394,0.92,-0.37,-0.08,0.0,-2.62,-2.56,232,288,218,457,352
395,0.93,-0.36,-0.07,-0.61,-3.23,-2.32,236,285,211,459,350
396,0.92,-0.37,-0.07,0.55,-2.08,-1.65,233,289,214,463,349
397,0.93,-0.37,-0.07,1.1,-2.75,-2.44,231,290,203,459,340
398,0.93,-0.37,-0.08,-0.67,-1.46,-2.32,233,286,211,453,344
399,0.92,-0.38,-0.06,1.59,-4.03,-3.66,228,286,210,459,347
400,0.89,-0.4,-0.02,4.15,-3.72,3.91,232,287,214,461,350
401,0.88,-0.42,-0.05,1.34,-4.58,-2.87,228,289,209,459,347
402,0.99,-0.36,-0.16,-5.31,-9.03,-9.28,236,291,211,455,345
403,0.94,-0.34,-0.03,-1.53,0.61,-2.62,236,283,216,454,350
404,0.95,-0.37,-0.09,-9.64,-3.6,9.77,232,286,216,457,345
405,0.93,-0.4,-0.08,-3.36,-1.1,-3.91,234,287,212,459,350
406,0.95,-0.4,-0.12,-5.8,-4.21,-10.62,232,290,207,460,349
407,0.98,-0.32,-0.11,7.08,-9.95,-6.71,233,289,212,462,345
408,0.85,-0.42,-0.05,2.38,3.36,3.23,234,286,207,459,346
409,0.9,-0.41,-0.07,-3.3,-0.12,-1.95,231,285,203,460,351
410,0.91,-0.41,-0.11,0.98,1.34,-3.42,231,291,218,460,348
411,0.94,-0.39,-0.09,-0.43,-8.79,0.06,232,287,214,458,348
412,0.89,-0.41,-0.05,-0.55,-0.55,-1.22,234,281,209,462,348
413,0.92,-0.39,-0.09,-7.75,-2.62,-4.88,233,288,206,458,347
414,0.94,-0.37,-0.1,1.59,-4.64,-4.52,229,287,214,458,349
415,0.91,-0.39,-0.09,1.46,-0.37,2.01,236,287,211,455,349
416,0.9,-0.41,-0.06,1.71,-2.44,-2.5,231,292,203,457,342
417,0.93,-0.37,-0.06,3.72,-2.5,-3.11,231,289,210,459,349
418,0.92,-0.38,-0.07,2.69,-3.78,-3.23,234,288,215,458,350
419,0.93,-0.39,-0.09,0.06,-3.97,-3.54,237,285,213,458,347
420,0.93,-0.38,-0.06,-0.43,-3.11,-3.05,227,287,215,464,344
421,0.93,-0.38,-0.07,1.53,-2.01,-2.69,235,297,211,459,346
422,0.92,-0.39,-0.07,-0.79,-2.38,-2.56,232,292,211,463,346
423,0.93,-0.38,-0.07,0.18,-3.54,-2.99,230,289,215,463,346
424,0.92,-0.39,-0.07,1.77,-2.62,-2.32,232,290,212,463,352
425,0.92,-0.4,-0.07,-0.79,-2.56,-1.89,235,285,216,456,347
426,0.92,-0.4,-0.07,0.61,-2.99,-2.69,233,289,209,456,356
427,0.93,-0.38,-0.06,0.73,-3.05,-3.05,232,289,215,461,348
428,0.91,-0.4,-0.05,-0.67,-1.89,-0.98,236,288,208,454,347
429,0.93,-0.38,-0.06,0.85,-3.42,-2.32,236,288,201,463,350
430,0.92,-0.39,-0.06,0.18,-3.66,-2.26,233,296,211,459,350
431,0.92,-0.39,-0.05,2.08,-2.93,-1.89,233,290,214,457,351
432,0.94,-0.38,-0.09,1.77,-3.48,-6.35,235,291,204,457,352
433,0.92,-0.39,-0.07,2.44,-2.81,-2.69,231,291,210,465,347
434,0.93,-0.39,-0.06,2.01,-5.0,-5.37,234,290,208,462,348
435,0.94,-0.38,-0.06,-0.43,-2.69,-2.2,230,289,210,471,350
436,0.9,-0.4,-0.05,-0.73,-2.99,-1.71,229,289,215,466,349
437,0.92,-0.39,-0.06,0.0,-3.23,-2.93,235,288,209,458,349
438,0.91,-0.4,-0.05,-0.73,-2.44,-1.95,235,291,211,463,346
439,0.91,-0.4,-0.05,-0.06,-3.72,-4.7,237,288,217,461,349
440,0.93,-0.39,-0.08,0.85,-3.23,-1.34,237,300,212,461,347
441,0.93,-0.37,-0.02,-2.99,-1.28,-0.85,227,286,211,457,343
442,0.96,-0.34,-0.06,-1.04,-5.98,-9.03,237,285,210,458,346
443,0.96,-0.32,-0.11,5.92,-11.47,-3.78,232,286,210,462,349
444,0.94,-0.33,-0.06,3.54,-1.1,0.0,237,290,211,456,347
445,0.93,-0.36,-0.06,1.65,-0.06,0.12,235,285,210,459,351
446,0.94,-0.38,-0.06,-0.79,-1.83,-2.14,234,287,210,460,349
447,0.92,-0.38,-0.06,0.98,-2.93,-2.87,230,282,217,464,349
448,0.93,-0.37,-0.06,-0.49,-2.87,-2.32,235,290,209,459,341
449,0.93,-0.37,-0.07,1.4,-2.44,-2.14,229,290,213,458,350
450,0.93,-0.37,-0.06,0.0,-3.17,-2.93,233,291,211,454,346
451,0.93,-0.38,-0.06,-0.98,-2.32,-2.69,234,294,211,461,348
452,0.92,-0.37,-0.07,-0.43,-3.11,-2.26,231,291,214,468,351
453,0.93,-0.37,-0.07,-0.06,-2.69,-2.08,232,288,214,459,345
454,0.93,-0.37,-0.07,0.73,-2.69,-2.08,233,291,214,464,346
455,0.93,-0.37,-0.07,-0.37,-2.5,-2.56,234,289,212,462,351
456,0.93,-0.37,-0.07,0.61,-2.69,-2.14,233,284,212,458,351
457,0.93,-0.37,-0.07,0.06,-1.83,-1.53,239,291,211,459,351
458,0.93,-0.38,-0.07,-0.79,-2.44,-2.5,234,297,213,457,348
459,0.94,-0.36,-0.06,0.92,-3.78,-3.11,232,289,213,461,346
460,0.93,-0.37,-0.06,-0.18,-3.36,-2.08,231,291,211,462,352
461,0.93,-0.37,-0.07,0.49,-2.14,-2.56,232,285,212,456,349
462,0.92,-0.37,-0.07,0.67,-2.26,-2.93,232,288,213,458,352
463,0.93,-0.37,-0.07,0.73,-2.99,-2.56,239,302,209,464,349
464,0.93,-0.37,-0.07,0.55,-2.38,-2.81,235,297,209,462,343
465,0.92,-0.38,-0.07,0.43,-2.99,-2.14,236,292,214,459,349
466,0.92,-0.38,-0.07,-0.43,-2.99,-2.2,227,292,215,462,348
467,0.92,-0.37,-0.06,0.43,-2.32,-1.89,231,296,209,455,350
468,0.93,-0.37,-0.07,0.18,-2.5,-2.75,232,290,210,462,349
469,0.93,-0.37,-0.06,-0.55,-3.66,-2.99,233,288,216,464,348
470,0.93,-0.37,-0.07,-0.12,-2.69,-1.77,233,285,214,460,350
471,0.92,-0.37,-0.08,0.12,-3.11,-2.56,233,292,206,462,351
472,0.92,-0.37,-0.06,-4.82,-5.98,-3.72,233,291,206,462,345
473,0.95,-0.35,-0.09,1.46,-2.62,0.24,230,289,205,453,357
474,0.91,-0.41,-0.07,-1.04,-0.49,-1.22,230,288,206,458,349
475,0.92,-0.38,-0.05,-3.97,-4.03,-6.29,232,290,214,455,348
476,0.95,-0.34,-0.11,0.31,-3.85,-4.64,235,295,214,461,347
477,0.93,-0.36,-0.09,1.59,-2.62,1.16,231,305,212,454,347
478,0.9,-0.39,-0.07,1.53,-2.01,-1.1,234,289,208,464,349
479,0.91,-0.39,-0.08,-0.43,-4.09,-3.91,236,283,213,467,351
480,0.93,-0.38,-0.08,-1.1,-1.71,-1.95,235,284,212,463,345
481,0.93,-0.37,-0.08,1.1,-2.87,-1.46,232,283,210,462,344
482,0.93,-0.38,-0.07,1.65,-2.2,-1.95,232,295,215,459,350
483,0.91,-0.39,-0.08,-0.61,-4.64,-4.21,234,290,213,463,347
484,0.94,-0.35,-0.08,0.37,-4.27,-3.42,236,289,208,462,348
485,0.93,-0.37,-0.09,-0.55,-3.36,-1.59,235,288,208,463,348
486,0.94,-0.36,-0.08,1.53,-2.14,-2.44,236,292,212,462,350
487,0.92,-0.37,-0.07,0.43,-2.93,-2.01,232,288,219,462,350
488,0.92,-0.37,-0.07,-0.43,-3.42,-3.11,234,288,216,459,351
489,0.93,-0.36,-0.07,0.79,-2.38,-1.59,232,291,212,465,350
490,0.91,-0.39,-0.08,0.37,-3.11,-2.32,234,291,207,462,349
491,0.93,-0.38,-0.08,1.04,-4.03,-3.48,235,289,215,457,348
492,0.93,-0.37,-0.07,0.0,-3.23,-1.89,237,289,216,457,344
493,0.92,-0.38,-0.07,0.43,-2.26,-1.95,223,293,214,458,346
494,0.92,-0.38,-0.07,0.06,-2.87,-2.38,234,292,204,461,350
495,0.93,-0.37,-0.07,0.79,-2.81,-2.56,226,289,211,455,350
496,0.92,-0.38,-0.07,0.49,-2.81,-2.62,234,291,204,465,345
497,0.92,-0.38,-0.07,1.28,-2.75,-1.83,243,291,210,460,350
498,0.93,-0.37,-0.07,-0.37,-2.69,-1.65,233,289,211,461,350
499,0.92,-0.38,-0.07,0.06,-2.44,-3.05,232,289,213,457,350
500,0.92,-0.37,-0.07,0.31,-2.5,-2.38,239,286,212,460,350
501,0.93,-0.37,-0.07,0.85,-3.05,-3.17,233,290,203,457,346
502,0.93,-0.37,-0.07,1.46,-2.62,-1.53,230,288,212,460,347
503,0.93,-0.37,-0.07,1.22,-3.42,-2.32,233,289,208,456,349
504,0.93,-0.38,-0.08,-0.31,-2.56,-2.32,230,290,208,464,347
505,0.92,-0.38,-0.07,1.16,-3.6,-4.64,230,285,209,458,354
506,0.91,-0.38,-0.06,0.0,-3.23,-2.2,236,292,206,456,346
507,0.93,-0.38,-0.07,0.12,-3.6,-2.81,232,287,213,463,351
508,0.93,-0.38,-0.07,-1.34,-2.87,-2.5,238,287,212,461,351
509,0.92,-0.38,-0.07,0.31,-2.93,-2.56,231,293,212,461,349
510,0.93,-0.37,-0.07,0.43,-2.81,-2.14,232,295,212,463,347
511,0.94,-0.38,-0.08,1.65,-3.48,-1.89,233,284,212,460,350
512,0.93,-0.37,-0.06,0.31,-2.38,-2.32,232,285,211,457,352
513,0.93,-0.37,-0.07,-0.12,-2.44,-2.81,232,290,210,463,346
514,0.93,-0.37,-0.07,0.24,-2.99,-2.99,233,290,216,463,350
515,0.91,-0.39,-0.06,1.28,-2.93,-1.22,234,292,211,461,349
516,0.93,-0.38,-0.08,1.28,-2.62,-0.92,233,293,210,459,349
517,0.9,-0.4,-0.06,-1.53,-1.71,-0.24,230,283,208,464,348
518,0.9,-0.42,-0.09,0.06,-3.54,-5.0,234,290,208,464,346
519,0.93,-0.38,-0.07,-0.06,-2.5,-2.14,231,289,211,466,348
520,0.91,-0.25,-0.16,3.97,5.92,-8.06,222,279,173,437,340
521,0.92,-0.34,-0.09,12.45,-8.0,-4.88,226,282,178,433,345
522,0.97,-0.34,-0.12,-13.49,-2.93,-6.9,226,281,169,432,334
523,0.95,-0.32,-0.09,-1.89,-3.85,-2.38,226,283,180,440,335
524,0.96,-0.32,-0.11,-3.97,-3.23,1.28,232,282,176,435,337
525,0.96,-0.31,-0.08,-3.66,1.28,-3.54,230,280,178,431,337
526,0.94,-0.32,-0.07,-5.55,1.65,4.82,231,275,179,439,333
527,0.95,-0.34,-0.05,-2.81,2.32,-0.37,230,281,181,442,336
528,0.93,-0.33,0.02,-3.05,-3.23,-0.67,230,282,183,441,333
529,0.95,-0.32,-0.01,-2.01,-4.27,-7.39,229,282,182,446,338
530,1.0,-0.3,-0.02,-4.94,-5.86,-5.25,236,282,180,439,340
531,0.98,-0.26,-0.06,-0.73,-4.76,-4.7,233,276,183,446,341
532,0.95,-0.27,-0.0,-2.32,-1.1,-2.81,229,291,175,447,340
533,0.97,-0.25,-0.02,1.77,-4.58,-3.85,229,279,188,452,338
534,0.97,-0.26,-0.02,0.55,-2.32,-2.99,228,284,183,451,342
535,0.97,-0.25,-0.01,-0.55,-4.03,-1.28,226,282,184,445,338
536,0.97,-0.25,-0.03,1.4,-2.56,-3.66,231,284,182,449,339
537,0.97,-0.25,-0.02,-2.2,-5.68,-4.15,230,285,186,444,339
538,0.98,-0.24,-0.05,-1.16,-5.25,-3.11,231,282,175,450,342
539,0.98,-0.23,-0.05,0.85,-3.72,-2.01,228,282,183,451,344
540,0.98,-0.24,-0.07,-0.79,-2.75,-0.92,227,281,188,450,341
541,0.96,-0.24,-0.07,6.16,-9.46,-12.08,229,283,187,450,339
542,0.99,-0.22,-0.1,-6.84,-3.48,1.22,228,283,183,458,336
543,0.98,-0.22,-0.08,2.26,-6.23,-2.87,229,283,183,449,340
544,0.96,-0.25,-0.08,-0.73,-3.17,-1.59,229,283,185,455,341
545,0.95,-0.26,-0.09,-2.56,-2.93,-1.34,230,278,190,446,345
546,0.93,-0.26,-0.07,-1.16,-0.31,0.06,228,286,185,453,344
547,0.95,-0.27,-0.09,-0.06,-1.28,-2.14,230,282,186,457,343
548,0.94,-0.28,-0.1,-0.61,-4.03,-2.99,230,283,187,451,349
549,0.96,-0.26,-0.11,-0.12,-2.08,-2.2,229,284,188,457,346
550,0.96,-0.27,-0.12,-0.12,-1.46,-1.89,229,278,186,452,345
551,1.0,-0.25,-0.15,4.64,-2.81,-5.55,226,282,185,450,347
552,0.98,-0.24,-0.12,0.55,-4.21,-3.36,233,284,192,451,341
553,0.97,-0.26,-0.12,0.31,-4.39,-3.23,229,281,193,450,346
554,0.96,-0.26,-0.13,-0.06,-2.62,-3.6,228,284,191,446,347
555,0.96,-0.26,-0.12,0.49,-4.39,-2.26,225,283,193,454,346
556,0.96,-0.25,-0.12,0.55,-2.26,-2.81,230,282,190,451,347
557,0.95,-0.26,-0.12,0.43,-2.75,-4.64,233,284,188,453,345
558,0.94,-0.27,-0.11,0.43,-3.54,-2.26,233,277,197,448,349
559,0.96,-0.26,-0.12,0.06,-4.46,-1.83,231,290,190,447,341
560,0.96,-0.27,-0.1,-0.98,-1.65,1.34,224,282,192,449,344
561,0.96,-0.28,-0.11,0.18,-1.77,-1.77,232,285,193,452,343
562,0.95,-0.3,-0.1,-0.67,-1.89,-0.31,229,285,192,453,345
563,0.94,-0.31,-0.09,-0.67,-2.26,-0.37,228,286,188,448,346
564,0.95,-0.31,-0.09,2.2,-3.6,-3.36,232,284,186,449,343
565,0.95,-0.31,-0.08,0.67,-3.17,-2.44,233,287,189,453,346
566,0.94,-0.32,-0.08,-1.22,-2.38,-1.95,228,283,188,455,338
567,0.95,-0.32,-0.09,-0.49,-2.99,-2.87,225,285,190,453,347
568,0.94,-0.31,-0.09,1.04,-1.22,-1.53,235,283,189,447,342
569,0.95,-0.3,-0.08,0.98,-3.66,-3.66,230,284,189,451,348
570,0.94,-0.3,-0.08,1.34,-2.38,-2.44,244,281,187,453,349
571,0.96,-0.3,-0.11,0.67,-4.88,-5.98,231,288,183,454,349
572,0.94,-0.31,-0.08,-0.24,-2.75,-2.32,231,286,185,451,338
573,0.95,-0.31,-0.1,-1.46,-4.39,-4.82,233,284,190,453,346
574,0.96,-0.29,-0.11,-0.55,-2.93,-2.99,226,281,192,454,345
575,0.94,-0.31,-0.1,1.71,-3.36,-2.32,232,281,195,454,342
576,0.96,-0.29,-0.12,1.28,-4.58,-5.55,232,283,188,451,346
577,0.95,-0.29,-0.1,0.43,-4.58,-3.85,231,291,191,446,345
578,0.96,-0.29,-0.12,1.28,-3.3,-1.46,231,288,197,450,349
579,0.95,-0.3,-0.08,0.67,-1.77,-2.44,232,286,198,449,344
580,0.94,-0.3,-0.11,-0.79,-2.2,-2.01,232,284,190,448,347
581,0.96,-0.3,-0.1,1.65,-3.48,-2.75,228,282,194,454,344
582,0.93,-0.31,-0.09,-0.06,-3.17,-2.62,231,280,199,449,345
583,0.94,-0.32,-0.1,-0.49,-1.53,-1.53,228,286,194,449,346
584,0.95,-0.31,-0.11,-0.06,-3.42,-3.48,236,285,195,453,348
585,0.96,-0.29,-0.09,-0.18,-2.81,-2.62,229,288,195,452,345
586,0.97,-0.29,-0.09,0.85,-3.6,-2.93,231,286,196,453,349
587,0.96,-0.29,-0.1,0.12,-3.42,-0.73,232,285,196,446,345
588,0.94,-0.32,-0.08,0.55,-3.23,-2.2,232,289,184,453,346
589,0.93,-0.33,-0.1,-2.32,-2.5,-2.38,229,287,193,452,343
590,0.95,-0.31,-0.08,-0.37,-3.23,-3.11,233,286,196,455,350
591,0.95,-0.31,-0.09,0.92,-2.99,-3.05,227,283,196,456,346
592,0.93,-0.32,-0.08,-0.43,-3.36,-0.73,233,287,195,453,344
593,0.93,-0.32,-0.08,0.98,-3.17,-2.62,232,284,191,451,345
594,0.96,-0.3,-0.08,0.61,-3.78,-2.69,229,285,195,452,346
595,0.94,-0.31,-0.08,3.97,-3.54,-2.87,229,287,195,455,347
596,0.95,-0.31,-0.08,1.34,-3.23,-3.6,230,285,191,456,346
597,0.94,-0.33,-0.08,0.49,-3.23,-2.62,229,276,197,450,345
598,0.94,-0.32,-0.08,-0.06,-2.38,-2.38,230,278,198,449,348
599,0.94,-0.32,-0.06,0.06,-1.46,-0.79,228,284,193,456,345
600,0.95,-0.31,-0.08,0.06,-2.81,-2.14,228,286,186,452,349
601,0.96,-0.31,-0.07,0.06,-2.14,-1.89,228,287,193,454,358
602,0.95,-0.32,-0.08,0.85,-3.05,-2.26,230,285,192,452,346
603,0.94,-0.31,-0.07,0.85,-3.66,-2.26,233,284,193,454,347
604,0.94,-0.31,-0.07,1.22,-3.23,-2.2,231,282,197,453,345
605,0.95,-0.31,-0.09,-0.73,-2.99,-2.87,228,283,199,456,347
606,0.94,-0.32,-0.08,-0.12,-2.5,-2.93,228,286,194,457,348
607,0.94,-0.32,-0.07,1.22,-2.62,-2.62,230,288,195,451,346
608,0.95,-0.31,-0.08,0.31,-3.11,-2.26,227,285,199,457,347
609,0.95,-0.31,-0.08,0.55,-2.75,-2.14,231,285,200,453,346
610,0.96,-0.31,-0.09,0.24,-3.17,-2.32,230,286,196,452,348
611,0.95,-0.32,-0.08,-0.92,-2.32,-2.32,231,283,199,456,346
612,0.95,-0.32,-0.07,0.43,-2.5,-2.32,222,283,200,453,345
613,0.95,-0.32,-0.08,0.24,-2.93,-2.56,232,283,204,455,348
614,0.94,-0.32,-0.08,0.18,-3.48,-2.32,232,283,201,456,345
615,0.93,-0.32,-0.07,0.49,-4.15,-4.58,231,283,196,454,346
616,0.97,-0.3,-0.08,1.71,-2.99,-3.11,228,283,196,455,347
617,0.94,-0.32,-0.08,0.79,-2.44,-1.4,231,282,196,451,344
618,0.95,-0.31,-0.08,0.43,-3.91,-2.08,235,284,199,452,347
619,0.97,-0.3,-0.06,1.65,-3.66,-4.03,225,284,186,451,351
620,0.95,-0.3,-0.08,0.24,-3.54,-2.2,229,284,196,453,347
621,0.95,-0.33,-0.08,0.0,-2.99,-2.93,226,286,198,454,346
622,0.94,-0.32,-0.07,-0.43,-2.44,-2.5,232,289,198,457,346
623,0.95,-0.31,-0.07,0.79,-2.08,-1.1,229,285,196,454,348
624,0.96,-0.31,-0.09,0.79,-3.23,-2.44,232,282,201,455,359
625,0.95,-0.31,-0.08,-0.31,-3.72,-2.32,229,284,202,453,345
626,0.95,-0.3,-0.07,1.16,-5.19,-6.41,230,284,204,456,343
627,0.95,-0.31,-0.1,0.12,-1.46,-2.5,226,283,196,462,346
628,0.94,-0.31,-0.09,-0.43,-2.69,-2.87,234,301,195,454,348
629,0.95,-0.31,-0.07,0.55,-2.32,-3.36,232,288,198,455,345
630,0.96,-0.3,-0.07,0.31,-2.44,-2.08,232,289,187,454,348
631,0.96,-0.3,-0.08,1.95,-3.85,-2.75,231,291,196,458,348
632,0.93,-0.32,-0.06,2.14,-6.9,-2.99,236,285,197,452,350
633,0.92,-0.34,-0.08,-0.18,-2.81,-2.75,229,279,199,456,349
634,0.95,-0.32,-0.08,-0.55,-1.46,-3.23,231,285,196,462,343
635,0.94,-0.33,-0.08,0.55,-2.44,-1.46,226,279,195,460,348
636,0.93,-0.33,-0.08,-0.06,-3.42,-1.53,232,287,201,453,347
637,0.92,-0.35,-0.11,-1.4,-2.32,-0.43,234,281,194,455,347
638,0.95,-0.32,-0.08,1.34,-3.78,-4.39,233,293,199,459,350
639,0.94,-0.32,-0.1,-0.31,-2.08,-2.44,232,283,203,457,344
640,0.94,-0.33,-0.09,-1.28,-2.87,-2.44,231,283,201,451,348
641,0.91,-0.35,-0.08,-2.08,-4.33,-3.6,232,283,193,457,349
642,0.94,-0.33,-0.08,1.04,-4.33,-3.17,230,287,198,455,348
643,0.95,-0.32,-0.08,1.65,-2.69,-2.99,232,283,198,460,343
644,0.95,-0.32,-0.09,-0.12,-4.27,-1.1,233,285,200,456,349
645,0.95,-0.34,-0.11,2.99,-6.84,-0.98,228,290,197,456,345
646,0.92,-0.35,-0.1,-0.73,-2.75,-2.44,231,285,205,452,346
647,0.93,-0.33,-0.07,-1.71,0.73,-2.14,230,286,203,455,350
648,0.94,-0.32,-0.07,1.34,-3.6,-3.23,233,286,201,456,353
649,0.94,-0.33,-0.07,1.83,-3.91,-1.89,232,288,189,455,349
650,0.94,-0.35,-0.09,-2.5,-3.36,-1.65,233,289,202,452,347
651,0.94,-0.34,-0.07,-1.53,-3.11,-2.99,233,285,198,455,347
652,0.93,-0.34,-0.07,-0.61,-3.17,-2.56,233,281,192,457,349
653,0.94,-0.34,-0.07,-0.79,-3.66,-2.75,232,282,202,456,347
654,0.95,-0.33,-0.06,0.49,-1.53,-1.71,231,287,192,466,348
655,0.94,-0.34,-0.07,1.95,-1.65,-2.62,233,286,200,458,349
656,0.94,-0.34,-0.06,0.73,-3.17,-3.17,234,283,200,461,346
657,0.95,-0.34,-0.07,2.14,-2.62,-2.75,234,289,205,458,347
658,0.93,-0.35,-0.06,-0.43,-2.5,-2.08,233,283,202,459,347
659,0.93,-0.36,-0.06,0.49,-1.71,-1.1,232,285,200,458,345
660,0.95,-0.34,-0.07,-0.18,-4.09,-1.77,228,287,200,456,349
661,0.94,-0.35,-0.08,1.34,-0.98,-1.46,231,287,201,456,349
662,0.93,-0.34,-0.05,2.08,-2.56,-3.48,232,284,201,457,349
663,0.95,-0.36,-0.08,1.04,-0.31,-1.59,233,283,199,464,345
664,0.93,-0.36,-0.06,0.37,-1.59,-2.38,231,286,204,456,349
665,0.95,-0.33,-0.07,-1.28,-3.36,-3.91,233,284,202,456,351
666,0.94,-0.35,-0.07,0.73,-2.14,-2.01,233,288,202,454,349
667,0.96,-0.33,-0.07,1.04,-1.71,-1.46,232,287,201,461,346
668,0.93,-0.36,-0.07,-1.89,-3.66,-4.09,243,284,205,461,344
669,0.91,-0.39,-0.09,1.1,-6.04,-5.13,231,281,203,453,348
670,0.95,-0.36,-0.08,2.08,-4.7,-2.93,233,287,203,456,348
671,0.93,-0.37,-0.07,5.07,-9.77,-5.37,231,289,200,451,351
672,0.95,-0.33,-0.08,-0.06,-6.77,-7.93,234,284,204,457,349
673,0.97,-0.32,-0.14,0.85,-3.11,-2.5,230,288,204,456,350
674,0.94,-0.34,-0.08,1.22,-2.32,-1.1,233,287,201,456,349
675,0.95,-0.34,-0.09,5.98,-8.54,1.04,229,287,206,457,343
676,0.91,-0.38,-0.05,-1.1,-4.52,-2.32,234,285,198,458,349
677,0.91,-0.38,-0.06,0.67,-1.95,-1.89,237,287,205,459,345
678,0.93,-0.38,-0.07,1.22,-3.11,-2.26,244,284,197,469,353
679,0.93,-0.37,-0.08,0.49,-2.87,-1.71,231,285,201,456,347
680,0.91,-0.39,-0.06,-0.61,-2.01,-0.06,229,288,203,460,348
681,0.93,-0.38,-0.08,0.67,-3.78,-2.99,234,285,203,461,355
682,0.9,-0.39,-0.07,0.18,-1.95,-1.28,233,288,203,456,352
683,0.92,-0.38,-0.07,0.18,-3.85,-3.48,234,288,205,461,349
684,0.92,-0.37,-0.06,-0.85,-4.09,-2.99,233,286,201,459,358
685,0.92,-0.37,-0.08,0.0,-3.54,-3.11,234,286,204,455,358
686,0.92,-0.38,-0.1,-0.31,-2.75,-3.36,233,283,202,457,349
687,0.94,-0.36,-0.1,0.67,-3.85,-3.17,231,287,203,459,349
688,0.93,-0.35,-0.09,1.4,-4.76,-3.42,234,286,203,457,352
689,0.93,-0.37,-0.1,0.49,-3.42,-3.66,231,285,215,462,351
690,0.94,-0.35,-0.1,1.77,-3.17,-2.01,230,286,202,457,348
691,0.92,-0.36,-0.08,0.12,-1.65,-0.79,235,289,205,456,347
692,0.92,-0.36,-0.09,-0.12,-2.32,-2.69,230,283,201,461,349
693,0.89,-0.39,-0.08,0.92,-1.65,-0.18,229,285,205,453,348
694,0.94,-0.34,-0.1,6.04,-2.32,-2.81,228,284,206,458,350
695,0.96,-0.33,-0.11,0.37,-0.67,-1.71,234,287,201,456,349
696,0.94,-0.36,-0.1,1.22,-1.46,-1.22,230,286,205,452,348
697,0.93,-0.4,-0.12,5.55,-9.46,-2.93,231,290,204,452,346
698,0.95,-0.34,-0.12,1.83,-3.85,-4.58,233,295,204,461,347
699,0.94,-0.36,-0.1,1.1,-3.05,-3.23,233,288,204,459,349
700,0.96,-0.34,-0.15,2.01,-4.94,-5.0,229,289,206,448,349
701,0.95,-0.34,-0.12,-0.12,-2.01,-2.2,233,290,205,461,351
702,0.92,-0.35,-0.1,0.0,-3.3,-3.17,232,286,203,459,352
703,0.92,-0.37,-0.11,0.55,-0.98,-1.34,230,290,202,451,346
704,0.96,-0.33,-0.1,4.33,0.79,-3.42,231,286,205,460,350
705,0.93,-0.36,-0.07,0.55,-1.95,-2.32,257,289,205,451,341
706,0.94,-0.36,-0.07,2.87,-1.83,0.24,231,286,205,452,346
707,0.93,-0.37,-0.05,0.92,-3.91,-2.69,232,289,202,453,349
708,0.94,-0.36,-0.06,-0.12,-2.81,-2.2,233,286,200,453,350
709,0.93,-0.38,-0.06,-0.61,-2.32,-1.28,234,288,209,457,347
710,0.93,-0.37,-0.05,0.67,-2.81,-2.56,233,285,213,456,347
711,0.92,-0.38,-0.04,0.85,-2.69,-1.22,235,288,203,459,349
712,0.92,-0.39,-0.05,0.61,-3.23,-1.77,234,288,200,458,349
713,0.92,-0.38,-0.05,-1.1,-2.56,-2.75,231,289,203,458,348
714,0.94,-0.37,-0.05,-0.43,-3.11,-2.14,231,288,203,460,351
715,0.93,-0.38,-0.05,-0.49,-3.23,-2.56,228,287,206,457,350
716,0.93,-0.39,-0.05,0.73,-2.93,-2.26,233,288,203,456,347
717,0.93,-0.38,-0.04,0.61,-1.95,-2.14,234,289,208,453,346
718,0.93,-0.38,-0.05,0.85,-2.69,-2.99,231,294,201,461,349
719,0.93,-0.38,-0.05,0.06,-2.44,-2.2,231,290,202,460,353
720,0.91,-0.39,-0.05,-0.55,-2.69,-2.32,233,292,204,457,350
721,0.93,-0.38,-0.05,0.37,-3.85,-2.81,232,303,212,462,350
722,0.93,-0.37,-0.06,-1.04,0.06,-0.85,230,290,202,454,347
723,0.93,-0.37,-0.05,0.43,-3.05,-2.87,236,292,202,455,351
724,0.93,-0.38,-0.04,1.16,-3.17,-2.32,232,291,205,454,349
725,0.92,-0.38,-0.05,0.85,-2.38,-1.34,237,287,195,456,351
726,0.94,-0.38,-0.06,0.55,-3.72,-2.99,232,280,202,453,352
727,0.92,-0.39,-0.06,-0.43,-3.78,-2.93,227,292,204,456,348
728,0.92,-0.38,-0.05,-0.55,-2.5,-2.62,229,287,213,460,348
729,0.93,-0.38,-0.05,0.49,-3.23,-2.93,232,287,205,458,351
730,0.91,-0.37,-0.04,-0.24,-2.5,-1.83,233,285,203,460,350
731,0.92,-0.38,-0.04,0.92,-1.83,-2.56,232,291,204,453,349
732,0.93,-0.38,-0.06,0.24,-2.69,-1.83,235,288,207,457,352
733,0.93,-0.37,-0.05,0.67,-2.99,-2.2,232,293,207,456,351
734,0.91,-0.38,-0.05,0.49,-3.17,-1.71,245,290,210,455,351
735,0.93,-0.39,-0.05,-0.06,-2.93,-1.34,229,289,208,455,349
736,0.93,-0.38,-0.05,0.49,-2.44,-2.75,232,288,205,459,348
737,0.91,-0.38,-0.05,-0.18,-2.38,-2.44,235,290,205,456,349
738,0.92,-0.38,-0.05,0.49,-2.75,-2.2,235,287,218,472,354
739,0.93,-0.37,-0.05,0.55,-2.93,-2.69,235,290,206,458,344
740,0.92,-0.38,-0.05,0.98,-3.3,-2.62,231,289,202,456,342
741,0.92,-0.38,-0.06,1.1,-3.17,-2.62,231,288,199,454,351
742,0.94,-0.37,-0.06,-0.98,-2.62,-2.08,235,289,204,456,351
743,0.92,-0.37,-0.05,1.59,-2.93,-2.87,234,293,206,456,347
744,0.93,-0.38,-0.06,0.06,-2.99,-2.75,233,293,203,460,352
745,0.92,-0.38,-0.05,-0.31,-2.56,-2.26,233,289,201,453,353
746,0.94,-0.36,-0.05,0.0,-3.23,-2.81,235,286,205,454,349
747,0.91,-0.39,-0.05,0.37,-2.62,-2.87,229,290,206,459,348
748,0.94,-0.37,-0.05,-0.43,-3.11,-2.32,237,290,208,452,346
749,0.91,-0.38,-0.05,0.43,-2.93,-1.46,232,287,209,457,349
750,0.92,-0.38,-0.05,0.43,-3.05,-2.2,230,291,205,461,353
751,0.93,-0.38,-0.05,0.49,-2.32,-2.56,233,290,208,458,348
752,0.93,-0.38,-0.06,0.18,-2.69,-3.6,229,283,206,457,347
753,0.92,-0.38,-0.05,0.31,-2.32,-2.08,233,285,203,456,349
754,0.94,-0.37,-0.05,0.31,-2.87,-2.26,233,287,206,458,350
755,0.92,-0.38,-0.05,1.1,-3.05,-2.5,230,289,206,460,351
756,0.93,-0.38,-0.06,0.55,-3.36,-2.56,235,283,206,456,348
757,0.94,-0.37,-0.06,0.49,-2.2,-1.83,234,286,203,472,350
758,0.92,-0.38,-0.04,-0.12,-2.14,-2.38,232,289,205,450,349
759,0.91,-0.39,-0.05,-0.18,-2.56,-2.69,232,290,209,456,349
760,0.92,-0.39,-0.05,-0.06,-3.91,-2.44,234,292,206,453,350
761,0.94,-0.37,-0.06,0.12,-3.3,-2.01,231,291,202,456,349
762,0.92,-0.39,-0.05,0.24,-2.38,-2.32,232,292,208,452,347
763,0.93,-0.38,-0.06,0.12,-2.38,-1.95,236,288,208,452,352
764,0.92,-0.38,-0.05,-4.58,-1.53,-0.31,228,284,201,460,351
765,0.93,-0.37,-0.06,-1.46,-6.16,-4.27,234,288,208,451,351
766,0.91,-0.39,-0.06,0.06,-1.1,-0.92,232,285,204,459,354
767,0.92,-0.38,-0.06,-1.65,-2.38,-0.67,235,285,206,462,351
768,0.92,-0.38,-0.07,1.04,-2.32,-2.69,233,286,205,459,350
769,0.92,-0.4,-0.07,-0.43,-2.56,-2.5,229,288,208,452,348
770,0.93,-0.37,-0.07,0.73,-2.81,-1.89,234,290,208,452,346
771,0.92,-0.39,-0.07,-0.18,-2.56,-2.99,235,290,206,458,351
772,0.92,-0.38,-0.07,1.89,-2.99,-2.14,230,287,208,450,346
773,0.91,-0.39,-0.07,0.12,-3.48,-1.95,234,291,206,458,342
774,0.91,-0.39,-0.07,0.79,-2.08,-2.5,227,287,219,455,350
775,0.92,-0.38,-0.08,-0.37,-2.38,-1.77,230,290,209,458,349
776,0.92,-0.39,-0.09,-0.06,-2.69,-2.81,229,285,208,460,346
777,0.92,-0.39,-0.08,-0.06,-2.93,-3.3,232,288,209,456,352
778,0.9,-0.39,-0.05,1.59,-3.91,-2.81,232,287,208,457,345
779,0.92,-0.39,-0.08,-1.1,-3.3,-1.53,231,283,207,460,348
780,0.94,-0.38,-0.1,0.06,-4.15,-3.6,233,289,205,454,348
781,0.92,-0.39,-0.08,-0.79,-3.05,-3.05,232,295,208,451,351
782,0.91,-0.39,-0.06,1.77,-4.15,-4.27,238,287,209,460,351
783,0.91,-0.39,-0.07,0.98,-2.26,-2.26,231,290,204,451,347
784,0.92,-0.39,-0.09,0.06,-3.05,-3.11,244,288,208,458,349
785,0.92,-0.39,-0.08,0.67,-8.54,-5.55,227,290,205,456,352
786,0.98,-0.34,-0.12,-0.43,-0.43,-2.5,229,291,207,453,350
787,0.91,-0.38,-0.08,2.81,-3.6,-3.78,230,289,211,451,346
788,0.93,-0.37,-0.08,1.77,-4.58,-3.23,230,290,208,461,347
789,0.93,-0.37,-0.08,0.43,-2.38,-1.53,231,292,207,461,349
790,0.92,-0.38,-0.08,1.16,-2.62,-2.38,232,289,208,455,351
791,0.93,-0.38,-0.08,0.37,-1.95,-2.81,257,291,212,457,347
792,0.93,-0.37,-0.07,1.04,-2.69,-2.75,236,290,218,461,352
793,0.94,-0.37,-0.08,0.37,-3.54,-3.78,261,291,206,461,347
794,0.91,-0.39,-0.07,0.79,-1.89,-2.32,230,290,206,458,351
795,0.92,-0.38,-0.08,1.04,-3.36,-3.54,232,284,208,451,351
796,0.92,-0.38,-0.09,0.55,-2.87,-2.75,233,290,206,454,350
797,0.92,-0.37,-0.1,-1.95,-4.76,-2.87,231,289,217,462,349
798,0.93,-0.38,-0.07,1.71,-4.15,-3.48,231,288,206,459,350
799,0.94,-0.37,-0.09,0.31,-2.62,-2.5,232,288,198,456,347
800,0.93,-0.38,-0.08,1.1,-2.99,-3.36,237,282,208,458,356
801,0.91,-0.39,-0.09,0.55,-3.17,-2.99,230,288,210,453,349
802,0.94,-0.37,-0.08,-0.31,-2.26,-2.2,245,292,209,450,347
803,0.96,-0.35,-0.1,0.06,-2.5,-4.09,232,290,208,459,348
804,0.92,-0.36,-0.08,-0.85,-3.97,-5.55,230,286,206,456,352
805,0.95,-0.34,-0.1,3.48,-4.82,-1.04,231,286,207,460,348
806,0.94,-0.35,-0.09,2.2,-4.27,-4.09,232,288,207,452,348
807,0.95,-0.35,-0.11,0.98,-4.09,-3.17,231,286,210,457,349
808,0.94,-0.35,-0.08,1.28,-1.28,-0.24,232,289,205,461,352
809,0.95,-0.34,-0.09,1.83,-4.7,-4.39,232,290,206,449,349
810,0.95,-0.35,-0.11,-1.34,-2.75,-5.25,227,289,209,457,352
811,0.96,-0.34,-0.12,1.89,-2.62,-2.32,233,289,206,455,350
812,0.91,-0.37,-0.07,-1.22,-4.21,-2.2,231,287,207,458,350
813,0.91,-0.36,-0.05,-0.55,-3.05,-1.77,231,303,209,460,350
814,0.91,-0.36,-0.09,2.26,-3.6,-0.92,237,289,209,456,349
815,0.95,-0.35,-0.07,0.06,-1.65,-0.67,236,289,211,456,348
816,0.94,-0.35,-0.1,-0.61,-5.62,-6.84,231,290,210,455,348
817,0.94,-0.35,-0.09,1.46,-3.36,-4.33,231,292,211,459,351
818,0.97,-0.36,-0.12,-2.75,-6.84,-6.1,230,288,207,458,348
819,0.99,-0.32,-0.16,1.53,-3.17,-3.85,230,287,210,459,349
820,0.94,-0.34,-0.12,-1.71,-3.05,-3.23,233,290,210,452,345
821,0.95,-0.33,-0.13,0.55,-2.32,-3.72,229,287,204,456,345
822,0.96,-0.34,-0.13,2.62,0.31,-3.23,233,283,211,453,349
823,0.93,-0.35,-0.11,1.1,-4.09,-4.7,230,289,208,460,343
824,0.94,-0.34,-0.12,-0.37,-3.36,-2.14,232,288,211,454,345
825,0.94,-0.34,-0.12,0.49,-2.56,-1.83,235,289,216,458,347
826,0.93,-0.34,-0.11,0.79,-3.11,-2.62,230,284,208,459,345
827,0.93,-0.34,-0.11,0.24,-3.11,-2.5,238,289,211,462,344
828,0.94,-0.34,-0.1,0.06,-2.56,-2.08,231,289,210,453,345
829,0.94,-0.34,-0.11,2.26,-2.99,-4.09,231,291,210,455,347
830,0.94,-0.34,-0.13,0.24,-2.75,-1.65,232,287,203,456,346
831,0.94,-0.34,-0.12,0.18,-5.13,-3.6,234,290,212,455,349
832,0.93,-0.34,-0.12,0.55,-2.75,-2.01,233,288,221,459,349
833,0.93,-0.33,-0.12,-0.43,-3.91,-3.72,231,289,215,458,345
834,0.94,-0.32,-0.12,1.46,-3.23,-3.23,241,287,213,451,349
835,0.95,-0.33,-0.12,1.46,-2.87,-2.87,231,294,213,458,343
836,0.93,-0.33,-0.12,-0.98,-3.11,-2.14,241,289,206,457,349
837,0.93,-0.33,-0.12,0.37,-2.44,-4.33,235,286,209,457,348
838,0.94,-0.33,-0.12,0.43,-2.62,-2.2,230,285,206,473,344
839,0.94,-0.33,-0.11,0.43,-1.59,-1.04,233,288,204,455,349
840,0.94,-0.34,-0.12,5.8,-1.34,6.29,235,288,211,456,341
841,0.91,-0.4,-0.09,0.85,-2.93,-0.12,232,291,214,455,342
842,0.87,-0.44,-0.06,6.77,3.42,2.62,231,291,210,458,345
843,0.92,-0.4,-0.07,-0.85,-3.72,-4.09,236,291,210,460,344
844,0.92,-0.39,-0.07,-0.18,-4.09,-2.99,231,289,213,452,345
845,0.92,-0.4,-0.07,0.73,-2.56,-3.91,238,288,209,453,345
846,0.92,-0.4,-0.08,0.31,-3.17,-3.42,232,285,211,458,347
847,0.92,-0.39,-0.07,-1.28,-3.23,-1.4,223,289,200,460,341
848,0.9,-0.41,-0.07,-1.04,-2.38,-2.69,236,290,212,459,345
849,0.9,-0.4,-0.06,1.28,-2.44,-2.62,235,289,210,456,346
850,0.91,-0.4,-0.07,-0.12,-2.87,-2.56,231,291,207,457,347
851,0.91,-0.39,-0.07,1.1,-2.26,-2.14,230,293,215,461,345
852,0.92,-0.39,-0.07,-0.06,-3.97,-4.58,233,292,212,463,346
853,0.92,-0.38,-0.08,-0.79,-4.15,-3.48,234,292,214,452,347
854,0.93,-0.38,-0.08,-0.43,-4.15,-2.93,232,291,206,454,346
855,0.94,-0.37,-0.08,0.73,-4.09,-2.69,234,288,207,461,347
856,0.93,-0.37,-0.08,0.92,-2.87,-3.05,228,293,204,457,346
857,0.92,-0.38,-0.08,-0.79,-6.1,-5.0,235,288,216,452,349
858,0.93,-0.37,-0.08,0.55,-3.36,-2.56,233,293,203,460,343
859,0.91,-0.38,-0.09,0.24,-3.48,-2.32,228,289,207,454,346
860,0.92,-0.37,-0.09,0.49,-2.93,-2.81,235,288,212,459,346
861,0.94,-0.36,-0.08,1.4,-1.71,-2.38,233,290,208,460,344
862,0.93,-0.37,-0.09,1.4,-2.93,-2.75,233,292,197,455,342
863,0.94,-0.36,-0.09,-0.12,-3.11,-1.83,232,294,210,452,346
864,0.92,-0.37,-0.09,0.31,-2.5,-2.56,232,289,205,462,346
865,0.94,-0.37,-0.09,-0.06,-2.81,-2.87,233,291,213,456,346
866,0.93,-0.37,-0.08,-0.06,-3.3,-2.2,236,290,212,462,347
867,0.92,-0.38,-0.09,0.67,-3.11,-1.65,232,299,212,455,347
868,0.93,-0.36,-0.07,0.18,-2.38,-2.56,234,292,202,460,344
869,0.93,-0.35,-0.08,0.98,-2.2,-1.71,233,291,212,457,345
870,0.94,-0.36,-0.08,2.08,-3.54,-3.91,232,290,213,459,346
871,0.93,-0.37,-0.1,0.61,-2.99,-2.5,230,286,211,458,347
872,0.92,-0.37,-0.09,-0.49,-2.93,-2.32,234,293,208,453,348
873,0.93,-0.37,-0.08,0.92,-2.69,-3.36,234,289,208,457,347
874,0.93,-0.37,-0.09,0.24,-2.01,-2.2,234,289,211,457,347
875,0.93,-0.37,-0.09,0.61,-3.05,-2.38,233,289,201,457,346
876,0.93,-0.37,-0.09,0.55,-3.17,-2.69,230,295,211,458,347
877,0.93,-0.36,-0.09,1.59,-3.36,-2.69,234,291,209,454,346
878,0.94,-0.37,-0.1,0.67,-2.26,-2.38,235,288,204,455,343
879,0.91,-0.37,-0.09,-0.43,-2.56,-2.14,235,293,210,462,345
880,0.92,-0.37,-0.08,0.12,-2.75,-1.77,234,290,208,457,348
881,0.95,-0.35,-0.09,-1.83,0.73,-3.54,232,292,212,457,346
882,0.93,-0.36,-0.09,0.73,-2.2,-2.5,232,290,221,452,346
883,0.93,-0.37,-0.09,0.0,-2.44,-2.5,237,293,215,455,343
884,0.93,-0.36,-0.09,0.37,-3.05,-2.87,238,291,208,451,344
885,0.92,-0.37,-0.08,0.98,-2.75,-2.44,236,292,212,457,347
886,0.93,-0.37,-0.08,-0.73,-2.56,-1.95,234,286,209,461,346
887,0.92,-0.36,-0.08,0.24,-2.87,-2.5,222,292,215,462,345
888,0.93,-0.37,-0.09,0.18,-2.99,-2.81,235,291,226,454,351
889,0.93,-0.36,-0.09,0.92,-2.87,-2.01,237,291,210,461,346
890,0.93,-0.36,-0.09,-0.31,-2.75,-2.5,230,290,215,464,349
891,0.93,-0.37,-0.1,0.98,-3.05,-3.11,232,295,214,462,347
892,0.93,-0.36,-0.09,0.92,-3.17,-2.69,230,290,208,459,350
893,0.91,-0.37,-0.08,-0.67,-1.71,-0.67,232,289,215,458,347
894,0.95,-0.33,-0.09,1.53,-2.14,-3.72,233,286,209,455,346
895,0.95,-0.36,-0.1,0.55,-2.69,-4.33,234,287,210,461,350
896,0.94,-0.36,-0.09,1.46,-3.78,-3.66,233,289,210,471,343
897,0.94,-0.37,-0.08,0.67,-1.95,-1.53,237,291,212,457,347
898,0.92,-0.37,-0.08,-0.37,-3.05,-2.87,234,286,213,456,344
899,0.93,-0.36,-0.08,0.31,-2.69,-1.89,236,291,215,461,345
900,0.91,-0.36,-0.07,-1.22,-2.81,-0.85,256,289,215,457,348
901,0.92,-0.36,-0.06,0.92,-2.01,-1.77,236,293,209,461,348
902,0.92,-0.36,-0.06,-1.53,-1.22,-0.73,231,291,216,457,342
903,0.91,-0.37,-0.05,0.73,-2.62,-1.65,232,292,213,453,344
904,0.93,-0.37,-0.08,1.28,-1.71,-1.83,234,287,213,465,350
905,0.93,-0.37,-0.08,0.49,-3.05,-2.99,238,291,211,454,344
906,0.92,-0.36,-0.08,0.0,-2.87,-2.87,235,297,207,454,348
907,0.92,-0.37,-0.07,0.18,-2.93,-2.87,230,287,206,463,351
908,0.94,-0.35,-0.08,0.98,-2.87,-2.81,234,287,212,454,347
909,0.93,-0.36,-0.07,0.61,-2.5,-2.08,233,287,208,462,350
910,0.92,-0.37,-0.08,0.12,-2.32,-1.83,233,289,207,458,347
911,0.93,-0.36,-0.07,1.1,-2.69,-2.56,232,291,214,457,348
912,0.94,-0.36,-0.08,0.92,-3.11,-2.32,231,284,212,456,343
913,0.93,-0.37,-0.08,-0.06,-3.11,-2.32,234,292,213,458,345
914,0.92,-0.37,-0.08,0.0,-2.62,-2.56,232,288,218,457,352
915,0.93,-0.36,-0.07,-0.61,-3.23,-2.32,236,285,211,459,350
916,0.92,-0.37,-0.07,0.55,-2.08,-1.65,233,289,214,463,349
917,0.93,-0.37,-0.07,1.1,-2.75,-2.44,231,290,203,459,340
918,0.93,-0.37,-0.08,-0.67,-1.46,-2.32,233,286,211,453,344
919,0.92,-0.38,-0.06,1.59,-4.03,-3.66,228,286,210,459,347
920,0.89,-0.4,-0.02,4.15,-3.72,3.91,232,287,214,461,350
921,0.88,-0.42,-0.05,1.34,-4.58,-2.87,228,289,209,459,347
922,0.99,-0.36,-0.16,-5.31,-9.03,-9.28,236,291,211,455,345
923,0.94,-0.34,-0.03,-1.53,0.61,-2.62,236,283,216,454,350
924,0.95,-0.37,-0.09,-9.64,-3.6,9.77,232,286,216,457,345
925,0.93,-0.4,-0.08,-3.36,-1.1,-3.91,234,287,212,459,350
926,0.95,-0.4,-0.12,-5.8,-4.21,-10.62,232,290,207,460,349
927,0.98,-0.32,-0.11,7.08,-9.95,-6.71,233,289,212,462,345
928,0.85,-0.42,-0.05,2.38,3.36,3.23,234,286,207,459,346
929,0.9,-0.41,-0.07,-3.3,-0.12,-1.95,231,285,203,460,351
930,0.91,-0.41,-0.11,0.98,1.34,-3.42,231,291,218,460,348
931,0.94,-0.39,-0.09,-0.43,-8.79,0.06,232,287,214,458,348
932,0.89,-0.41,-0.05,-0.55,-0.55,-1.22,234,281,209,462,348
933,0.92,-0.39,-0.09,-7.75,-2.62,-4.88,233,288,206,458,347
934,0.94,-0.37,-0.1,1.59,-4.64,-4.52,229,287,214,458,349
935,0.91,-0.39,-0.09,1.46,-0.37,2.01,236,287,211,455,349
936,0.9,-0.41,-0.06,1.71,-2.44,-2.5,231,292,203,457,342
937,0.93,-0.37,-0.06,3.72,-2.5,-3.11,231,289,210,459,349
938,0.92,-0.38,-0.07,2.69,-3.78,-3.23,234,288,215,458,350
939,0.93,-0.39,-0.09,0.06,-3.97,-3.54,237,285,213,458,347
940,0.93,-0.38,-0.06,-0.43,-3.11,-3.05,227,287,215,464,344
941,0.93,-0.38,-0.07,1.53,-2.01,-2.69,235,297,211,459,346
942,0.92,-0.39,-0.07,-0.79,-2.38,-2.56,232,292,211,463,346
943,0.93,-0.38,-0.07,0.18,-3.54,-2.99,230,289,215,463,346
944,0.92,-0.39,-0.07,1.77,-2.62,-2.32,232,290,212,463,352
945,0.92,-0.4,-0.07,-0.79,-2.56,-1.89,235,285,216,456,347
946,0.92,-0.4,-0.07,0.61,-2.99,-2.69,233,289,209,456,356
947,0.93,-0.38,-0.06,0.73,-3.05,-3.05,232,289,215,461,348
948,0.91,-0.4,-0.05,-0.67,-1.89,-0.98,236,288,208,454,347
949,0.93,-0.38,-0.06,0.85,-3.42,-2.32,236,288,201,463,350
950,0.92,-0.39,-0.06,0.18,-3.66,-2.26,233,296,211,459,350
951,0.92,-0.39,-0.05,2.08,-2.93,-1.89,233,290,214,457,351
952,0.94,-0.38,-0.09,1.77,-3.48,-6.35,235,291,204,457,352
953,0.92,-0.39,-0.07,2.44,-2.81,-2.69,231,291,210,465,347
954,0.93,-0.39,-0.06,2.01,-5.0,-5.37,234,290,208,462,348
955,0.94,-0.38,-0.06,-0.43,-2.69,-2.2,230,289,210,471,350
956,0.9,-0.4,-0.05,-0.73,-2.99,-1.71,229,289,215,466,349
957,0.92,-0.39,-0.06,0.0,-3.23,-2.93,235,288,209,458,349
958,0.91,-0.4,-0.05,-0.73,-2.44,-1.95,235,291,211,463,346
959,0.91,-0.4,-0.05,-0.06,-3.72,-4.7,237,288,217,461,349
960,0.93,-0.39,-0.08,0.85,-3.23,-1.34,237,300,212,461,347
961,0.93,-0.37,-0.02,-2.99,-1.28,-0.85,227,286,211,457,343
962,0.96,-0.34,-0.06,-1.04,-5.98,-9.03,237,285,210,458,346
963,0.96,-0.32,-0.11,5.92,-11.47,-3.78,232,286,210,462,349
964,0.94,-0.33,-0.06,3.54,-1.1,0.0,237,290,211,456,347
965,0.93,-0.36,-0.06,1.65,-0.06,0.12,235,285,210,459,351
966,0.94,-0.38,-0.06,-0.79,-1.83,-2.14,234,287,210,460,349
967,0.92,-0.38,-0.06,0.98,-2.93,-2.87,230,282,217,464,349
968,0.93,-0.37,-0.06,-0.49,-2.87,-2.32,235,290,209,459,341
969,0.93,-0.37,-0.07,1.4,-2.44,-2.14,229,290,213,458,350
970,0.93,-0.37,-0.06,0.0,-3.17,-2.93,233,291,211,454,346
971,0.93,-0.38,-0.06,-0.98,-2.32,-2.69,234,294,211,461,348
972,0.92,-0.37,-0.07,-0.43,-3.11,-2.26,231,291,214,468,351
973,0.93,-0.37,-0.07,-0.06,-2.69,-2.08,232,288,214,459,345
974,0.93,-0.37,-0.07,0.73,-2.69,-2.08,233,291,214,464,346
975,0.93,-0.37,-0.07,-0.37,-2.5,-2.56,234,289,212,462,351
976,0.93,-0.37,-0.07,0.61,-2.69,-2.14,233,284,212,458,351
977,0.93,-0.37,-0.07,0.06,-1.83,-1.53,239,291,211,459,351
978,0.93,-0.38,-0.07,-0.79,-2.44,-2.5,234,297,213,457,348
979,0.94,-0.36,-0.06,0.92,-3.78,-3.11,232,289,213,461,346
980,0.93,-0.37,-0.06,-0.18,-3.36,-2.08,231,291,211,462,352
981,0.93,-0.37,-0.07,0.49,-2.14,-2.56,232,285,212,456,349
982,0.92,-0.37,-0.07,0.67,-2.26,-2.93,232,288,213,458,352
983,0.93,-0.37,-0.07,0.73,-2.99,-2.56,239,302,209,464,349
984,0.93,-0.37,-0.07,0.55,-2.38,-2.81,235,297,209,462,343
985,0.92,-0.38,-0.07,0.43,-2.99,-2.14,236,292,214,459,349
986,0.92,-0.38,-0.07,-0.43,-2.99,-2.2,227,292,215,462,348
987,0.92,-0.37,-0.06,0.43,-2.32,-1.89,231,296,209,455,350
988,0.93,-0.37,-0.07,0.18,-2.5,-2.75,232,290,210,462,349
989,0.93,-0.37,-0.06,-0.55,-3.66,-2.99,233,288,216,464,348
990,0.93,-0.37,-0.07,-0.12,-2.69,-1.77,233,285,214,460,350
991,0.92,-0.37,-0.08,0.12,-3.11,-2.56,233,292,206,462,351
992,0.92,-0.37,-0.06,-4.82,-5.98,-3.72,233,291,206,462,345
993,0.95,-0.35,-0.09,1.46,-2.62,0.24,230,289,205,453,357
994,0.91,-0.41,-0.07,-1.04,-0.49,-1.22,230,288,206,458,349
995,0.92,-0.38,-0.05,-3.97,-4.03,-6.29,232,290,214,455,348
996,0.95,-0.34,-0.11,0.31,-3.85,-4.64,235,295,214,461,347
997,0.93,-0.36,-0.09,1.59,-2.62,1.16,231,305,212,454,347
998,0.9,-0.39,-0.07,1.53,-2.01,-1.1,234,289,208,464,349
999,0.91,-0.39,-0.08,-0.43,-4.09,-3.91,236,283,213,467,351
1000,0.93,-0.38,-0.08,-1.1,-1.71,-1.95,235,284,212,463,345
1001,0.93,-0.37,-0.08,1.1,-2.87,-1.46,232,283,210,462,344
1002,0.93,-0.38,-0.07,1.65,-2.2,-1.95,232,295,215,459,350
1003,0.91,-0.39,-0.08,-0.61,-4.64,-4.21,234,290,213,463,347
1004,0.94,-0.35,-0.08,0.37,-4.27,-3.42,236,289,208,462,348
1005,0.93,-0.37,-0.09,-0.55,-3.36,-1.59,235,288,208,463,348
1006,0.94,-0.36,-0.08,1.53,-2.14,-2.44,236,292,212,462,350
1007,0.92,-0.37,-0.07,0.43,-2.93,-2.01,232,288,219,462,350
1008,0.92,-0.37,-0.07,-0.43,-3.42,-3.11,234,288,216,459,351
1009,0.93,-0.36,-0.07,0.79,-2.38,-1.59,232,291,212,465,350
1010,0.91,-0.39,-0.08,0.37,-3.11,-2.32,234,291,207,462,349
1011,0.93,-0.38,-0.08,1.04,-4.03,-3.48,235,289,215,457,348
1012,0.93,-0.37,-0.07,0.0,-3.23,-1.89,237,289,216,457,344
1013,0.92,-0.38,-0.07,0.43,-2.26,-1.95,223,293,214,458,346
1014,0.92,-0.38,-0.07,0.06,-2.87,-2.38,234,292,204,461,350
1015,0.93,-0.37,-0.07,0.79,-2.81,-2.56,226,289,211,455,350
1016,0.92,-0.38,-0.07,0.49,-2.81,-2.62,234,291,204,465,345
1017,0.92,-0.38,-0.07,1.28,-2.75,-1.83,243,291,210,460,350
1018,0.93,-0.37,-0.07,-0.37,-2.69,-1.65,233,289,211,461,350
1019,0.92,-0.38,-0.07,0.06,-2.44,-3.05,232,289,213,457,350
1020,0.92,-0.37,-0.07,0.31,-2.5,-2.38,239,286,212,460,350
1021,0.93,-0.37,-0.07,0.85,-3.05,-3.17,233,290,203,457,346
1022,0.93,-0.37,-0.07,1.46,-2.62,-1.53,230,288,212,460,347
1023,0.93,-0.37,-0.07,1.22,-3.42,-2.32,233,289,208,456,349
1024,0.93,-0.38,-0.08,-0.31,-2.56,-2.32,230,290,208,464,347
1025,0.92,-0.38,-0.07,1.16,-3.6,-4.64,230,285,209,458,354
1026,0.91,-0.38,-0.06,0.0,-3.23,-2.2,236,292,206,456,346
1027,0.93,-0.38,-0.07,0.12,-3.6,-2.81,232,287,213,463,351
1028,0.93,-0.38,-0.07,-1.34,-2.87,-2.5,238,287,212,461,351
1029,0.92,-0.38,-0.07,0.31,-2.93,-2.56,231,293,212,461,349
1030,0.93,-0.37,-0.07,0.43,-2.81,-2.14,232,295,212,463,347
1031,0.94,-0.38,-0.08,1.65,-3.48,-1.89,233,284,212,460,350
1032,0.93,-0.37,-0.06,0.31,-2.38,-2.32,232,285,211,457,352
1033,0.93,-0.37,-0.07,-0.12,-2.44,-2.81,232,290,210,463,346
1034,0.93,-0.37,-0.07,0.24,-2.99,-2.99,233,290,216,463,350
1035,0.91,-0.39,-0.06,1.28,-2.93,-1.22,234,292,211,461,349
1036,0.93,-0.38,-0.08,1.28,-2.62,-0.92,233,293,210,459,349
1037,0.9,-0.4,-0.06,-1.53,-1.71,-0.24,230,283,208,464,348
1038,0.9,-0.42,-0.09,0.06,-3.54,-5.0,234,290,208,464,346
1039,0.93,-0.38,-0.07,-0.06,-2.5,-2.14,231,289,211,466,348
1040,0.91,-0.25,-0.16,3.97,5.92,-8.06,222,279,173,437,340
1041,0.92,-0.34,-0.09,12.45,-8.0,-4.88,226,282,178,433,345
1042,0.97,-0.34,-0.12,-13.49,-2.93,-6.9,226,281,169,432,334
1043,0.95,-0.32,-0.09,-1.89,-3.85,-2.38,226,283,180,440,335
1044,0.96,-0.32,-0.11,-3.97,-3.23,1.28,232,282,176,435,337
1045,0.96,-0.31,-0.08,-3.66,1.28,-3.54,230,280,178,431,337
1046,0.94,-0.32,-0.07,-5.55,1.65,4.82,231,275,179,439,333
1047,0.95,-0.34,-0.05,-2.81,2.32,-0.37,230,281,181,442,336
1048,0.93,-0.33,0.02,-3.05,-3.23,-0.67,230,282,183,441,333
1049,0.95,-0.32,-0.01,-2.01,-4.27,-7.39,229,282,182,446,338
1050,1.0,-0.3,-0.02,-4.94,-5.86,-5.25,236,282,180,439,340
1051,0.98,-0.26,-0.06,-0.73,-4.76,-4.7,233,276,183,446,341
1052,0.95,-0.27,-0.0,-2.32,-1.1,-2.81,229,291,175,447,340
1053,0.97,-0.25,-0.02,1.77,-4.58,-3.85,229,279,188,452,338
1054,0.97,-0.26,-0.02,0.55,-2.32,-2.99,228,284,183,451,342
1055,0.97,-0.25,-0.01,-0.55,-4.03,-1.28,226,282,184,445,338
1056,0.97,-0.25,-0.03,1.4,-2.56,-3.66,231,284,182,449,339
1057,0.97,-0.25,-0.02,-2.2,-5.68,-4.15,230,285,186,444,339
1058,0.98,-0.24,-0.05,-1.16,-5.25,-3.11,231,282,175,450,342
1059,0.98,-0.23,-0.05,0.85,-3.72,-2.01,228,282,183,451,344
1060,0.98,-0.24,-0.07,-0.79,-2.75,-0.92,227,281,188,450,341
1061,0.96,-0.24,-0.07,6.16,-9.46,-12.08,229,283,187,450,339
1062,0.99,-0.22,-0.1,-6.84,-3.48,1.22,228,283,183,458,336
1063,0.98,-0.22,-0.08,2.26,-6.23,-2.87,229,283,183,449,340
1064,0.96,-0.25,-0.08,-0.73,-3.17,-1.59,229,283,185,455,341
1065,0.95,-0.26,-0.09,-2.56,-2.93,-1.34,230,278,190,446,345
1066,0.93,-0.26,-0.07,-1.16,-0.31,0.06,228,286,185,453,344
1067,0.95,-0.27,-0.09,-0.06,-1.28,-2.14,230,282,186,457,343
1068,0.94,-0.28,-0.1,-0.61,-4.03,-2.99,230,283,187,451,349
1069,0.96,-0.26,-0.11,-0.12,-2.08,-2.2,229,284,188,457,346
1070,0.96,-0.27,-0.12,-0.12,-1.46,-1.89,229,278,186,452,345
1071,1.0,-0.25,-0.15,4.64,-2.81,-5.55,226,282,185,450,347
1072,0.98,-0.24,-0.12,0.55,-4.21,-3.36,233,284,192,451,341
1073,0.97,-0.26,-0.12,0.31,-4.39,-3.23,229,281,193,450,346
1074,0.96,-0.26,-0.13,-0.06,-2.62,-3.6,228,284,191,446,347
1075,0.96,-0.26,-0.12,0.49,-4.39,-2.26,225,283,193,454,346
1076,0.96,-0.25,-0.12,0.55,-2.26,-2.81,230,282,190,451,347
1077,0.95,-0.26,-0.12,0.43,-2.75,-4.64,233,284,188,453,345
1078,0.94,-0.27,-0.11,0.43,-3.54,-2.26,233,277,197,448,349
1079,0.96,-0.26,-0.12,0.06,-4.46,-1.83,231,290,190,447,341
1080,0.96,-0.27,-0.1,-0.98,-1.65,1.34,224,282,192,449,344
1081,0.96,-0.28,-0.11,0.18,-1.77,-1.77,232,285,193,452,343
1082,0.95,-0.3,-0.1,-0.67,-1.89,-0.31,229,285,192,453,345
1083,0.94,-0.31,-0.09,-0.67,-2.26,-0.37,228,286,188,448,346
1084,0.95,-0.31,-0.09,2.2,-3.6,-3.36,232,284,186,449,343
1085,0.95,-0.31,-0.08,0.67,-3.17,-2.44,233,287,189,453,346
1086,0.94,-0.32,-0.08,-1.22,-2.38,-1.95,228,283,188,455,338
1087,0.95,-0.32,-0.09,-0.49,-2.99,-2.87,225,285,190,453,347
1088,0.94,-0.31,-0.09,1.04,-1.22,-1.53,235,283,189,447,342
1089,0.95,-0.3,-0.08,0.98,-3.66,-3.66,230,284,189,451,348
1090,0.94,-0.3,-0.08,1.34,-2.38,-2.44,244,281,187,453,349
1091,0.96,-0.3,-0.11,0.67,-4.88,-5.98,231,288,183,454,349
1092,0.94,-0.31,-0.08,-0.24,-2.75,-2.32,231,286,185,451,338
1093,0.95,-0.31,-0.1,-1.46,-4.39,-4.82,233,284,190,453,346
1094,0.96,-0.29,-0.11,-0.55,-2.93,-2.99,226,281,192,454,345
1095,0.94,-0.31,-0.1,1.71,-3.36,-2.32,232,281,195,454,342
1096,0.96,-0.29,-0.12,1.28,-4.58,-5.55,232,283,188,451,346
1097,0.95,-0.29,-0.1,0.43,-4.58,-3.85,231,291,191,446,345
1098,0.96,-0.29,-0.12,1.28,-3.3,-1.46,231,288,197,450,349
1099,0.95,-0.3,-0.08,0.67,-1.77,-2.44,232,286,198,449,344
1100,0.94,-0.3,-0.11,-0.79,-2.2,-2.01,232,284,190,448,347
1101,0.96,-0.3,-0.1,1.65,-3.48,-2.75,228,282,194,454,344
1102,0.93,-0.31,-0.09,-0.06,-3.17,-2.62,231,280,199,449,345
1103,0.94,-0.32,-0.1,-0.49,-1.53,-1.53,228,286,194,449,346
1104,0.95,-0.31,-0.11,-0.06,-3.42,-3.48,236,285,195,453,348
1105,0.96,-0.29,-0.09,-0.18,-2.81,-2.62,229,288,195,452,345
1106,0.97,-0.29,-0.09,0.85,-3.6,-2.93,231,286,196,453,349
1107,0.96,-0.29,-0.1,0.12,-3.42,-0.73,232,285,196,446,345
1108,0.94,-0.32,-0.08,0.55,-3.23,-2.2,232,289,184,453,346
1109,0.93,-0.33,-0.1,-2.32,-2.5,-2.38,229,287,193,452,343
1110,0.95,-0.31,-0.08,-0.37,-3.23,-3.11,233,286,196,455,350
1111,0.95,-0.31,-0.09,0.92,-2.99,-3.05,227,283,196,456,346
1112,0.93,-0.32,-0.08,-0.43,-3.36,-0.73,233,287,195,453,344
1113,0.93,-0.32,-0.08,0.98,-3.17,-2.62,232,284,191,451,345
1114,0.96,-0.3,-0.08,0.61,-3.78,-2.69,229,285,195,452,346
1115,0.94,-0.31,-0.08,3.97,-3.54,-2.87,229,287,195,455,347
1116,0.95,-0.31,-0.08,1.34,-3.23,-3.6,230,285,191,456,346
1117,0.94,-0.33,-0.08,0.49,-3.23,-2.62,229,276,197,450,345
1118,0.94,-0.32,-0.08,-0.06,-2.38,-2.38,230,278,198,449,348
1119,0.94,-0.32,-0.06,0.06,-1.46,-0.79,228,284,193,456,345
1120,0.95,-0.31,-0.08,0.06,-2.81,-2.14,228,286,186,452,349
1121,0.96,-0.31,-0.07,0.06,-2.14,-1.89,228,287,193,454,358
1122,0.95,-0.32,-0.08,0.85,-3.05,-2.26,230,285,192,452,346
1123,0.94,-0.31,-0.07,0.85,-3.66,-2.26,233,284,193,454,347
1124,0.94,-0.31,-0.07,1.22,-3.23,-2.2,231,282,197,453,345
1125,0.95,-0.31,-0.09,-0.73,-2.99,-2.87,228,283,199,456,347
1126,0.94,-0.32,-0.08,-0.12,-2.5,-2.93,228,286,194,457,348
1127,0.94,-0.32,-0.07,1.22,-2.62,-2.62,230,288,195,451,346
1128,0.95,-0.31,-0.08,0.31,-3.11,-2.26,227,285,199,457,347
1129,0.95,-0.31,-0.08,0.55,-2.75,-2.14,231,285,200,453,346
1130,0.96,-0.31,-0.09,0.24,-3.17,-2.32,230,286,196,452,348
1131,0.95,-0.32,-0.08,-0.92,-2.32,-2.32,231,283,199,456,346
1132,0.95,-0.32,-0.07,0.43,-2.5,-2.32,222,283,200,453,345
1133,0.95,-0.32,-0.08,0.24,-2.93,-2.56,232,283,204,455,348
1134,0.94,-0.32,-0.08,0.18,-3.48,-2.32,232,283,201,456,345
1135,0.93,-0.32,-0.07,0.49,-4.15,-4.58,231,283,196,454,346
1136,0.97,-0.3,-0.08,1.71,-2.99,-3.11,228,283,196,455,347
1137,0.94,-0.32,-0.08,0.79,-2.44,-1.4,231,282,196,451,344
1138,0.95,-0.31,-0.08,0.43,-3.91,-2.08,235,284,199,452,347
1139,0.97,-0.3,-0.06,1.65,-3.66,-4.03,225,284,186,451,351
1140,0.95,-0.3,-0.08,0.24,-3.54,-2.2,229,284,196,453,347
1141,0.95,-0.33,-0.08,0.0,-2.99,-2.93,226,286,198,454,346
1142,0.94,-0.32,-0.07,-0.43,-2.44,-2.5,232,289,198,457,346
1143,0.95,-0.31,-0.07,0.79,-2.08,-1.1,229,285,196,454,348
1144,0.96,-0.31,-0.09,0.79,-3.23,-2.44,232,282,201,455,359
1145,0.95,-0.31,-0.08,-0.31,-3.72,-2.32,229,284,202,453,345
1146,0.95,-0.3,-0.07,1.16,-5.19,-6.41,230,284,204,456,343
1147,0.95,-0.31,-0.1,0.12,-1.46,-2.5,226,283,196,462,346
1148,0.94,-0.31,-0.09,-0.43,-2.69,-2.87,234,301,195,454,348
1149,0.95,-0.31,-0.07,0.55,-2.32,-3.36,232,288,198,455,345
1150,0.96,-0.3,-0.07,0.31,-2.44,-2.08,232,289,187,454,348
1151,0.96,-0.3,-0.08,1.95,-3.85,-2.75,231,291,196,458,348
1152,0.93,-0.32,-0.06,2.14,-6.9,-2.99,236,285,197,452,350
1153,0.92,-0.34,-0.08,-0.18,-2.81,-2.75,229,279,199,456,349
1154,0.95,-0.32,-0.08,-0.55,-1.46,-3.23,231,285,196,462,343
1155,0.94,-0.33,-0.08,0.55,-2.44,-1.46,226,279,195,460,348
1156,0.93,-0.33,-0.08,-0.06,-3.42,-1.53,232,287,201,453,347
1157,0.92,-0.35,-0.11,-1.4,-2.32,-0.43,234,281,194,455,347
1158,0.95,-0.32,-0.08,1.34,-3.78,-4.39,233,293,199,459,350
1159,0.94,-0.32,-0.1,-0.31,-2.08,-2.44,232,283,203,457,344
1160,0.94,-0.33,-0.09,-1.28,-2.87,-2.44,231,283,201,451,348
1161,0.91,-0.35,-0.08,-2.08,-4.33,-3.6,232,283,193,457,349
1162,0.94,-0.33,-0.08,1.04,-4.33,-3.17,230,287,198,455,348
1163,0.95,-0.32,-0.08,1.65,-2.69,-2.99,232,283,198,460,343
1164,0.95,-0.32,-0.09,-0.12,-4.27,-1.1,233,285,200,456,349
1165,0.95,-0.34,-0.11,2.99,-6.84,-0.98,228,290,197,456,345
1166,0.92,-0.35,-0.1,-0.73,-2.75,-2.44,231,285,205,452,346
1167,0.93,-0.33,-0.07,-1.71,0.73,-2.14,230,286,203,455,350
1168,0.94,-0.32,-0.07,1.34,-3.6,-3.23,233,286,201,456,353
1169,0.94,-0.33,-0.07,1.83,-3.91,-1.89,232,288,189,455,349
1170,0.94,-0.35,-0.09,-2.5,-3.36,-1.65,233,289,202,452,347
1171,0.94,-0.34,-0.07,-1.53,-3.11,-2.99,233,285,198,455,347
1172,0.93,-0.34,-0.07,-0.61,-3.17,-2.56,233,281,192,457,349
1173,0.94,-0.34,-0.07,-0.79,-3.66,-2.75,232,282,202,456,347
1174,0.95,-0.33,-0.06,0.49,-1.53,-1.71,231,287,192,466,348
1175,0.94,-0.34,-0.07,1.95,-1.65,-2.62,233,286,200,458,349
1176,0.94,-0.34,-0.06,0.73,-3.17,-3.17,234,283,200,461,346
1177,0.95,-0.34,-0.07,2.14,-2.62,-2.75,234,289,205,458,347
1178,0.93,-0.35,-0.06,-0.43,-2.5,-2.08,233,283,202,459,347
1179,0.93,-0.36,-0.06,0.49,-1.71,-1.1,232,285,200,458,345
1180,0.95,-0.34,-0.07,-0.18,-4.09,-1.77,228,287,200,456,349
1181,0.94,-0.35,-0.08,1.34,-0.98,-1.46,231,287,201,456,349
1182,0.93,-0.34,-0.05,2.08,-2.56,-3.48,232,284,201,457,349
1183,0.95,-0.36,-0.08,1.04,-0.31,-1.59,233,283,199,464,345
1184,0.93,-0.36,-0.06,0.37,-1.59,-2.38,231,286,204,456,349
1185,0.95,-0.33,-0.07,-1.28,-3.36,-3.91,233,284,202,456,351
1186,0.94,-0.35,-0.07,0.73,-2.14,-2.01,233,288,202,454,349
1187,0.96,-0.33,-0.07,1.04,-1.71,-1.46,232,287,201,461,346
1188,0.93,-0.36,-0.07,-1.89,-3.66,-4.09,243,284,205,461,344
1189,0.91,-0.39,-0.09,1.1,-6.04,-5.13,231,281,203,453,348
1190,0.95,-0.36,-0.08,2.08,-4.7,-2.93,233,287,203,456,348
1191,0.93,-0.37,-0.07,5.07,-9.77,-5.37,231,289,200,451,351
1192,0.95,-0.33,-0.08,-0.06,-6.77,-7.93,234,284,204,457,349
1193,0.97,-0.32,-0.14,0.85,-3.11,-2.5,230,288,204,456,350
1194,0.94,-0.34,-0.08,1.22,-2.32,-1.1,233,287,201,456,349
1195,0.95,-0.34,-0.09,5.98,-8.54,1.04,229,287,206,457,343
1196,0.91,-0.38,-0.05,-1.1,-4.52,-2.32,234,285,198,458,349
1197,0.91,-0.38,-0.06,0.67,-1.95,-1.89,237,287,205,459,345
1198,0.93,-0.38,-0.07,1.22,-3.11,-2.26,244,284,197,469,353
1199,0.93,-0.37,-0.08,0.49,-2.87,-1.71,231,285,201,456,347
1200,0.91,-0.39,-0.06,-0.61,-2.01,-0.06,229,288,203,460,348
1201,0.93,-0.38,-0.08,0.67,-3.78,-2.99,234,285,203,461,355
1202,0.9,-0.39,-0.07,0.18,-1.95,-1.28,233,288,203,456,352
1203,0.92,-0.38,-0.07,0.18,-3.85,-3.48,234,288,205,461,349
1204,0.92,-0.37,-0.06,-0.85,-4.09,-2.99,233,286,201,459,358
1205,0.92,-0.37,-0.08,0.0,-3.54,-3.11,234,286,204,455,358
1206,0.92,-0.38,-0.1,-0.31,-2.75,-3.36,233,283,202,457,349
1207,0.94,-0.36,-0.1,0.67,-3.85,-3.17,231,287,203,459,349
1208,0.93,-0.35,-0.09,1.4,-4.76,-3.42,234,286,203,457,352
1209,0.93,-0.37,-0.1,0.49,-3.42,-3.66,231,285,215,462,351
1210,0.94,-0.35,-0.1,1.77,-3.17,-2.01,230,286,202,457,348
1211,0.92,-0.36,-0.08,0.12,-1.65,-0.79,235,289,205,456,347
1212,0.92,-0.36,-0.09,-0.12,-2.32,-2.69,230,283,201,461,349
1213,0.89,-0.39,-0.08,0.92,-1.65,-0.18,229,285,205,453,348
1214,0.94,-0.34,-0.1,6.04,-2.32,-2.81,228,284,206,458,350
1215,0.96,-0.33,-0.11,0.37,-0.67,-1.71,234,287,201,456,349
1216,0.94,-0.36,-0.1,1.22,-1.46,-1.22,230,286,205,452,348
1217,0.93,-0.4,-0.12,5.55,-9.46,-2.93,231,290,204,452,346
1218,0.95,-0.34,-0.12,1.83,-3.85,-4.58,233,295,204,461,347
1219,0.94,-0.36,-0.1,1.1,-3.05,-3.23,233,288,204,459,349
1220,0.96,-0.34,-0.15,2.01,-4.94,-5.0,229,289,206,448,349
1221,0.95,-0.34,-0.12,-0.12,-2.01,-2.2,233,290,205,461,351
1222,0.92,-0.35,-0.1,0.0,-3.3,-3.17,232,286,203,459,352
1223,0.92,-0.37,-0.11,0.55,-0.98,-1.34,230,290,202,451,346
1224,0.96,-0.33,-0.1,4.33,0.79,-3.42,231,286,205,460,350
1225,0.93,-0.36,-0.07,0.55,-1.95,-2.32,257,289,205,451,341
1226,0.94,-0.36,-0.07,2.87,-1.83,0.24,231,286,205,452,346
1227,0.93,-0.37,-0.05,0.92,-3.91,-2.69,232,289,202,453,349
1228,0.94,-0.36,-0.06,-0.12,-2.81,-2.2,233,286,200,453,350
1229,0.93,-0.38,-0.06,-0.61,-2.32,-1.28,234,288,209,457,347
1230,0.93,-0.37,-0.05,0.67,-2.81,-2.56,233,285,213,456,347
1231,0.92,-0.38,-0.04,0.85,-2.69,-1.22,235,288,203,459,349
1232,0.92,-0.39,-0.05,0.61,-3.23,-1.77,234,288,200,458,349
1233,0.92,-0.38,-0.05,-1.1,-2.56,-2.75,231,289,203,458,348
1234,0.94,-0.37,-0.05,-0.43,-3.11,-2.14,231,288,203,460,351
1235,0.93,-0.38,-0.05,-0.49,-3.23,-2.56,228,287,206,457,350
1236,0.93,-0.39,-0.05,0.73,-2.93,-2.26,233,288,203,456,347
1237,0.93,-0.38,-0.04,0.61,-1.95,-2.14,234,289,208,453,346
1238,0.93,-0.38,-0.05,0.85,-2.69,-2.99,231,294,201,461,349
1239,0.93,-0.38,-0.05,0.06,-2.44,-2.2,231,290,202,460,353
1240,0.91,-0.39,-0.05,-0.55,-2.69,-2.32,233,292,204,457,350
1241,0.93,-0.38,-0.05,0.37,-3.85,-2.81,232,303,212,462,350
1242,0.93,-0.37,-0.06,-1.04,0.06,-0.85,230,290,202,454,347
1243,0.93,-0.37,-0.05,0.43,-3.05,-2.87,236,292,202,455,351
1244,0.93,-0.38,-0.04,1.16,-3.17,-2.32,232,291,205,454,349
1245,0.92,-0.38,-0.05,0.85,-2.38,-1.34,237,287,195,456,351
1246,0.94,-0.38,-0.06,0.55,-3.72,-2.99,232,280,202,453,352
1247,0.92,-0.39,-0.06,-0.43,-3.78,-2.93,227,292,204,456,348
1248,0.92,-0.38,-0.05,-0.55,-2.5,-2.62,229,287,213,460,348
1249,0.93,-0.38,-0.05,0.49,-3.23,-2.93,232,287,205,458,351
1250,0.91,-0.37,-0.04,-0.24,-2.5,-1.83,233,285,203,460,350
1251,0.92,-0.38,-0.04,0.92,-1.83,-2.56,232,291,204,453,349
1252,0.93,-0.38,-0.06,0.24,-2.69,-1.83,235,288,207,457,352
1253,0.93,-0.37,-0.05,0.67,-2.99,-2.2,232,293,207,456,351
1254,0.91,-0.38,-0.05,0.49,-3.17,-1.71,245,290,210,455,351
1255,0.93,-0.39,-0.05,-0.06,-2.93,-1.34,229,289,208,455,349
1256,0.93,-0.38,-0.05,0.49,-2.44,-2.75,232,288,205,459,348
1257,0.91,-0.38,-0.05,-0.18,-2.38,-2.44,235,290,205,456,349
1258,0.92,-0.38,-0.05,0.49,-2.75,-2.2,235,287,218,472,354
1259,0.93,-0.37,-0.05,0.55,-2.93,-2.69,235,290,206,458,344
1260,0.92,-0.38,-0.05,0.98,-3.3,-2.62,231,289,202,456,342
1261,0.92,-0.38,-0.06,1.1,-3.17,-2.62,231,288,199,454,351
1262,0.94,-0.37,-0.06,-0.98,-2.62,-2.08,235,289,204,456,351
1263,0.92,-0.37,-0.05,1.59,-2.93,-2.87,234,293,206,456,347
1264,0.93,-0.38,-0.06,0.06,-2.99,-2.75,233,293,203,460,352
1265,0.92,-0.38,-0.05,-0.31,-2.56,-2.26,233,289,201,453,353
1266,0.94,-0.36,-0.05,0.0,-3.23,-2.81,235,286,205,454,349
1267,0.91,-0.39,-0.05,0.37,-2.62,-2.87,229,290,206,459,348
1268,0.94,-0.37,-0.05,-0.43,-3.11,-2.32,237,290,208,452,346
1269,0.91,-0.38,-0.05,0.43,-2.93,-1.46,232,287,209,457,349
1270,0.92,-0.38,-0.05,0.43,-3.05,-2.2,230,291,205,461,353
1271,0.93,-0.38,-0.05,0.49,-2.32,-2.56,233,290,208,458,348
1272,0.93,-0.38,-0.06,0.18,-2.69,-3.6,229,283,206,457,347
1273,0.92,-0.38,-0.05,0.31,-2.32,-2.08,233,285,203,456,349
1274,0.94,-0.37,-0.05,0.31,-2.87,-2.26,233,287,206,458,350
1275,0.92,-0.38,-0.05,1.1,-3.05,-2.5,230,289,206,460,351
1276,0.93,-0.38,-0.06,0.55,-3.36,-2.56,235,283,206,456,348
1277,0.94,-0.37,-0.06,0.49,-2.2,-1.83,234,286,203,472,350
1278,0.92,-0.38,-0.04,-0.12,-2.14,-2.38,232,289,205,450,349
1279,0.91,-0.39,-0.05,-0.18,-2.56,-2.69,232,290,209,456,349
1280,0.92,-0.39,-0.05,-0.06,-3.91,-2.44,234,292,206,453,350
1281,0.94,-0.37,-0.06,0.12,-3.3,-2.01,231,291,202,456,349
1282,0.92,-0.39,-0.05,0.24,-2.38,-2.32,232,292,208,452,347
1283,0.93,-0.38,-0.06,0.12,-2.38,-1.95,236,288,208,452,352
1284,0.92,-0.38,-0.05,-4.58,-1.53,-0.31,228,284,201,460,351
1285,0.93,-0.37,-0.06,-1.46,-6.16,-4.27,234,288,208,451,351
1286,0.91,-0.39,-0.06,0.06,-1.1,-0.92,232,285,204,459,354
1287,0.92,-0.38,-0.06,-1.65,-2.38,-0.67,235,285,206,462,351
1288,0.92,-0.38,-0.07,1.04,-2.32,-2.69,233,286,205,459,350
1289,0.92,-0.4,-0.07,-0.43,-2.56,-2.5,229,288,208,452,348
1290,0.93,-0.37,-0.07,0.73,-2.81,-1.89,234,290,208,452,346
1291,0.92,-0.39,-0.07,-0.18,-2.56,-2.99,235,290,206,458,351
1292,0.92,-0.38,-0.07,1.89,-2.99,-2.14,230,287,208,450,346
1293,0.91,-0.39,-0.07,0.12,-3.48,-1.95,234,291,206,458,342
1294,0.91,-0.39,-0.07,0.79,-2.08,-2.5,227,287,219,455,350
1295,0.92,-0.38,-0.08,-0.37,-2.38,-1.77,230,290,209,458,349
1296,0.92,-0.39,-0.09,-0.06,-2.69,-2.81,229,285,208,460,346
1297,0.92,-0.39,-0.08,-0.06,-2.93,-3.3,232,288,209,456,352
1298,0.9,-0.39,-0.05,1.59,-3.91,-2.81,232,287,208,457,345
1299,0.92,-0.39,-0.08,-1.1,-3.3,-1.53,231,283,207,460,348
1300,0.94,-0.38,-0.1,0.06,-4.15,-3.6,233,289,205,454,348
1301,0.92,-0.39,-0.08,-0.79,-3.05,-3.05,232,295,208,451,351
1302,0.91,-0.39,-0.06,1.77,-4.15,-4.27,238,287,209,460,351
1303,0.91,-0.39,-0.07,0.98,-2.26,-2.26,231,290,204,451,347
1304,0.92,-0.39,-0.09,0.06,-3.05,-3.11,244,288,208,458,349
1305,0.92,-0.39,-0.08,0.67,-8.54,-5.55,227,290,205,456,352
1306,0.98,-0.34,-0.12,-0.43,-0.43,-2.5,229,291,207,453,350
1307,0.91,-0.38,-0.08,2.81,-3.6,-3.78,230,289,211,451,346
1308,0.93,-0.37,-0.08,1.77,-4.58,-3.23,230,290,208,461,347
1309,0.93,-0.37,-0.08,0.43,-2.38,-1.53,231,292,207,461,349
1310,0.92,-0.38,-0.08,1.16,-2.62,-2.38,232,289,208,455,351
1311,0.93,-0.38,-0.08,0.37,-1.95,-2.81,257,291,212,457,347
1312,0.93,-0.37,-0.07,1.04,-2.69,-2.75,236,290,218,461,352
1313,0.94,-0.37,-0.08,0.37,-3.54,-3.78,261,291,206,461,347
1314,0.91,-0.39,-0.07,0.79,-1.89,-2.32,230,290,206,458,351
1315,0.92,-0.38,-0.08,1.04,-3.36,-3.54,232,284,208,451,351
1316,0.92,-0.38,-0.09,0.55,-2.87,-2.75,233,290,206,454,350
1317,0.92,-0.37,-0.1,-1.95,-4.76,-2.87,231,289,217,462,349
1318,0.93,-0.38,-0.07,1.71,-4.15,-3.48,231,288,206,459,350
1319,0.94,-0.37,-0.09,0.31,-2.62,-2.5,232,288,198,456,347
1320,0.93,-0.38,-0.08,1.1,-2.99,-3.36,237,282,208,458,356
1321,0.91,-0.39,-0.09,0.55,-3.17,-2.99,230,288,210,453,349
1322,0.94,-0.37,-0.08,-0.31,-2.26,-2.2,245,292,209,450,347
1323,0.96,-0.35,-0.1,0.06,-2.5,-4.09,232,290,208,459,348
1324,0.92,-0.36,-0.08,-0.85,-3.97,-5.55,230,286,206,456,352
1325,0.95,-0.34,-0.1,3.48,-4.82,-1.04,231,286,207,460,348
1326,0.94,-0.35,-0.09,2.2,-4.27,-4.09,232,288,207,452,348
1327,0.95,-0.35,-0.11,0.98,-4.09,-3.17,231,286,210,457,349
1328,0.94,-0.35,-0.08,1.28,-1.28,-0.24,232,289,205,461,352
1329,0.95,-0.34,-0.09,1.83,-4.7,-4.39,232,290,206,449,349
1330,0.95,-0.35,-0.11,-1.34,-2.75,-5.25,227,289,209,457,352
1331,0.96,-0.34,-0.12,1.89,-2.62,-2.32,233,289,206,455,350
1332,0.91,-0.37,-0.07,-1.22,-4.21,-2.2,231,287,207,458,350
1333,0.91,-0.36,-0.05,-0.55,-3.05,-1.77,231,303,209,460,350
1334,0.91,-0.36,-0.09,2.26,-3.6,-0.92,237,289,209,456,349
1335,0.95,-0.35,-0.07,0.06,-1.65,-0.67,236,289,211,456,348
1336,0.94,-0.35,-0.1,-0.61,-5.62,-6.84,231,290,210,455,348
1337,0.94,-0.35,-0.09,1.46,-3.36,-4.33,231,292,211,459,351
1338,0.97,-0.36,-0.12,-2.75,-6.84,-6.1,230,288,207,458,348
1339,0.99,-0.32,-0.16,1.53,-3.17,-3.85,230,287,210,459,349
1340,0.94,-0.34,-0.12,-1.71,-3.05,-3.23,233,290,210,452,345
1341,0.95,-0.33,-0.13,0.55,-2.32,-3.72,229,287,204,456,345
1342,0.96,-0.34,-0.13,2.62,0.31,-3.23,233,283,211,453,349
1343,0.93,-0.35,-0.11,1.1,-4.09,-4.7,230,289,208,460,343
1344,0.94,-0.34,-0.12,-0.37,-3.36,-2.14,232,288,211,454,345
1345,0.94,-0.34,-0.12,0.49,-2.56,-1.83,235,289,216,458,347
1346,0.93,-0.34,-0.11,0.79,-3.11,-2.62,230,284,208,459,345
1347,0.93,-0.34,-0.11,0.24,-3.11,-2.5,238,289,211,462,344
1348,0.94,-0.34,-0.1,0.06,-2.56,-2.08,231,289,210,453,345
1349,0.94,-0.34,-0.11,2.26,-2.99,-4.09,231,291,210,455,347
1350,0.94,-0.34,-0.13,0.24,-2.75,-1.65,232,287,203,456,346
1351,0.94,-0.34,-0.12,0.18,-5.13,-3.6,234,290,212,455,349
1352,0.93,-0.34,-0.12,0.55,-2.75,-2.01,233,288,221,459,349
1353,0.93,-0.33,-0.12,-0.43,-3.91,-3.72,231,289,215,458,345
1354,0.94,-0.32,-0.12,1.46,-3.23,-3.23,241,287,213,451,349
1355,0.95,-0.33,-0.12,1.46,-2.87,-2.87,231,294,213,458,343
1356,0.93,-0.33,-0.12,-0.98,-3.11,-2.14,241,289,206,457,349
1357,0.93,-0.33,-0.12,0.37,-2.44,-4.33,235,286,209,457,348
1358,0.94,-0.33,-0.12,0.43,-2.62,-2.2,230,285,206,473,344
1359,0.94,-0.33,-0.11,0.43,-1.59,-1.04,233,288,204,455,349
1360,0.94,-0.34,-0.12,5.8,-1.34,6.29,235,288,211,456,341
1361,0.91,-0.4,-0.09,0.85,-2.93,-0.12,232,291,214,455,342
1362,0.87,-0.44,-0.06,6.77,3.42,2.62,231,291,210,458,345
1363,0.92,-0.4,-0.07,-0.85,-3.72,-4.09,236,291,210,460,344
1364,0.92,-0.39,-0.07,-0.18,-4.09,-2.99,231,289,213,452,345
1365,0.92,-0.4,-0.07,0.73,-2.56,-3.91,238,288,209,453,345
1366,0.92,-0.4,-0.08,0.31,-3.17,-3.42,232,285,211,458,347
1367,0.92,-0.39,-0.07,-1.28,-3.23,-1.4,223,289,200,460,341
1368,0.9,-0.41,-0.07,-1.04,-2.38,-2.69,236,290,212,459,345
1369,0.9,-0.4,-0.06,1.28,-2.44,-2.62,235,289,210,456,346
1370,0.91,-0.4,-0.07,-0.12,-2.87,-2.56,231,291,207,457,347
1371,0.91,-0.39,-0.07,1.1,-2.26,-2.14,230,293,215,461,345
1372,0.92,-0.39,-0.07,-0.06,-3.97,-4.58,233,292,212,463,346
1373,0.92,-0.38,-0.08,-0.79,-4.15,-3.48,234,292,214,452,347
1374,0.93,-0.38,-0.08,-0.43,-4.15,-2.93,232,291,206,454,346
1375,0.94,-0.37,-0.08,0.73,-4.09,-2.69,234,288,207,461,347
1376,0.93,-0.37,-0.08,0.92,-2.87,-3.05,228,293,204,457,346
1377,0.92,-0.38,-0.08,-0.79,-6.1,-5.0,235,288,216,452,349
1378,0.93,-0.37,-0.08,0.55,-3.36,-2.56,233,293,203,460,343
1379,0.91,-0.38,-0.09,0.24,-3.48,-2.32,228,289,207,454,346
1380,0.92,-0.37,-0.09,0.49,-2.93,-2.81,235,288,212,459,346
1381,0.94,-0.36,-0.08,1.4,-1.71,-2.38,233,290,208,460,344
1382,0.93,-0.37,-0.09,1.4,-2.93,-2.75,233,292,197,455,342
1383,0.94,-0.36,-0.09,-0.12,-3.11,-1.83,232,294,210,452,346
1384,0.92,-0.37,-0.09,0.31,-2.5,-2.56,232,289,205,462,346
1385,0.94,-0.37,-0.09,-0.06,-2.81,-2.87,233,291,213,456,346
1386,0.93,-0.37,-0.08,-0.06,-3.3,-2.2,236,290,212,462,347
1387,0.92,-0.38,-0.09,0.67,-3.11,-1.65,232,299,212,455,347
1388,0.93,-0.36,-0.07,0.18,-2.38,-2.56,234,292,202,460,344
1389,0.93,-0.35,-0.08,0.98,-2.2,-1.71,233,291,212,457,345
1390,0.94,-0.36,-0.08,2.08,-3.54,-3.91,232,290,213,459,346
1391,0.93,-0.37,-0.1,0.61,-2.99,-2.5,230,286,211,458,347
1392,0.92,-0.37,-0.09,-0.49,-2.93,-2.32,234,293,208,453,348
1393,0.93,-0.37,-0.08,0.92,-2.69,-3.36,234,289,208,457,347
1394,0.93,-0.37,-0.09,0.24,-2.01,-2.2,234,289,211,457,347
1395,0.93,-0.37,-0.09,0.61,-3.05,-2.38,233,289,201,457,346
1396,0.93,-0.37,-0.09,0.55,-3.17,-2.69,230,295,211,458,347
1397,0.93,-0.36,-0.09,1.59,-3.36,-2.69,234,291,209,454,346
1398,0.94,-0.37,-0.1,0.67,-2.26,-2.38,235,288,204,455,343
1399,0.91,-0.37,-0.09,-0.43,-2.56,-2.14,235,293,210,462,345
1400,0.92,-0.37,-0.08,0.12,-2.75,-1.77,234,290,208,457,348
1401,0.95,-0.35,-0.09,-1.83,0.73,-3.54,232,292,212,457,346
1402,0.93,-0.36,-0.09,0.73,-2.2,-2.5,232,290,221,452,346
1403,0.93,-0.37,-0.09,0.0,-2.44,-2.5,237,293,215,455,343
1404,0.93,-0.36,-0.09,0.37,-3.05,-2.87,238,291,208,451,344
1405,0.92,-0.37,-0.08,0.98,-2.75,-2.44,236,292,212,457,347
1406,0.93,-0.37,-0.08,-0.73,-2.56,-1.95,234,286,209,461,346
1407,0.92,-0.36,-0.08,0.24,-2.87,-2.5,222,292,215,462,345
1408,0.93,-0.37,-0.09,0.18,-2.99,-2.81,235,291,226,454,351
1409,0.93,-0.36,-0.09,0.92,-2.87,-2.01,237,291,210,461,346
1410,0.93,-0.36,-0.09,-0.31,-2.75,-2.5,230,290,215,464,349
1411,0.93,-0.37,-0.1,0.98,-3.05,-3.11,232,295,214,462,347
1412,0.93,-0.36,-0.09,0.92,-3.17,-2.69,230,290,208,459,350
1413,0.91,-0.37,-0.08,-0.67,-1.71,-0.67,232,289,215,458,347
1414,0.95,-0.33,-0.09,1.53,-2.14,-3.72,233,286,209,455,346
1415,0.95,-0.36,-0.1,0.55,-2.69,-4.33,234,287,210,461,350
1416,0.94,-0.36,-0.09,1.46,-3.78,-3.66,233,289,210,471,343
1417,0.94,-0.37,-0.08,0.67,-1.95,-1.53,237,291,212,457,347
1418,0.92,-0.37,-0.08,-0.37,-3.05,-2.87,234,286,213,456,344
1419,0.93,-0.36,-0.08,0.31,-2.69,-1.89,236,291,215,461,345
1420,0.91,-0.36,-0.07,-1.22,-2.81,-0.85,256,289,215,457,348
1421,0.92,-0.36,-0.06,0.92,-2.01,-1.77,236,293,209,461,348
1422,0.92,-0.36,-0.06,-1.53,-1.22,-0.73,231,291,216,457,342
1423,0.91,-0.37,-0.05,0.73,-2.62,-1.65,232,292,213,453,344
1424,0.93,-0.37,-0.08,1.28,-1.71,-1.83,234,287,213,465,350
1425,0.93,-0.37,-0.08,0.49,-3.05,-2.99,238,291,211,454,344
1426,0.92,-0.36,-0.08,0.0,-2.87,-2.87,235,297,207,454,348
1427,0.92,-0.37,-0.07,0.18,-2.93,-2.87,230,287,206,463,351
1428,0.94,-0.35,-0.08,0.98,-2.87,-2.81,234,287,212,454,347
1429,0.93,-0.36,-0.07,0.61,-2.5,-2.08,233,287,208,462,350
1430,0.92,-0.37,-0.08,0.12,-2.32,-1.83,233,289,207,458,347
1431,0.93,-0.36,-0.07,1.1,-2.69,-2.56,232,291,214,457,348
1432,0.94,-0.36,-0.08,0.92,-3.11,-2.32,231,284,212,456,343
1433,0.93,-0.37,-0.08,-0.06,-3.11,-2.32,234,292,213,458,345
1434,0.92,-0.37,-0.08,0.0,-2.62,-2.56,232,288,218,457,352
1435,0.93,-0.36,-0.07,-0.61,-3.23,-2.32,236,285,211,459,350
1436,0.92,-0.37,-0.07,0.55,-2.08,-1.65,233,289,214,463,349
1437,0.93,-0.37,-0.07,1.1,-2.75,-2.44,231,290,203,459,340
1438,0.93,-0.37,-0.08,-0.67,-1.46,-2.32,233,286,211,453,344
1439,0.92,-0.38,-0.06,1.59,-4.03,-3.66,228,286,210,459,347
1440,0.89,-0.4,-0.02,4.15,-3.72,3.91,232,287,214,461,350
1441,0.88,-0.42,-0.05,1.34,-4.58,-2.87,228,289,209,459,347
1442,0.99,-0.36,-0.16,-5.31,-9.03,-9.28,236,291,211,455,345
1443,0.94,-0.34,-0.03,-1.53,0.61,-2.62,236,283,216,454,350
1444,0.95,-0.37,-0.09,-9.64,-3.6,9.77,232,286,216,457,345
1445,0.93,-0.4,-0.08,-3.36,-1.1,-3.91,234,287,212,459,350
1446,0.95,-0.4,-0.12,-5.8,-4.21,-10.62,232,290,207,460,349
1447,0.98,-0.32,-0.11,7.08,-9.95,-6.71,233,289,212,462,345
1448,0.85,-0.42,-0.05,2.38,3.36,3.23,234,286,207,459,346
1449,0.9,-0.41,-0.07,-3.3,-0.12,-1.95,231,285,203,460,351
1450,0.91,-0.41,-0.11,0.98,1.34,-3.42,231,291,218,460,348
1451,0.94,-0.39,-0.09,-0.43,-8.79,0.06,232,287,214,458,348
1452,0.89,-0.41,-0.05,-0.55,-0.55,-1.22,234,281,209,462,348
1453,0.92,-0.39,-0.09,-7.75,-2.62,-4.88,233,288,206,458,347
1454,0.94,-0.37,-0.1,1.59,-4.64,-4.52,229,287,214,458,349
1455,0.91,-0.39,-0.09,1.46,-0.37,2.01,236,287,211,455,349
1456,0.9,-0.41,-0.06,1.71,-2.44,-2.5,231,292,203,457,342
1457,0.93,-0.37,-0.06,3.72,-2.5,-3.11,231,289,210,459,349
1458,0.92,-0.38,-0.07,2.69,-3.78,-3.23,234,288,215,458,350
1459,0.93,-0.39,-0.09,0.06,-3.97,-3.54,237,285,213,458,347
1460,0.93,-0.38,-0.06,-0.43,-3.11,-3.05,227,287,215,464,344
1461,0.93,-0.38,-0.07,1.53,-2.01,-2.69,235,297,211,459,346
1462,0.92,-0.39,-0.07,-0.79,-2.38,-2.56,232,292,211,463,346
1463,0.93,-0.38,-0.07,0.18,-3.54,-2.99,230,289,215,463,346
1464,0.92,-0.39,-0.07,1.77,-2.62,-2.32,232,290,212,463,352
1465,0.92,-0.4,-0.07,-0.79,-2.56,-1.89,235,285,216,456,347
1466,0.92,-0.4,-0.07,0.61,-2.99,-2.69,233,289,209,456,356
1467,0.93,-0.38,-0.06,0.73,-3.05,-3.05,232,289,215,461,348
1468,0.91,-0.4,-0.05,-0.67,-1.89,-0.98,236,288,208,454,347
1469,0.93,-0.38,-0.06,0.85,-3.42,-2.32,236,288,201,463,350
1470,0.92,-0.39,-0.06,0.18,-3.66,-2.26,233,296,211,459,350
1471,0.92,-0.39,-0.05,2.08,-2.93,-1.89,233,290,214,457,351
1472,0.94,-0.38,-0.09,1.77,-3.48,-6.35,235,291,204,457,352
1473,0.92,-0.39,-0.07,2.44,-2.81,-2.69,231,291,210,465,347
1474,0.93,-0.39,-0.06,2.01,-5.0,-5.37,234,290,208,462,348
1475,0.94,-0.38,-0.06,-0.43,-2.69,-2.2,230,289,210,471,350
1476,0.9,-0.4,-0.05,-0.73,-2.99,-1.71,229,289,215,466,349
1477,0.92,-0.39,-0.06,0.0,-3.23,-2.93,235,288,209,458,349
1478,0.91,-0.4,-0.05,-0.73,-2.44,-1.95,235,291,211,463,346
1479,0.91,-0.4,-0.05,-0.06,-3.72,-4.7,237,288,217,461,349
1480,0.93,-0.39,-0.08,0.85,-3.23,-1.34,237,300,212,461,347
1481,0.93,-0.37,-0.02,-2.99,-1.28,-0.85,227,286,211,457,343
1482,0.96,-0.34,-0.06,-1.04,-5.98,-9.03,237,285,210,458,346
1483,0.96,-0.32,-0.11,5.92,-11.47,-3.78,232,286,210,462,349
1484,0.94,-0.33,-0.06,3.54,-1.1,0.0,237,290,211,456,347
1485,0.93,-0.36,-0.06,1.65,-0.06,0.12,235,285,210,459,351
1486,0.94,-0.38,-0.06,-0.79,-1.83,-2.14,234,287,210,460,349
1487,0.92,-0.38,-0.06,0.98,-2.93,-2.87,230,282,217,464,349
1488,0.93,-0.37,-0.06,-0.49,-2.87,-2.32,235,290,209,459,341
1489,0.93,-0.37,-0.07,1.4,-2.44,-2.14,229,290,213,458,350
1490,0.93,-0.37,-0.06,0.0,-3.17,-2.93,233,291,211,454,346
1491,0.93,-0.38,-0.06,-0.98,-2.32,-2.69,234,294,211,461,348
1492,0.92,-0.37,-0.07,-0.43,-3.11,-2.26,231,291,214,468,351
1493,0.93,-0.37,-0.07,-0.06,-2.69,-2.08,232,288,214,459,345
1494,0.93,-0.37,-0.07,0.73,-2.69,-2.08,233,291,214,464,346
1495,0.93,-0.37,-0.07,-0.37,-2.5,-2.56,234,289,212,462,351
1496,0.93,-0.37,-0.07,0.61,-2.69,-2.14,233,284,212,458,351
1497,0.93,-0.37,-0.07,0.06,-1.83,-1.53,239,291,211,459,351
1498,0.93,-0.38,-0.07,-0.79,-2.44,-2.5,234,297,213,457,348
1499,0.94,-0.36,-0.06,0.92,-3.78,-3.11,232,289,213,461,346
1500,0.93,-0.37,-0.06,-0.18,-3.36,-2.08,231,291,211,462,352
1501,0.93,-0.37,-0.07,0.49,-2.14,-2.56,232,285,212,456,349
1502,0.92,-0.37,-0.07,0.67,-2.26,-2.93,232,288,213,458,352
1503,0.93,-0.37,-0.07,0.73,-2.99,-2.56,239,302,209,464,349
1504,0.93,-0.37,-0.07,0.55,-2.38,-2.81,235,297,209,462,343
1505,0.92,-0.38,-0.07,0.43,-2.99,-2.14,236,292,214,459,349
1506,0.92,-0.38,-0.07,-0.43,-2.99,-2.2,227,292,215,462,348
1507,0.92,-0.37,-0.06,0.43,-2.32,-1.89,231,296,209,455,350
1508,0.93,-0.37,-0.07,0.18,-2.5,-2.75,232,290,210,462,349
1509,0.93,-0.37,-0.06,-0.55,-3.66,-2.99,233,288,216,464,348
1510,0.93,-0.37,-0.07,-0.12,-2.69,-1.77,233,285,214,460,350
1511,0.92,-0.37,-0.08,0.12,-3.11,-2.56,233,292,206,462,351
1512,0.92,-0.37,-0.06,-4.82,-5.98,-3.72,233,291,206,462,345
1513,0.95,-0.35,-0.09,1.46,-2.62,0.24,230,289,205,453,357
1514,0.91,-0.41,-0.07,-1.04,-0.49,-1.22,230,288,206,458,349
1515,0.92,-0.38,-0.05,-3.97,-4.03,-6.29,232,290,214,455,348
1516,0.95,-0.34,-0.11,0.31,-3.85,-4.64,235,295,214,461,347
1517,0.93,-0.36,-0.09,1.59,-2.62,1.16,231,305,212,454,347
1518,0.9,-0.39,-0.07,1.53,-2.01,-1.1,234,289,208,464,349
1519,0.91,-0.39,-0.08,-0.43,-4.09,-3.91,236,283,213,467,351
1520,0.93,-0.38,-0.08,-1.1,-1.71,-1.95,235,284,212,463,345
1521,0.93,-0.37,-0.08,1.1,-2.87,-1.46,232,283,210,462,344
1522,0.93,-0.38,-0.07,1.65,-2.2,-1.95,232,295,215,459,350
1523,0.91,-0.39,-0.08,-0.61,-4.64,-4.21,234,290,213,463,347
1524,0.94,-0.35,-0.08,0.37,-4.27,-3.42,236,289,208,462,348
1525,0.93,-0.37,-0.09,-0.55,-3.36,-1.59,235,288,208,463,348
1526,0.94,-0.36,-0.08,1.53,-2.14,-2.44,236,292,212,462,350
1527,0.92,-0.37,-0.07,0.43,-2.93,-2.01,232,288,219,462,350
1528,0.92,-0.37,-0.07,-0.43,-3.42,-3.11,234,288,216,459,351
1529,0.93,-0.36,-0.07,0.79,-2.38,-1.59,232,291,212,465,350
1530,0.91,-0.39,-0.08,0.37,-3.11,-2.32,234,291,207,462,349
1531,0.93,-0.38,-0.08,1.04,-4.03,-3.48,235,289,215,457,348
1532,0.93,-0.37,-0.07,0.0,-3.23,-1.89,237,289,216,457,344
1533,0.92,-0.38,-0.07,0.43,-2.26,-1.95,223,293,214,458,346
1534,0.92,-0.38,-0.07,0.06,-2.87,-2.38,234,292,204,461,350
1535,0.93,-0.37,-0.07,0.79,-2.81,-2.56,226,289,211,455,350
1536,0.92,-0.38,-0.07,0.49,-2.81,-2.62,234,291,204,465,345
1537,0.92,-0.38,-0.07,1.28,-2.75,-1.83,243,291,210,460,350
1538,0.93,-0.37,-0.07,-0.37,-2.69,-1.65,233,289,211,461,350
1539,0.92,-0.38,-0.07,0.06,-2.44,-3.05,232,289,213,457,350
1540,0.92,-0.37,-0.07,0.31,-2.5,-2.38,239,286,212,460,350
1541,0.93,-0.37,-0.07,0.85,-3.05,-3.17,233,290,203,457,346
1542,0.93,-0.37,-0.07,1.46,-2.62,-1.53,230,288,212,460,347
1543,0.93,-0.37,-0.07,1.22,-3.42,-2.32,233,289,208,456,349
1544,0.93,-0.38,-0.08,-0.31,-2.56,-2.32,230,290,208,464,347
1545,0.92,-0.38,-0.07,1.16,-3.6,-4.64,230,285,209,458,354
1546,0.91,-0.38,-0.06,0.0,-3.23,-2.2,236,292,206,456,346
1547,0.93,-0.38,-0.07,0.12,-3.6,-2.81,232,287,213,463,351
1548,0.93,-0.38,-0.07,-1.34,-2.87,-2.5,238,287,212,461,351
1549,0.92,-0.38,-0.07,0.31,-2.93,-2.56,231,293,212,461,349
1550,0.93,-0.37,-0.07,0.43,-2.81,-2.14,232,295,212,463,347
1551,0.94,-0.38,-0.08,1.65,-3.48,-1.89,233,284,212,460,350
1552,0.93,-0.37,-0.06,0.31,-2.38,-2.32,232,285,211,457,352
1553,0.93,-0.37,-0.07,-0.12,-2.44,-2.81,232,290,210,463,346
1554,0.93,-0.37,-0.07,0.24,-2.99,-2.99,233,290,216,463,350
1555,0.91,-0.39,-0.06,1.28,-2.93,-1.22,234,292,211,461,349
1556,0.93,-0.38,-0.08,1.28,-2.62,-0.92,233,293,210,459,349
1557,0.9,-0.4,-0.06,-1.53,-1.71,-0.24,230,283,208,464,348
1558,0.9,-0.42,-0.09,0.06,-3.54,-5.0,234,290,208,464,346
1559,0.93,-0.38,-0.07,-0.06,-2.5,-2.14,231,289,211,466,348
1560,0.91,-0.25,-0.16,3.97,5.92,-8.06,222,279,173,437,340
1561,0.92,-0.34,-0.09,12.45,-8.0,-4.88,226,282,178,433,345
1562,0.97,-0.34,-0.12,-13.49,-2.93,-6.9,226,281,169,432,334
1563,0.95,-0.32,-0.09,-1.89,-3.85,-2.38,226,283,180,440,335
1564,0.96,-0.32,-0.11,-3.97,-3.23,1.28,232,282,176,435,337
1565,0.96,-0.31,-0.08,-3.66,1.28,-3.54,230,280,178,431,337
1566,0.94,-0.32,-0.07,-5.55,1.65,4.82,231,275,179,439,333
1567,0.95,-0.34,-0.05,-2.81,2.32,-0.37,230,281,181,442,336
1568,0.93,-0.33,0.02,-3.05,-3.23,-0.67,230,282,183,441,333
1569,0.95,-0.32,-0.01,-2.01,-4.27,-7.39,229,282,182,446,338
1570,1.0,-0.3,-0.02,-4.94,-5.86,-5.25,236,282,180,439,340
1571,0.98,-0.26,-0.06,-0.73,-4.76,-4.7,233,276,183,446,341
1572,0.95,-0.27,-0.0,-2.32,-1.1,-2.81,229,291,175,447,340
1573,0.97,-0.25,-0.02,1.77,-4.58,-3.85,229,279,188,452,338
1574,0.97,-0.26,-0.02,0.55,-2.32,-2.99,228,284,183,451,342
1575,0.97,-0.25,-0.01,-0.55,-4.03,-1.28,226,282,184,445,338
1576,0.97,-0.25,-0.03,1.4,-2.56,-3.66,231,284,182,449,339
1577,0.97,-0.25,-0.02,-2.2,-5.68,-4.15,230,285,186,444,339
1578,0.98,-0.24,-0.05,-1.16,-5.25,-3.11,231,282,175,450,342
1579,0.98,-0.23,-0.05,0.85,-3.72,-2.01,228,282,183,451,344
1580,0.98,-0.24,-0.07,-0.79,-2.75,-0.92,227,281,188,450,341
1581,0.96,-0.24,-0.07,6.16,-9.46,-12.08,229,283,187,450,339
1582,0.99,-0.22,-0.1,-6.84,-3.48,1.22,228,283,183,458,336
1583,0.98,-0.22,-0.08,2.26,-6.23,-2.87,229,283,183,449,340
1584,0.96,-0.25,-0.08,-0.73,-3.17,-1.59,229,283,185,455,341
1585,0.95,-0.26,-0.09,-2.56,-2.93,-1.34,230,278,190,446,345
1586,0.93,-0.26,-0.07,-1.16,-0.31,0.06,228,286,185,453,344
1587,0.95,-0.27,-0.09,-0.06,-1.28,-2.14,230,282,186,457,343
1588,0.94,-0.28,-0.1,-0.61,-4.03,-2.99,230,283,187,451,349
1589,0.96,-0.26,-0.11,-0.12,-2.08,-2.2,229,284,188,457,346
1590,0.96,-0.27,-0.12,-0.12,-1.46,-1.89,229,278,186,452,345
1591,1.0,-0.25,-0.15,4.64,-2.81,-5.55,226,282,185,450,347
1592,0.98,-0.24,-0.12,0.55,-4.21,-3.36,233,284,192,451,341
1593,0.97,-0.26,-0.12,0.31,-4.39,-3.23,229,281,193,450,346
1594,0.96,-0.26,-0.13,-0.06,-2.62,-3.6,228,284,191,446,347
1595,0.96,-0.26,-0.12,0.49,-4.39,-2.26,225,283,193,454,346
1596,0.96,-0.25,-0.12,0.55,-2.26,-2.81,230,282,190,451,347
1597,0.95,-0.26,-0.12,0.43,-2.75,-4.64,233,284,188,453,345
1598,0.94,-0.27,-0.11,0.43,-3.54,-2.26,233,277,197,448,349
1599,0.96,-0.26,-0.12,0.06,-4.46,-1.83,231,290,190,447,341
1600,0.96,-0.27,-0.1,-0.98,-1.65,1.34,224,282,192,449,344
1601,0.96,-0.28,-0.11,0.18,-1.77,-1.77,232,285,193,452,343
1602,0.95,-0.3,-0.1,-0.67,-1.89,-0.31,229,285,192,453,345
1603,0.94,-0.31,-0.09,-0.67,-2.26,-0.37,228,286,188,448,346
1604,0.95,-0.31,-0.09,2.2,-3.6,-3.36,232,284,186,449,343
1605,0.95,-0.31,-0.08,0.67,-3.17,-2.44,233,287,189,453,346
1606,0.94,-0.32,-0.08,-1.22,-2.38,-1.95,228,283,188,455,338
1607,0.95,-0.32,-0.09,-0.49,-2.99,-2.87,225,285,190,453,347
1608,0.94,-0.31,-0.09,1.04,-1.22,-1.53,235,283,189,447,342
1609,0.95,-0.3,-0.08,0.98,-3.66,-3.66,230,284,189,451,348
1610,0.94,-0.3,-0.08,1.34,-2.38,-2.44,244,281,187,453,349
1611,0.96,-0.3,-0.11,0.67,-4.88,-5.98,231,288,183,454,349
1612,0.94,-0.31,-0.08,-0.24,-2.75,-2.32,231,286,185,451,338
1613,0.95,-0.31,-0.1,-1.46,-4.39,-4.82,233,284,190,453,346
1614,0.96,-0.29,-0.11,-0.55,-2.93,-2.99,226,281,192,454,345
1615,0.94,-0.31,-0.1,1.71,-3.36,-2.32,232,281,195,454,342
1616,0.96,-0.29,-0.12,1.28,-4.58,-5.55,232,283,188,451,346
1617,0.95,-0.29,-0.1,0.43,-4.58,-3.85,231,291,191,446,345
1618,0.96,-0.29,-0.12,1.28,-3.3,-1.46,231,288,197,450,349
1619,0.95,-0.3,-0.08,0.67,-1.77,-2.44,232,286,198,449,344
1620,0.94,-0.3,-0.11,-0.79,-2.2,-2.01,232,284,190,448,347
1621,0.96,-0.3,-0.1,1.65,-3.48,-2.75,228,282,194,454,344
1622,0.93,-0.31,-0.09,-0.06,-3.17,-2.62,231,280,199,449,345
1623,0.94,-0.32,-0.1,-0.49,-1.53,-1.53,228,286,194,449,346
1624,0.95,-0.31,-0.11,-0.06,-3.42,-3.48,236,285,195,453,348
1625,0.96,-0.29,-0.09,-0.18,-2.81,-2.62,229,288,195,452,345
1626,0.97,-0.29,-0.09,0.85,-3.6,-2.93,231,286,196,453,349
1627,0.96,-0.29,-0.1,0.12,-3.42,-0.73,232,285,196,446,345
1628,0.94,-0.32,-0.08,0.55,-3.23,-2.2,232,289,184,453,346
1629,0.93,-0.33,-0.1,-2.32,-2.5,-2.38,229,287,193,452,343
1630,0.95,-0.31,-0.08,-0.37,-3.23,-3.11,233,286,196,455,350
1631,0.95,-0.31,-0.09,0.92,-2.99,-3.05,227,283,196,456,346
1632,0.93,-0.32,-0.08,-0.43,-3.36,-0.73,233,287,195,453,344
1633,0.93,-0.32,-0.08,0.98,-3.17,-2.62,232,284,191,451,345
1634,0.96,-0.3,-0.08,0.61,-3.78,-2.69,229,285,195,452,346
1635,0.94,-0.31,-0.08,3.97,-3.54,-2.87,229,287,195,455,347
1636,0.95,-0.31,-0.08,1.34,-3.23,-3.6,230,285,191,456,346
1637,0.94,-0.33,-0.08,0.49,-3.23,-2.62,229,276,197,450,345
1638,0.94,-0.32,-0.08,-0.06,-2.38,-2.38,230,278,198,449,348
1639,0.94,-0.32,-0.06,0.06,-1.46,-0.79,228,284,193,456,345
1640,0.95,-0.31,-0.08,0.06,-2.81,-2.14,228,286,186,452,349
1641,0.96,-0.31,-0.07,0.06,-2.14,-1.89,228,287,193,454,358
1642,0.95,-0.32,-0.08,0.85,-3.05,-2.26,230,285,192,452,346
1643,0.94,-0.31,-0.07,0.85,-3.66,-2.26,233,284,193,454,347
1644,0.94,-0.31,-0.07,1.22,-3.23,-2.2,231,282,197,453,345
1645,0.95,-0.31,-0.09,-0.73,-2.99,-2.87,228,283,199,456,347
1646,0.94,-0.32,-0.08,-0.12,-2.5,-2.93,228,286,194,457,348
1647,0.94,-0.32,-0.07,1.22,-2.62,-2.62,230,288,195,451,346
1648,0.95,-0.31,-0.08,0.31,-3.11,-2.26,227,285,199,457,347
1649,0.95,-0.31,-0.08,0.55,-2.75,-2.14,231,285,200,453,346
1650,0.96,-0.31,-0.09,0.24,-3.17,-2.32,230,286,196,452,348
1651,0.95,-0.32,-0.08,-0.92,-2.32,-2.32,231,283,199,456,346
1652,0.95,-0.32,-0.07,0.43,-2.5,-2.32,222,283,200,453,345
1653,0.95,-0.32,-0.08,0.24,-2.93,-2.56,232,283,204,455,348
1654,0.94,-0.32,-0.08,0.18,-3.48,-2.32,232,283,201,456,345
1655,0.93,-0.32,-0.07,0.49,-4.15,-4.58,231,283,196,454,346
1656,0.97,-0.3,-0.08,1.71,-2.99,-3.11,228,283,196,455,347
1657,0.94,-0.32,-0.08,0.79,-2.44,-1.4,231,282,196,451,344
1658,0.95,-0.31,-0.08,0.43,-3.91,-2.08,235,284,199,452,347
1659,0.97,-0.3,-0.06,1.65,-3.66,-4.03,225,284,186,451,351
1660,0.95,-0.3,-0.08,0.24,-3.54,-2.2,229,284,196,453,347
1661,0.95,-0.33,-0.08,0.0,-2.99,-2.93,226,286,198,454,346
1662,0.94,-0.32,-0.07,-0.43,-2.44,-2.5,232,289,198,457,346
1663,0.95,-0.31,-0.07,0.79,-2.08,-1.1,229,285,196,454,348
1664,0.96,-0.31,-0.09,0.79,-3.23,-2.44,232,282,201,455,359
1665,0.95,-0.31,-0.08,-0.31,-3.72,-2.32,229,284,202,453,345
1666,0.95,-0.3,-0.07,1.16,-5.19,-6.41,230,284,204,456,343
1667,0.95,-0.31,-0.1,0.12,-1.46,-2.5,226,283,196,462,346
1668,0.94,-0.31,-0.09,-0.43,-2.69,-2.87,234,301,195,454,348
1669,0.95,-0.31,-0.07,0.55,-2.32,-3.36,232,288,198,455,345
1670,0.96,-0.3,-0.07,0.31,-2.44,-2.08,232,289,187,454,348
1671,0.96,-0.3,-0.08,1.95,-3.85,-2.75,231,291,196,458,348
1672,0.93,-0.32,-0.06,2.14,-6.9,-2.99,236,285,197,452,350
1673,0.92,-0.34,-0.08,-0.18,-2.81,-2.75,229,279,199,456,349
1674,0.95,-0.32,-0.08,-0.55,-1.46,-3.23,231,285,196,462,343
1675,0.94,-0.33,-0.08,0.55,-2.44,-1.46,226,279,195,460,348
1676,0.93,-0.33,-0.08,-0.06,-3.42,-1.53,232,287,201,453,347
1677,0.92,-0.35,-0.11,-1.4,-2.32,-0.43,234,281,194,455,347
1678,0.95,-0.32,-0.08,1.34,-3.78,-4.39,233,293,199,459,350
1679,0.94,-0.32,-0.1,-0.31,-2.08,-2.44,232,283,203,457,344
1680,0.94,-0.33,-0.09,-1.28,-2.87,-2.44,231,283,201,451,348
1681,0.91,-0.35,-0.08,-2.08,-4.33,-3.6,232,283,193,457,349
1682,0.94,-0.33,-0.08,1.04,-4.33,-3.17,230,287,198,455,348
1683,0.95,-0.32,-0.08,1.65,-2.69,-2.99,232,283,198,460,343
1684,0.95,-0.32,-0.09,-0.12,-4.27,-1.1,233,285,200,456,349
1685,0.95,-0.34,-0.11,2.99,-6.84,-0.98,228,290,197,456,345
1686,0.92,-0.35,-0.1,-0.73,-2.75,-2.44,231,285,205,452,346
1687,0.93,-0.33,-0.07,-1.71,0.73,-2.14,230,286,203,455,350
1688,0.94,-0.32,-0.07,1.34,-3.6,-3.23,233,286,201,456,353
1689,0.94,-0.33,-0.07,1.83,-3.91,-1.89,232,288,189,455,349
1690,0.94,-0.35,-0.09,-2.5,-3.36,-1.65,233,289,202,452,347
1691,0.94,-0.34,-0.07,-1.53,-3.11,-2.99,233,285,198,455,347
1692,0.93,-0.34,-0.07,-0.61,-3.17,-2.56,233,281,192,457,349
1693,0.94,-0.34,-0.07,-0.79,-3.66,-2.75,232,282,202,456,347
1694,0.95,-0.33,-0.06,0.49,-1.53,-1.71,231,287,192,466,348
1695,0.94,-0.34,-0.07,1.95,-1.65,-2.62,233,286,200,458,349
1696,0.94,-0.34,-0.06,0.73,-3.17,-3.17,234,283,200,461,346
1697,0.95,-0.34,-0.07,2.14,-2.62,-2.75,234,289,205,458,347
1698,0.93,-0.35,-0.06,-0.43,-2.5,-2.08,233,283,202,459,347
1699,0.93,-0.36,-0.06,0.49,-1.71,-1.1,232,285,200,458,345
1700,0.95,-0.34,-0.07,-0.18,-4.09,-1.77,228,287,200,456,349
1701,0.94,-0.35,-0.08,1.34,-0.98,-1.46,231,287,201,456,349
1702,0.93,-0.34,-0.05,2.08,-2.56,-3.48,232,284,201,457,349
1703,0.95,-0.36,-0.08,1.04,-0.31,-1.59,233,283,199,464,345
1704,0.93,-0.36,-0.06,0.37,-1.59,-2.38,231,286,204,456,349
1705,0.95,-0.33,-0.07,-1.28,-3.36,-3.91,233,284,202,456,351
1706,0.94,-0.35,-0.07,0.73,-2.14,-2.01,233,288,202,454,349
1707,0.96,-0.33,-0.07,1.04,-1.71,-1.46,232,287,201,461,346
1708,0.93,-0.36,-0.07,-1.89,-3.66,-4.09,243,284,205,461,344
1709,0.91,-0.39,-0.09,1.1,-6.04,-5.13,231,281,203,453,348
1710,0.95,-0.36,-0.08,2.08,-4.7,-2.93,233,287,203,456,348
1711,0.93,-0.37,-0.07,5.07,-9.77,-5.37,231,289,200,451,351
1712,0.95,-0.33,-0.08,-0.06,-6.77,-7.93,234,284,204,457,349
1713,0.97,-0.32,-0.14,0.85,-3.11,-2.5,230,288,204,456,350
1714,0.94,-0.34,-0.08,1.22,-2.32,-1.1,233,287,201,456,349
1715,0.95,-0.34,-0.09,5.98,-8.54,1.04,229,287,206,457,343
1716,0.91,-0.38,-0.05,-1.1,-4.52,-2.32,234,285,198,458,349
1717,0.91,-0.38,-0.06,0.67,-1.95,-1.89,237,287,205,459,345
1718,0.93,-0.38,-0.07,1.22,-3.11,-2.26,244,284,197,469,353
1719,0.93,-0.37,-0.08,0.49,-2.87,-1.71,231,285,201,456,347
1720,0.91,-0.39,-0.06,-0.61,-2.01,-0.06,229,288,203,460,348
1721,0.93,-0.38,-0.08,0.67,-3.78,-2.99,234,285,203,461,355
1722,0.9,-0.39,-0.07,0.18,-1.95,-1.28,233,288,203,456,352
1723,0.92,-0.38,-0.07,0.18,-3.85,-3.48,234,288,205,461,349
1724,0.92,-0.37,-0.06,-0.85,-4.09,-2.99,233,286,201,459,358
1725,0.92,-0.37,-0.08,0.0,-3.54,-3.11,234,286,204,455,358
1726,0.92,-0.38,-0.1,-0.31,-2.75,-3.36,233,283,202,457,349
1727,0.94,-0.36,-0.1,0.67,-3.85,-3.17,231,287,203,459,349
1728,0.93,-0.35,-0.09,1.4,-4.76,-3.42,234,286,203,457,352
1729,0.93,-0.37,-0.1,0.49,-3.42,-3.66,231,285,215,462,351
1730,0.94,-0.35,-0.1,1.77,-3.17,-2.01,230,286,202,457,348
1731,0.92,-0.36,-0.08,0.12,-1.65,-0.79,235,289,205,456,347
1732,0.92,-0.36,-0.09,-0.12,-2.32,-2.69,230,283,201,461,349
1733,0.89,-0.39,-0.08,0.92,-1.65,-0.18,229,285,205,453,348
1734,0.94,-0.34,-0.1,6.04,-2.32,-2.81,228,284,206,458,350
1735,0.96,-0.33,-0.11,0.37,-0.67,-1.71,234,287,201,456,349
1736,0.94,-0.36,-0.1,1.22,-1.46,-1.22,230,286,205,452,348
1737,0.93,-0.4,-0.12,5.55,-9.46,-2.93,231,290,204,452,346
1738,0.95,-0.34,-0.12,1.83,-3.85,-4.58,233,295,204,461,347
1739,0.94,-0.36,-0.1,1.1,-3.05,-3.23,233,288,204,459,349
1740,0.96,-0.34,-0.15,2.01,-4.94,-5.0,229,289,206,448,349
1741,0.95,-0.34,-0.12,-0.12,-2.01,-2.2,233,290,205,461,351
1742,0.92,-0.35,-0.1,0.0,-3.3,-3.17,232,286,203,459,352
1743,0.92,-0.37,-0.11,0.55,-0.98,-1.34,230,290,202,451,346
1744,0.96,-0.33,-0.1,4.33,0.79,-3.42,231,286,205,460,350
1745,0.93,-0.36,-0.07,0.55,-1.95,-2.32,257,289,205,451,341
1746,0.94,-0.36,-0.07,2.87,-1.83,0.24,231,286,205,452,346
1747,0.93,-0.37,-0.05,0.92,-3.91,-2.69,232,289,202,453,349
1748,0.94,-0.36,-0.06,-0.12,-2.81,-2.2,233,286,200,453,350
1749,0.93,-0.38,-0.06,-0.61,-2.32,-1.28,234,288,209,457,347
1750,0.93,-0.37,-0.05,0.67,-2.81,-2.56,233,285,213,456,347
1751,0.92,-0.38,-0.04,0.85,-2.69,-1.22,235,288,203,459,349
1752,0.92,-0.39,-0.05,0.61,-3.23,-1.77,234,288,200,458,349
1753,0.92,-0.38,-0.05,-1.1,-2.56,-2.75,231,289,203,458,348
1754,0.94,-0.37,-0.05,-0.43,-3.11,-2.14,231,288,203,460,351
1755,0.93,-0.38,-0.05,-0.49,-3.23,-2.56,228,287,206,457,350
1756,0.93,-0.39,-0.05,0.73,-2.93,-2.26,233,288,203,456,347
1757,0.93,-0.38,-0.04,0.61,-1.95,-2.14,234,289,208,453,346
1758,0.93,-0.38,-0.05,0.85,-2.69,-2.99,231,294,201,461,349
1759,0.93,-0.38,-0.05,0.06,-2.44,-2.2,231,290,202,460,353
1760,0.91,-0.39,-0.05,-0.55,-2.69,-2.32,233,292,204,457,350
1761,0.93,-0.38,-0.05,0.37,-3.85,-2.81,232,303,212,462,350
1762,0.93,-0.37,-0.06,-1.04,0.06,-0.85,230,290,202,454,347
1763,0.93,-0.37,-0.05,0.43,-3.05,-2.87,236,292,202,455,351
1764,0.93,-0.38,-0.04,1.16,-3.17,-2.32,232,291,205,454,349
1765,0.92,-0.38,-0.05,0.85,-2.38,-1.34,237,287,195,456,351
1766,0.94,-0.38,-0.06,0.55,-3.72,-2.99,232,280,202,453,352
1767,0.92,-0.39,-0.06,-0.43,-3.78,-2.93,227,292,204,456,348
1768,0.92,-0.38,-0.05,-0.55,-2.5,-2.62,229,287,213,460,348
1769,0.93,-0.38,-0.05,0.49,-3.23,-2.93,232,287,205,458,351
1770,0.91,-0.37,-0.04,-0.24,-2.5,-1.83,233,285,203,460,350
1771,0.92,-0.38,-0.04,0.92,-1.83,-2.56,232,291,204,453,349
1772,0.93,-0.38,-0.06,0.24,-2.69,-1.83,235,288,207,457,352
1773,0.93,-0.37,-0.05,0.67,-2.99,-2.2,232,293,207,456,351
1774,0.91,-0.38,-0.05,0.49,-3.17,-1.71,245,290,210,455,351
1775,0.93,-0.39,-0.05,-0.06,-2.93,-1.34,229,289,208,455,349
1776,0.93,-0.38,-0.05,0.49,-2.44,-2.75,232,288,205,459,348
1777,0.91,-0.38,-0.05,-0.18,-2.38,-2.44,235,290,205,456,349
1778,0.92,-0.38,-0.05,0.49,-2.75,-2.2,235,287,218,472,354
1779,0.93,-0.37,-0.05,0.55,-2.93,-2.69,235,290,206,458,344
1780,0.92,-0.38,-0.05,0.98,-3.3,-2.62,231,289,202,456,342
1781,0.92,-0.38,-0.06,1.1,-3.17,-2.62,231,288,199,454,351
1782,0.94,-0.37,-0.06,-0.98,-2.62,-2.08,235,289,204,456,351
1783,0.92,-0.37,-0.05,1.59,-2.93,-2.87,234,293,206,456,347
1784,0.93,-0.38,-0.06,0.06,-2.99,-2.75,233,293,203,460,352
1785,0.92,-0.38,-0.05,-0.31,-2.56,-2.26,233,289,201,453,353
1786,0.94,-0.36,-0.05,0.0,-3.23,-2.81,235,286,205,454,349
1787,0.91,-0.39,-0.05,0.37,-2.62,-2.87,229,290,206,459,348
1788,0.94,-0.37,-0.05,-0.43,-3.11,-2.32,237,290,208,452,346
1789,0.91,-0.38,-0.05,0.43,-2.93,-1.46,232,287,209,457,349
1790,0.92,-0.38,-0.05,0.43,-3.05,-2.2,230,291,205,461,353
1791,0.93,-0.38,-0.05,0.49,-2.32,-2.56,233,290,208,458,348
1792,0.93,-0.38,-0.06,0.18,-2.69,-3.6,229,283,206,457,347
1793,0.92,-0.38,-0.05,0.31,-2.32,-2.08,233,285,203,456,349
1794,0.94,-0.37,-0.05,0.31,-2.87,-2.26,233,287,206,458,350
1795,0.92,-0.38,-0.05,1.1,-3.05,-2.5,230,289,206,460,351
1796,0.93,-0.38,-0.06,0.55,-3.36,-2.56,235,283,206,456,348
1797,0.94,-0.37,-0.06,0.49,-2.2,-1.83,234,286,203,472,350
1798,0.92,-0.38,-0.04,-0.12,-2.14,-2.38,232,289,205,450,349
1799,0.91,-0.39,-0.05,-0.18,-2.56,-2.69,232,290,209,456,349
1800,0.92,-0.39,-0.05,-0.06,-3.91,-2.44,234,292,206,453,350
1801,0.94,-0.37,-0.06,0.12,-3.3,-2.01,231,291,202,456,349
1802,0.92,-0.39,-0.05,0.24,-2.38,-2.32,232,292,208,452,347
1803,0.93,-0.38,-0.06,0.12,-2.38,-1.95,236,288,208,452,352
1804,0.92,-0.38,-0.05,-4.58,-1.53,-0.31,228,284,201,460,351
1805,0.93,-0.37,-0.06,-1.46,-6.16,-4.27,234,288,208,451,351
1806,0.91,-0.39,-0.06,0.06,-1.1,-0.92,232,285,204,459,354
1807,0.92,-0.38,-0.06,-1.65,-2.38,-0.67,235,285,206,462,351
1808,0.92,-0.38,-0.07,1.04,-2.32,-2.69,233,286,205,459,350
1809,0.92,-0.4,-0.07,-0.43,-2.56,-2.5,229,288,208,452,348
1810,0.93,-0.37,-0.07,0.73,-2.81,-1.89,234,290,208,452,346
1811,0.92,-0.39,-0.07,-0.18,-2.56,-2.99,235,290,206,458,351
1812,0.92,-0.38,-0.07,1.89,-2.99,-2.14,230,287,208,450,346
1813,0.91,-0.39,-0.07,0.12,-3.48,-1.95,234,291,206,458,342
1814,0.91,-0.39,-0.07,0.79,-2.08,-2.5,227,287,219,455,350
1815,0.92,-0.38,-0.08,-0.37,-2.38,-1.77,230,290,209,458,349
1816,0.92,-0.39,-0.09,-0.06,-2.69,-2.81,229,285,208,460,346
1817,0.92,-0.39,-0.08,-0.06,-2.93,-3.3,232,288,209,456,352
1818,0.9,-0.39,-0.05,1.59,-3.91,-2.81,232,287,208,457,345
1819,0.92,-0.39,-0.08,-1.1,-3.3,-1.53,231,283,207,460,348
1820,0.94,-0.38,-0.1,0.06,-4.15,-3.6,233,289,205,454,348
1821,0.92,-0.39,-0.08,-0.79,-3.05,-3.05,232,295,208,451,351
1822,0.91,-0.39,-0.06,1.77,-4.15,-4.27,238,287,209,460,351
1823,0.91,-0.39,-0.07,0.98,-2.26,-2.26,231,290,204,451,347
1824,0.92,-0.39,-0.09,0.06,-3.05,-3.11,244,288,208,458,349
1825,0.92,-0.39,-0.08,0.67,-8.54,-5.55,227,290,205,456,352
1826,0.98,-0.34,-0.12,-0.43,-0.43,-2.5,229,291,207,453,350
1827,0.91,-0.38,-0.08,2.81,-3.6,-3.78,230,289,211,451,346
1828,0.93,-0.37,-0.08,1.77,-4.58,-3.23,230,290,208,461,347
1829,0.93,-0.37,-0.08,0.43,-2.38,-1.53,231,292,207,461,349
1830,0.92,-0.38,-0.08,1.16,-2.62,-2.38,232,289,208,455,351
1831,0.93,-0.38,-0.08,0.37,-1.95,-2.81,257,291,212,457,347
1832,0.93,-0.37,-0.07,1.04,-2.69,-2.75,236,290,218,461,352
1833,0.94,-0.37,-0.08,0.37,-3.54,-3.78,261,291,206,461,347
1834,0.91,-0.39,-0.07,0.79,-1.89,-2.32,230,290,206,458,351
1835,0.92,-0.38,-0.08,1.04,-3.36,-3.54,232,284,208,451,351
1836,0.92,-0.38,-0.09,0.55,-2.87,-2.75,233,290,206,454,350
1837,0.92,-0.37,-0.1,-1.95,-4.76,-2.87,231,289,217,462,349
1838,0.93,-0.38,-0.07,1.71,-4.15,-3.48,231,288,206,459,350
1839,0.94,-0.37,-0.09,0.31,-2.62,-2.5,232,288,198,456,347
1840,0.93,-0.38,-0.08,1.1,-2.99,-3.36,237,282,208,458,356
1841,0.91,-0.39,-0.09,0.55,-3.17,-2.99,230,288,210,453,349
1842,0.94,-0.37,-0.08,-0.31,-2.26,-2.2,245,292,209,450,347
1843,0.96,-0.35,-0.1,0.06,-2.5,-4.09,232,290,208,459,348
1844,0.92,-0.36,-0.08,-0.85,-3.97,-5.55,230,286,206,456,352
1845,0.95,-0.34,-0.1,3.48,-4.82,-1.04,231,286,207,460,348
1846,0.94,-0.35,-0.09,2.2,-4.27,-4.09,232,288,207,452,348
1847,0.95,-0.35,-0.11,0.98,-4.09,-3.17,231,286,210,457,349
1848,0.94,-0.35,-0.08,1.28,-1.28,-0.24,232,289,205,461,352
1849,0.95,-0.34,-0.09,1.83,-4.7,-4.39,232,290,206,449,349
1850,0.95,-0.35,-0.11,-1.34,-2.75,-5.25,227,289,209,457,352
1851,0.96,-0.34,-0.12,1.89,-2.62,-2.32,233,289,206,455,350
1852,0.91,-0.37,-0.07,-1.22,-4.21,-2.2,231,287,207,458,350
1853,0.91,-0.36,-0.05,-0.55,-3.05,-1.77,231,303,209,460,350
1854,0.91,-0.36,-0.09,2.26,-3.6,-0.92,237,289,209,456,349
1855,0.95,-0.35,-0.07,0.06,-1.65,-0.67,236,289,211,456,348
1856,0.94,-0.35,-0.1,-0.61,-5.62,-6.84,231,290,210,455,348
1857,0.94,-0.35,-0.09,1.46,-3.36,-4.33,231,292,211,459,351
1858,0.97,-0.36,-0.12,-2.75,-6.84,-6.1,230,288,207,458,348
1859,0.99,-0.32,-0.16,1.53,-3.17,-3.85,230,287,210,459,349
1860,0.94,-0.34,-0.12,-1.71,-3.05,-3.23,233,290,210,452,345
1861,0.95,-0.33,-0.13,0.55,-2.32,-3.72,229,287,204,456,345
1862,0.96,-0.34,-0.13,2.62,0.31,-3.23,233,283,211,453,349
1863,0.93,-0.35,-0.11,1.1,-4.09,-4.7,230,289,208,460,343
1864,0.94,-0.34,-0.12,-0.37,-3.36,-2.14,232,288,211,454,345
1865,0.94,-0.34,-0.12,0.49,-2.56,-1.83,235,289,216,458,347
1866,0.93,-0.34,-0.11,0.79,-3.11,-2.62,230,284,208,459,345
1867,0.93,-0.34,-0.11,0.24,-3.11,-2.5,238,289,211,462,344
1868,0.94,-0.34,-0.1,0.06,-2.56,-2.08,231,289,210,453,345
1869,0.94,-0.34,-0.11,2.26,-2.99,-4.09,231,291,210,455,347
1870,0.94,-0.34,-0.13,0.24,-2.75,-1.65,232,287,203,456,346
1871,0.94,-0.34,-0.12,0.18,-5.13,-3.6,234,290,212,455,349
1872,0.93,-0.34,-0.12,0.55,-2.75,-2.01,233,288,221,459,349
1873,0.93,-0.33,-0.12,-0.43,-3.91,-3.72,231,289,215,458,345
1874,0.94,-0.32,-0.12,1.46,-3.23,-3.23,241,287,213,451,349
1875,0.95,-0.33,-0.12,1.46,-2.87,-2.87,231,294,213,458,343
1876,0.93,-0.33,-0.12,-0.98,-3.11,-2.14,241,289,206,457,349
1877,0.93,-0.33,-0.12,0.37,-2.44,-4.33,235,286,209,457,348
1878,0.94,-0.33,-0.12,0.43,-2.62,-2.2,230,285,206,473,344
1879,0.94,-0.33,-0.11,0.43,-1.59,-1.04,233,288,204,455,349
1880,0.94,-0.34,-0.12,5.8,-1.34,6.29,235,288,211,456,341
1881,0.91,-0.4,-0.09,0.85,-2.93,-0.12,232,291,214,455,342
1882,0.87,-0.44,-0.06,6.77,3.42,2.62,231,291,210,458,345
1883,0.92,-0.4,-0.07,-0.85,-3.72,-4.09,236,291,210,460,344
1884,0.92,-0.39,-0.07,-0.18,-4.09,-2.99,231,289,213,452,345
1885,0.92,-0.4,-0.07,0.73,-2.56,-3.91,238,288,209,453,345
1886,0.92,-0.4,-0.08,0.31,-3.17,-3.42,232,285,211,458,347
1887,0.92,-0.39,-0.07,-1.28,-3.23,-1.4,223,289,200,460,341
1888,0.9,-0.41,-0.07,-1.04,-2.38,-2.69,236,290,212,459,345
1889,0.9,-0.4,-0.06,1.28,-2.44,-2.62,235,289,210,456,346
1890,0.91,-0.4,-0.07,-0.12,-2.87,-2.56,231,291,207,457,347
1891,0.91,-0.39,-0.07,1.1,-2.26,-2.14,230,293,215,461,345
1892,0.92,-0.39,-0.07,-0.06,-3.97,-4.58,233,292,212,463,346
1893,0.92,-0.38,-0.08,-0.79,-4.15,-3.48,234,292,214,452,347
1894,0.93,-0.38,-0.08,-0.43,-4.15,-2.93,232,291,206,454,346
1895,0.94,-0.37,-0.08,0.73,-4.09,-2.69,234,288,207,461,347
1896,0.93,-0.37,-0.08,0.92,-2.87,-3.05,228,293,204,457,346
1897,0.92,-0.38,-0.08,-0.79,-6.1,-5.0,235,288,216,452,349
1898,0.93,-0.37,-0.08,0.55,-3.36,-2.56,233,293,203,460,343
1899,0.91,-0.38,-0.09,0.24,-3.48,-2.32,228,289,207,454,346
1900,0.92,-0.37,-0.09,0.49,-2.93,-2.81,235,288,212,459,346
1901,0.94,-0.36,-0.08,1.4,-1.71,-2.38,233,290,208,460,344
1902,0.93,-0.37,-0.09,1.4,-2.93,-2.75,233,292,197,455,342
1903,0.94,-0.36,-0.09,-0.12,-3.11,-1.83,232,294,210,452,346
1904,0.92,-0.37,-0.09,0.31,-2.5,-2.56,232,289,205,462,346
1905,0.94,-0.37,-0.09,-0.06,-2.81,-2.87,233,291,213,456,346
1906,0.93,-0.37,-0.08,-0.06,-3.3,-2.2,236,290,212,462,347
1907,0.92,-0.38,-0.09,0.67,-3.11,-1.65,232,299,212,455,347
1908,0.93,-0.36,-0.07,0.18,-2.38,-2.56,234,292,202,460,344
1909,0.93,-0.35,-0.08,0.98,-2.2,-1.71,233,291,212,457,345
1910,0.94,-0.36,-0.08,2.08,-3.54,-3.91,232,290,213,459,346
1911,0.93,-0.37,-0.1,0.61,-2.99,-2.5,230,286,211,458,347
1912,0.92,-0.37,-0.09,-0.49,-2.93,-2.32,234,293,208,453,348
1913,0.93,-0.37,-0.08,0.92,-2.69,-3.36,234,289,208,457,347
1914,0.93,-0.37,-0.09,0.24,-2.01,-2.2,234,289,211,457,347
1915,0.93,-0.37,-0.09,0.61,-3.05,-2.38,233,289,201,457,346
1916,0.93,-0.37,-0.09,0.55,-3.17,-2.69,230,295,211,458,347
1917,0.93,-0.36,-0.09,1.59,-3.36,-2.69,234,291,209,454,346
1918,0.94,-0.37,-0.1,0.67,-2.26,-2.38,235,288,204,455,343
1919,0.91,-0.37,-0.09,-0.43,-2.56,-2.14,235,293,210,462,345
1920,0.92,-0.37,-0.08,0.12,-2.75,-1.77,234,290,208,457,348
1921,0.95,-0.35,-0.09,-1.83,0.73,-3.54,232,292,212,457,346
1922,0.93,-0.36,-0.09,0.73,-2.2,-2.5,232,290,221,452,346
1923,0.93,-0.37,-0.09,0.0,-2.44,-2.5,237,293,215,455,343
1924,0.93,-0.36,-0.09,0.37,-3.05,-2.87,238,291,208,451,344
1925,0.92,-0.37,-0.08,0.98,-2.75,-2.44,236,292,212,457,347
1926,0.93,-0.37,-0.08,-0.73,-2.56,-1.95,234,286,209,461,346
1927,0.92,-0.36,-0.08,0.24,-2.87,-2.5,222,292,215,462,345
1928,0.93,-0.37,-0.09,0.18,-2.99,-2.81,235,291,226,454,351
1929,0.93,-0.36,-0.09,0.92,-2.87,-2.01,237,291,210,461,346
1930,0.93,-0.36,-0.09,-0.31,-2.75,-2.5,230,290,215,464,349
1931,0.93,-0.37,-0.1,0.98,-3.05,-3.11,232,295,214,462,347
1932,0.93,-0.36,-0.09,0.92,-3.17,-2.69,230,290,208,459,350
1933,0.91,-0.37,-0.08,-0.67,-1.71,-0.67,232,289,215,458,347
1934,0.95,-0.33,-0.09,1.53,-2.14,-3.72,233,286,209,455,346
1935,0.95,-0.36,-0.1,0.55,-2.69,-4.33,234,287,210,461,350
1936,0.94,-0.36,-0.09,1.46,-3.78,-3.66,233,289,210,471,343
1937,0.94,-0.37,-0.08,0.67,-1.95,-1.53,237,291,212,457,347
1938,0.92,-0.37,-0.08,-0.37,-3.05,-2.87,234,286,213,456,344
1939,0.93,-0.36,-0.08,0.31,-2.69,-1.89,236,291,215,461,345
1940,0.91,-0.36,-0.07,-1.22,-2.81,-0.85,256,289,215,457,348
1941,0.92,-0.36,-0.06,0.92,-2.01,-1.77,236,293,209,461,348
1942,0.92,-0.36,-0.06,-1.53,-1.22,-0.73,231,291,216,457,342
1943,0.91,-0.37,-0.05,0.73,-2.62,-1.65,232,292,213,453,344
1944,0.93,-0.37,-0.08,1.28,-1.71,-1.83,234,287,213,465,350
1945,0.93,-0.37,-0.08,0.49,-3.05,-2.99,238,291,211,454,344
1946,0.92,-0.36,-0.08,0.0,-2.87,-2.87,235,297,207,454,348
1947,0.92,-0.37,-0.07,0.18,-2.93,-2.87,230,287,206,463,351
1948,0.94,-0.35,-0.08,0.98,-2.87,-2.81,234,287,212,454,347
1949,0.93,-0.36,-0.07,0.61,-2.5,-2.08,233,287,208,462,350
1950,0.92,-0.37,-0.08,0.12,-2.32,-1.83,233,289,207,458,347
1951,0.93,-0.36,-0.07,1.1,-2.69,-2.56,232,291,214,457,348
1952,0.94,-0.36,-0.08,0.92,-3.11,-2.32,231,284,212,456,343
1953,0.93,-0.37,-0.08,-0.06,-3.11,-2.32,234,292,213,458,345
1954,0.92,-0.37,-0.08,0.0,-2.62,-2.56,232,288,218,457,352
1955,0.93,-0.36,-0.07,-0.61,-3.23,-2.32,236,285,211,459,350
1956,0.92,-0.37,-0.07,0.55,-2.08,-1.65,233,289,214,463,349
1957,0.93,-0.37,-0.07,1.1,-2.75,-2.44,231,290,203,459,340
1958,0.93,-0.37,-0.08,-0.67,-1.46,-2.32,233,286,211,453,344
1959,0.92,-0.38,-0.06,1.59,-4.03,-3.66,228,286,210,459,347
1960,0.89,-0.4,-0.02,4.15,-3.72,3.91,232,287,214,461,350
1961,0.88,-0.42,-0.05,1.34,-4.58,-2.87,228,289,209,459,347
1962,0.99,-0.36,-0.16,-5.31,-9.03,-9.28,236,291,211,455,345
1963,0.94,-0.34,-0.03,-1.53,0.61,-2.62,236,283,216,454,350
1964,0.95,-0.37,-0.09,-9.64,-3.6,9.77,232,286,216,457,345
1965,0.93,-0.4,-0.08,-3.36,-1.1,-3.91,234,287,212,459,350
1966,0.95,-0.4,-0.12,-5.8,-4.21,-10.62,232,290,207,460,349
1967,0.98,-0.32,-0.11,7.08,-9.95,-6.71,233,289,212,462,345
1968,0.85,-0.42,-0.05,2.38,3.36,3.23,234,286,207,459,346
1969,0.9,-0.41,-0.07,-3.3,-0.12,-1.95,231,285,203,460,351
1970,0.91,-0.41,-0.11,0.98,1.34,-3.42,231,291,218,460,348
1971,0.94,-0.39,-0.09,-0.43,-8.79,0.06,232,287,214,458,348
1972,0.89,-0.41,-0.05,-0.55,-0.55,-1.22,234,281,209,462,348
1973,0.92,-0.39,-0.09,-7.75,-2.62,-4.88,233,288,206,458,347
1974,0.94,-0.37,-0.1,1.59,-4.64,-4.52,229,287,214,458,349
1975,0.91,-0.39,-0.09,1.46,-0.37,2.01,236,287,211,455,349
1976,0.9,-0.41,-0.06,1.71,-2.44,-2.5,231,292,203,457,342
1977,0.93,-0.37,-0.06,3.72,-2.5,-3.11,231,289,210,459,349
1978,0.92,-0.38,-0.07,2.69,-3.78,-3.23,234,288,215,458,350
1979,0.93,-0.39,-0.09,0.06,-3.97,-3.54,237,285,213,458,347
1980,0.93,-0.38,-0.06,-0.43,-3.11,-3.05,227,287,215,464,344
1981,0.93,-0.38,-0.07,1.53,-2.01,-2.69,235,297,211,459,346
1982,0.92,-0.39,-0.07,-0.79,-2.38,-2.56,232,292,211,463,346
1983,0.93,-0.38,-0.07,0.18,-3.54,-2.99,230,289,215,463,346
1984,0.92,-0.39,-0.07,1.77,-2.62,-2.32,232,290,212,463,352
1985,0.92,-0.4,-0.07,-0.79,-2.56,-1.89,235,285,216,456,347
1986,0.92,-0.4,-0.07,0.61,-2.99,-2.69,233,289,209,456,356
1987,0.93,-0.38,-0.06,0.73,-3.05,-3.05,232,289,215,461,348
1988,0.91,-0.4,-0.05,-0.67,-1.89,-0.98,236,288,208,454,347
1989,0.93,-0.38,-0.06,0.85,-3.42,-2.32,236,288,201,463,350
1990,0.92,-0.39,-0.06,0.18,-3.66,-2.26,233,296,211,459,350
1991,0.92,-0.39,-0.05,2.08,-2.93,-1.89,233,290,214,457,351
1992,0.94,-0.38,-0.09,1.77,-3.48,-6.35,235,291,204,457,352
1993,0.92,-0.39,-0.07,2.44,-2.81,-2.69,231,291,210,465,347
1994,0.93,-0.39,-0.06,2.01,-5.0,-5.37,234,290,208,462,348
1995,0.94,-0.38,-0.06,-0.43,-2.69,-2.2,230,289,210,471,350
1996,0.9,-0.4,-0.05,-0.73,-2.99,-1.71,229,289,215,466,349
1997,0.92,-0.39,-0.06,0.0,-3.23,-2.93,235,288,209,458,349
1998,0.91,-0.4,-0.05,-0.73,-2.44,-1.95,235,291,211,463,346
1999,0.91,-0.4,-0.05,-0.06,-3.72,-4.7,237,288,217,461,349
2000,0.93,-0.39,-0.08,0.85,-3.23,-1.34,237,300,212,461,347
2001,0.93,-0.37,-0.02,-2.99,-1.28,-0.85,227,286,211,457,343
2002,0.96,-0.34,-0.06,-1.04,-5.98,-9.03,237,285,210,458,346
2003,0.96,-0.32,-0.11,5.92,-11.47,-3.78,232,286,210,462,349
2004,0.94,-0.33,-0.06,3.54,-1.1,0.0,237,290,211,456,347
2005,0.93,-0.36,-0.06,1.65,-0.06,0.12,235,285,210,459,351
2006,0.94,-0.38,-0.06,-0.79,-1.83,-2.14,234,287,210,460,349
2007,0.92,-0.38,-0.06,0.98,-2.93,-2.87,230,282,217,464,349
2008,0.93,-0.37,-0.06,-0.49,-2.87,-2.32,235,290,209,459,341
2009,0.93,-0.37,-0.07,1.4,-2.44,-2.14,229,290,213,458,350
2010,0.93,-0.37,-0.06,0.0,-3.17,-2.93,233,291,211,454,346
2011,0.93,-0.38,-0.06,-0.98,-2.32,-2.69,234,294,211,461,348
2012,0.92,-0.37,-0.07,-0.43,-3.11,-2.26,231,291,214,468,351
2013,0.93,-0.37,-0.07,-0.06,-2.69,-2.08,232,288,214,459,345
2014,0.93,-0.37,-0.07,0.73,-2.69,-2.08,233,291,214,464,346
2015,0.93,-0.37,-0.07,-0.37,-2.5,-2.56,234,289,212,462,351
2016,0.93,-0.37,-0.07,0.61,-2.69,-2.14,233,284,212,458,351
2017,0.93,-0.37,-0.07,0.06,-1.83,-1.53,239,291,211,459,351
2018,0.93,-0.38,-0.07,-0.79,-2.44,-2.5,234,297,213,457,348
2019,0.94,-0.36,-0.06,0.92,-3.78,-3.11,232,289,213,461,346
2020,0.93,-0.37,-0.06,-0.18,-3.36,-2.08,231,291,211,462,352
2021,0.93,-0.37,-0.07,0.49,-2.14,-2.56,232,285,212,456,349
2022,0.92,-0.37,-0.07,0.67,-2.26,-2.93,232,288,213,458,352
2023,0.93,-0.37,-0.07,0.73,-2.99,-2.56,239,302,209,464,349
2024,0.93,-0.37,-0.07,0.55,-2.38,-2.81,235,297,209,462,343
2025,0.92,-0.38,-0.07,0.43,-2.99,-2.14,236,292,214,459,349
2026,0.92,-0.38,-0.07,-0.43,-2.99,-2.2,227,292,215,462,348
2027,0.92,-0.37,-0.06,0.43,-2.32,-1.89,231,296,209,455,350
2028,0.93,-0.37,-0.07,0.18,-2.5,-2.75,232,290,210,462,349
2029,0.93,-0.37,-0.06,-0.55,-3.66,-2.99,233,288,216,464,348
2030,0.93,-0.37,-0.07,-0.12,-2.69,-1.77,233,285,214,460,350
2031,0.92,-0.37,-0.08,0.12,-3.11,-2.56,233,292,206,462,351
2032,0.92,-0.37,-0.06,-4.82,-5.98,-3.72,233,291,206,462,345
2033,0.95,-0.35,-0.09,1.46,-2.62,0.24,230,289,205,453,357
2034,0.91,-0.41,-0.07,-1.04,-0.49,-1.22,230,288,206,458,349
2035,0.92,-0.38,-0.05,-3.97,-4.03,-6.29,232,290,214,455,348
2036,0.95,-0.34,-0.11,0.31,-3.85,-4.64,235,295,214,461,347
2037,0.93,-0.36,-0.09,1.59,-2.62,1.16,231,305,212,454,347
2038,0.9,-0.39,-0.07,1.53,-2.01,-1.1,234,289,208,464,349
2039,0.91,-0.39,-0.08,-0.43,-4.09,-3.91,236,283,213,467,351
2040,0.93,-0.38,-0.08,-1.1,-1.71,-1.95,235,284,212,463,345
2041,0.93,-0.37,-0.08,1.1,-2.87,-1.46,232,283,210,462,344
2042,0.93,-0.38,-0.07,1.65,-2.2,-1.95,232,295,215,459,350
2043,0.91,-0.39,-0.08,-0.61,-4.64,-4.21,234,290,213,463,347
2044,0.94,-0.35,-0.08,0.37,-4.27,-3.42,236,289,208,462,348
2045,0.93,-0.37,-0.09,-0.55,-3.36,-1.59,235,288,208,463,348
2046,0.94,-0.36,-0.08,1.53,-2.14,-2.44,236,292,212,462,350
2047,0.92,-0.37,-0.07,0.43,-2.93,-2.01,232,288,219,462,350
2048,0.92,-0.37,-0.07,-0.43,-3.42,-3.11,234,288,216,459,351
2049,0.93,-0.36,-0.07,0.79,-2.38,-1.59,232,291,212,465,350
2050,0.91,-0.39,-0.08,0.37,-3.11,-2.32,234,291,207,462,349
2051,0.93,-0.38,-0.08,1.04,-4.03,-3.48,235,289,215,457,348
2052,0.93,-0.37,-0.07,0.0,-3.23,-1.89,237,289,216,457,344
2053,0.92,-0.38,-0.07,0.43,-2.26,-1.95,223,293,214,458,346
2054,0.92,-0.38,-0.07,0.06,-2.87,-2.38,234,292,204,461,350
2055,0.93,-0.37,-0.07,0.79,-2.81,-2.56,226,289,211,455,350
