,aX,aY,aZ,gX,gY,gZ,little,ring,middle,index,thumb
0,-0.06,-0.97,0.25,27.53,1.16,-7.32,287,261,192,220,197
1,-0.05,-0.96,0.28,7.14,-7.51,-4.52,289,265,194,218,199
2,-0.03,-0.96,0.31,-1.65,-4.58,1.77,286,272,198,224,196
3,-0.05,-0.93,0.31,-0.67,-1.22,2.01,287,267,196,219,198
4,-0.06,-0.96,0.29,0.24,0.0,-4.27,286,272,196,219,198
5,-0.04,-0.95,0.26,1.1,-0.55,-1.04,289,265,197,221,198
6,-0.06,-0.95,0.3,-1.16,-0.49,0.61,288,268,199,219,199
7,-0.11,-0.96,0.23,-1.34,-8.3,-2.14,290,280,202,224,199
8,-0.1,-0.95,0.26,-0.12,-4.09,-4.03,289,280,200,223,200
9,-0.1,-0.96,0.28,-2.87,-3.54,-2.69,287,280,205,223,198
10,-0.09,-0.96,0.27,2.01,-4.09,-2.2,286,286,202,224,231
11,-0.08,-0.96,0.3,-1.22,-4.21,-1.16,287,283,205,222,199
12,-0.1,-0.95,0.29,0.85,-3.66,-1.4,285,283,206,221,202
13,-0.1,-0.95,0.28,1.22,-3.48,-2.69,291,286,202,224,199
14,-0.09,-0.95,0.31,0.92,-3.17,-1.83,287,281,201,225,199
15,-0.1,-0.95,0.3,-2.26,-2.75,-3.11,288,282,206,225,202
16,-0.09,-0.95,0.27,-3.11,-1.59,-3.97,286,284,208,223,199
17,-0.1,-0.95,0.28,2.5,-4.15,-3.3,289,285,205,222,199
18,-0.1,-0.95,0.29,0.98,-2.87,-3.54,291,287,206,222,201
19,-0.1,-0.95,0.29,-5.19,2.14,-7.57,291,281,208,222,201
20,-0.1,-0.96,0.3,-2.75,-4.7,-2.08,288,284,219,224,205
21,-0.09,-0.95,0.28,-0.49,-2.93,-2.99,286,285,205,228,200
22,-0.09,-0.95,0.28,-0.12,-1.53,-3.85,290,286,219,229,204
23,-0.09,-0.96,0.28,-0.24,-1.95,-2.99,290,286,209,224,204
24,-0.1,-0.95,0.28,-0.43,-3.23,-1.77,298,285,208,227,204
25,-0.09,-0.95,0.29,0.85,-2.38,-1.59,287,281,205,226,212
26,-0.1,-0.95,0.29,-1.22,-2.32,-3.42,286,281,206,226,204
27,-0.11,-0.95,0.31,1.16,-2.32,-3.85,288,287,203,230,199
28,-0.1,-0.95,0.3,-0.73,-2.44,-3.6,288,282,206,230,203
29,-0.08,-0.95,0.3,0.85,-1.65,-3.3,289,281,204,225,205
30,-0.08,-0.95,0.29,0.0,-1.83,-4.33,284,298,206,228,204
31,-0.1,-0.95,0.29,0.61,-1.71,-4.33,286,281,206,231,204
32,-0.08,-0.95,0.28,0.31,-2.56,-3.17,290,286,209,227,204
33,-0.07,-0.96,0.28,-1.22,-2.08,-5.07,290,283,209,227,204
34,-0.05,-0.96,0.26,-0.92,-2.99,-3.11,290,285,206,230,205
35,-0.06,-0.96,0.28,1.28,-2.26,-2.5,291,284,211,229,203
36,-0.05,-0.95,0.28,0.12,-5.8,-2.44,290,282,207,230,204
37,-0.05,-0.96,0.29,0.55,-2.62,-3.11,293,287,206,235,202
38,-0.05,-0.95,0.28,0.61,-3.23,-2.32,291,284,207,232,204
39,-0.06,-0.96,0.29,0.92,-3.42,-1.46,288,287,210,227,204
40,-0.07,-0.95,0.29,0.85,-2.81,-2.69,291,287,207,231,204
41,-0.07,-0.96,0.29,-0.31,-3.23,-1.53,290,289,209,230,207
42,-0.06,-0.96,0.3,0.49,-3.97,-1.28,292,292,200,232,207
43,-0.06,-0.96,0.29,1.4,-2.93,-2.08,290,289,204,233,203
44,-0.06,-0.96,0.3,-0.85,-3.11,-3.48,291,291,209,227,209
45,-0.07,-0.95,0.29,1.83,-4.33,-1.89,292,290,206,233,208
46,-0.06,-0.95,0.29,0.12,-4.27,-2.5,289,283,208,241,206
47,-0.05,-0.95,0.29,0.12,-2.5,-2.2,291,291,206,231,207
48,-0.06,-0.95,0.29,0.67,-2.5,-3.05,294,290,210,229,201
49,-0.07,-0.96,0.3,1.28,-5.31,0.49,291,292,207,230,207
50,-0.06,-0.96,0.27,1.59,-3.48,0.24,291,289,207,230,205
51,-0.08,-0.95,0.29,1.4,-3.3,-1.89,292,286,206,233,246
52,-0.07,-0.95,0.3,0.67,-3.91,-3.11,294,294,208,234,203
53,-0.06,-0.95,0.3,-0.31,-1.77,-3.17,292,290,210,231,208
54,-0.07,-0.95,0.3,-1.1,-2.26,-2.81,290,291,212,233,208
55,-0.06,-0.95,0.29,0.79,-2.69,-2.08,294,290,212,233,208
56,-0.07,-0.95,0.29,2.01,-2.99,-0.92,293,291,210,229,207
57,-0.06,-0.95,0.28,1.95,-3.48,-1.28,296,295,210,232,209
58,-0.06,-0.95,0.29,1.53,-3.78,-2.38,295,289,206,232,209
59,-0.06,-0.95,0.28,1.22,-3.11,-2.44,291,292,208,231,204
60,-0.06,-0.95,0.29,0.24,-3.36,-2.38,295,301,212,232,205
61,-0.06,-0.96,0.29,0.18,-2.44,-3.54,295,290,210,235,206
62,-0.07,-0.96,0.29,0.18,-3.48,-2.5,294,295,209,233,208
63,-0.07,-0.96,0.29,0.43,-2.44,-2.2,294,294,207,236,207
64,-0.06,-0.95,0.29,0.49,-3.23,-1.83,292,296,209,233,207
65,-0.07,-0.95,0.3,0.24,-2.5,-2.87,290,293,217,232,206
66,-0.08,-0.95,0.31,0.0,-2.62,-2.87,290,292,209,236,208
67,-0.07,-0.95,0.3,0.98,-2.75,-2.32,294,288,212,236,214
68,-0.07,-0.95,0.3,-0.06,-2.75,-2.81,293,295,209,234,209
69,-0.06,-0.95,0.31,-0.49,-3.48,-3.05,294,296,209,234,210
70,-0.06,-0.95,0.3,1.04,-3.6,-2.26,291,294,209,236,214
71,-0.06,-0.95,0.3,-2.62,-1.95,-3.42,290,296,208,236,210
72,-0.06,-0.96,0.28,-2.5,-4.21,-2.38,292,298,209,236,210
73,-0.07,-0.95,0.27,2.26,-1.34,-7.26,290,292,209,235,204
74,-0.04,-0.96,0.29,-0.98,-2.81,-2.2,296,291,210,231,209
75,-0.06,-0.95,0.29,1.4,-2.44,-1.95,296,292,210,238,206
76,-0.05,-0.95,0.29,-0.18,-3.85,-3.23,296,292,211,231,210
77,-0.06,-0.96,0.29,-0.12,-3.17,-3.54,305,291,210,234,207
78,-0.06,-0.96,0.29,1.4,-2.5,-3.42,295,295,209,232,207
79,-0.05,-0.96,0.27,-0.67,-0.98,-2.99,296,287,212,234,208
80,-0.07,-0.95,0.31,-0.24,-5.25,-1.34,297,297,206,237,204
81,-0.05,-0.96,0.28,-1.59,-3.3,-2.69,295,290,212,238,212
82,-0.06,-0.95,0.31,0.85,-2.32,-2.75,292,296,210,235,209
83,-0.05,-0.96,0.29,-0.12,-2.62,-2.99,295,290,212,234,213
84,-0.05,-0.96,0.27,0.55,-3.17,-2.2,296,287,208,236,235
85,-0.06,-0.95,0.28,-1.28,-2.32,-3.66,295,294,207,237,210
86,-0.06,-0.96,0.29,0.49,-2.69,-2.44,294,294,216,239,208
87,-0.05,-0.95,0.29,0.12,-2.62,-3.3,290,290,213,237,208
88,-0.07,-0.96,0.28,-1.65,-3.48,-3.6,292,292,212,239,211
89,-0.06,-0.96,0.28,1.22,-3.48,-0.49,294,295,209,233,234
90,-0.06,-0.96,0.28,-0.24,-3.3,-2.56,293,292,215,240,208
91,-0.08,-0.96,0.29,-0.98,-3.23,-2.14,291,292,209,237,209
92,-0.05,-0.95,0.28,0.85,-2.38,-3.23,292,296,210,237,210
93,-0.06,-0.96,0.28,0.24,-1.16,-3.42,294,296,213,235,210
94,-0.06,-0.96,0.27,1.04,-3.72,-2.69,286,298,211,239,213
95,-0.05,-0.96,0.28,-0.24,-2.93,-3.11,294,288,210,237,207
96,-0.06,-0.96,0.29,-1.04,-3.23,-3.6,294,291,213,241,210
97,-0.05,-0.96,0.29,0.61,-2.38,-2.44,296,298,212,240,211
98,-0.06,-0.96,0.28,-0.61,-3.05,-2.44,296,294,212,239,247
99,-0.06,-0.96,0.28,-0.31,-2.87,-1.95,297,293,210,240,210
100,-0.06,-0.96,0.28,0.98,-3.17,-0.37,294,294,214,237,247
101,-0.06,-0.96,0.28,-0.18,-2.93,-2.99,291,297,212,239,207
102,-0.05,-0.96,0.28,1.1,-2.99,-2.69,296,293,208,239,204
103,-0.06,-0.96,0.28,0.0,-2.81,-2.75,294,294,219,246,209
104,-0.06,-0.96,0.28,0.85,-3.3,-2.5,295,296,211,237,214
105,-0.06,-0.96,0.29,0.06,-2.62,-2.56,296,299,213,237,211
106,-0.07,-0.95,0.29,1.28,-3.3,-1.77,296,296,215,239,209
107,-0.06,-0.96,0.29,0.18,-3.6,-1.71,295,304,210,238,211
108,-0.07,-0.95,0.28,-0.55,-2.93,-2.44,294,295,211,240,210
109,-0.07,-0.95,0.29,0.12,-2.32,-2.93,293,294,214,241,210
110,-0.07,-0.96,0.29,-0.98,-2.87,-3.36,295,299,214,240,210
111,-0.08,-0.95,0.3,-1.28,-1.95,-3.97,297,299,212,238,237
112,-0.08,-0.95,0.3,-0.79,-3.36,-2.44,298,295,212,239,229
113,-0.07,-0.95,0.3,0.79,-3.54,-2.81,294,289,219,240,212
114,-0.08,-0.95,0.3,0.79,-3.11,-2.2,296,296,210,235,208
115,-0.07,-0.95,0.29,0.73,-2.2,-2.56,294,295,209,241,249
116,-0.07,-0.95,0.28,-0.12,-3.17,-2.14,292,291,212,240,211
117,-0.08,-0.96,0.3,0.24,-2.62,-2.69,298,293,212,237,210
118,-0.07,-0.95,0.3,-0.85,-3.3,-2.62,296,291,214,237,210
119,-0.07,-0.95,0.29,0.18,-2.93,-2.81,296,311,210,242,211
120,-0.07,-0.95,0.29,0.43,-2.93,-2.44,293,294,213,240,212
121,-0.07,-0.95,0.3,0.43,-2.69,-2.44,295,297,213,246,211
122,-0.07,-0.96,0.3,0.43,-1.65,-3.11,293,297,213,239,212
123,-0.07,-0.95,0.31,1.1,-2.08,-2.75,293,291,216,246,212
124,-0.07,-0.95,0.31,0.06,-3.3,-2.32,296,297,210,241,214
125,-0.06,-0.95,0.31,0.12,-3.11,-2.01,296,290,210,241,211
126,-0.07,-0.95,0.3,0.43,-3.3,-2.69,295,294,214,242,211
127,-0.07,-0.95,0.31,1.4,-2.56,-2.38,295,295,210,243,211
128,-0.08,-0.95,0.31,0.73,-2.99,-2.01,287,296,210,240,211
129,-0.09,-0.95,0.31,0.24,-2.38,-3.17,296,296,210,243,211
130,-0.08,-0.95,0.31,0.49,-3.91,-2.5,297,294,215,241,210
131,-0.09,-0.95,0.31,3.85,-3.66,-4.09,298,299,211,241,211
132,-0.07,-0.94,0.3,1.46,-3.72,-2.75,296,298,212,239,214
133,-0.06,-0.94,0.31,0.06,-2.38,-2.62,296,301,214,244,228
134,-0.08,-0.94,0.31,0.67,-3.11,-2.26,295,300,212,243,211
135,-0.08,-0.95,0.31,-0.43,-2.81,-2.56,296,290,213,242,220
136,-0.07,-0.95,0.31,0.24,-3.11,-2.69,297,300,213,246,212
137,-0.08,-0.95,0.31,-0.49,-2.32,-2.14,296,292,213,238,211
138,-0.08,-0.95,0.31,1.65,-3.91,-1.71,296,292,212,248,213
139,-0.07,-0.95,0.31,0.61,-4.21,-2.01,298,300,212,239,212
140,-0.07,-0.95,0.31,0.24,-3.3,-3.17,293,311,214,242,209
141,-0.07,-0.95,0.32,0.0,-2.32,-3.3,297,296,211,244,210
142,-0.08,-0.94,0.32,0.67,-2.62,-2.26,297,291,213,242,217
143,-0.08,-0.94,0.32,0.31,-2.32,-2.2,296,296,212,243,207
144,-0.09,-0.94,0.32,-0.55,-2.99,-2.01,298,293,213,245,217
145,-0.09,-0.95,0.31,-0.98,-2.01,-2.2,299,296,209,244,214
146,-0.06,-0.95,0.31,1.65,-1.65,-3.11,296,297,211,246,211
147,-0.09,-0.95,0.32,-3.78,-3.48,-3.05,299,297,213,245,211
148,-0.09,-0.94,0.34,-0.18,-2.87,-2.56,297,291,213,240,214
149,-0.1,-0.95,0.32,-0.55,-3.66,-3.36,297,296,211,240,214
150,-0.08,-0.95,0.31,-0.06,-3.11,-3.11,294,299,214,243,207
151,-0.08,-0.95,0.32,-0.92,-2.38,-2.5,296,298,212,241,214
152,-0.08,-0.95,0.31,-1.1,-2.08,-4.15,297,296,216,240,214
153,-0.08,-0.95,0.31,0.31,-2.5,-2.87,299,302,227,243,215
154,-0.08,-0.95,0.31,-0.67,-3.11,-2.75,298,297,215,243,214
155,-0.07,-0.95,0.31,-1.28,-3.72,-3.42,296,294,214,243,211
156,-0.07,-0.94,0.32,1.95,-2.14,-2.32,296,297,213,244,214
157,-0.08,-0.95,0.3,1.89,-3.17,-2.69,298,300,214,241,213
158,-0.07,-0.95,0.3,-0.18,-2.14,-2.75,298,297,214,240,241
159,-0.07,-0.95,0.3,-0.49,-2.75,-2.75,299,298,210,243,214
160,-0.07,-0.95,0.31,0.67,-2.81,-2.69,296,300,214,245,213
161,-0.09,-0.95,0.29,-2.99,-3.05,-3.91,297,296,214,243,211
162,-0.08,-0.95,0.31,0.85,-3.48,-1.95,295,300,217,240,214
163,-0.06,-0.95,0.3,-0.67,-2.08,-3.91,297,298,213,242,211
164,-0.07,-0.95,0.31,1.71,-2.93,-2.5,299,298,219,244,212
165,-0.07,-0.95,0.31,-0.37,-2.01,-2.87,297,297,216,244,213
166,-0.07,-0.95,0.29,-3.66,-2.5,-1.46,295,297,214,243,215
167,-0.07,-0.95,0.32,2.56,-3.66,-2.14,299,293,213,240,214
168,-0.08,-0.95,0.31,-1.46,-2.93,-3.36,297,301,216,245,213
169,-0.07,-0.95,0.29,0.31,-2.14,-3.42,294,301,215,245,213
170,-0.07,-0.95,0.29,1.16,-3.42,-2.08,296,298,214,243,214
171,-0.06,-0.96,0.29,1.46,-3.78,-2.5,294,297,214,243,213
172,-0.06,-0.95,0.29,0.92,-3.05,-2.75,296,300,214,244,213
173,-0.06,-0.95,0.3,-0.12,-3.11,-2.5,297,295,215,243,214
174,-0.08,-0.95,0.29,0.67,-2.5,-1.83,298,302,214,242,215
175,-0.07,-0.95,0.29,-0.37,-2.44,-2.93,296,299,217,240,216
176,-0.08,-0.95,0.3,0.92,-3.11,-2.14,299,297,215,241,215
177,-0.08,-0.95,0.29,0.85,-2.5,-2.56,295,304,213,240,215
178,-0.08,-0.95,0.29,1.4,-3.66,-2.26,295,304,213,244,214
179,-0.08,-0.95,0.29,-0.24,-3.11,-3.42,299,303,214,243,215
180,-0.07,-0.95,0.3,1.4,-3.66,-2.01,299,303,218,241,215
181,-0.06,-0.95,0.3,0.24,-3.6,-2.5,296,300,218,243,214
182,-0.07,-0.95,0.3,-0.49,-2.14,-1.83,296,301,215,245,232
183,-0.08,-0.95,0.29,-0.12,-2.93,-2.44,307,301,216,246,215
184,-0.1,-0.95,0.3,-0.67,2.87,-1.83,298,304,216,244,214
185,-0.07,-0.95,0.29,1.4,-2.93,-2.5,301,305,212,247,213
186,-0.09,-0.95,0.29,0.12,-2.81,-2.44,299,316,215,243,215
187,-0.07,-0.96,0.29,1.22,-3.17,-2.01,297,316,218,245,214
188,-0.07,-0.95,0.32,1.83,-2.81,-2.93,297,316,218,248,213
189,-0.08,-0.94,0.32,1.53,-3.23,-2.26,298,307,221,247,214
190,-0.08,-0.95,0.32,0.12,-3.3,-2.87,301,311,221,244,215
191,-0.07,-0.95,0.31,0.73,-2.69,-2.01,299,309,219,246,212
192,-0.07,-0.95,0.32,0.31,-2.93,-2.26,299,312,217,245,211
193,-0.08,-0.95,0.31,-0.37,-2.93,-2.99,302,312,217,245,221
194,-0.07,-0.95,0.31,-1.46,-1.83,-3.78,296,316,214,245,209
195,-0.07,-0.95,0.3,0.79,-3.17,-2.81,300,311,219,247,215
196,-0.07,-0.94,0.31,0.67,-3.85,-2.14,299,305,218,250,215
197,-0.07,-0.95,0.31,0.37,-2.62,-2.81,295,307,217,246,216
198,-0.06,-0.95,0.31,0.43,-2.99,-2.5,295,313,220,246,214
199,-0.07,-0.95,0.31,0.79,-2.93,-2.2,299,312,217,243,215
200,-0.08,-0.95,0.31,1.89,-3.72,-1.65,299,313,215,248,214
201,-0.08,-0.94,0.32,0.61,-4.15,-2.62,299,314,224,246,210
202,-0.07,-0.95,0.31,-0.24,-3.05,-1.89,296,310,221,245,216
203,-0.06,-0.95,0.3,0.73,-2.75,-2.5,299,317,220,245,216
204,-0.06,-0.95,0.3,-0.24,-1.59,-3.05,297,313,219,245,213
205,-0.07,-0.95,0.3,0.98,-3.11,-2.75,299,311,219,246,213
206,-0.07,-0.95,0.31,0.85,-2.69,-2.93,302,310,215,249,212
207,-0.07,-0.95,0.31,-0.18,-3.05,-2.5,300,318,216,245,215
208,-0.05,-0.95,0.28,0.0,-2.87,-1.89,296,313,220,248,213
209,-0.06,-0.95,0.31,0.06,-2.5,-2.56,299,313,216,248,232
210,-0.07,-0.95,0.31,-0.06,-2.69,-3.05,295,313,218,253,215
211,-0.06,-0.95,0.3,-0.24,-2.38,-2.56,299,313,218,248,215
212,-0.07,-0.95,0.29,0.12,-3.23,-2.26,299,312,221,248,215
213,-0.07,-0.95,0.31,0.06,-3.66,-2.14,303,314,218,245,216
214,-0.06,-0.95,0.31,0.79,-3.6,-2.62,301,310,221,244,216
215,-0.07,-0.95,0.31,-0.06,-2.26,-2.99,300,308,221,249,214
216,-0.07,-0.95,0.31,0.55,-2.69,-2.75,298,313,223,250,213
217,-0.07,-0.95,0.3,-0.55,-3.17,-2.44,302,316,221,252,212
218,-0.07,-0.95,0.3,-0.06,-2.93,-2.69,297,313,218,248,216
219,-0.07,-0.95,0.29,0.79,-4.21,-1.89,300,309,219,245,216
220,-0.07,-0.96,0.31,0.73,-1.22,-2.81,298,313,220,249,216
221,-0.06,-0.95,0.3,0.55,-3.3,-2.69,299,315,218,247,216
222,-0.07,-0.95,0.29,1.1,-2.99,-3.05,297,318,218,249,217
223,-0.06,-0.95,0.31,-0.18,-3.54,-2.2,299,313,220,246,216
224,-0.07,-0.95,0.3,0.73,-2.69,-1.95,299,312,222,249,214
225,-0.06,-0.95,0.3,-0.85,-2.2,-3.97,302,313,222,249,211
226,-0.06,-0.95,0.3,-1.83,-2.38,-3.23,297,316,217,248,217
227,-0.06,-0.96,0.28,-1.34,-2.75,-2.69,304,315,220,244,211
228,-0.07,-0.95,0.28,0.85,-2.32,-2.01,302,307,222,248,212
229,-0.01,-0.94,0.27,-8.85,-0.31,-5.0,299,312,217,246,216
230,-0.07,-0.96,0.26,2.87,-4.03,-0.61,296,308,221,257,214
231,-0.02,-0.96,0.27,2.26,-2.62,-5.98,299,309,222,244,212
232,-0.04,-0.97,0.27,-1.34,-2.2,-0.73,300,315,217,247,212
233,-0.04,-0.97,0.25,-2.69,-4.82,-4.09,297,307,218,248,216
234,-0.07,-0.97,0.26,-4.46,1.16,-2.56,300,310,222,250,214
235,-0.07,-0.97,0.27,3.54,-6.23,3.97,301,308,225,244,226
236,-0.06,-0.95,0.26,1.46,-6.23,-3.36,300,329,221,246,216
237,-0.04,-0.96,0.23,-1.71,-4.46,-5.86,301,310,221,249,212
238,-0.04,-0.97,0.24,1.53,-7.39,1.4,302,309,221,244,216
239,-0.06,-0.97,0.24,-1.95,-5.07,-2.75,301,312,219,250,216
240,-0.08,-0.97,0.24,1.71,-7.02,-1.04,302,308,218,250,217
241,-0.02,-0.96,0.27,0.06,-3.36,-1.77,300,317,218,249,214
242,-0.04,-0.97,0.27,-0.67,-2.75,-3.54,303,312,220,250,226
243,-0.03,-0.97,0.25,2.56,-2.5,-1.22,301,312,220,248,217
244,-0.03,-0.97,0.26,-0.31,-5.0,-2.56,298,313,224,246,214
245,-0.0,-0.96,0.27,-2.5,-1.04,-5.68,301,311,221,251,214
246,-0.02,-0.97,0.24,2.14,-5.13,-0.61,302,318,218,248,213
247,-0.02,-0.96,0.28,-1.65,-1.46,-4.39,298,313,221,248,217
248,-0.01,-0.97,0.23,0.98,-4.27,-1.77,301,310,231,248,216
249,-0.02,-0.97,0.23,-1.59,-4.76,-2.44,300,310,217,248,215
250,-0.02,-0.98,0.23,-1.53,-0.67,-4.15,296,312,219,247,225
251,-0.02,-0.97,0.29,1.4,1.16,-2.69,300,313,218,264,213
252,-0.02,-0.97,0.2,0.85,-1.28,-5.55,303,314,219,249,216
253,0.01,-0.98,0.19,-0.37,-3.42,-2.56,301,310,219,262,215
254,-0.02,-0.98,0.21,-0.06,-2.62,-2.62,299,315,219,250,212
255,-0.01,-0.96,0.25,2.62,-1.71,-2.2,304,312,221,252,216
256,-0.03,-0.98,0.2,-2.99,-2.56,0.12,312,312,221,250,219
257,-0.02,-0.97,0.22,-0.67,-2.81,-2.38,299,314,218,253,212
258,-0.01,-0.98,0.21,1.04,-2.62,-1.77,303,312,221,253,218
259,-0.03,-0.97,0.23,-0.18,-1.71,-4.82,302,323,220,254,214
260,-0.01,-0.98,0.19,3.91,-7.69,0.12,304,316,218,249,214
261,0.01,-0.98,0.18,-0.55,-2.69,-6.35,303,317,216,251,252
262,-0.02,-0.98,0.24,3.6,-3.17,-0.37,302,316,222,250,215
263,-0.0,-0.97,0.25,-0.37,-1.89,-1.34,298,313,221,249,216
264,-0.0,-0.97,0.22,-0.12,-4.09,-1.53,301,312,217,261,215
265,-0.03,-0.97,0.22,2.08,-8.12,-3.97,300,314,219,255,217
266,-0.04,-0.97,0.26,4.46,-1.65,0.67,300,308,218,253,218
267,-0.01,-0.97,0.24,0.12,-4.88,-1.83,300,313,216,255,218
268,-0.02,-0.97,0.27,2.93,-4.76,-5.25,302,315,219,249,218
269,-0.01,-0.98,0.2,4.88,-0.98,-3.42,300,317,219,250,217
270,-0.01,-0.97,0.24,5.92,-2.01,1.71,304,311,221,256,218
271,-0.02,-0.97,0.21,-1.95,7.2,-0.85,296,306,219,251,215
272,-0.07,-0.97,0.27,2.01,-0.61,-2.26,300,307,222,247,215
273,-0.04,-0.96,0.24,1.71,-5.74,-2.08,300,310,217,250,216
274,-0.01,-0.96,0.26,0.92,-9.4,-3.17,303,314,223,252,215
275,-0.03,-0.96,0.27,-0.67,-3.6,-3.11,301,317,221,251,222
276,-0.04,-0.97,0.29,3.05,-4.27,1.53,305,313,220,250,216
277,-0.01,-0.97,0.25,0.55,-3.97,-0.85,300,306,222,245,217
278,-0.03,-0.97,0.25,-2.87,-0.49,-5.13,301,305,222,250,217
279,-0.0,-0.96,0.27,1.34,0.0,-3.72,303,324,222,258,216
280,-0.03,-0.96,0.25,3.85,-3.97,-1.04,299,315,223,249,213
281,-0.02,-0.96,0.27,-1.22,-2.75,-3.05,300,307,224,252,217
282,-0.02,-0.96,0.28,-1.22,-6.65,-2.32,302,315,223,253,220
283,-0.05,-0.95,0.3,0.18,-3.36,-2.69,301,308,221,251,238
284,-0.07,-0.97,0.28,1.22,-4.33,0.06,299,315,220,253,216
285,-0.01,-0.97,0.27,0.31,-5.43,-0.24,302,321,218,250,220
286,-0.01,-0.96,0.27,-2.69,-0.49,-2.01,299,315,223,254,213
287,-0.02,-0.96,0.25,1.59,-3.11,-1.16,301,313,222,253,217
288,-0.03,-0.97,0.26,-1.95,-1.59,-3.66,302,319,222,250,213
289,0.0,-0.97,0.24,-1.59,-3.78,-1.95,303,310,221,251,220
290,-0.04,-0.97,0.28,4.03,3.78,-3.85,304,308,219,250,219
291,-0.02,-0.97,0.25,0.85,-4.94,-1.53,300,306,220,249,212
292,-0.03,-0.97,0.25,-1.16,-3.17,-3.48,300,306,217,251,218
293,-0.02,-0.97,0.27,2.5,-3.3,-3.66,303,316,217,247,220
294,-0.02,-0.97,0.26,-0.92,-0.37,-3.78,301,311,220,250,217
295,-0.01,-0.97,0.27,2.32,-2.93,-3.05,303,312,223,253,217
296,0.01,-1.0,0.23,1.34,-2.75,-0.43,316,305,220,249,214
297,-0.01,-0.96,0.28,2.08,-1.59,-2.99,306,314,219,254,220
298,-0.03,-0.97,0.27,-0.31,-5.19,-1.28,301,311,221,252,216
299,0.01,-0.97,0.24,-2.56,-3.97,-5.31,305,308,230,253,215
300,-0.0,-0.97,0.24,2.69,2.69,-3.36,305,314,221,254,218
301,-0.03,-0.97,0.28,-2.87,0.73,-2.75,305,306,223,253,221
302,-0.03,-0.96,0.26,2.14,-5.07,-0.79,305,312,222,252,217
303,-0.03,-0.97,0.23,-2.08,-6.1,-4.15,304,310,220,253,217
304,-0.04,-0.97,0.27,6.23,-0.67,-3.6,305,311,220,251,221
305,0.0,-0.96,0.28,2.69,1.77,-3.23,304,306,220,254,217
306,-0.02,-0.97,0.21,-1.71,-5.13,-2.56,307,312,220,253,221
307,-0.04,-0.97,0.23,2.44,-3.48,-3.05,306,315,222,252,219
308,-0.03,-0.97,0.24,0.49,-0.85,-6.04,304,311,219,249,217
309,-0.02,-0.96,0.25,2.44,-5.37,-3.36,304,313,219,252,220
310,-0.02,-0.98,0.21,-2.26,-3.11,-4.09,303,312,217,249,213
311,-0.03,-0.98,0.22,3.91,-2.26,-1.65,302,315,221,255,219
312,-0.02,-0.98,0.24,-0.67,-2.99,-1.83,302,313,223,254,226
313,-0.03,-0.98,0.22,3.91,-2.2,-0.85,304,310,220,249,219
314,-0.01,-0.97,0.24,1.77,-4.52,-2.01,303,318,221,254,218
315,-0.01,-0.97,0.25,3.97,-3.91,-2.87,304,314,223,252,220
316,-0.04,-0.97,0.26,-0.79,-4.52,-1.95,305,315,219,253,220
317,-0.05,-0.97,0.27,1.1,-3.72,-2.32,306,306,223,250,218
318,-0.05,-0.96,0.29,1.59,-3.85,-1.65,303,309,221,251,219
319,-0.03,-0.97,0.26,-1.53,-2.5,-4.64,301,310,223,254,219
320,-0.01,-0.97,0.25,-0.67,-4.94,-1.71,295,311,221,257,220
321,-0.06,-0.97,0.27,-3.05,-1.89,-3.36,304,311,224,252,218
322,-0.03,-0.97,0.27,0.98,-3.78,-2.08,306,312,224,254,222
323,-0.0,-0.96,0.25,4.15,-3.17,-0.98,304,314,222,252,222
324,-0.03,-0.96,0.3,3.66,-2.69,-2.62,307,312,222,254,217
325,-0.02,-0.96,0.29,-1.16,-2.32,-1.59,305,312,228,256,220
326,-0.01,-0.96,0.27,0.24,-4.82,-0.73,306,310,220,252,219
327,-0.02,-0.96,0.27,0.55,-3.3,-2.44,305,315,221,253,217
328,-0.03,-0.96,0.29,-0.67,-2.93,-2.38,306,307,223,254,218
329,-0.02,-0.96,0.27,1.16,-4.21,-1.65,308,311,219,253,217
330,-0.03,-0.96,0.27,1.83,-3.6,-2.56,306,315,221,254,218
331,-0.02,-0.96,0.27,0.37,-2.56,-2.62,306,316,224,256,220
332,-0.02,-0.95,0.3,-3.3,-2.32,-5.19,306,305,221,257,219
333,-0.02,-0.96,0.28,0.0,-2.62,-3.05,306,311,224,256,220
334,-0.03,-0.96,0.28,0.24,-2.56,-2.62,301,310,221,254,221
335,-0.04,-0.95,0.33,-0.37,-1.16,-2.69,307,311,218,251,218
336,-0.03,-0.96,0.29,0.0,-3.05,-3.54,306,311,224,254,221
337,-0.02,-0.96,0.27,2.2,-3.3,-1.71,308,311,224,257,219
338,-0.02,-0.96,0.27,-0.43,-1.22,-2.26,307,305,219,255,218
339,-0.02,-0.96,0.29,3.42,-2.99,-1.89,303,305,220,252,219
340,-0.05,-0.96,0.29,-0.37,-2.44,-4.33,302,316,218,256,220
341,-0.03,-0.96,0.3,-0.49,-3.91,-1.59,307,312,221,254,222
342,-0.02,-0.96,0.25,-0.67,-3.85,-2.81,308,305,222,255,219
343,-0.03,-0.96,0.27,-0.43,0.49,-5.55,307,311,219,254,218
344,-0.01,-0.96,0.26,1.22,-2.44,-1.04,306,306,221,257,219
345,-0.02,-0.96,0.26,-3.3,18.43,-4.52,304,310,216,248,218
346,-0.04,-0.96,0.27,-1.34,-5.19,-3.42,304,310,218,242,214
347,-0.03,-0.97,0.28,-1.89,-3.78,-5.07,305,321,222,246,218
348,-0.02,-0.96,0.26,1.83,-2.01,-1.77,306,314,222,255,217
349,-0.05,-0.96,0.27,0.85,-1.59,-4.27,308,318,219,251,256
350,-0.02,-0.96,0.28,-0.37,-3.05,-2.93,307,317,221,247,217
351,-0.03,-0.96,0.27,0.37,-4.03,-3.17,307,313,219,252,218
352,-0.02,-0.97,0.27,-0.49,-3.11,-2.26,307,308,221,253,217
353,-0.04,-0.96,0.26,0.24,-3.97,-1.22,306,312,223,249,219
354,-0.03,-0.97,0.26,0.06,-3.78,-2.56,307,312,220,250,220
355,-0.03,-0.97,0.25,0.79,-3.05,-2.32,305,309,222,249,217
356,-0.03,-0.97,0.27,-0.12,-3.42,-2.14,307,315,221,252,216
357,-0.04,-0.97,0.26,-0.67,-3.72,-2.99,306,313,220,248,216
358,-0.03,-0.97,0.27,-0.18,-3.3,-2.5,305,318,220,253,217
359,-0.03,-0.96,0.26,1.77,-3.36,-2.32,306,316,220,252,219
360,-0.04,-0.97,0.26,0.49,-3.17,-2.14,307,310,218,251,218
361,-0.05,-0.97,0.26,-1.1,-2.87,-4.15,305,317,220,253,215
362,-0.03,-0.96,0.26,0.55,-2.44,-3.36,304,315,224,253,216
363,-0.04,-0.96,0.28,-0.31,-2.44,-2.93,302,318,224,252,221
364,-0.04,-0.96,0.27,-1.71,-3.17,-2.32,303,311,219,251,219
365,-0.04,-0.96,0.26,1.83,-4.03,-1.65,316,311,222,254,218
366,-0.03,-0.96,0.26,0.31,-2.01,-2.75,308,316,220,252,218
367,-0.04,-0.97,0.25,0.31,-3.54,-2.87,308,315,224,254,220
368,-0.04,-0.97,0.26,-0.37,-3.36,-3.11,305,318,221,254,219
369,-0.03,-0.97,0.25,0.67,-2.5,-2.56,314,315,224,250,220
370,-0.04,-0.97,0.26,1.46,-2.93,-1.71,306,317,226,252,214
371,-0.04,-0.97,0.25,0.98,-2.81,-2.81,306,320,223,252,220
372,-0.04,-0.97,0.26,0.85,-3.72,-2.38,307,319,220,252,221
373,-0.04,-0.97,0.25,0.0,-3.66,-1.34,306,316,223,251,219
374,-0.03,-0.96,0.26,-0.24,-2.69,-2.56,306,314,224,254,220
375,-0.03,-0.97,0.25,-0.06,-3.05,-2.26,309,314,221,255,218
376,-0.03,-0.97,0.25,-1.28,-3.17,-2.62,308,314,220,253,216
377,-0.04,-0.96,0.27,0.55,-3.6,-2.08,304,318,223,253,220
378,-0.04,-0.96,0.26,0.49,-3.3,-2.26,306,314,223,252,213
379,-0.05,-0.96,0.26,1.16,-2.75,-2.56,308,320,222,263,216
380,-0.03,-0.96,0.26,1.04,-3.11,-2.62,306,314,222,253,217
381,-0.04,-0.97,0.25,1.59,-7.02,-0.73,308,314,223,255,221
382,-0.05,-0.96,0.28,9.52,-4.94,1.4,308,313,224,252,218
383,-0.04,-0.96,0.26,-0.31,-1.95,-2.26,310,320,226,254,217
384,-0.04,-0.96,0.26,0.92,-1.53,-1.83,309,315,222,254,220
385,-0.04,-0.96,0.27,0.49,-2.69,-1.65,308,315,226,256,222
386,-0.04,-0.96,0.27,0.67,-1.22,-2.44,308,332,222,258,219
387,-0.04,-0.96,0.26,0.31,-2.81,-3.05,312,325,227,254,216
388,-0.04,-0.96,0.26,-0.18,-2.87,-2.38,309,328,224,254,222
389,-0.05,-0.96,0.27,0.06,-4.15,-2.81,308,330,223,255,222
390,-0.04,-0.96,0.27,1.28,-2.01,-3.66,301,330,223,256,227
391,-0.04,-0.96,0.28,1.4,-3.36,-2.38,308,325,228,255,219
392,-0.03,-0.96,0.26,-0.85,-3.11,-2.26,311,326,222,252,218
393,-0.04,-0.95,0.29,3.05,-1.59,-2.08,309,326,223,257,219
394,-0.04,-0.96,0.28,0.37,-2.75,-3.54,307,331,222,255,222
395,-0.04,-0.96,0.27,0.24,-3.48,-1.53,306,321,221,258,220
396,-0.04,-0.96,0.28,0.79,-2.56,-2.26,310,326,227,258,219
397,-0.04,-0.96,0.28,0.73,-3.42,-2.08,311,322,235,255,222
398,-0.05,-0.96,0.28,1.34,-4.27,-2.2,306,335,226,261,222
399,-0.04,-0.96,0.3,-0.49,-2.99,-3.05,309,330,220,258,218
400,-0.04,-0.96,0.28,-0.55,-1.34,-2.69,308,326,227,253,220
401,-0.06,-0.96,0.25,-9.28,-3.23,-4.58,305,325,226,256,219
402,-0.06,-0.96,0.3,2.75,-2.62,-0.49,307,322,226,255,220
403,-0.05,-0.97,0.23,0.73,-3.42,-4.33,307,325,227,257,220
404,0.01,-0.96,0.22,-0.61,-2.26,-5.62,307,322,226,255,221
405,-0.04,-0.97,0.23,-1.1,-0.24,-2.38,310,327,222,259,223
406,-0.05,-0.97,0.22,-6.35,-3.91,-3.91,307,330,225,256,218
407,-0.01,-0.98,0.22,-0.55,-4.94,-3.48,306,328,221,256,221
408,0.02,-0.97,0.25,0.0,-4.15,0.24,308,332,226,259,220
409,-0.02,-0.99,0.15,7.26,-2.38,4.52,310,328,227,255,222
410,-0.04,-0.98,0.22,-3.17,-2.32,-1.71,305,331,223,259,220
411,-0.05,-0.93,0.15,-26.73,-14.83,4.76,308,325,223,255,220
412,-0.05,-1.0,0.09,4.52,-1.04,-5.0,307,326,222,256,214
413,-0.03,-1.01,0.07,5.92,-3.91,-2.5,304,327,221,254,221
414,-0.03,-0.99,0.1,-0.85,-1.71,-3.54,308,325,221,258,220
415,-0.03,-0.99,0.15,9.22,0.85,-3.54,310,324,222,255,213
416,-0.05,-0.99,0.16,1.83,-3.23,-3.6,308,321,221,256,219
417,-0.03,-0.99,0.14,2.44,-5.31,-0.98,308,318,225,258,217
418,-0.0,-0.97,0.19,5.92,-2.75,-4.58,305,320,218,261,223
419,0.04,-0.97,0.16,-2.26,-0.37,-8.48,307,315,222,259,218
420,-0.02,-0.99,0.16,-0.49,-1.89,-2.14,307,317,220,256,219
421,-0.01,-0.98,0.17,-0.92,-0.79,-4.64,302,317,224,257,219
422,-0.02,-0.98,0.18,0.12,-2.75,-1.89,309,318,234,262,220
423,-0.01,-0.98,0.17,1.28,-5.43,-0.31,307,313,220,256,227
424,-0.01,-0.98,0.17,-2.87,-4.88,-2.5,304,317,221,257,218
425,-0.02,-0.99,0.17,-0.18,-2.99,0.24,308,322,220,256,218
426,-0.03,-0.98,0.18,0.37,-3.6,-3.48,308,324,220,256,221
427,-0.0,-0.98,0.19,0.92,-3.17,-1.95,308,323,219,255,222
428,-0.01,-0.98,0.17,1.22,-1.95,-3.85,308,320,224,264,216
429,-0.03,-0.98,0.18,-1.28,-2.38,-3.91,310,320,220,256,219
430,-0.01,-0.98,0.19,-0.37,-3.23,-3.3,310,320,225,258,222
431,-0.0,-0.98,0.19,-0.18,-1.77,-2.75,307,316,222,256,219
432,-0.02,-0.98,0.18,0.12,-4.7,-1.46,306,334,221,255,221
433,-0.01,-0.98,0.18,-3.72,-2.01,-4.39,308,324,223,257,221
434,-0.01,-0.98,0.16,0.92,-4.46,-2.08,308,318,220,258,211
435,-0.06,-1.0,0.17,-0.24,7.75,-2.14,307,326,221,260,220
436,-0.01,-0.98,0.17,0.12,-1.71,-2.38,308,318,220,258,222
437,-0.02,-0.98,0.18,0.18,-3.36,-2.32,308,322,221,260,222
438,-0.02,-0.98,0.15,-0.49,-2.75,-2.69,310,325,221,257,219
439,-0.03,-0.99,0.17,4.21,1.1,-3.36,307,322,219,259,221
440,-0.04,-0.98,0.19,1.04,-1.28,-2.38,307,323,221,256,216
441,-0.02,-0.98,0.18,2.08,-1.59,-2.26,306,323,222,251,215
442,-0.04,-0.97,0.18,0.31,-2.56,-3.11,307,330,220,255,215
443,-0.03,-0.98,0.18,0.49,-3.54,-2.38,303,332,225,253,221
444,-0.03,-0.98,0.2,1.59,-3.85,-2.81,303,333,223,253,222
445,-0.04,-0.98,0.19,0.37,-4.21,-2.5,303,328,223,259,220
446,-0.03,-0.98,0.2,0.43,-2.32,-2.69,304,330,227,259,221
447,-0.02,-0.98,0.18,0.12,-3.78,-2.32,306,332,221,255,221
448,-0.04,-0.98,0.17,0.61,-2.81,-2.01,306,329,222,258,221
449,-0.03,-0.98,0.19,1.28,-2.75,-1.53,304,329,222,255,219
450,-0.05,-0.98,0.19,-1.65,-3.36,-2.38,305,331,220,253,221
451,-0.06,-0.98,0.19,0.37,-4.76,-2.5,305,329,226,251,220
452,-0.04,-0.98,0.18,1.65,-4.09,-2.44,301,334,221,259,215
453,-0.04,-0.98,0.18,0.12,-2.81,-2.38,307,330,220,260,224
454,-0.03,-0.98,0.19,0.55,-3.6,-3.48,306,326,223,255,222
455,-0.04,-0.98,0.19,0.49,-2.44,-2.44,306,330,222,257,222
456,-0.04,-0.98,0.19,0.55,-2.99,-2.26,307,335,226,257,217
457,-0.04,-0.98,0.18,-0.98,-2.32,-2.99,307,334,223,261,222
458,-0.03,-0.98,0.17,1.89,-3.97,-2.01,307,332,227,257,224
459,-0.04,-0.98,0.18,-0.31,-2.5,-2.93,307,330,229,257,218
460,-0.03,-0.98,0.18,0.49,-4.27,-1.04,306,325,224,259,217
461,-0.04,-0.98,0.18,2.75,-4.21,-2.2,306,329,220,257,221
462,-0.04,-0.98,0.19,0.79,-2.5,-2.62,307,332,226,260,220
463,-0.04,-0.98,0.2,0.0,-2.75,-2.56,308,331,226,258,224
464,-0.03,-0.98,0.17,-0.18,-4.03,-2.01,307,331,225,258,220
465,0.0,-0.97,0.17,0.37,-2.62,-3.72,306,329,224,256,222
466,-0.04,-0.98,0.19,-2.38,-0.55,-4.88,307,330,225,259,221
467,-0.05,-0.98,0.18,1.4,-3.78,-1.53,308,328,224,259,222
468,-0.04,-0.98,0.19,0.79,-3.6,-2.38,306,334,227,261,222
469,-0.04,-0.98,0.19,0.43,-3.97,-2.38,309,326,224,258,220
470,-0.06,-0.98,0.2,0.24,-1.89,-2.56,307,330,226,258,223
471,-0.06,-0.98,0.2,-0.98,-3.97,-3.54,308,328,224,259,223
472,-0.03,-0.98,0.17,-1.71,-2.5,-3.42,309,334,224,260,218
473,-0.05,-0.98,0.19,0.73,-2.14,-1.95,306,325,224,259,220
474,-0.05,-0.98,0.21,-1.1,-4.94,-2.81,305,327,227,260,228
475,-0.04,-0.98,0.19,0.73,-3.85,-3.11,304,326,227,259,221
476,-0.04,-0.98,0.19,1.1,-4.7,-1.46,306,332,226,258,226
477,-0.03,-0.98,0.18,2.2,-3.78,-1.4,305,339,225,258,220
478,-0.04,-0.98,0.19,2.5,-5.68,-2.14,312,329,227,259,223
479,-0.04,-0.98,0.18,0.61,-2.5,-2.26,306,328,225,259,220
480,-0.04,-0.98,0.18,-0.79,-1.46,-2.01,309,333,234,260,222
481,-0.04,-0.98,0.19,-0.31,-2.2,-2.69,306,328,225,257,222
482,-0.04,-0.98,0.18,0.73,-3.72,-2.32,306,327,224,261,221
483,-0.05,-0.98,0.18,-0.18,-2.93,-2.5,307,329,226,256,231
484,-0.04,-0.98,0.17,0.18,-3.3,-2.69,308,334,228,259,226
485,-0.05,-0.98,0.18,-0.18,-2.56,-3.05,303,325,227,259,223
486,-0.05,-0.98,0.19,-0.73,0.67,-3.11,310,330,228,259,223
487,-0.05,-0.98,0.17,0.06,-2.75,-2.38,307,331,229,258,221
488,-0.05,-0.98,0.18,-0.12,-2.62,-2.2,308,325,226,256,220
489,-0.04,-0.98,0.16,-0.98,-1.4,-3.23,308,335,228,262,220
490,-0.06,-1.0,0.19,-1.65,-0.49,-2.2,303,326,226,256,222
491,-0.02,-0.98,0.13,-8.3,-5.98,-6.59,304,334,228,259,222
492,-0.0,-0.98,0.13,2.44,-2.93,-1.4,307,332,225,261,221
493,0.0,-0.98,0.19,-3.66,-0.85,-5.68,303,326,225,262,219
494,-0.01,-0.99,0.16,-1.1,-1.65,-2.69,307,328,224,262,223
495,-0.02,-0.98,0.16,1.22,-2.87,-1.46,306,332,230,262,220
496,-0.02,-0.98,0.16,1.34,-3.11,-2.01,307,330,223,263,221
497,-0.03,-0.98,0.17,0.55,-3.36,-1.65,307,331,226,261,222
498,-0.03,-0.99,0.18,0.12,-2.26,-2.5,306,330,222,261,224
499,-0.03,-0.99,0.15,1.22,-4.76,-0.79,306,332,227,256,222
500,0.0,-0.98,0.15,1.1,-3.6,-1.89,307,335,226,259,223
501,-0.02,-0.99,0.15,0.31,-2.62,-2.87,304,327,227,260,221
502,-0.06,-0.97,0.25,27.53,1.16,-7.32,287,261,192,220,197
503,-0.05,-0.96,0.28,7.14,-7.51,-4.52,289,265,194,218,199
504,-0.03,-0.96,0.31,-1.65,-4.58,1.77,286,272,198,224,196
505,-0.05,-0.93,0.31,-0.67,-1.22,2.01,287,267,196,219,198
506,-0.06,-0.96,0.29,0.24,0.0,-4.27,286,272,196,219,198
507,-0.04,-0.95,0.26,1.1,-0.55,-1.04,289,265,197,221,198
508,-0.06,-0.95,0.3,-1.16,-0.49,0.61,288,268,199,219,199
509,-0.11,-0.96,0.23,-1.34,-8.3,-2.14,290,280,202,224,199
510,-0.1,-0.95,0.26,-0.12,-4.09,-4.03,289,280,200,223,200
511,-0.1,-0.96,0.28,-2.87,-3.54,-2.69,287,280,205,223,198
512,-0.09,-0.96,0.27,2.01,-4.09,-2.2,286,286,202,224,231
513,-0.08,-0.96,0.3,-1.22,-4.21,-1.16,287,283,205,222,199
514,-0.1,-0.95,0.29,0.85,-3.66,-1.4,285,283,206,221,202
515,-0.1,-0.95,0.28,1.22,-3.48,-2.69,291,286,202,224,199
516,-0.09,-0.95,0.31,0.92,-3.17,-1.83,287,281,201,225,199
517,-0.1,-0.95,0.3,-2.26,-2.75,-3.11,288,282,206,225,202
518,-0.09,-0.95,0.27,-3.11,-1.59,-3.97,286,284,208,223,199
519,-0.1,-0.95,0.28,2.5,-4.15,-3.3,289,285,205,222,199
520,-0.1,-0.95,0.29,0.98,-2.87,-3.54,291,287,206,222,201
521,-0.1,-0.95,0.29,-5.19,2.14,-7.57,291,281,208,222,201
522,-0.1,-0.96,0.3,-2.75,-4.7,-2.08,288,284,219,224,205
523,-0.09,-0.95,0.28,-0.49,-2.93,-2.99,286,285,205,228,200
524,-0.09,-0.95,0.28,-0.12,-1.53,-3.85,290,286,219,229,204
525,-0.09,-0.96,0.28,-0.24,-1.95,-2.99,290,286,209,224,204
526,-0.1,-0.95,0.28,-0.43,-3.23,-1.77,298,285,208,227,204
527,-0.09,-0.95,0.29,0.85,-2.38,-1.59,287,281,205,226,212
528,-0.1,-0.95,0.29,-1.22,-2.32,-3.42,286,281,206,226,204
529,-0.11,-0.95,0.31,1.16,-2.32,-3.85,288,287,203,230,199
530,-0.1,-0.95,0.3,-0.73,-2.44,-3.6,288,282,206,230,203
531,-0.08,-0.95,0.3,0.85,-1.65,-3.3,289,281,204,225,205
532,-0.08,-0.95,0.29,0.0,-1.83,-4.33,284,298,206,228,204
533,-0.1,-0.95,0.29,0.61,-1.71,-4.33,286,281,206,231,204
534,-0.08,-0.95,0.28,0.31,-2.56,-3.17,290,286,209,227,204
535,-0.07,-0.96,0.28,-1.22,-2.08,-5.07,290,283,209,227,204
536,-0.05,-0.96,0.26,-0.92,-2.99,-3.11,290,285,206,230,205
537,-0.06,-0.96,0.28,1.28,-2.26,-2.5,291,284,211,229,203
538,-0.05,-0.95,0.28,0.12,-5.8,-2.44,290,282,207,230,204
539,-0.05,-0.96,0.29,0.55,-2.62,-3.11,293,287,206,235,202
540,-0.05,-0.95,0.28,0.61,-3.23,-2.32,291,284,207,232,204
541,-0.06,-0.96,0.29,0.92,-3.42,-1.46,288,287,210,227,204
542,-0.07,-0.95,0.29,0.85,-2.81,-2.69,291,287,207,231,204
543,-0.07,-0.96,0.29,-0.31,-3.23,-1.53,290,289,209,230,207
544,-0.06,-0.96,0.3,0.49,-3.97,-1.28,292,292,200,232,207
545,-0.06,-0.96,0.29,1.4,-2.93,-2.08,290,289,204,233,203
546,-0.06,-0.96,0.3,-0.85,-3.11,-3.48,291,291,209,227,209
547,-0.07,-0.95,0.29,1.83,-4.33,-1.89,292,290,206,233,208
548,-0.06,-0.95,0.29,0.12,-4.27,-2.5,289,283,208,241,206
549,-0.05,-0.95,0.29,0.12,-2.5,-2.2,291,291,206,231,207
550,-0.06,-0.95,0.29,0.67,-2.5,-3.05,294,290,210,229,201
551,-0.07,-0.96,0.3,1.28,-5.31,0.49,291,292,207,230,207
552,-0.06,-0.96,0.27,1.59,-3.48,0.24,291,289,207,230,205
553,-0.08,-0.95,0.29,1.4,-3.3,-1.89,292,286,206,233,246
554,-0.07,-0.95,0.3,0.67,-3.91,-3.11,294,294,208,234,203
555,-0.06,-0.95,0.3,-0.31,-1.77,-3.17,292,290,210,231,208
556,-0.07,-0.95,0.3,-1.1,-2.26,-2.81,290,291,212,233,208
557,-0.06,-0.95,0.29,0.79,-2.69,-2.08,294,290,212,233,208
558,-0.07,-0.95,0.29,2.01,-2.99,-0.92,293,291,210,229,207
559,-0.06,-0.95,0.28,1.95,-3.48,-1.28,296,295,210,232,209
560,-0.06,-0.95,0.29,1.53,-3.78,-2.38,295,289,206,232,209
561,-0.06,-0.95,0.28,1.22,-3.11,-2.44,291,292,208,231,204
562,-0.06,-0.95,0.29,0.24,-3.36,-2.38,295,301,212,232,205
563,-0.06,-0.96,0.29,0.18,-2.44,-3.54,295,290,210,235,206
564,-0.07,-0.96,0.29,0.18,-3.48,-2.5,294,295,209,233,208
565,-0.07,-0.96,0.29,0.43,-2.44,-2.2,294,294,207,236,207
566,-0.06,-0.95,0.29,0.49,-3.23,-1.83,292,296,209,233,207
567,-0.07,-0.95,0.3,0.24,-2.5,-2.87,290,293,217,232,206
568,-0.08,-0.95,0.31,0.0,-2.62,-2.87,290,292,209,236,208
569,-0.07,-0.95,0.3,0.98,-2.75,-2.32,294,288,212,236,214
570,-0.07,-0.95,0.3,-0.06,-2.75,-2.81,293,295,209,234,209
571,-0.06,-0.95,0.31,-0.49,-3.48,-3.05,294,296,209,234,210
572,-0.06,-0.95,0.3,1.04,-3.6,-2.26,291,294,209,236,214
573,-0.06,-0.95,0.3,-2.62,-1.95,-3.42,290,296,208,236,210
574,-0.06,-0.96,0.28,-2.5,-4.21,-2.38,292,298,209,236,210
575,-0.07,-0.95,0.27,2.26,-1.34,-7.26,290,292,209,235,204
576,-0.04,-0.96,0.29,-0.98,-2.81,-2.2,296,291,210,231,209
577,-0.06,-0.95,0.29,1.4,-2.44,-1.95,296,292,210,238,206
578,-0.05,-0.95,0.29,-0.18,-3.85,-3.23,296,292,211,231,210
579,-0.06,-0.96,0.29,-0.12,-3.17,-3.54,305,291,210,234,207
580,-0.06,-0.96,0.29,1.4,-2.5,-3.42,295,295,209,232,207
581,-0.05,-0.96,0.27,-0.67,-0.98,-2.99,296,287,212,234,208
582,-0.07,-0.95,0.31,-0.24,-5.25,-1.34,297,297,206,237,204
583,-0.05,-0.96,0.28,-1.59,-3.3,-2.69,295,290,212,238,212
584,-0.06,-0.95,0.31,0.85,-2.32,-2.75,292,296,210,235,209
585,-0.05,-0.96,0.29,-0.12,-2.62,-2.99,295,290,212,234,213
586,-0.05,-0.96,0.27,0.55,-3.17,-2.2,296,287,208,236,235
587,-0.06,-0.95,0.28,-1.28,-2.32,-3.66,295,294,207,237,210
588,-0.06,-0.96,0.29,0.49,-2.69,-2.44,294,294,216,239,208
589,-0.05,-0.95,0.29,0.12,-2.62,-3.3,290,290,213,237,208
590,-0.07,-0.96,0.28,-1.65,-3.48,-3.6,292,292,212,239,211
591,-0.06,-0.96,0.28,1.22,-3.48,-0.49,294,295,209,233,234
592,-0.06,-0.96,0.28,-0.24,-3.3,-2.56,293,292,215,240,208
593,-0.08,-0.96,0.29,-0.98,-3.23,-2.14,291,292,209,237,209
594,-0.05,-0.95,0.28,0.85,-2.38,-3.23,292,296,210,237,210
595,-0.06,-0.96,0.28,0.24,-1.16,-3.42,294,296,213,235,210
596,-0.06,-0.96,0.27,1.04,-3.72,-2.69,286,298,211,239,213
597,-0.05,-0.96,0.28,-0.24,-2.93,-3.11,294,288,210,237,207
598,-0.06,-0.96,0.29,-1.04,-3.23,-3.6,294,291,213,241,210
599,-0.05,-0.96,0.29,0.61,-2.38,-2.44,296,298,212,240,211
600,-0.06,-0.96,0.28,-0.61,-3.05,-2.44,296,294,212,239,247
601,-0.06,-0.96,0.28,-0.31,-2.87,-1.95,297,293,210,240,210
602,-0.06,-0.96,0.28,0.98,-3.17,-0.37,294,294,214,237,247
603,-0.06,-0.96,0.28,-0.18,-2.93,-2.99,291,297,212,239,207
604,-0.05,-0.96,0.28,1.1,-2.99,-2.69,296,293,208,239,204
605,-0.06,-0.96,0.28,0.0,-2.81,-2.75,294,294,219,246,209
606,-0.06,-0.96,0.28,0.85,-3.3,-2.5,295,296,211,237,214
607,-0.06,-0.96,0.29,0.06,-2.62,-2.56,296,299,213,237,211
608,-0.07,-0.95,0.29,1.28,-3.3,-1.77,296,296,215,239,209
609,-0.06,-0.96,0.29,0.18,-3.6,-1.71,295,304,210,238,211
610,-0.07,-0.95,0.28,-0.55,-2.93,-2.44,294,295,211,240,210
611,-0.07,-0.95,0.29,0.12,-2.32,-2.93,293,294,214,241,210
612,-0.07,-0.96,0.29,-0.98,-2.87,-3.36,295,299,214,240,210
613,-0.08,-0.95,0.3,-1.28,-1.95,-3.97,297,299,212,238,237
614,-0.08,-0.95,0.3,-0.79,-3.36,-2.44,298,295,212,239,229
615,-0.07,-0.95,0.3,0.79,-3.54,-2.81,294,289,219,240,212
616,-0.08,-0.95,0.3,0.79,-3.11,-2.2,296,296,210,235,208
617,-0.07,-0.95,0.29,0.73,-2.2,-2.56,294,295,209,241,249
618,-0.07,-0.95,0.28,-0.12,-3.17,-2.14,292,291,212,240,211
619,-0.08,-0.96,0.3,0.24,-2.62,-2.69,298,293,212,237,210
620,-0.07,-0.95,0.3,-0.85,-3.3,-2.62,296,291,214,237,210
621,-0.07,-0.95,0.29,0.18,-2.93,-2.81,296,311,210,242,211
622,-0.07,-0.95,0.29,0.43,-2.93,-2.44,293,294,213,240,212
623,-0.07,-0.95,0.3,0.43,-2.69,-2.44,295,297,213,246,211
624,-0.07,-0.96,0.3,0.43,-1.65,-3.11,293,297,213,239,212
625,-0.07,-0.95,0.31,1.1,-2.08,-2.75,293,291,216,246,212
626,-0.07,-0.95,0.31,0.06,-3.3,-2.32,296,297,210,241,214
627,-0.06,-0.95,0.31,0.12,-3.11,-2.01,296,290,210,241,211
628,-0.07,-0.95,0.3,0.43,-3.3,-2.69,295,294,214,242,211
629,-0.07,-0.95,0.31,1.4,-2.56,-2.38,295,295,210,243,211
630,-0.08,-0.95,0.31,0.73,-2.99,-2.01,287,296,210,240,211
631,-0.09,-0.95,0.31,0.24,-2.38,-3.17,296,296,210,243,211
632,-0.08,-0.95,0.31,0.49,-3.91,-2.5,297,294,215,241,210
633,-0.09,-0.95,0.31,3.85,-3.66,-4.09,298,299,211,241,211
634,-0.07,-0.94,0.3,1.46,-3.72,-2.75,296,298,212,239,214
635,-0.06,-0.94,0.31,0.06,-2.38,-2.62,296,301,214,244,228
636,-0.08,-0.94,0.31,0.67,-3.11,-2.26,295,300,212,243,211
637,-0.08,-0.95,0.31,-0.43,-2.81,-2.56,296,290,213,242,220
638,-0.07,-0.95,0.31,0.24,-3.11,-2.69,297,300,213,246,212
639,-0.08,-0.95,0.31,-0.49,-2.32,-2.14,296,292,213,238,211
640,-0.08,-0.95,0.31,1.65,-3.91,-1.71,296,292,212,248,213
641,-0.07,-0.95,0.31,0.61,-4.21,-2.01,298,300,212,239,212
642,-0.07,-0.95,0.31,0.24,-3.3,-3.17,293,311,214,242,209
643,-0.07,-0.95,0.32,0.0,-2.32,-3.3,297,296,211,244,210
644,-0.08,-0.94,0.32,0.67,-2.62,-2.26,297,291,213,242,217
645,-0.08,-0.94,0.32,0.31,-2.32,-2.2,296,296,212,243,207
646,-0.09,-0.94,0.32,-0.55,-2.99,-2.01,298,293,213,245,217
647,-0.09,-0.95,0.31,-0.98,-2.01,-2.2,299,296,209,244,214
648,-0.06,-0.95,0.31,1.65,-1.65,-3.11,296,297,211,246,211
649,-0.09,-0.95,0.32,-3.78,-3.48,-3.05,299,297,213,245,211
650,-0.09,-0.94,0.34,-0.18,-2.87,-2.56,297,291,213,240,214
651,-0.1,-0.95,0.32,-0.55,-3.66,-3.36,297,296,211,240,214
652,-0.08,-0.95,0.31,-0.06,-3.11,-3.11,294,299,214,243,207
653,-0.08,-0.95,0.32,-0.92,-2.38,-2.5,296,298,212,241,214
654,-0.08,-0.95,0.31,-1.1,-2.08,-4.15,297,296,216,240,214
655,-0.08,-0.95,0.31,0.31,-2.5,-2.87,299,302,227,243,215
656,-0.08,-0.95,0.31,-0.67,-3.11,-2.75,298,297,215,243,214
657,-0.07,-0.95,0.31,-1.28,-3.72,-3.42,296,294,214,243,211
658,-0.07,-0.94,0.32,1.95,-2.14,-2.32,296,297,213,244,214
659,-0.08,-0.95,0.3,1.89,-3.17,-2.69,298,300,214,241,213
660,-0.07,-0.95,0.3,-0.18,-2.14,-2.75,298,297,214,240,241
661,-0.07,-0.95,0.3,-0.49,-2.75,-2.75,299,298,210,243,214
662,-0.07,-0.95,0.31,0.67,-2.81,-2.69,296,300,214,245,213
663,-0.09,-0.95,0.29,-2.99,-3.05,-3.91,297,296,214,243,211
664,-0.08,-0.95,0.31,0.85,-3.48,-1.95,295,300,217,240,214
665,-0.06,-0.95,0.3,-0.67,-2.08,-3.91,297,298,213,242,211
666,-0.07,-0.95,0.31,1.71,-2.93,-2.5,299,298,219,244,212
667,-0.07,-0.95,0.31,-0.37,-2.01,-2.87,297,297,216,244,213
668,-0.07,-0.95,0.29,-3.66,-2.5,-1.46,295,297,214,243,215
669,-0.07,-0.95,0.32,2.56,-3.66,-2.14,299,293,213,240,214
670,-0.08,-0.95,0.31,-1.46,-2.93,-3.36,297,301,216,245,213
671,-0.07,-0.95,0.29,0.31,-2.14,-3.42,294,301,215,245,213
672,-0.07,-0.95,0.29,1.16,-3.42,-2.08,296,298,214,243,214
673,-0.06,-0.96,0.29,1.46,-3.78,-2.5,294,297,214,243,213
674,-0.06,-0.95,0.29,0.92,-3.05,-2.75,296,300,214,244,213
675,-0.06,-0.95,0.3,-0.12,-3.11,-2.5,297,295,215,243,214
676,-0.08,-0.95,0.29,0.67,-2.5,-1.83,298,302,214,242,215
677,-0.07,-0.95,0.29,-0.37,-2.44,-2.93,296,299,217,240,216
678,-0.08,-0.95,0.3,0.92,-3.11,-2.14,299,297,215,241,215
679,-0.08,-0.95,0.29,0.85,-2.5,-2.56,295,304,213,240,215
680,-0.08,-0.95,0.29,1.4,-3.66,-2.26,295,304,213,244,214
681,-0.08,-0.95,0.29,-0.24,-3.11,-3.42,299,303,214,243,215
682,-0.07,-0.95,0.3,1.4,-3.66,-2.01,299,303,218,241,215
683,-0.06,-0.95,0.3,0.24,-3.6,-2.5,296,300,218,243,214
684,-0.07,-0.95,0.3,-0.49,-2.14,-1.83,296,301,215,245,232
685,-0.08,-0.95,0.29,-0.12,-2.93,-2.44,307,301,216,246,215
686,-0.1,-0.95,0.3,-0.67,2.87,-1.83,298,304,216,244,214
687,-0.07,-0.95,0.29,1.4,-2.93,-2.5,301,305,212,247,213
688,-0.09,-0.95,0.29,0.12,-2.81,-2.44,299,316,215,243,215
689,-0.07,-0.96,0.29,1.22,-3.17,-2.01,297,316,218,245,214
690,-0.07,-0.95,0.32,1.83,-2.81,-2.93,297,316,218,248,213
691,-0.08,-0.94,0.32,1.53,-3.23,-2.26,298,307,221,247,214
692,-0.08,-0.95,0.32,0.12,-3.3,-2.87,301,311,221,244,215
693,-0.07,-0.95,0.31,0.73,-2.69,-2.01,299,309,219,246,212
694,-0.07,-0.95,0.32,0.31,-2.93,-2.26,299,312,217,245,211
695,-0.08,-0.95,0.31,-0.37,-2.93,-2.99,302,312,217,245,221
696,-0.07,-0.95,0.31,-1.46,-1.83,-3.78,296,316,214,245,209
697,-0.07,-0.95,0.3,0.79,-3.17,-2.81,300,311,219,247,215
698,-0.07,-0.94,0.31,0.67,-3.85,-2.14,299,305,218,250,215
699,-0.07,-0.95,0.31,0.37,-2.62,-2.81,295,307,217,246,216
700,-0.06,-0.95,0.31,0.43,-2.99,-2.5,295,313,220,246,214
701,-0.07,-0.95,0.31,0.79,-2.93,-2.2,299,312,217,243,215
702,-0.08,-0.95,0.31,1.89,-3.72,-1.65,299,313,215,248,214
703,-0.08,-0.94,0.32,0.61,-4.15,-2.62,299,314,224,246,210
704,-0.07,-0.95,0.31,-0.24,-3.05,-1.89,296,310,221,245,216
705,-0.06,-0.95,0.3,0.73,-2.75,-2.5,299,317,220,245,216
706,-0.06,-0.95,0.3,-0.24,-1.59,-3.05,297,313,219,245,213
707,-0.07,-0.95,0.3,0.98,-3.11,-2.75,299,311,219,246,213
708,-0.07,-0.95,0.31,0.85,-2.69,-2.93,302,310,215,249,212
709,-0.07,-0.95,0.31,-0.18,-3.05,-2.5,300,318,216,245,215
710,-0.05,-0.95,0.28,0.0,-2.87,-1.89,296,313,220,248,213
711,-0.06,-0.95,0.31,0.06,-2.5,-2.56,299,313,216,248,232
712,-0.07,-0.95,0.31,-0.06,-2.69,-3.05,295,313,218,253,215
713,-0.06,-0.95,0.3,-0.24,-2.38,-2.56,299,313,218,248,215
714,-0.07,-0.95,0.29,0.12,-3.23,-2.26,299,312,221,248,215
715,-0.07,-0.95,0.31,0.06,-3.66,-2.14,303,314,218,245,216
716,-0.06,-0.95,0.31,0.79,-3.6,-2.62,301,310,221,244,216
717,-0.07,-0.95,0.31,-0.06,-2.26,-2.99,300,308,221,249,214
718,-0.07,-0.95,0.31,0.55,-2.69,-2.75,298,313,223,250,213
719,-0.07,-0.95,0.3,-0.55,-3.17,-2.44,302,316,221,252,212
720,-0.07,-0.95,0.3,-0.06,-2.93,-2.69,297,313,218,248,216
721,-0.07,-0.95,0.29,0.79,-4.21,-1.89,300,309,219,245,216
722,-0.07,-0.96,0.31,0.73,-1.22,-2.81,298,313,220,249,216
723,-0.06,-0.95,0.3,0.55,-3.3,-2.69,299,315,218,247,216
724,-0.07,-0.95,0.29,1.1,-2.99,-3.05,297,318,218,249,217
725,-0.06,-0.95,0.31,-0.18,-3.54,-2.2,299,313,220,246,216
726,-0.07,-0.95,0.3,0.73,-2.69,-1.95,299,312,222,249,214
727,-0.06,-0.95,0.3,-0.85,-2.2,-3.97,302,313,222,249,211
728,-0.06,-0.95,0.3,-1.83,-2.38,-3.23,297,316,217,248,217
729,-0.06,-0.96,0.28,-1.34,-2.75,-2.69,304,315,220,244,211
730,-0.07,-0.95,0.28,0.85,-2.32,-2.01,302,307,222,248,212
731,-0.01,-0.94,0.27,-8.85,-0.31,-5.0,299,312,217,246,216
732,-0.07,-0.96,0.26,2.87,-4.03,-0.61,296,308,221,257,214
733,-0.02,-0.96,0.27,2.26,-2.62,-5.98,299,309,222,244,212
734,-0.04,-0.97,0.27,-1.34,-2.2,-0.73,300,315,217,247,212
735,-0.04,-0.97,0.25,-2.69,-4.82,-4.09,297,307,218,248,216
736,-0.07,-0.97,0.26,-4.46,1.16,-2.56,300,310,222,250,214
737,-0.07,-0.97,0.27,3.54,-6.23,3.97,301,308,225,244,226
738,-0.06,-0.95,0.26,1.46,-6.23,-3.36,300,329,221,246,216
739,-0.04,-0.96,0.23,-1.71,-4.46,-5.86,301,310,221,249,212
740,-0.04,-0.97,0.24,1.53,-7.39,1.4,302,309,221,244,216
741,-0.06,-0.97,0.24,-1.95,-5.07,-2.75,301,312,219,250,216
742,-0.08,-0.97,0.24,1.71,-7.02,-1.04,302,308,218,250,217
743,-0.02,-0.96,0.27,0.06,-3.36,-1.77,300,317,218,249,214
744,-0.04,-0.97,0.27,-0.67,-2.75,-3.54,303,312,220,250,226
745,-0.03,-0.97,0.25,2.56,-2.5,-1.22,301,312,220,248,217
746,-0.03,-0.97,0.26,-0.31,-5.0,-2.56,298,313,224,246,214
747,-0.0,-0.96,0.27,-2.5,-1.04,-5.68,301,311,221,251,214
748,-0.02,-0.97,0.24,2.14,-5.13,-0.61,302,318,218,248,213
749,-0.02,-0.96,0.28,-1.65,-1.46,-4.39,298,313,221,248,217
750,-0.01,-0.97,0.23,0.98,-4.27,-1.77,301,310,231,248,216
751,-0.02,-0.97,0.23,-1.59,-4.76,-2.44,300,310,217,248,215
752,-0.02,-0.98,0.23,-1.53,-0.67,-4.15,296,312,219,247,225
753,-0.02,-0.97,0.29,1.4,1.16,-2.69,300,313,218,264,213
754,-0.02,-0.97,0.2,0.85,-1.28,-5.55,303,314,219,249,216
755,0.01,-0.98,0.19,-0.37,-3.42,-2.56,301,310,219,262,215
756,-0.02,-0.98,0.21,-0.06,-2.62,-2.62,299,315,219,250,212
757,-0.01,-0.96,0.25,2.62,-1.71,-2.2,304,312,221,252,216
758,-0.03,-0.98,0.2,-2.99,-2.56,0.12,312,312,221,250,219
759,-0.02,-0.97,0.22,-0.67,-2.81,-2.38,299,314,218,253,212
760,-0.01,-0.98,0.21,1.04,-2.62,-1.77,303,312,221,253,218
761,-0.03,-0.97,0.23,-0.18,-1.71,-4.82,302,323,220,254,214
762,-0.01,-0.98,0.19,3.91,-7.69,0.12,304,316,218,249,214
763,0.01,-0.98,0.18,-0.55,-2.69,-6.35,303,317,216,251,252
764,-0.02,-0.98,0.24,3.6,-3.17,-0.37,302,316,222,250,215
765,-0.0,-0.97,0.25,-0.37,-1.89,-1.34,298,313,221,249,216
766,-0.0,-0.97,0.22,-0.12,-4.09,-1.53,301,312,217,261,215
767,-0.03,-0.97,0.22,2.08,-8.12,-3.97,300,314,219,255,217
768,-0.04,-0.97,0.26,4.46,-1.65,0.67,300,308,218,253,218
769,-0.01,-0.97,0.24,0.12,-4.88,-1.83,300,313,216,255,218
770,-0.02,-0.97,0.27,2.93,-4.76,-5.25,302,315,219,249,218
771,-0.01,-0.98,0.2,4.88,-0.98,-3.42,300,317,219,250,217
772,-0.01,-0.97,0.24,5.92,-2.01,1.71,304,311,221,256,218
773,-0.02,-0.97,0.21,-1.95,7.2,-0.85,296,306,219,251,215
774,-0.07,-0.97,0.27,2.01,-0.61,-2.26,300,307,222,247,215
775,-0.04,-0.96,0.24,1.71,-5.74,-2.08,300,310,217,250,216
776,-0.01,-0.96,0.26,0.92,-9.4,-3.17,303,314,223,252,215
777,-0.03,-0.96,0.27,-0.67,-3.6,-3.11,301,317,221,251,222
778,-0.04,-0.97,0.29,3.05,-4.27,1.53,305,313,220,250,216
779,-0.01,-0.97,0.25,0.55,-3.97,-0.85,300,306,222,245,217
780,-0.03,-0.97,0.25,-2.87,-0.49,-5.13,301,305,222,250,217
781,-0.0,-0.96,0.27,1.34,0.0,-3.72,303,324,222,258,216
782,-0.03,-0.96,0.25,3.85,-3.97,-1.04,299,315,223,249,213
783,-0.02,-0.96,0.27,-1.22,-2.75,-3.05,300,307,224,252,217
784,-0.02,-0.96,0.28,-1.22,-6.65,-2.32,302,315,223,253,220
785,-0.05,-0.95,0.3,0.18,-3.36,-2.69,301,308,221,251,238
786,-0.07,-0.97,0.28,1.22,-4.33,0.06,299,315,220,253,216
787,-0.01,-0.97,0.27,0.31,-5.43,-0.24,302,321,218,250,220
788,-0.01,-0.96,0.27,-2.69,-0.49,-2.01,299,315,223,254,213
789,-0.02,-0.96,0.25,1.59,-3.11,-1.16,301,313,222,253,217
790,-0.03,-0.97,0.26,-1.95,-1.59,-3.66,302,319,222,250,213
791,0.0,-0.97,0.24,-1.59,-3.78,-1.95,303,310,221,251,220
792,-0.04,-0.97,0.28,4.03,3.78,-3.85,304,308,219,250,219
793,-0.02,-0.97,0.25,0.85,-4.94,-1.53,300,306,220,249,212
794,-0.03,-0.97,0.25,-1.16,-3.17,-3.48,300,306,217,251,218
795,-0.02,-0.97,0.27,2.5,-3.3,-3.66,303,316,217,247,220
796,-0.02,-0.97,0.26,-0.92,-0.37,-3.78,301,311,220,250,217
797,-0.01,-0.97,0.27,2.32,-2.93,-3.05,303,312,223,253,217
798,0.01,-1.0,0.23,1.34,-2.75,-0.43,316,305,220,249,214
799,-0.01,-0.96,0.28,2.08,-1.59,-2.99,306,314,219,254,220
800,-0.03,-0.97,0.27,-0.31,-5.19,-1.28,301,311,221,252,216
801,0.01,-0.97,0.24,-2.56,-3.97,-5.31,305,308,230,253,215
802,-0.0,-0.97,0.24,2.69,2.69,-3.36,305,314,221,254,218
803,-0.03,-0.97,0.28,-2.87,0.73,-2.75,305,306,223,253,221
804,-0.03,-0.96,0.26,2.14,-5.07,-0.79,305,312,222,252,217
805,-0.03,-0.97,0.23,-2.08,-6.1,-4.15,304,310,220,253,217
806,-0.04,-0.97,0.27,6.23,-0.67,-3.6,305,311,220,251,221
807,0.0,-0.96,0.28,2.69,1.77,-3.23,304,306,220,254,217
808,-0.02,-0.97,0.21,-1.71,-5.13,-2.56,307,312,220,253,221
809,-0.04,-0.97,0.23,2.44,-3.48,-3.05,306,315,222,252,219
810,-0.03,-0.97,0.24,0.49,-0.85,-6.04,304,311,219,249,217
811,-0.02,-0.96,0.25,2.44,-5.37,-3.36,304,313,219,252,220
812,-0.02,-0.98,0.21,-2.26,-3.11,-4.09,303,312,217,249,213
813,-0.03,-0.98,0.22,3.91,-2.26,-1.65,302,315,221,255,219
814,-0.02,-0.98,0.24,-0.67,-2.99,-1.83,302,313,223,254,226
815,-0.03,-0.98,0.22,3.91,-2.2,-0.85,304,310,220,249,219
816,-0.01,-0.97,0.24,1.77,-4.52,-2.01,303,318,221,254,218
817,-0.01,-0.97,0.25,3.97,-3.91,-2.87,304,314,223,252,220
818,-0.04,-0.97,0.26,-0.79,-4.52,-1.95,305,315,219,253,220
819,-0.05,-0.97,0.27,1.1,-3.72,-2.32,306,306,223,250,218
820,-0.05,-0.96,0.29,1.59,-3.85,-1.65,303,309,221,251,219
821,-0.03,-0.97,0.26,-1.53,-2.5,-4.64,301,310,223,254,219
822,-0.01,-0.97,0.25,-0.67,-4.94,-1.71,295,311,221,257,220
823,-0.06,-0.97,0.27,-3.05,-1.89,-3.36,304,311,224,252,218
824,-0.03,-0.97,0.27,0.98,-3.78,-2.08,306,312,224,254,222
825,-0.0,-0.96,0.25,4.15,-3.17,-0.98,304,314,222,252,222
826,-0.03,-0.96,0.3,3.66,-2.69,-2.62,307,312,222,254,217
827,-0.02,-0.96,0.29,-1.16,-2.32,-1.59,305,312,228,256,220
828,-0.01,-0.96,0.27,0.24,-4.82,-0.73,306,310,220,252,219
829,-0.02,-0.96,0.27,0.55,-3.3,-2.44,305,315,221,253,217
830,-0.03,-0.96,0.29,-0.67,-2.93,-2.38,306,307,223,254,218
831,-0.02,-0.96,0.27,1.16,-4.21,-1.65,308,311,219,253,217
832,-0.03,-0.96,0.27,1.83,-3.6,-2.56,306,315,221,254,218
833,-0.02,-0.96,0.27,0.37,-2.56,-2.62,306,316,224,256,220
834,-0.02,-0.95,0.3,-3.3,-2.32,-5.19,306,305,221,257,219
835,-0.02,-0.96,0.28,0.0,-2.62,-3.05,306,311,224,256,220
836,-0.03,-0.96,0.28,0.24,-2.56,-2.62,301,310,221,254,221
837,-0.04,-0.95,0.33,-0.37,-1.16,-2.69,307,311,218,251,218
838,-0.03,-0.96,0.29,0.0,-3.05,-3.54,306,311,224,254,221
839,-0.02,-0.96,0.27,2.2,-3.3,-1.71,308,311,224,257,219
840,-0.02,-0.96,0.27,-0.43,-1.22,-2.26,307,305,219,255,218
841,-0.02,-0.96,0.29,3.42,-2.99,-1.89,303,305,220,252,219
842,-0.05,-0.96,0.29,-0.37,-2.44,-4.33,302,316,218,256,220
843,-0.03,-0.96,0.3,-0.49,-3.91,-1.59,307,312,221,254,222
844,-0.02,-0.96,0.25,-0.67,-3.85,-2.81,308,305,222,255,219
845,-0.03,-0.96,0.27,-0.43,0.49,-5.55,307,311,219,254,218
846,-0.01,-0.96,0.26,1.22,-2.44,-1.04,306,306,221,257,219
847,-0.02,-0.96,0.26,-3.3,18.43,-4.52,304,310,216,248,218
848,-0.04,-0.96,0.27,-1.34,-5.19,-3.42,304,310,218,242,214
849,-0.03,-0.97,0.28,-1.89,-3.78,-5.07,305,321,222,246,218
850,-0.02,-0.96,0.26,1.83,-2.01,-1.77,306,314,222,255,217
851,-0.05,-0.96,0.27,0.85,-1.59,-4.27,308,318,219,251,256
852,-0.02,-0.96,0.28,-0.37,-3.05,-2.93,307,317,221,247,217
853,-0.03,-0.96,0.27,0.37,-4.03,-3.17,307,313,219,252,218
854,-0.02,-0.97,0.27,-0.49,-3.11,-2.26,307,308,221,253,217
855,-0.04,-0.96,0.26,0.24,-3.97,-1.22,306,312,223,249,219
856,-0.03,-0.97,0.26,0.06,-3.78,-2.56,307,312,220,250,220
857,-0.03,-0.97,0.25,0.79,-3.05,-2.32,305,309,222,249,217
858,-0.03,-0.97,0.27,-0.12,-3.42,-2.14,307,315,221,252,216
859,-0.04,-0.97,0.26,-0.67,-3.72,-2.99,306,313,220,248,216
860,-0.03,-0.97,0.27,-0.18,-3.3,-2.5,305,318,220,253,217
861,-0.03,-0.96,0.26,1.77,-3.36,-2.32,306,316,220,252,219
862,-0.04,-0.97,0.26,0.49,-3.17,-2.14,307,310,218,251,218
863,-0.05,-0.97,0.26,-1.1,-2.87,-4.15,305,317,220,253,215
864,-0.03,-0.96,0.26,0.55,-2.44,-3.36,304,315,224,253,216
865,-0.04,-0.96,0.28,-0.31,-2.44,-2.93,302,318,224,252,221
866,-0.04,-0.96,0.27,-1.71,-3.17,-2.32,303,311,219,251,219
867,-0.04,-0.96,0.26,1.83,-4.03,-1.65,316,311,222,254,218
868,-0.03,-0.96,0.26,0.31,-2.01,-2.75,308,316,220,252,218
869,-0.04,-0.97,0.25,0.31,-3.54,-2.87,308,315,224,254,220
870,-0.04,-0.97,0.26,-0.37,-3.36,-3.11,305,318,221,254,219
871,-0.03,-0.97,0.25,0.67,-2.5,-2.56,314,315,224,250,220
872,-0.04,-0.97,0.26,1.46,-2.93,-1.71,306,317,226,252,214
873,-0.04,-0.97,0.25,0.98,-2.81,-2.81,306,320,223,252,220
874,-0.04,-0.97,0.26,0.85,-3.72,-2.38,307,319,220,252,221
875,-0.04,-0.97,0.25,0.0,-3.66,-1.34,306,316,223,251,219
876,-0.03,-0.96,0.26,-0.24,-2.69,-2.56,306,314,224,254,220
877,-0.03,-0.97,0.25,-0.06,-3.05,-2.26,309,314,221,255,218
878,-0.03,-0.97,0.25,-1.28,-3.17,-2.62,308,314,220,253,216
879,-0.04,-0.96,0.27,0.55,-3.6,-2.08,304,318,223,253,220
880,-0.04,-0.96,0.26,0.49,-3.3,-2.26,306,314,223,252,213
881,-0.05,-0.96,0.26,1.16,-2.75,-2.56,308,320,222,263,216
882,-0.03,-0.96,0.26,1.04,-3.11,-2.62,306,314,222,253,217
883,-0.04,-0.97,0.25,1.59,-7.02,-0.73,308,314,223,255,221
884,-0.05,-0.96,0.28,9.52,-4.94,1.4,308,313,224,252,218
885,-0.04,-0.96,0.26,-0.31,-1.95,-2.26,310,320,226,254,217
886,-0.04,-0.96,0.26,0.92,-1.53,-1.83,309,315,222,254,220
887,-0.04,-0.96,0.27,0.49,-2.69,-1.65,308,315,226,256,222
888,-0.04,-0.96,0.27,0.67,-1.22,-2.44,308,332,222,258,219
889,-0.04,-0.96,0.26,0.31,-2.81,-3.05,312,325,227,254,216
890,-0.04,-0.96,0.26,-0.18,-2.87,-2.38,309,328,224,254,222
891,-0.05,-0.96,0.27,0.06,-4.15,-2.81,308,330,223,255,222
892,-0.04,-0.96,0.27,1.28,-2.01,-3.66,301,330,223,256,227
893,-0.04,-0.96,0.28,1.4,-3.36,-2.38,308,325,228,255,219
894,-0.03,-0.96,0.26,-0.85,-3.11,-2.26,311,326,222,252,218
895,-0.04,-0.95,0.29,3.05,-1.59,-2.08,309,326,223,257,219
896,-0.04,-0.96,0.28,0.37,-2.75,-3.54,307,331,222,255,222
897,-0.04,-0.96,0.27,0.24,-3.48,-1.53,306,321,221,258,220
898,-0.04,-0.96,0.28,0.79,-2.56,-2.26,310,326,227,258,219
899,-0.04,-0.96,0.28,0.73,-3.42,-2.08,311,322,235,255,222
900,-0.05,-0.96,0.28,1.34,-4.27,-2.2,306,335,226,261,222
901,-0.04,-0.96,0.3,-0.49,-2.99,-3.05,309,330,220,258,218
902,-0.04,-0.96,0.28,-0.55,-1.34,-2.69,308,326,227,253,220
903,-0.06,-0.96,0.25,-9.28,-3.23,-4.58,305,325,226,256,219
904,-0.06,-0.96,0.3,2.75,-2.62,-0.49,307,322,226,255,220
905,-0.05,-0.97,0.23,0.73,-3.42,-4.33,307,325,227,257,220
906,0.01,-0.96,0.22,-0.61,-2.26,-5.62,307,322,226,255,221
907,-0.04,-0.97,0.23,-1.1,-0.24,-2.38,310,327,222,259,223
908,-0.05,-0.97,0.22,-6.35,-3.91,-3.91,307,330,225,256,218
909,-0.01,-0.98,0.22,-0.55,-4.94,-3.48,306,328,221,256,221
910,0.02,-0.97,0.25,0.0,-4.15,0.24,308,332,226,259,220
911,-0.02,-0.99,0.15,7.26,-2.38,4.52,310,328,227,255,222
912,-0.04,-0.98,0.22,-3.17,-2.32,-1.71,305,331,223,259,220
913,-0.05,-0.93,0.15,-26.73,-14.83,4.76,308,325,223,255,220
914,-0.05,-1.0,0.09,4.52,-1.04,-5.0,307,326,222,256,214
915,-0.03,-1.01,0.07,5.92,-3.91,-2.5,304,327,221,254,221
916,-0.03,-0.99,0.1,-0.85,-1.71,-3.54,308,325,221,258,220
917,-0.03,-0.99,0.15,9.22,0.85,-3.54,310,324,222,255,213
918,-0.05,-0.99,0.16,1.83,-3.23,-3.6,308,321,221,256,219
919,-0.03,-0.99,0.14,2.44,-5.31,-0.98,308,318,225,258,217
920,-0.0,-0.97,0.19,5.92,-2.75,-4.58,305,320,218,261,223
921,0.04,-0.97,0.16,-2.26,-0.37,-8.48,307,315,222,259,218
922,-0.02,-0.99,0.16,-0.49,-1.89,-2.14,307,317,220,256,219
923,-0.01,-0.98,0.17,-0.92,-0.79,-4.64,302,317,224,257,219
924,-0.02,-0.98,0.18,0.12,-2.75,-1.89,309,318,234,262,220
925,-0.01,-0.98,0.17,1.28,-5.43,-0.31,307,313,220,256,227
926,-0.01,-0.98,0.17,-2.87,-4.88,-2.5,304,317,221,257,218
927,-0.02,-0.99,0.17,-0.18,-2.99,0.24,308,322,220,256,218
928,-0.03,-0.98,0.18,0.37,-3.6,-3.48,308,324,220,256,221
929,-0.0,-0.98,0.19,0.92,-3.17,-1.95,308,323,219,255,222
930,-0.01,-0.98,0.17,1.22,-1.95,-3.85,308,320,224,264,216
931,-0.03,-0.98,0.18,-1.28,-2.38,-3.91,310,320,220,256,219
932,-0.01,-0.98,0.19,-0.37,-3.23,-3.3,310,320,225,258,222
933,-0.0,-0.98,0.19,-0.18,-1.77,-2.75,307,316,222,256,219
934,-0.02,-0.98,0.18,0.12,-4.7,-1.46,306,334,221,255,221
935,-0.01,-0.98,0.18,-3.72,-2.01,-4.39,308,324,223,257,221
936,-0.01,-0.98,0.16,0.92,-4.46,-2.08,308,318,220,258,211
937,-0.06,-1.0,0.17,-0.24,7.75,-2.14,307,326,221,260,220
938,-0.01,-0.98,0.17,0.12,-1.71,-2.38,308,318,220,258,222
939,-0.02,-0.98,0.18,0.18,-3.36,-2.32,308,322,221,260,222
940,-0.02,-0.98,0.15,-0.49,-2.75,-2.69,310,325,221,257,219
941,-0.03,-0.99,0.17,4.21,1.1,-3.36,307,322,219,259,221
942,-0.04,-0.98,0.19,1.04,-1.28,-2.38,307,323,221,256,216
943,-0.02,-0.98,0.18,2.08,-1.59,-2.26,306,323,222,251,215
944,-0.04,-0.97,0.18,0.31,-2.56,-3.11,307,330,220,255,215
945,-0.03,-0.98,0.18,0.49,-3.54,-2.38,303,332,225,253,221
946,-0.03,-0.98,0.2,1.59,-3.85,-2.81,303,333,223,253,222
947,-0.04,-0.98,0.19,0.37,-4.21,-2.5,303,328,223,259,220
948,-0.03,-0.98,0.2,0.43,-2.32,-2.69,304,330,227,259,221
949,-0.02,-0.98,0.18,0.12,-3.78,-2.32,306,332,221,255,221
950,-0.04,-0.98,0.17,0.61,-2.81,-2.01,306,329,222,258,221
951,-0.03,-0.98,0.19,1.28,-2.75,-1.53,304,329,222,255,219
952,-0.05,-0.98,0.19,-1.65,-3.36,-2.38,305,331,220,253,221
953,-0.06,-0.98,0.19,0.37,-4.76,-2.5,305,329,226,251,220
954,-0.04,-0.98,0.18,1.65,-4.09,-2.44,301,334,221,259,215
955,-0.04,-0.98,0.18,0.12,-2.81,-2.38,307,330,220,260,224
956,-0.03,-0.98,0.19,0.55,-3.6,-3.48,306,326,223,255,222
957,-0.04,-0.98,0.19,0.49,-2.44,-2.44,306,330,222,257,222
958,-0.04,-0.98,0.19,0.55,-2.99,-2.26,307,335,226,257,217
959,-0.04,-0.98,0.18,-0.98,-2.32,-2.99,307,334,223,261,222
960,-0.03,-0.98,0.17,1.89,-3.97,-2.01,307,332,227,257,224
961,-0.04,-0.98,0.18,-0.31,-2.5,-2.93,307,330,229,257,218
962,-0.03,-0.98,0.18,0.49,-4.27,-1.04,306,325,224,259,217
963,-0.04,-0.98,0.18,2.75,-4.21,-2.2,306,329,220,257,221
964,-0.04,-0.98,0.19,0.79,-2.5,-2.62,307,332,226,260,220
965,-0.04,-0.98,0.2,0.0,-2.75,-2.56,308,331,226,258,224
966,-0.03,-0.98,0.17,-0.18,-4.03,-2.01,307,331,225,258,220
967,0.0,-0.97,0.17,0.37,-2.62,-3.72,306,329,224,256,222
968,-0.04,-0.98,0.19,-2.38,-0.55,-4.88,307,330,225,259,221
969,-0.05,-0.98,0.18,1.4,-3.78,-1.53,308,328,224,259,222
970,-0.04,-0.98,0.19,0.79,-3.6,-2.38,306,334,227,261,222
971,-0.04,-0.98,0.19,0.43,-3.97,-2.38,309,326,224,258,220
972,-0.06,-0.98,0.2,0.24,-1.89,-2.56,307,330,226,258,223
973,-0.06,-0.98,0.2,-0.98,-3.97,-3.54,308,328,224,259,223
974,-0.03,-0.98,0.17,-1.71,-2.5,-3.42,309,334,224,260,218
975,-0.05,-0.98,0.19,0.73,-2.14,-1.95,306,325,224,259,220
976,-0.05,-0.98,0.21,-1.1,-4.94,-2.81,305,327,227,260,228
977,-0.04,-0.98,0.19,0.73,-3.85,-3.11,304,326,227,259,221
978,-0.04,-0.98,0.19,1.1,-4.7,-1.46,306,332,226,258,226
979,-0.03,-0.98,0.18,2.2,-3.78,-1.4,305,339,225,258,220
980,-0.04,-0.98,0.19,2.5,-5.68,-2.14,312,329,227,259,223
981,-0.04,-0.98,0.18,0.61,-2.5,-2.26,306,328,225,259,220
982,-0.04,-0.98,0.18,-0.79,-1.46,-2.01,309,333,234,260,222
983,-0.04,-0.98,0.19,-0.31,-2.2,-2.69,306,328,225,257,222
984,-0.04,-0.98,0.18,0.73,-3.72,-2.32,306,327,224,261,221
985,-0.05,-0.98,0.18,-0.18,-2.93,-2.5,307,329,226,256,231
986,-0.04,-0.98,0.17,0.18,-3.3,-2.69,308,334,228,259,226
987,-0.05,-0.98,0.18,-0.18,-2.56,-3.05,303,325,227,259,223
988,-0.05,-0.98,0.19,-0.73,0.67,-3.11,310,330,228,259,223
989,-0.05,-0.98,0.17,0.06,-2.75,-2.38,307,331,229,258,221
990,-0.05,-0.98,0.18,-0.12,-2.62,-2.2,308,325,226,256,220
991,-0.04,-0.98,0.16,-0.98,-1.4,-3.23,308,335,228,262,220
992,-0.06,-1.0,0.19,-1.65,-0.49,-2.2,303,326,226,256,222
993,-0.02,-0.98,0.13,-8.3,-5.98,-6.59,304,334,228,259,222
994,-0.0,-0.98,0.13,2.44,-2.93,-1.4,307,332,225,261,221
995,0.0,-0.98,0.19,-3.66,-0.85,-5.68,303,326,225,262,219
996,-0.01,-0.99,0.16,-1.1,-1.65,-2.69,307,328,224,262,223
997,-0.02,-0.98,0.16,1.22,-2.87,-1.46,306,332,230,262,220
998,-0.02,-0.98,0.16,1.34,-3.11,-2.01,307,330,223,263,221
999,-0.03,-0.98,0.17,0.55,-3.36,-1.65,307,331,226,261,222
1000,-0.03,-0.99,0.18,0.12,-2.26,-2.5,306,330,222,261,224
1001,-0.03,-0.99,0.15,1.22,-4.76,-0.79,306,332,227,256,222
1002,0.0,-0.98,0.15,1.1,-3.6,-1.89,307,335,226,259,223
1003,-0.02,-0.99,0.15,0.31,-2.62,-2.87,304,327,227,260,221
1004,-0.06,-0.97,0.25,27.53,1.16,-7.32,287,261,192,220,197
1005,-0.05,-0.96,0.28,7.14,-7.51,-4.52,289,265,194,218,199
1006,-0.03,-0.96,0.31,-1.65,-4.58,1.77,286,272,198,224,196
1007,-0.05,-0.93,0.31,-0.67,-1.22,2.01,287,267,196,219,198
1008,-0.06,-0.96,0.29,0.24,0.0,-4.27,286,272,196,219,198
1009,-0.04,-0.95,0.26,1.1,-0.55,-1.04,289,265,197,221,198
1010,-0.06,-0.95,0.3,-1.16,-0.49,0.61,288,268,199,219,199
1011,-0.11,-0.96,0.23,-1.34,-8.3,-2.14,290,280,202,224,199
1012,-0.1,-0.95,0.26,-0.12,-4.09,-4.03,289,280,200,223,200
1013,-0.1,-0.96,0.28,-2.87,-3.54,-2.69,287,280,205,223,198
1014,-0.09,-0.96,0.27,2.01,-4.09,-2.2,286,286,202,224,231
1015,-0.08,-0.96,0.3,-1.22,-4.21,-1.16,287,283,205,222,199
1016,-0.1,-0.95,0.29,0.85,-3.66,-1.4,285,283,206,221,202
1017,-0.1,-0.95,0.28,1.22,-3.48,-2.69,291,286,202,224,199
1018,-0.09,-0.95,0.31,0.92,-3.17,-1.83,287,281,201,225,199
1019,-0.1,-0.95,0.3,-2.26,-2.75,-3.11,288,282,206,225,202
1020,-0.09,-0.95,0.27,-3.11,-1.59,-3.97,286,284,208,223,199
1021,-0.1,-0.95,0.28,2.5,-4.15,-3.3,289,285,205,222,199
1022,-0.1,-0.95,0.29,0.98,-2.87,-3.54,291,287,206,222,201
1023,-0.1,-0.95,0.29,-5.19,2.14,-7.57,291,281,208,222,201
1024,-0.1,-0.96,0.3,-2.75,-4.7,-2.08,288,284,219,224,205
1025,-0.09,-0.95,0.28,-0.49,-2.93,-2.99,286,285,205,228,200
1026,-0.09,-0.95,0.28,-0.12,-1.53,-3.85,290,286,219,229,204
1027,-0.09,-0.96,0.28,-0.24,-1.95,-2.99,290,286,209,224,204
1028,-0.1,-0.95,0.28,-0.43,-3.23,-1.77,298,285,208,227,204
1029,-0.09,-0.95,0.29,0.85,-2.38,-1.59,287,281,205,226,212
1030,-0.1,-0.95,0.29,-1.22,-2.32,-3.42,286,281,206,226,204
1031,-0.11,-0.95,0.31,1.16,-2.32,-3.85,288,287,203,230,199
1032,-0.1,-0.95,0.3,-0.73,-2.44,-3.6,288,282,206,230,203
1033,-0.08,-0.95,0.3,0.85,-1.65,-3.3,289,281,204,225,205
1034,-0.08,-0.95,0.29,0.0,-1.83,-4.33,284,298,206,228,204
1035,-0.1,-0.95,0.29,0.61,-1.71,-4.33,286,281,206,231,204
1036,-0.08,-0.95,0.28,0.31,-2.56,-3.17,290,286,209,227,204
1037,-0.07,-0.96,0.28,-1.22,-2.08,-5.07,290,283,209,227,204
1038,-0.05,-0.96,0.26,-0.92,-2.99,-3.11,290,285,206,230,205
1039,-0.06,-0.96,0.28,1.28,-2.26,-2.5,291,284,211,229,203
1040,-0.05,-0.95,0.28,0.12,-5.8,-2.44,290,282,207,230,204
1041,-0.05,-0.96,0.29,0.55,-2.62,-3.11,293,287,206,235,202
1042,-0.05,-0.95,0.28,0.61,-3.23,-2.32,291,284,207,232,204
1043,-0.06,-0.96,0.29,0.92,-3.42,-1.46,288,287,210,227,204
1044,-0.07,-0.95,0.29,0.85,-2.81,-2.69,291,287,207,231,204
1045,-0.07,-0.96,0.29,-0.31,-3.23,-1.53,290,289,209,230,207
1046,-0.06,-0.96,0.3,0.49,-3.97,-1.28,292,292,200,232,207
1047,-0.06,-0.96,0.29,1.4,-2.93,-2.08,290,289,204,233,203
1048,-0.06,-0.96,0.3,-0.85,-3.11,-3.48,291,291,209,227,209
1049,-0.07,-0.95,0.29,1.83,-4.33,-1.89,292,290,206,233,208
1050,-0.06,-0.95,0.29,0.12,-4.27,-2.5,289,283,208,241,206
1051,-0.05,-0.95,0.29,0.12,-2.5,-2.2,291,291,206,231,207
1052,-0.06,-0.95,0.29,0.67,-2.5,-3.05,294,290,210,229,201
1053,-0.07,-0.96,0.3,1.28,-5.31,0.49,291,292,207,230,207
1054,-0.06,-0.96,0.27,1.59,-3.48,0.24,291,289,207,230,205
1055,-0.08,-0.95,0.29,1.4,-3.3,-1.89,292,286,206,233,246
1056,-0.07,-0.95,0.3,0.67,-3.91,-3.11,294,294,208,234,203
1057,-0.06,-0.95,0.3,-0.31,-1.77,-3.17,292,290,210,231,208
1058,-0.07,-0.95,0.3,-1.1,-2.26,-2.81,290,291,212,233,208
1059,-0.06,-0.95,0.29,0.79,-2.69,-2.08,294,290,212,233,208
1060,-0.07,-0.95,0.29,2.01,-2.99,-0.92,293,291,210,229,207
1061,-0.06,-0.95,0.28,1.95,-3.48,-1.28,296,295,210,232,209
1062,-0.06,-0.95,0.29,1.53,-3.78,-2.38,295,289,206,232,209
1063,-0.06,-0.95,0.28,1.22,-3.11,-2.44,291,292,208,231,204
1064,-0.06,-0.95,0.29,0.24,-3.36,-2.38,295,301,212,232,205
1065,-0.06,-0.96,0.29,0.18,-2.44,-3.54,295,290,210,235,206
1066,-0.07,-0.96,0.29,0.18,-3.48,-2.5,294,295,209,233,208
1067,-0.07,-0.96,0.29,0.43,-2.44,-2.2,294,294,207,236,207
1068,-0.06,-0.95,0.29,0.49,-3.23,-1.83,292,296,209,233,207
1069,-0.07,-0.95,0.3,0.24,-2.5,-2.87,290,293,217,232,206
1070,-0.08,-0.95,0.31,0.0,-2.62,-2.87,290,292,209,236,208
1071,-0.07,-0.95,0.3,0.98,-2.75,-2.32,294,288,212,236,214
1072,-0.07,-0.95,0.3,-0.06,-2.75,-2.81,293,295,209,234,209
1073,-0.06,-0.95,0.31,-0.49,-3.48,-3.05,294,296,209,234,210
1074,-0.06,-0.95,0.3,1.04,-3.6,-2.26,291,294,209,236,214
1075,-0.06,-0.95,0.3,-2.62,-1.95,-3.42,290,296,208,236,210
1076,-0.06,-0.96,0.28,-2.5,-4.21,-2.38,292,298,209,236,210
1077,-0.07,-0.95,0.27,2.26,-1.34,-7.26,290,292,209,235,204
1078,-0.04,-0.96,0.29,-0.98,-2.81,-2.2,296,291,210,231,209
1079,-0.06,-0.95,0.29,1.4,-2.44,-1.95,296,292,210,238,206
1080,-0.05,-0.95,0.29,-0.18,-3.85,-3.23,296,292,211,231,210
1081,-0.06,-0.96,0.29,-0.12,-3.17,-3.54,305,291,210,234,207
1082,-0.06,-0.96,0.29,1.4,-2.5,-3.42,295,295,209,232,207
1083,-0.05,-0.96,0.27,-0.67,-0.98,-2.99,296,287,212,234,208
1084,-0.07,-0.95,0.31,-0.24,-5.25,-1.34,297,297,206,237,204
1085,-0.05,-0.96,0.28,-1.59,-3.3,-2.69,295,290,212,238,212
1086,-0.06,-0.95,0.31,0.85,-2.32,-2.75,292,296,210,235,209
1087,-0.05,-0.96,0.29,-0.12,-2.62,-2.99,295,290,212,234,213
1088,-0.05,-0.96,0.27,0.55,-3.17,-2.2,296,287,208,236,235
1089,-0.06,-0.95,0.28,-1.28,-2.32,-3.66,295,294,207,237,210
1090,-0.06,-0.96,0.29,0.49,-2.69,-2.44,294,294,216,239,208
1091,-0.05,-0.95,0.29,0.12,-2.62,-3.3,290,290,213,237,208
1092,-0.07,-0.96,0.28,-1.65,-3.48,-3.6,292,292,212,239,211
1093,-0.06,-0.96,0.28,1.22,-3.48,-0.49,294,295,209,233,234
1094,-0.06,-0.96,0.28,-0.24,-3.3,-2.56,293,292,215,240,208
1095,-0.08,-0.96,0.29,-0.98,-3.23,-2.14,291,292,209,237,209
1096,-0.05,-0.95,0.28,0.85,-2.38,-3.23,292,296,210,237,210
1097,-0.06,-0.96,0.28,0.24,-1.16,-3.42,294,296,213,235,210
1098,-0.06,-0.96,0.27,1.04,-3.72,-2.69,286,298,211,239,213
1099,-0.05,-0.96,0.28,-0.24,-2.93,-3.11,294,288,210,237,207
1100,-0.06,-0.96,0.29,-1.04,-3.23,-3.6,294,291,213,241,210
1101,-0.05,-0.96,0.29,0.61,-2.38,-2.44,296,298,212,240,211
1102,-0.06,-0.96,0.28,-0.61,-3.05,-2.44,296,294,212,239,247
1103,-0.06,-0.96,0.28,-0.31,-2.87,-1.95,297,293,210,240,210
1104,-0.06,-0.96,0.28,0.98,-3.17,-0.37,294,294,214,237,247
1105,-0.06,-0.96,0.28,-0.18,-2.93,-2.99,291,297,212,239,207
1106,-0.05,-0.96,0.28,1.1,-2.99,-2.69,296,293,208,239,204
1107,-0.06,-0.96,0.28,0.0,-2.81,-2.75,294,294,219,246,209
1108,-0.06,-0.96,0.28,0.85,-3.3,-2.5,295,296,211,237,214
1109,-0.06,-0.96,0.29,0.06,-2.62,-2.56,296,299,213,237,211
1110,-0.07,-0.95,0.29,1.28,-3.3,-1.77,296,296,215,239,209
1111,-0.06,-0.96,0.29,0.18,-3.6,-1.71,295,304,210,238,211
1112,-0.07,-0.95,0.28,-0.55,-2.93,-2.44,294,295,211,240,210
1113,-0.07,-0.95,0.29,0.12,-2.32,-2.93,293,294,214,241,210
1114,-0.07,-0.96,0.29,-0.98,-2.87,-3.36,295,299,214,240,210
1115,-0.08,-0.95,0.3,-1.28,-1.95,-3.97,297,299,212,238,237
1116,-0.08,-0.95,0.3,-0.79,-3.36,-2.44,298,295,212,239,229
1117,-0.07,-0.95,0.3,0.79,-3.54,-2.81,294,289,219,240,212
1118,-0.08,-0.95,0.3,0.79,-3.11,-2.2,296,296,210,235,208
1119,-0.07,-0.95,0.29,0.73,-2.2,-2.56,294,295,209,241,249
1120,-0.07,-0.95,0.28,-0.12,-3.17,-2.14,292,291,212,240,211
1121,-0.08,-0.96,0.3,0.24,-2.62,-2.69,298,293,212,237,210
1122,-0.07,-0.95,0.3,-0.85,-3.3,-2.62,296,291,214,237,210
1123,-0.07,-0.95,0.29,0.18,-2.93,-2.81,296,311,210,242,211
1124,-0.07,-0.95,0.29,0.43,-2.93,-2.44,293,294,213,240,212
1125,-0.07,-0.95,0.3,0.43,-2.69,-2.44,295,297,213,246,211
1126,-0.07,-0.96,0.3,0.43,-1.65,-3.11,293,297,213,239,212
1127,-0.07,-0.95,0.31,1.1,-2.08,-2.75,293,291,216,246,212
1128,-0.07,-0.95,0.31,0.06,-3.3,-2.32,296,297,210,241,214
1129,-0.06,-0.95,0.31,0.12,-3.11,-2.01,296,290,210,241,211
1130,-0.07,-0.95,0.3,0.43,-3.3,-2.69,295,294,214,242,211
1131,-0.07,-0.95,0.31,1.4,-2.56,-2.38,295,295,210,243,211
1132,-0.08,-0.95,0.31,0.73,-2.99,-2.01,287,296,210,240,211
1133,-0.09,-0.95,0.31,0.24,-2.38,-3.17,296,296,210,243,211
1134,-0.08,-0.95,0.31,0.49,-3.91,-2.5,297,294,215,241,210
1135,-0.09,-0.95,0.31,3.85,-3.66,-4.09,298,299,211,241,211
1136,-0.07,-0.94,0.3,1.46,-3.72,-2.75,296,298,212,239,214
1137,-0.06,-0.94,0.31,0.06,-2.38,-2.62,296,301,214,244,228
1138,-0.08,-0.94,0.31,0.67,-3.11,-2.26,295,300,212,243,211
1139,-0.08,-0.95,0.31,-0.43,-2.81,-2.56,296,290,213,242,220
1140,-0.07,-0.95,0.31,0.24,-3.11,-2.69,297,300,213,246,212
1141,-0.08,-0.95,0.31,-0.49,-2.32,-2.14,296,292,213,238,211
1142,-0.08,-0.95,0.31,1.65,-3.91,-1.71,296,292,212,248,213
1143,-0.07,-0.95,0.31,0.61,-4.21,-2.01,298,300,212,239,212
1144,-0.07,-0.95,0.31,0.24,-3.3,-3.17,293,311,214,242,209
1145,-0.07,-0.95,0.32,0.0,-2.32,-3.3,297,296,211,244,210
1146,-0.08,-0.94,0.32,0.67,-2.62,-2.26,297,291,213,242,217
1147,-0.08,-0.94,0.32,0.31,-2.32,-2.2,296,296,212,243,207
1148,-0.09,-0.94,0.32,-0.55,-2.99,-2.01,298,293,213,245,217
1149,-0.09,-0.95,0.31,-0.98,-2.01,-2.2,299,296,209,244,214
1150,-0.06,-0.95,0.31,1.65,-1.65,-3.11,296,297,211,246,211
1151,-0.09,-0.95,0.32,-3.78,-3.48,-3.05,299,297,213,245,211
1152,-0.09,-0.94,0.34,-0.18,-2.87,-2.56,297,291,213,240,214
1153,-0.1,-0.95,0.32,-0.55,-3.66,-3.36,297,296,211,240,214
1154,-0.08,-0.95,0.31,-0.06,-3.11,-3.11,294,299,214,243,207
1155,-0.08,-0.95,0.32,-0.92,-2.38,-2.5,296,298,212,241,214
1156,-0.08,-0.95,0.31,-1.1,-2.08,-4.15,297,296,216,240,214
1157,-0.08,-0.95,0.31,0.31,-2.5,-2.87,299,302,227,243,215
1158,-0.08,-0.95,0.31,-0.67,-3.11,-2.75,298,297,215,243,214
1159,-0.07,-0.95,0.31,-1.28,-3.72,-3.42,296,294,214,243,211
1160,-0.07,-0.94,0.32,1.95,-2.14,-2.32,296,297,213,244,214
1161,-0.08,-0.95,0.3,1.89,-3.17,-2.69,298,300,214,241,213
1162,-0.07,-0.95,0.3,-0.18,-2.14,-2.75,298,297,214,240,241
1163,-0.07,-0.95,0.3,-0.49,-2.75,-2.75,299,298,210,243,214
1164,-0.07,-0.95,0.31,0.67,-2.81,-2.69,296,300,214,245,213
1165,-0.09,-0.95,0.29,-2.99,-3.05,-3.91,297,296,214,243,211
1166,-0.08,-0.95,0.31,0.85,-3.48,-1.95,295,300,217,240,214
1167,-0.06,-0.95,0.3,-0.67,-2.08,-3.91,297,298,213,242,211
1168,-0.07,-0.95,0.31,1.71,-2.93,-2.5,299,298,219,244,212
1169,-0.07,-0.95,0.31,-0.37,-2.01,-2.87,297,297,216,244,213
1170,-0.07,-0.95,0.29,-3.66,-2.5,-1.46,295,297,214,243,215
1171,-0.07,-0.95,0.32,2.56,-3.66,-2.14,299,293,213,240,214
1172,-0.08,-0.95,0.31,-1.46,-2.93,-3.36,297,301,216,245,213
1173,-0.07,-0.95,0.29,0.31,-2.14,-3.42,294,301,215,245,213
1174,-0.07,-0.95,0.29,1.16,-3.42,-2.08,296,298,214,243,214
1175,-0.06,-0.96,0.29,1.46,-3.78,-2.5,294,297,214,243,213
1176,-0.06,-0.95,0.29,0.92,-3.05,-2.75,296,300,214,244,213
1177,-0.06,-0.95,0.3,-0.12,-3.11,-2.5,297,295,215,243,214
1178,-0.08,-0.95,0.29,0.67,-2.5,-1.83,298,302,214,242,215
1179,-0.07,-0.95,0.29,-0.37,-2.44,-2.93,296,299,217,240,216
1180,-0.08,-0.95,0.3,0.92,-3.11,-2.14,299,297,215,241,215
1181,-0.08,-0.95,0.29,0.85,-2.5,-2.56,295,304,213,240,215
1182,-0.08,-0.95,0.29,1.4,-3.66,-2.26,295,304,213,244,214
1183,-0.08,-0.95,0.29,-0.24,-3.11,-3.42,299,303,214,243,215
1184,-0.07,-0.95,0.3,1.4,-3.66,-2.01,299,303,218,241,215
1185,-0.06,-0.95,0.3,0.24,-3.6,-2.5,296,300,218,243,214
1186,-0.07,-0.95,0.3,-0.49,-2.14,-1.83,296,301,215,245,232
1187,-0.08,-0.95,0.29,-0.12,-2.93,-2.44,307,301,216,246,215
1188,-0.1,-0.95,0.3,-0.67,2.87,-1.83,298,304,216,244,214
1189,-0.07,-0.95,0.29,1.4,-2.93,-2.5,301,305,212,247,213
1190,-0.09,-0.95,0.29,0.12,-2.81,-2.44,299,316,215,243,215
1191,-0.07,-0.96,0.29,1.22,-3.17,-2.01,297,316,218,245,214
1192,-0.07,-0.95,0.32,1.83,-2.81,-2.93,297,316,218,248,213
1193,-0.08,-0.94,0.32,1.53,-3.23,-2.26,298,307,221,247,214
1194,-0.08,-0.95,0.32,0.12,-3.3,-2.87,301,311,221,244,215
1195,-0.07,-0.95,0.31,0.73,-2.69,-2.01,299,309,219,246,212
1196,-0.07,-0.95,0.32,0.31,-2.93,-2.26,299,312,217,245,211
1197,-0.08,-0.95,0.31,-0.37,-2.93,-2.99,302,312,217,245,221
1198,-0.07,-0.95,0.31,-1.46,-1.83,-3.78,296,316,214,245,209
1199,-0.07,-0.95,0.3,0.79,-3.17,-2.81,300,311,219,247,215
1200,-0.07,-0.94,0.31,0.67,-3.85,-2.14,299,305,218,250,215
1201,-0.07,-0.95,0.31,0.37,-2.62,-2.81,295,307,217,246,216
1202,-0.06,-0.95,0.31,0.43,-2.99,-2.5,295,313,220,246,214
1203,-0.07,-0.95,0.31,0.79,-2.93,-2.2,299,312,217,243,215
1204,-0.08,-0.95,0.31,1.89,-3.72,-1.65,299,313,215,248,214
1205,-0.08,-0.94,0.32,0.61,-4.15,-2.62,299,314,224,246,210
1206,-0.07,-0.95,0.31,-0.24,-3.05,-1.89,296,310,221,245,216
1207,-0.06,-0.95,0.3,0.73,-2.75,-2.5,299,317,220,245,216
1208,-0.06,-0.95,0.3,-0.24,-1.59,-3.05,297,313,219,245,213
1209,-0.07,-0.95,0.3,0.98,-3.11,-2.75,299,311,219,246,213
1210,-0.07,-0.95,0.31,0.85,-2.69,-2.93,302,310,215,249,212
1211,-0.07,-0.95,0.31,-0.18,-3.05,-2.5,300,318,216,245,215
1212,-0.05,-0.95,0.28,0.0,-2.87,-1.89,296,313,220,248,213
1213,-0.06,-0.95,0.31,0.06,-2.5,-2.56,299,313,216,248,232
1214,-0.07,-0.95,0.31,-0.06,-2.69,-3.05,295,313,218,253,215
1215,-0.06,-0.95,0.3,-0.24,-2.38,-2.56,299,313,218,248,215
1216,-0.07,-0.95,0.29,0.12,-3.23,-2.26,299,312,221,248,215
1217,-0.07,-0.95,0.31,0.06,-3.66,-2.14,303,314,218,245,216
1218,-0.06,-0.95,0.31,0.79,-3.6,-2.62,301,310,221,244,216
1219,-0.07,-0.95,0.31,-0.06,-2.26,-2.99,300,308,221,249,214
1220,-0.07,-0.95,0.31,0.55,-2.69,-2.75,298,313,223,250,213
1221,-0.07,-0.95,0.3,-0.55,-3.17,-2.44,302,316,221,252,212
1222,-0.07,-0.95,0.3,-0.06,-2.93,-2.69,297,313,218,248,216
1223,-0.07,-0.95,0.29,0.79,-4.21,-1.89,300,309,219,245,216
1224,-0.07,-0.96,0.31,0.73,-1.22,-2.81,298,313,220,249,216
1225,-0.06,-0.95,0.3,0.55,-3.3,-2.69,299,315,218,247,216
1226,-0.07,-0.95,0.29,1.1,-2.99,-3.05,297,318,218,249,217
1227,-0.06,-0.95,0.31,-0.18,-3.54,-2.2,299,313,220,246,216
1228,-0.07,-0.95,0.3,0.73,-2.69,-1.95,299,312,222,249,214
1229,-0.06,-0.95,0.3,-0.85,-2.2,-3.97,302,313,222,249,211
1230,-0.06,-0.95,0.3,-1.83,-2.38,-3.23,297,316,217,248,217
1231,-0.06,-0.96,0.28,-1.34,-2.75,-2.69,304,315,220,244,211
1232,-0.07,-0.95,0.28,0.85,-2.32,-2.01,302,307,222,248,212
1233,-0.01,-0.94,0.27,-8.85,-0.31,-5.0,299,312,217,246,216
1234,-0.07,-0.96,0.26,2.87,-4.03,-0.61,296,308,221,257,214
1235,-0.02,-0.96,0.27,2.26,-2.62,-5.98,299,309,222,244,212
1236,-0.04,-0.97,0.27,-1.34,-2.2,-0.73,300,315,217,247,212
1237,-0.04,-0.97,0.25,-2.69,-4.82,-4.09,297,307,218,248,216
1238,-0.07,-0.97,0.26,-4.46,1.16,-2.56,300,310,222,250,214
1239,-0.07,-0.97,0.27,3.54,-6.23,3.97,301,308,225,244,226
1240,-0.06,-0.95,0.26,1.46,-6.23,-3.36,300,329,221,246,216
1241,-0.04,-0.96,0.23,-1.71,-4.46,-5.86,301,310,221,249,212
1242,-0.04,-0.97,0.24,1.53,-7.39,1.4,302,309,221,244,216
1243,-0.06,-0.97,0.24,-1.95,-5.07,-2.75,301,312,219,250,216
1244,-0.08,-0.97,0.24,1.71,-7.02,-1.04,302,308,218,250,217
1245,-0.02,-0.96,0.27,0.06,-3.36,-1.77,300,317,218,249,214
1246,-0.04,-0.97,0.27,-0.67,-2.75,-3.54,303,312,220,250,226
1247,-0.03,-0.97,0.25,2.56,-2.5,-1.22,301,312,220,248,217
1248,-0.03,-0.97,0.26,-0.31,-5.0,-2.56,298,313,224,246,214
1249,-0.0,-0.96,0.27,-2.5,-1.04,-5.68,301,311,221,251,214
1250,-0.02,-0.97,0.24,2.14,-5.13,-0.61,302,318,218,248,213
1251,-0.02,-0.96,0.28,-1.65,-1.46,-4.39,298,313,221,248,217
1252,-0.01,-0.97,0.23,0.98,-4.27,-1.77,301,310,231,248,216
1253,-0.02,-0.97,0.23,-1.59,-4.76,-2.44,300,310,217,248,215
1254,-0.02,-0.98,0.23,-1.53,-0.67,-4.15,296,312,219,247,225
1255,-0.02,-0.97,0.29,1.4,1.16,-2.69,300,313,218,264,213
1256,-0.02,-0.97,0.2,0.85,-1.28,-5.55,303,314,219,249,216
1257,0.01,-0.98,0.19,-0.37,-3.42,-2.56,301,310,219,262,215
1258,-0.02,-0.98,0.21,-0.06,-2.62,-2.62,299,315,219,250,212
1259,-0.01,-0.96,0.25,2.62,-1.71,-2.2,304,312,221,252,216
1260,-0.03,-0.98,0.2,-2.99,-2.56,0.12,312,312,221,250,219
1261,-0.02,-0.97,0.22,-0.67,-2.81,-2.38,299,314,218,253,212
1262,-0.01,-0.98,0.21,1.04,-2.62,-1.77,303,312,221,253,218
1263,-0.03,-0.97,0.23,-0.18,-1.71,-4.82,302,323,220,254,214
1264,-0.01,-0.98,0.19,3.91,-7.69,0.12,304,316,218,249,214
1265,0.01,-0.98,0.18,-0.55,-2.69,-6.35,303,317,216,251,252
1266,-0.02,-0.98,0.24,3.6,-3.17,-0.37,302,316,222,250,215
1267,-0.0,-0.97,0.25,-0.37,-1.89,-1.34,298,313,221,249,216
1268,-0.0,-0.97,0.22,-0.12,-4.09,-1.53,301,312,217,261,215
1269,-0.03,-0.97,0.22,2.08,-8.12,-3.97,300,314,219,255,217
1270,-0.04,-0.97,0.26,4.46,-1.65,0.67,300,308,218,253,218
1271,-0.01,-0.97,0.24,0.12,-4.88,-1.83,300,313,216,255,218
1272,-0.02,-0.97,0.27,2.93,-4.76,-5.25,302,315,219,249,218
1273,-0.01,-0.98,0.2,4.88,-0.98,-3.42,300,317,219,250,217
1274,-0.01,-0.97,0.24,5.92,-2.01,1.71,304,311,221,256,218
1275,-0.02,-0.97,0.21,-1.95,7.2,-0.85,296,306,219,251,215
1276,-0.07,-0.97,0.27,2.01,-0.61,-2.26,300,307,222,247,215
1277,-0.04,-0.96,0.24,1.71,-5.74,-2.08,300,310,217,250,216
1278,-0.01,-0.96,0.26,0.92,-9.4,-3.17,303,314,223,252,215
1279,-0.03,-0.96,0.27,-0.67,-3.6,-3.11,301,317,221,251,222
1280,-0.04,-0.97,0.29,3.05,-4.27,1.53,305,313,220,250,216
1281,-0.01,-0.97,0.25,0.55,-3.97,-0.85,300,306,222,245,217
1282,-0.03,-0.97,0.25,-2.87,-0.49,-5.13,301,305,222,250,217
1283,-0.0,-0.96,0.27,1.34,0.0,-3.72,303,324,222,258,216
1284,-0.03,-0.96,0.25,3.85,-3.97,-1.04,299,315,223,249,213
1285,-0.02,-0.96,0.27,-1.22,-2.75,-3.05,300,307,224,252,217
1286,-0.02,-0.96,0.28,-1.22,-6.65,-2.32,302,315,223,253,220
1287,-0.05,-0.95,0.3,0.18,-3.36,-2.69,301,308,221,251,238
1288,-0.07,-0.97,0.28,1.22,-4.33,0.06,299,315,220,253,216
1289,-0.01,-0.97,0.27,0.31,-5.43,-0.24,302,321,218,250,220
1290,-0.01,-0.96,0.27,-2.69,-0.49,-2.01,299,315,223,254,213
1291,-0.02,-0.96,0.25,1.59,-3.11,-1.16,301,313,222,253,217
1292,-0.03,-0.97,0.26,-1.95,-1.59,-3.66,302,319,222,250,213
1293,0.0,-0.97,0.24,-1.59,-3.78,-1.95,303,310,221,251,220
1294,-0.04,-0.97,0.28,4.03,3.78,-3.85,304,308,219,250,219
1295,-0.02,-0.97,0.25,0.85,-4.94,-1.53,300,306,220,249,212
1296,-0.03,-0.97,0.25,-1.16,-3.17,-3.48,300,306,217,251,218
1297,-0.02,-0.97,0.27,2.5,-3.3,-3.66,303,316,217,247,220
1298,-0.02,-0.97,0.26,-0.92,-0.37,-3.78,301,311,220,250,217
1299,-0.01,-0.97,0.27,2.32,-2.93,-3.05,303,312,223,253,217
1300,0.01,-1.0,0.23,1.34,-2.75,-0.43,316,305,220,249,214
1301,-0.01,-0.96,0.28,2.08,-1.59,-2.99,306,314,219,254,220
1302,-0.03,-0.97,0.27,-0.31,-5.19,-1.28,301,311,221,252,216
1303,0.01,-0.97,0.24,-2.56,-3.97,-5.31,305,308,230,253,215
1304,-0.0,-0.97,0.24,2.69,2.69,-3.36,305,314,221,254,218
1305,-0.03,-0.97,0.28,-2.87,0.73,-2.75,305,306,223,253,221
1306,-0.03,-0.96,0.26,2.14,-5.07,-0.79,305,312,222,252,217
1307,-0.03,-0.97,0.23,-2.08,-6.1,-4.15,304,310,220,253,217
1308,-0.04,-0.97,0.27,6.23,-0.67,-3.6,305,311,220,251,221
1309,0.0,-0.96,0.28,2.69,1.77,-3.23,304,306,220,254,217
1310,-0.02,-0.97,0.21,-1.71,-5.13,-2.56,307,312,220,253,221
1311,-0.04,-0.97,0.23,2.44,-3.48,-3.05,306,315,222,252,219
1312,-0.03,-0.97,0.24,0.49,-0.85,-6.04,304,311,219,249,217
1313,-0.02,-0.96,0.25,2.44,-5.37,-3.36,304,313,219,252,220
1314,-0.02,-0.98,0.21,-2.26,-3.11,-4.09,303,312,217,249,213
1315,-0.03,-0.98,0.22,3.91,-2.26,-1.65,302,315,221,255,219
1316,-0.02,-0.98,0.24,-0.67,-2.99,-1.83,302,313,223,254,226
1317,-0.03,-0.98,0.22,3.91,-2.2,-0.85,304,310,220,249,219
1318,-0.01,-0.97,0.24,1.77,-4.52,-2.01,303,318,221,254,218
1319,-0.01,-0.97,0.25,3.97,-3.91,-2.87,304,314,223,252,220
1320,-0.04,-0.97,0.26,-0.79,-4.52,-1.95,305,315,219,253,220
1321,-0.05,-0.97,0.27,1.1,-3.72,-2.32,306,306,223,250,218
1322,-0.05,-0.96,0.29,1.59,-3.85,-1.65,303,309,221,251,219
1323,-0.03,-0.97,0.26,-1.53,-2.5,-4.64,301,310,223,254,219
1324,-0.01,-0.97,0.25,-0.67,-4.94,-1.71,295,311,221,257,220
1325,-0.06,-0.97,0.27,-3.05,-1.89,-3.36,304,311,224,252,218
1326,-0.03,-0.97,0.27,0.98,-3.78,-2.08,306,312,224,254,222
1327,-0.0,-0.96,0.25,4.15,-3.17,-0.98,304,314,222,252,222
1328,-0.03,-0.96,0.3,3.66,-2.69,-2.62,307,312,222,254,217
1329,-0.02,-0.96,0.29,-1.16,-2.32,-1.59,305,312,228,256,220
1330,-0.01,-0.96,0.27,0.24,-4.82,-0.73,306,310,220,252,219
1331,-0.02,-0.96,0.27,0.55,-3.3,-2.44,305,315,221,253,217
1332,-0.03,-0.96,0.29,-0.67,-2.93,-2.38,306,307,223,254,218
1333,-0.02,-0.96,0.27,1.16,-4.21,-1.65,308,311,219,253,217
1334,-0.03,-0.96,0.27,1.83,-3.6,-2.56,306,315,221,254,218
1335,-0.02,-0.96,0.27,0.37,-2.56,-2.62,306,316,224,256,220
1336,-0.02,-0.95,0.3,-3.3,-2.32,-5.19,306,305,221,257,219
1337,-0.02,-0.96,0.28,0.0,-2.62,-3.05,306,311,224,256,220
1338,-0.03,-0.96,0.28,0.24,-2.56,-2.62,301,310,221,254,221
1339,-0.04,-0.95,0.33,-0.37,-1.16,-2.69,307,311,218,251,218
1340,-0.03,-0.96,0.29,0.0,-3.05,-3.54,306,311,224,254,221
1341,-0.02,-0.96,0.27,2.2,-3.3,-1.71,308,311,224,257,219
1342,-0.02,-0.96,0.27,-0.43,-1.22,-2.26,307,305,219,255,218
1343,-0.02,-0.96,0.29,3.42,-2.99,-1.89,303,305,220,252,219
1344,-0.05,-0.96,0.29,-0.37,-2.44,-4.33,302,316,218,256,220
1345,-0.03,-0.96,0.3,-0.49,-3.91,-1.59,307,312,221,254,222
1346,-0.02,-0.96,0.25,-0.67,-3.85,-2.81,308,305,222,255,219
1347,-0.03,-0.96,0.27,-0.43,0.49,-5.55,307,311,219,254,218
1348,-0.01,-0.96,0.26,1.22,-2.44,-1.04,306,306,221,257,219
1349,-0.02,-0.96,0.26,-3.3,18.43,-4.52,304,310,216,248,218
1350,-0.04,-0.96,0.27,-1.34,-5.19,-3.42,304,310,218,242,214
1351,-0.03,-0.97,0.28,-1.89,-3.78,-5.07,305,321,222,246,218
1352,-0.02,-0.96,0.26,1.83,-2.01,-1.77,306,314,222,255,217
1353,-0.05,-0.96,0.27,0.85,-1.59,-4.27,308,318,219,251,256
1354,-0.02,-0.96,0.28,-0.37,-3.05,-2.93,307,317,221,247,217
1355,-0.03,-0.96,0.27,0.37,-4.03,-3.17,307,313,219,252,218
1356,-0.02,-0.97,0.27,-0.49,-3.11,-2.26,307,308,221,253,217
1357,-0.04,-0.96,0.26,0.24,-3.97,-1.22,306,312,223,249,219
1358,-0.03,-0.97,0.26,0.06,-3.78,-2.56,307,312,220,250,220
1359,-0.03,-0.97,0.25,0.79,-3.05,-2.32,305,309,222,249,217
1360,-0.03,-0.97,0.27,-0.12,-3.42,-2.14,307,315,221,252,216
1361,-0.04,-0.97,0.26,-0.67,-3.72,-2.99,306,313,220,248,216
1362,-0.03,-0.97,0.27,-0.18,-3.3,-2.5,305,318,220,253,217
1363,-0.03,-0.96,0.26,1.77,-3.36,-2.32,306,316,220,252,219
1364,-0.04,-0.97,0.26,0.49,-3.17,-2.14,307,310,218,251,218
1365,-0.05,-0.97,0.26,-1.1,-2.87,-4.15,305,317,220,253,215
1366,-0.03,-0.96,0.26,0.55,-2.44,-3.36,304,315,224,253,216
1367,-0.04,-0.96,0.28,-0.31,-2.44,-2.93,302,318,224,252,221
1368,-0.04,-0.96,0.27,-1.71,-3.17,-2.32,303,311,219,251,219
1369,-0.04,-0.96,0.26,1.83,-4.03,-1.65,316,311,222,254,218
1370,-0.03,-0.96,0.26,0.31,-2.01,-2.75,308,316,220,252,218
1371,-0.04,-0.97,0.25,0.31,-3.54,-2.87,308,315,224,254,220
1372,-0.04,-0.97,0.26,-0.37,-3.36,-3.11,305,318,221,254,219
1373,-0.03,-0.97,0.25,0.67,-2.5,-2.56,314,315,224,250,220
1374,-0.04,-0.97,0.26,1.46,-2.93,-1.71,306,317,226,252,214
1375,-0.04,-0.97,0.25,0.98,-2.81,-2.81,306,320,223,252,220
1376,-0.04,-0.97,0.26,0.85,-3.72,-2.38,307,319,220,252,221
1377,-0.04,-0.97,0.25,0.0,-3.66,-1.34,306,316,223,251,219
1378,-0.03,-0.96,0.26,-0.24,-2.69,-2.56,306,314,224,254,220
1379,-0.03,-0.97,0.25,-0.06,-3.05,-2.26,309,314,221,255,218
1380,-0.03,-0.97,0.25,-1.28,-3.17,-2.62,308,314,220,253,216
1381,-0.04,-0.96,0.27,0.55,-3.6,-2.08,304,318,223,253,220
1382,-0.04,-0.96,0.26,0.49,-3.3,-2.26,306,314,223,252,213
1383,-0.05,-0.96,0.26,1.16,-2.75,-2.56,308,320,222,263,216
1384,-0.03,-0.96,0.26,1.04,-3.11,-2.62,306,314,222,253,217
1385,-0.04,-0.97,0.25,1.59,-7.02,-0.73,308,314,223,255,221
1386,-0.05,-0.96,0.28,9.52,-4.94,1.4,308,313,224,252,218
1387,-0.04,-0.96,0.26,-0.31,-1.95,-2.26,310,320,226,254,217
1388,-0.04,-0.96,0.26,0.92,-1.53,-1.83,309,315,222,254,220
1389,-0.04,-0.96,0.27,0.49,-2.69,-1.65,308,315,226,256,222
1390,-0.04,-0.96,0.27,0.67,-1.22,-2.44,308,332,222,258,219
1391,-0.04,-0.96,0.26,0.31,-2.81,-3.05,312,325,227,254,216
1392,-0.04,-0.96,0.26,-0.18,-2.87,-2.38,309,328,224,254,222
1393,-0.05,-0.96,0.27,0.06,-4.15,-2.81,308,330,223,255,222
1394,-0.04,-0.96,0.27,1.28,-2.01,-3.66,301,330,223,256,227
1395,-0.04,-0.96,0.28,1.4,-3.36,-2.38,308,325,228,255,219
1396,-0.03,-0.96,0.26,-0.85,-3.11,-2.26,311,326,222,252,218
1397,-0.04,-0.95,0.29,3.05,-1.59,-2.08,309,326,223,257,219
1398,-0.04,-0.96,0.28,0.37,-2.75,-3.54,307,331,222,255,222
1399,-0.04,-0.96,0.27,0.24,-3.48,-1.53,306,321,221,258,220
1400,-0.04,-0.96,0.28,0.79,-2.56,-2.26,310,326,227,258,219
1401,-0.04,-0.96,0.28,0.73,-3.42,-2.08,311,322,235,255,222
1402,-0.05,-0.96,0.28,1.34,-4.27,-2.2,306,335,226,261,222
1403,-0.04,-0.96,0.3,-0.49,-2.99,-3.05,309,330,220,258,218
1404,-0.04,-0.96,0.28,-0.55,-1.34,-2.69,308,326,227,253,220
1405,-0.06,-0.96,0.25,-9.28,-3.23,-4.58,305,325,226,256,219
1406,-0.06,-0.96,0.3,2.75,-2.62,-0.49,307,322,226,255,220
1407,-0.05,-0.97,0.23,0.73,-3.42,-4.33,307,325,227,257,220
1408,0.01,-0.96,0.22,-0.61,-2.26,-5.62,307,322,226,255,221
1409,-0.04,-0.97,0.23,-1.1,-0.24,-2.38,310,327,222,259,223
1410,-0.05,-0.97,0.22,-6.35,-3.91,-3.91,307,330,225,256,218
1411,-0.01,-0.98,0.22,-0.55,-4.94,-3.48,306,328,221,256,221
1412,0.02,-0.97,0.25,0.0,-4.15,0.24,308,332,226,259,220
1413,-0.02,-0.99,0.15,7.26,-2.38,4.52,310,328,227,255,222
1414,-0.04,-0.98,0.22,-3.17,-2.32,-1.71,305,331,223,259,220
1415,-0.05,-0.93,0.15,-26.73,-14.83,4.76,308,325,223,255,220
1416,-0.05,-1.0,0.09,4.52,-1.04,-5.0,307,326,222,256,214
1417,-0.03,-1.01,0.07,5.92,-3.91,-2.5,304,327,221,254,221
1418,-0.03,-0.99,0.1,-0.85,-1.71,-3.54,308,325,221,258,220
1419,-0.03,-0.99,0.15,9.22,0.85,-3.54,310,324,222,255,213
1420,-0.05,-0.99,0.16,1.83,-3.23,-3.6,308,321,221,256,219
1421,-0.03,-0.99,0.14,2.44,-5.31,-0.98,308,318,225,258,217
1422,-0.0,-0.97,0.19,5.92,-2.75,-4.58,305,320,218,261,223
1423,0.04,-0.97,0.16,-2.26,-0.37,-8.48,307,315,222,259,218
1424,-0.02,-0.99,0.16,-0.49,-1.89,-2.14,307,317,220,256,219
1425,-0.01,-0.98,0.17,-0.92,-0.79,-4.64,302,317,224,257,219
1426,-0.02,-0.98,0.18,0.12,-2.75,-1.89,309,318,234,262,220
1427,-0.01,-0.98,0.17,1.28,-5.43,-0.31,307,313,220,256,227
1428,-0.01,-0.98,0.17,-2.87,-4.88,-2.5,304,317,221,257,218
1429,-0.02,-0.99,0.17,-0.18,-2.99,0.24,308,322,220,256,218
1430,-0.03,-0.98,0.18,0.37,-3.6,-3.48,308,324,220,256,221
1431,-0.0,-0.98,0.19,0.92,-3.17,-1.95,308,323,219,255,222
1432,-0.01,-0.98,0.17,1.22,-1.95,-3.85,308,320,224,264,216
1433,-0.03,-0.98,0.18,-1.28,-2.38,-3.91,310,320,220,256,219
1434,-0.01,-0.98,0.19,-0.37,-3.23,-3.3,310,320,225,258,222
1435,-0.0,-0.98,0.19,-0.18,-1.77,-2.75,307,316,222,256,219
1436,-0.02,-0.98,0.18,0.12,-4.7,-1.46,306,334,221,255,221
1437,-0.01,-0.98,0.18,-3.72,-2.01,-4.39,308,324,223,257,221
1438,-0.01,-0.98,0.16,0.92,-4.46,-2.08,308,318,220,258,211
1439,-0.06,-1.0,0.17,-0.24,7.75,-2.14,307,326,221,260,220
1440,-0.01,-0.98,0.17,0.12,-1.71,-2.38,308,318,220,258,222
1441,-0.02,-0.98,0.18,0.18,-3.36,-2.32,308,322,221,260,222
1442,-0.02,-0.98,0.15,-0.49,-2.75,-2.69,310,325,221,257,219
1443,-0.03,-0.99,0.17,4.21,1.1,-3.36,307,322,219,259,221
1444,-0.04,-0.98,0.19,1.04,-1.28,-2.38,307,323,221,256,216
1445,-0.02,-0.98,0.18,2.08,-1.59,-2.26,306,323,222,251,215
1446,-0.04,-0.97,0.18,0.31,-2.56,-3.11,307,330,220,255,215
1447,-0.03,-0.98,0.18,0.49,-3.54,-2.38,303,332,225,253,221
1448,-0.03,-0.98,0.2,1.59,-3.85,-2.81,303,333,223,253,222
1449,-0.04,-0.98,0.19,0.37,-4.21,-2.5,303,328,223,259,220
1450,-0.03,-0.98,0.2,0.43,-2.32,-2.69,304,330,227,259,221
1451,-0.02,-0.98,0.18,0.12,-3.78,-2.32,306,332,221,255,221
1452,-0.04,-0.98,0.17,0.61,-2.81,-2.01,306,329,222,258,221
1453,-0.03,-0.98,0.19,1.28,-2.75,-1.53,304,329,222,255,219
1454,-0.05,-0.98,0.19,-1.65,-3.36,-2.38,305,331,220,253,221
1455,-0.06,-0.98,0.19,0.37,-4.76,-2.5,305,329,226,251,220
1456,-0.04,-0.98,0.18,1.65,-4.09,-2.44,301,334,221,259,215
1457,-0.04,-0.98,0.18,0.12,-2.81,-2.38,307,330,220,260,224
1458,-0.03,-0.98,0.19,0.55,-3.6,-3.48,306,326,223,255,222
1459,-0.04,-0.98,0.19,0.49,-2.44,-2.44,306,330,222,257,222
1460,-0.04,-0.98,0.19,0.55,-2.99,-2.26,307,335,226,257,217
1461,-0.04,-0.98,0.18,-0.98,-2.32,-2.99,307,334,223,261,222
1462,-0.03,-0.98,0.17,1.89,-3.97,-2.01,307,332,227,257,224
1463,-0.04,-0.98,0.18,-0.31,-2.5,-2.93,307,330,229,257,218
1464,-0.03,-0.98,0.18,0.49,-4.27,-1.04,306,325,224,259,217
1465,-0.04,-0.98,0.18,2.75,-4.21,-2.2,306,329,220,257,221
1466,-0.04,-0.98,0.19,0.79,-2.5,-2.62,307,332,226,260,220
1467,-0.04,-0.98,0.2,0.0,-2.75,-2.56,308,331,226,258,224
1468,-0.03,-0.98,0.17,-0.18,-4.03,-2.01,307,331,225,258,220
1469,0.0,-0.97,0.17,0.37,-2.62,-3.72,306,329,224,256,222
1470,-0.04,-0.98,0.19,-2.38,-0.55,-4.88,307,330,225,259,221
1471,-0.05,-0.98,0.18,1.4,-3.78,-1.53,308,328,224,259,222
1472,-0.04,-0.98,0.19,0.79,-3.6,-2.38,306,334,227,261,222
1473,-0.04,-0.98,0.19,0.43,-3.97,-2.38,309,326,224,258,220
1474,-0.06,-0.98,0.2,0.24,-1.89,-2.56,307,330,226,258,223
1475,-0.06,-0.98,0.2,-0.98,-3.97,-3.54,308,328,224,259,223
1476,-0.03,-0.98,0.17,-1.71,-2.5,-3.42,309,334,224,260,218
1477,-0.05,-0.98,0.19,0.73,-2.14,-1.95,306,325,224,259,220
1478,-0.05,-0.98,0.21,-1.1,-4.94,-2.81,305,327,227,260,228
1479,-0.04,-0.98,0.19,0.73,-3.85,-3.11,304,326,227,259,221
1480,-0.04,-0.98,0.19,1.1,-4.7,-1.46,306,332,226,258,226
1481,-0.03,-0.98,0.18,2.2,-3.78,-1.4,305,339,225,258,220
1482,-0.04,-0.98,0.19,2.5,-5.68,-2.14,312,329,227,259,223
1483,-0.04,-0.98,0.18,0.61,-2.5,-2.26,306,328,225,259,220
1484,-0.04,-0.98,0.18,-0.79,-1.46,-2.01,309,333,234,260,222
1485,-0.04,-0.98,0.19,-0.31,-2.2,-2.69,306,328,225,257,222
1486,-0.04,-0.98,0.18,0.73,-3.72,-2.32,306,327,224,261,221
1487,-0.05,-0.98,0.18,-0.18,-2.93,-2.5,307,329,226,256,231
1488,-0.04,-0.98,0.17,0.18,-3.3,-2.69,308,334,228,259,226
1489,-0.05,-0.98,0.18,-0.18,-2.56,-3.05,303,325,227,259,223
1490,-0.05,-0.98,0.19,-0.73,0.67,-3.11,310,330,228,259,223
1491,-0.05,-0.98,0.17,0.06,-2.75,-2.38,307,331,229,258,221
1492,-0.05,-0.98,0.18,-0.12,-2.62,-2.2,308,325,226,256,220
1493,-0.04,-0.98,0.16,-0.98,-1.4,-3.23,308,335,228,262,220
1494,-0.06,-1.0,0.19,-1.65,-0.49,-2.2,303,326,226,256,222
1495,-0.02,-0.98,0.13,-8.3,-5.98,-6.59,304,334,228,259,222
1496,-0.0,-0.98,0.13,2.44,-2.93,-1.4,307,332,225,261,221
1497,0.0,-0.98,0.19,-3.66,-0.85,-5.68,303,326,225,262,219
1498,-0.01,-0.99,0.16,-1.1,-1.65,-2.69,307,328,224,262,223
1499,-0.02,-0.98,0.16,1.22,-2.87,-1.46,306,332,230,262,220
1500,-0.02,-0.98,0.16,1.34,-3.11,-2.01,307,330,223,263,221
1501,-0.03,-0.98,0.17,0.55,-3.36,-1.65,307,331,226,261,222
1502,-0.03,-0.99,0.18,0.12,-2.26,-2.5,306,330,222,261,224
1503,-0.03,-0.99,0.15,1.22,-4.76,-0.79,306,332,227,256,222
1504,0.0,-0.98,0.15,1.1,-3.6,-1.89,307,335,226,259,223
1505,-0.02,-0.99,0.15,0.31,-2.62,-2.87,304,327,227,260,221
1506,-0.06,-0.97,0.25,27.53,1.16,-7.32,287,261,192,220,197
1507,-0.05,-0.96,0.28,7.14,-7.51,-4.52,289,265,194,218,199
1508,-0.03,-0.96,0.31,-1.65,-4.58,1.77,286,272,198,224,196
1509,-0.05,-0.93,0.31,-0.67,-1.22,2.01,287,267,196,219,198
1510,-0.06,-0.96,0.29,0.24,0.0,-4.27,286,272,196,219,198
1511,-0.04,-0.95,0.26,1.1,-0.55,-1.04,289,265,197,221,198
1512,-0.06,-0.95,0.3,-1.16,-0.49,0.61,288,268,199,219,199
1513,-0.11,-0.96,0.23,-1.34,-8.3,-2.14,290,280,202,224,199
1514,-0.1,-0.95,0.26,-0.12,-4.09,-4.03,289,280,200,223,200
1515,-0.1,-0.96,0.28,-2.87,-3.54,-2.69,287,280,205,223,198
1516,-0.09,-0.96,0.27,2.01,-4.09,-2.2,286,286,202,224,231
1517,-0.08,-0.96,0.3,-1.22,-4.21,-1.16,287,283,205,222,199
1518,-0.1,-0.95,0.29,0.85,-3.66,-1.4,285,283,206,221,202
1519,-0.1,-0.95,0.28,1.22,-3.48,-2.69,291,286,202,224,199
1520,-0.09,-0.95,0.31,0.92,-3.17,-1.83,287,281,201,225,199
1521,-0.1,-0.95,0.3,-2.26,-2.75,-3.11,288,282,206,225,202
1522,-0.09,-0.95,0.27,-3.11,-1.59,-3.97,286,284,208,223,199
1523,-0.1,-0.95,0.28,2.5,-4.15,-3.3,289,285,205,222,199
1524,-0.1,-0.95,0.29,0.98,-2.87,-3.54,291,287,206,222,201
1525,-0.1,-0.95,0.29,-5.19,2.14,-7.57,291,281,208,222,201
1526,-0.1,-0.96,0.3,-2.75,-4.7,-2.08,288,284,219,224,205
1527,-0.09,-0.95,0.28,-0.49,-2.93,-2.99,286,285,205,228,200
1528,-0.09,-0.95,0.28,-0.12,-1.53,-3.85,290,286,219,229,204
1529,-0.09,-0.96,0.28,-0.24,-1.95,-2.99,290,286,209,224,204
1530,-0.1,-0.95,0.28,-0.43,-3.23,-1.77,298,285,208,227,204
1531,-0.09,-0.95,0.29,0.85,-2.38,-1.59,287,281,205,226,212
1532,-0.1,-0.95,0.29,-1.22,-2.32,-3.42,286,281,206,226,204
1533,-0.11,-0.95,0.31,1.16,-2.32,-3.85,288,287,203,230,199
1534,-0.1,-0.95,0.3,-0.73,-2.44,-3.6,288,282,206,230,203
1535,-0.08,-0.95,0.3,0.85,-1.65,-3.3,289,281,204,225,205
1536,-0.08,-0.95,0.29,0.0,-1.83,-4.33,284,298,206,228,204
1537,-0.1,-0.95,0.29,0.61,-1.71,-4.33,286,281,206,231,204
1538,-0.08,-0.95,0.28,0.31,-2.56,-3.17,290,286,209,227,204
1539,-0.07,-0.96,0.28,-1.22,-2.08,-5.07,290,283,209,227,204
1540,-0.05,-0.96,0.26,-0.92,-2.99,-3.11,290,285,206,230,205
1541,-0.06,-0.96,0.28,1.28,-2.26,-2.5,291,284,211,229,203
1542,-0.05,-0.95,0.28,0.12,-5.8,-2.44,290,282,207,230,204
1543,-0.05,-0.96,0.29,0.55,-2.62,-3.11,293,287,206,235,202
1544,-0.05,-0.95,0.28,0.61,-3.23,-2.32,291,284,207,232,204
1545,-0.06,-0.96,0.29,0.92,-3.42,-1.46,288,287,210,227,204
1546,-0.07,-0.95,0.29,0.85,-2.81,-2.69,291,287,207,231,204
1547,-0.07,-0.96,0.29,-0.31,-3.23,-1.53,290,289,209,230,207
1548,-0.06,-0.96,0.3,0.49,-3.97,-1.28,292,292,200,232,207
1549,-0.06,-0.96,0.29,1.4,-2.93,-2.08,290,289,204,233,203
1550,-0.06,-0.96,0.3,-0.85,-3.11,-3.48,291,291,209,227,209
1551,-0.07,-0.95,0.29,1.83,-4.33,-1.89,292,290,206,233,208
1552,-0.06,-0.95,0.29,0.12,-4.27,-2.5,289,283,208,241,206
1553,-0.05,-0.95,0.29,0.12,-2.5,-2.2,291,291,206,231,207
1554,-0.06,-0.95,0.29,0.67,-2.5,-3.05,294,290,210,229,201
1555,-0.07,-0.96,0.3,1.28,-5.31,0.49,291,292,207,230,207
1556,-0.06,-0.96,0.27,1.59,-3.48,0.24,291,289,207,230,205
1557,-0.08,-0.95,0.29,1.4,-3.3,-1.89,292,286,206,233,246
1558,-0.07,-0.95,0.3,0.67,-3.91,-3.11,294,294,208,234,203
1559,-0.06,-0.95,0.3,-0.31,-1.77,-3.17,292,290,210,231,208
1560,-0.07,-0.95,0.3,-1.1,-2.26,-2.81,290,291,212,233,208
1561,-0.06,-0.95,0.29,0.79,-2.69,-2.08,294,290,212,233,208
1562,-0.07,-0.95,0.29,2.01,-2.99,-0.92,293,291,210,229,207
1563,-0.06,-0.95,0.28,1.95,-3.48,-1.28,296,295,210,232,209
1564,-0.06,-0.95,0.29,1.53,-3.78,-2.38,295,289,206,232,209
1565,-0.06,-0.95,0.28,1.22,-3.11,-2.44,291,292,208,231,204
1566,-0.06,-0.95,0.29,0.24,-3.36,-2.38,295,301,212,232,205
1567,-0.06,-0.96,0.29,0.18,-2.44,-3.54,295,290,210,235,206
1568,-0.07,-0.96,0.29,0.18,-3.48,-2.5,294,295,209,233,208
1569,-0.07,-0.96,0.29,0.43,-2.44,-2.2,294,294,207,236,207
1570,-0.06,-0.95,0.29,0.49,-3.23,-1.83,292,296,209,233,207
1571,-0.07,-0.95,0.3,0.24,-2.5,-2.87,290,293,217,232,206
1572,-0.08,-0.95,0.31,0.0,-2.62,-2.87,290,292,209,236,208
1573,-0.07,-0.95,0.3,0.98,-2.75,-2.32,294,288,212,236,214
1574,-0.07,-0.95,0.3,-0.06,-2.75,-2.81,293,295,209,234,209
1575,-0.06,-0.95,0.31,-0.49,-3.48,-3.05,294,296,209,234,210
1576,-0.06,-0.95,0.3,1.04,-3.6,-2.26,291,294,209,236,214
1577,-0.06,-0.95,0.3,-2.62,-1.95,-3.42,290,296,208,236,210
1578,-0.06,-0.96,0.28,-2.5,-4.21,-2.38,292,298,209,236,210
1579,-0.07,-0.95,0.27,2.26,-1.34,-7.26,290,292,209,235,204
1580,-0.04,-0.96,0.29,-0.98,-2.81,-2.2,296,291,210,231,209
1581,-0.06,-0.95,0.29,1.4,-2.44,-1.95,296,292,210,238,206
1582,-0.05,-0.95,0.29,-0.18,-3.85,-3.23,296,292,211,231,210
1583,-0.06,-0.96,0.29,-0.12,-3.17,-3.54,305,291,210,234,207
1584,-0.06,-0.96,0.29,1.4,-2.5,-3.42,295,295,209,232,207
1585,-0.05,-0.96,0.27,-0.67,-0.98,-2.99,296,287,212,234,208
1586,-0.07,-0.95,0.31,-0.24,-5.25,-1.34,297,297,206,237,204
1587,-0.05,-0.96,0.28,-1.59,-3.3,-2.69,295,290,212,238,212
1588,-0.06,-0.95,0.31,0.85,-2.32,-2.75,292,296,210,235,209
1589,-0.05,-0.96,0.29,-0.12,-2.62,-2.99,295,290,212,234,213
1590,-0.05,-0.96,0.27,0.55,-3.17,-2.2,296,287,208,236,235
1591,-0.06,-0.95,0.28,-1.28,-2.32,-3.66,295,294,207,237,210
1592,-0.06,-0.96,0.29,0.49,-2.69,-2.44,294,294,216,239,208
1593,-0.05,-0.95,0.29,0.12,-2.62,-3.3,290,290,213,237,208
1594,-0.07,-0.96,0.28,-1.65,-3.48,-3.6,292,292,212,239,211
1595,-0.06,-0.96,0.28,1.22,-3.48,-0.49,294,295,209,233,234
1596,-0.06,-0.96,0.28,-0.24,-3.3,-2.56,293,292,215,240,208
1597,-0.08,-0.96,0.29,-0.98,-3.23,-2.14,291,292,209,237,209
1598,-0.05,-0.95,0.28,0.85,-2.38,-3.23,292,296,210,237,210
1599,-0.06,-0.96,0.28,0.24,-1.16,-3.42,294,296,213,235,210
1600,-0.06,-0.96,0.27,1.04,-3.72,-2.69,286,298,211,239,213
1601,-0.05,-0.96,0.28,-0.24,-2.93,-3.11,294,288,210,237,207
1602,-0.06,-0.96,0.29,-1.04,-3.23,-3.6,294,291,213,241,210
1603,-0.05,-0.96,0.29,0.61,-2.38,-2.44,296,298,212,240,211
1604,-0.06,-0.96,0.28,-0.61,-3.05,-2.44,296,294,212,239,247
1605,-0.06,-0.96,0.28,-0.31,-2.87,-1.95,297,293,210,240,210
1606,-0.06,-0.96,0.28,0.98,-3.17,-0.37,294,294,214,237,247
1607,-0.06,-0.96,0.28,-0.18,-2.93,-2.99,291,297,212,239,207
1608,-0.05,-0.96,0.28,1.1,-2.99,-2.69,296,293,208,239,204
1609,-0.06,-0.96,0.28,0.0,-2.81,-2.75,294,294,219,246,209
1610,-0.06,-0.96,0.28,0.85,-3.3,-2.5,295,296,211,237,214
1611,-0.06,-0.96,0.29,0.06,-2.62,-2.56,296,299,213,237,211
1612,-0.07,-0.95,0.29,1.28,-3.3,-1.77,296,296,215,239,209
1613,-0.06,-0.96,0.29,0.18,-3.6,-1.71,295,304,210,238,211
1614,-0.07,-0.95,0.28,-0.55,-2.93,-2.44,294,295,211,240,210
1615,-0.07,-0.95,0.29,0.12,-2.32,-2.93,293,294,214,241,210
1616,-0.07,-0.96,0.29,-0.98,-2.87,-3.36,295,299,214,240,210
1617,-0.08,-0.95,0.3,-1.28,-1.95,-3.97,297,299,212,238,237
1618,-0.08,-0.95,0.3,-0.79,-3.36,-2.44,298,295,212,239,229
1619,-0.07,-0.95,0.3,0.79,-3.54,-2.81,294,289,219,240,212
1620,-0.08,-0.95,0.3,0.79,-3.11,-2.2,296,296,210,235,208
1621,-0.07,-0.95,0.29,0.73,-2.2,-2.56,294,295,209,241,249
1622,-0.07,-0.95,0.28,-0.12,-3.17,-2.14,292,291,212,240,211
1623,-0.08,-0.96,0.3,0.24,-2.62,-2.69,298,293,212,237,210
1624,-0.07,-0.95,0.3,-0.85,-3.3,-2.62,296,291,214,237,210
1625,-0.07,-0.95,0.29,0.18,-2.93,-2.81,296,311,210,242,211
1626,-0.07,-0.95,0.29,0.43,-2.93,-2.44,293,294,213,240,212
1627,-0.07,-0.95,0.3,0.43,-2.69,-2.44,295,297,213,246,211
1628,-0.07,-0.96,0.3,0.43,-1.65,-3.11,293,297,213,239,212
1629,-0.07,-0.95,0.31,1.1,-2.08,-2.75,293,291,216,246,212
1630,-0.07,-0.95,0.31,0.06,-3.3,-2.32,296,297,210,241,214
1631,-0.06,-0.95,0.31,0.12,-3.11,-2.01,296,290,210,241,211
1632,-0.07,-0.95,0.3,0.43,-3.3,-2.69,295,294,214,242,211
1633,-0.07,-0.95,0.31,1.4,-2.56,-2.38,295,295,210,243,211
1634,-0.08,-0.95,0.31,0.73,-2.99,-2.01,287,296,210,240,211
1635,-0.09,-0.95,0.31,0.24,-2.38,-3.17,296,296,210,243,211
1636,-0.08,-0.95,0.31,0.49,-3.91,-2.5,297,294,215,241,210
1637,-0.09,-0.95,0.31,3.85,-3.66,-4.09,298,299,211,241,211
1638,-0.07,-0.94,0.3,1.46,-3.72,-2.75,296,298,212,239,214
1639,-0.06,-0.94,0.31,0.06,-2.38,-2.62,296,301,214,244,228
1640,-0.08,-0.94,0.31,0.67,-3.11,-2.26,295,300,212,243,211
1641,-0.08,-0.95,0.31,-0.43,-2.81,-2.56,296,290,213,242,220
1642,-0.07,-0.95,0.31,0.24,-3.11,-2.69,297,300,213,246,212
1643,-0.08,-0.95,0.31,-0.49,-2.32,-2.14,296,292,213,238,211
1644,-0.08,-0.95,0.31,1.65,-3.91,-1.71,296,292,212,248,213
1645,-0.07,-0.95,0.31,0.61,-4.21,-2.01,298,300,212,239,212
1646,-0.07,-0.95,0.31,0.24,-3.3,-3.17,293,311,214,242,209
1647,-0.07,-0.95,0.32,0.0,-2.32,-3.3,297,296,211,244,210
1648,-0.08,-0.94,0.32,0.67,-2.62,-2.26,297,291,213,242,217
1649,-0.08,-0.94,0.32,0.31,-2.32,-2.2,296,296,212,243,207
1650,-0.09,-0.94,0.32,-0.55,-2.99,-2.01,298,293,213,245,217
1651,-0.09,-0.95,0.31,-0.98,-2.01,-2.2,299,296,209,244,214
1652,-0.06,-0.95,0.31,1.65,-1.65,-3.11,296,297,211,246,211
1653,-0.09,-0.95,0.32,-3.78,-3.48,-3.05,299,297,213,245,211
1654,-0.09,-0.94,0.34,-0.18,-2.87,-2.56,297,291,213,240,214
1655,-0.1,-0.95,0.32,-0.55,-3.66,-3.36,297,296,211,240,214
1656,-0.08,-0.95,0.31,-0.06,-3.11,-3.11,294,299,214,243,207
1657,-0.08,-0.95,0.32,-0.92,-2.38,-2.5,296,298,212,241,214
1658,-0.08,-0.95,0.31,-1.1,-2.08,-4.15,297,296,216,240,214
1659,-0.08,-0.95,0.31,0.31,-2.5,-2.87,299,302,227,243,215
1660,-0.08,-0.95,0.31,-0.67,-3.11,-2.75,298,297,215,243,214
1661,-0.07,-0.95,0.31,-1.28,-3.72,-3.42,296,294,214,243,211
1662,-0.07,-0.94,0.32,1.95,-2.14,-2.32,296,297,213,244,214
1663,-0.08,-0.95,0.3,1.89,-3.17,-2.69,298,300,214,241,213
1664,-0.07,-0.95,0.3,-0.18,-2.14,-2.75,298,297,214,240,241
1665,-0.07,-0.95,0.3,-0.49,-2.75,-2.75,299,298,210,243,214
1666,-0.07,-0.95,0.31,0.67,-2.81,-2.69,296,300,214,245,213
1667,-0.09,-0.95,0.29,-2.99,-3.05,-3.91,297,296,214,243,211
1668,-0.08,-0.95,0.31,0.85,-3.48,-1.95,295,300,217,240,214
1669,-0.06,-0.95,0.3,-0.67,-2.08,-3.91,297,298,213,242,211
1670,-0.07,-0.95,0.31,1.71,-2.93,-2.5,299,298,219,244,212
1671,-0.07,-0.95,0.31,-0.37,-2.01,-2.87,297,297,216,244,213
1672,-0.07,-0.95,0.29,-3.66,-2.5,-1.46,295,297,214,243,215
1673,-0.07,-0.95,0.32,2.56,-3.66,-2.14,299,293,213,240,214
1674,-0.08,-0.95,0.31,-1.46,-2.93,-3.36,297,301,216,245,213
1675,-0.07,-0.95,0.29,0.31,-2.14,-3.42,294,301,215,245,213
1676,-0.07,-0.95,0.29,1.16,-3.42,-2.08,296,298,214,243,214
1677,-0.06,-0.96,0.29,1.46,-3.78,-2.5,294,297,214,243,213
1678,-0.06,-0.95,0.29,0.92,-3.05,-2.75,296,300,214,244,213
1679,-0.06,-0.95,0.3,-0.12,-3.11,-2.5,297,295,215,243,214
1680,-0.08,-0.95,0.29,0.67,-2.5,-1.83,298,302,214,242,215
1681,-0.07,-0.95,0.29,-0.37,-2.44,-2.93,296,299,217,240,216
1682,-0.08,-0.95,0.3,0.92,-3.11,-2.14,299,297,215,241,215
1683,-0.08,-0.95,0.29,0.85,-2.5,-2.56,295,304,213,240,215
1684,-0.08,-0.95,0.29,1.4,-3.66,-2.26,295,304,213,244,214
1685,-0.08,-0.95,0.29,-0.24,-3.11,-3.42,299,303,214,243,215
1686,-0.07,-0.95,0.3,1.4,-3.66,-2.01,299,303,218,241,215
1687,-0.06,-0.95,0.3,0.24,-3.6,-2.5,296,300,218,243,214
1688,-0.07,-0.95,0.3,-0.49,-2.14,-1.83,296,301,215,245,232
1689,-0.08,-0.95,0.29,-0.12,-2.93,-2.44,307,301,216,246,215
1690,-0.1,-0.95,0.3,-0.67,2.87,-1.83,298,304,216,244,214
1691,-0.07,-0.95,0.29,1.4,-2.93,-2.5,301,305,212,247,213
1692,-0.09,-0.95,0.29,0.12,-2.81,-2.44,299,316,215,243,215
1693,-0.07,-0.96,0.29,1.22,-3.17,-2.01,297,316,218,245,214
1694,-0.07,-0.95,0.32,1.83,-2.81,-2.93,297,316,218,248,213
1695,-0.08,-0.94,0.32,1.53,-3.23,-2.26,298,307,221,247,214
1696,-0.08,-0.95,0.32,0.12,-3.3,-2.87,301,311,221,244,215
1697,-0.07,-0.95,0.31,0.73,-2.69,-2.01,299,309,219,246,212
1698,-0.07,-0.95,0.32,0.31,-2.93,-2.26,299,312,217,245,211
1699,-0.08,-0.95,0.31,-0.37,-2.93,-2.99,302,312,217,245,221
1700,-0.07,-0.95,0.31,-1.46,-1.83,-3.78,296,316,214,245,209
1701,-0.07,-0.95,0.3,0.79,-3.17,-2.81,300,311,219,247,215
1702,-0.07,-0.94,0.31,0.67,-3.85,-2.14,299,305,218,250,215
1703,-0.07,-0.95,0.31,0.37,-2.62,-2.81,295,307,217,246,216
1704,-0.06,-0.95,0.31,0.43,-2.99,-2.5,295,313,220,246,214
1705,-0.07,-0.95,0.31,0.79,-2.93,-2.2,299,312,217,243,215
1706,-0.08,-0.95,0.31,1.89,-3.72,-1.65,299,313,215,248,214
1707,-0.08,-0.94,0.32,0.61,-4.15,-2.62,299,314,224,246,210
1708,-0.07,-0.95,0.31,-0.24,-3.05,-1.89,296,310,221,245,216
1709,-0.06,-0.95,0.3,0.73,-2.75,-2.5,299,317,220,245,216
1710,-0.06,-0.95,0.3,-0.24,-1.59,-3.05,297,313,219,245,213
1711,-0.07,-0.95,0.3,0.98,-3.11,-2.75,299,311,219,246,213
1712,-0.07,-0.95,0.31,0.85,-2.69,-2.93,302,310,215,249,212
1713,-0.07,-0.95,0.31,-0.18,-3.05,-2.5,300,318,216,245,215
1714,-0.05,-0.95,0.28,0.0,-2.87,-1.89,296,313,220,248,213
1715,-0.06,-0.95,0.31,0.06,-2.5,-2.56,299,313,216,248,232
1716,-0.07,-0.95,0.31,-0.06,-2.69,-3.05,295,313,218,253,215
1717,-0.06,-0.95,0.3,-0.24,-2.38,-2.56,299,313,218,248,215
1718,-0.07,-0.95,0.29,0.12,-3.23,-2.26,299,312,221,248,215
1719,-0.07,-0.95,0.31,0.06,-3.66,-2.14,303,314,218,245,216
1720,-0.06,-0.95,0.31,0.79,-3.6,-2.62,301,310,221,244,216
1721,-0.07,-0.95,0.31,-0.06,-2.26,-2.99,300,308,221,249,214
1722,-0.07,-0.95,0.31,0.55,-2.69,-2.75,298,313,223,250,213
1723,-0.07,-0.95,0.3,-0.55,-3.17,-2.44,302,316,221,252,212
1724,-0.07,-0.95,0.3,-0.06,-2.93,-2.69,297,313,218,248,216
1725,-0.07,-0.95,0.29,0.79,-4.21,-1.89,300,309,219,245,216
1726,-0.07,-0.96,0.31,0.73,-1.22,-2.81,298,313,220,249,216
1727,-0.06,-0.95,0.3,0.55,-3.3,-2.69,299,315,218,247,216
1728,-0.07,-0.95,0.29,1.1,-2.99,-3.05,297,318,218,249,217
1729,-0.06,-0.95,0.31,-0.18,-3.54,-2.2,299,313,220,246,216
1730,-0.07,-0.95,0.3,0.73,-2.69,-1.95,299,312,222,249,214
1731,-0.06,-0.95,0.3,-0.85,-2.2,-3.97,302,313,222,249,211
1732,-0.06,-0.95,0.3,-1.83,-2.38,-3.23,297,316,217,248,217
1733,-0.06,-0.96,0.28,-1.34,-2.75,-2.69,304,315,220,244,211
1734,-0.07,-0.95,0.28,0.85,-2.32,-2.01,302,307,222,248,212
1735,-0.01,-0.94,0.27,-8.85,-0.31,-5.0,299,312,217,246,216
1736,-0.07,-0.96,0.26,2.87,-4.03,-0.61,296,308,221,257,214
1737,-0.02,-0.96,0.27,2.26,-2.62,-5.98,299,309,222,244,212
1738,-0.04,-0.97,0.27,-1.34,-2.2,-0.73,300,315,217,247,212
1739,-0.04,-0.97,0.25,-2.69,-4.82,-4.09,297,307,218,248,216
1740,-0.07,-0.97,0.26,-4.46,1.16,-2.56,300,310,222,250,214
1741,-0.07,-0.97,0.27,3.54,-6.23,3.97,301,308,225,244,226
1742,-0.06,-0.95,0.26,1.46,-6.23,-3.36,300,329,221,246,216
1743,-0.04,-0.96,0.23,-1.71,-4.46,-5.86,301,310,221,249,212
1744,-0.04,-0.97,0.24,1.53,-7.39,1.4,302,309,221,244,216
1745,-0.06,-0.97,0.24,-1.95,-5.07,-2.75,301,312,219,250,216
1746,-0.08,-0.97,0.24,1.71,-7.02,-1.04,302,308,218,250,217
1747,-0.02,-0.96,0.27,0.06,-3.36,-1.77,300,317,218,249,214
1748,-0.04,-0.97,0.27,-0.67,-2.75,-3.54,303,312,220,250,226
1749,-0.03,-0.97,0.25,2.56,-2.5,-1.22,301,312,220,248,217
1750,-0.03,-0.97,0.26,-0.31,-5.0,-2.56,298,313,224,246,214
1751,-0.0,-0.96,0.27,-2.5,-1.04,-5.68,301,311,221,251,214
1752,-0.02,-0.97,0.24,2.14,-5.13,-0.61,302,318,218,248,213
1753,-0.02,-0.96,0.28,-1.65,-1.46,-4.39,298,313,221,248,217
1754,-0.01,-0.97,0.23,0.98,-4.27,-1.77,301,310,231,248,216
1755,-0.02,-0.97,0.23,-1.59,-4.76,-2.44,300,310,217,248,215
1756,-0.02,-0.98,0.23,-1.53,-0.67,-4.15,296,312,219,247,225
1757,-0.02,-0.97,0.29,1.4,1.16,-2.69,300,313,218,264,213
1758,-0.02,-0.97,0.2,0.85,-1.28,-5.55,303,314,219,249,216
1759,0.01,-0.98,0.19,-0.37,-3.42,-2.56,301,310,219,262,215
1760,-0.02,-0.98,0.21,-0.06,-2.62,-2.62,299,315,219,250,212
1761,-0.01,-0.96,0.25,2.62,-1.71,-2.2,304,312,221,252,216
1762,-0.03,-0.98,0.2,-2.99,-2.56,0.12,312,312,221,250,219
1763,-0.02,-0.97,0.22,-0.67,-2.81,-2.38,299,314,218,253,212
1764,-0.01,-0.98,0.21,1.04,-2.62,-1.77,303,312,221,253,218
1765,-0.03,-0.97,0.23,-0.18,-1.71,-4.82,302,323,220,254,214
1766,-0.01,-0.98,0.19,3.91,-7.69,0.12,304,316,218,249,214
1767,0.01,-0.98,0.18,-0.55,-2.69,-6.35,303,317,216,251,252
1768,-0.02,-0.98,0.24,3.6,-3.17,-0.37,302,316,222,250,215
1769,-0.0,-0.97,0.25,-0.37,-1.89,-1.34,298,313,221,249,216
1770,-0.0,-0.97,0.22,-0.12,-4.09,-1.53,301,312,217,261,215
1771,-0.03,-0.97,0.22,2.08,-8.12,-3.97,300,314,219,255,217
1772,-0.04,-0.97,0.26,4.46,-1.65,0.67,300,308,218,253,218
1773,-0.01,-0.97,0.24,0.12,-4.88,-1.83,300,313,216,255,218
1774,-0.02,-0.97,0.27,2.93,-4.76,-5.25,302,315,219,249,218
1775,-0.01,-0.98,0.2,4.88,-0.98,-3.42,300,317,219,250,217
1776,-0.01,-0.97,0.24,5.92,-2.01,1.71,304,311,221,256,218
1777,-0.02,-0.97,0.21,-1.95,7.2,-0.85,296,306,219,251,215
1778,-0.07,-0.97,0.27,2.01,-0.61,-2.26,300,307,222,247,215
1779,-0.04,-0.96,0.24,1.71,-5.74,-2.08,300,310,217,250,216
1780,-0.01,-0.96,0.26,0.92,-9.4,-3.17,303,314,223,252,215
1781,-0.03,-0.96,0.27,-0.67,-3.6,-3.11,301,317,221,251,222
1782,-0.04,-0.97,0.29,3.05,-4.27,1.53,305,313,220,250,216
1783,-0.01,-0.97,0.25,0.55,-3.97,-0.85,300,306,222,245,217
1784,-0.03,-0.97,0.25,-2.87,-0.49,-5.13,301,305,222,250,217
1785,-0.0,-0.96,0.27,1.34,0.0,-3.72,303,324,222,258,216
1786,-0.03,-0.96,0.25,3.85,-3.97,-1.04,299,315,223,249,213
1787,-0.02,-0.96,0.27,-1.22,-2.75,-3.05,300,307,224,252,217
1788,-0.02,-0.96,0.28,-1.22,-6.65,-2.32,302,315,223,253,220
1789,-0.05,-0.95,0.3,0.18,-3.36,-2.69,301,308,221,251,238
1790,-0.07,-0.97,0.28,1.22,-4.33,0.06,299,315,220,253,216
1791,-0.01,-0.97,0.27,0.31,-5.43,-0.24,302,321,218,250,220
1792,-0.01,-0.96,0.27,-2.69,-0.49,-2.01,299,315,223,254,213
1793,-0.02,-0.96,0.25,1.59,-3.11,-1.16,301,313,222,253,217
1794,-0.03,-0.97,0.26,-1.95,-1.59,-3.66,302,319,222,250,213
1795,0.0,-0.97,0.24,-1.59,-3.78,-1.95,303,310,221,251,220
1796,-0.04,-0.97,0.28,4.03,3.78,-3.85,304,308,219,250,219
1797,-0.02,-0.97,0.25,0.85,-4.94,-1.53,300,306,220,249,212
1798,-0.03,-0.97,0.25,-1.16,-3.17,-3.48,300,306,217,251,218
1799,-0.02,-0.97,0.27,2.5,-3.3,-3.66,303,316,217,247,220
1800,-0.02,-0.97,0.26,-0.92,-0.37,-3.78,301,311,220,250,217
1801,-0.01,-0.97,0.27,2.32,-2.93,-3.05,303,312,223,253,217
1802,0.01,-1.0,0.23,1.34,-2.75,-0.43,316,305,220,249,214
1803,-0.01,-0.96,0.28,2.08,-1.59,-2.99,306,314,219,254,220
1804,-0.03,-0.97,0.27,-0.31,-5.19,-1.28,301,311,221,252,216
1805,0.01,-0.97,0.24,-2.56,-3.97,-5.31,305,308,230,253,215
1806,-0.0,-0.97,0.24,2.69,2.69,-3.36,305,314,221,254,218
1807,-0.03,-0.97,0.28,-2.87,0.73,-2.75,305,306,223,253,221
1808,-0.03,-0.96,0.26,2.14,-5.07,-0.79,305,312,222,252,217
1809,-0.03,-0.97,0.23,-2.08,-6.1,-4.15,304,310,220,253,217
1810,-0.04,-0.97,0.27,6.23,-0.67,-3.6,305,311,220,251,221
1811,0.0,-0.96,0.28,2.69,1.77,-3.23,304,306,220,254,217
1812,-0.02,-0.97,0.21,-1.71,-5.13,-2.56,307,312,220,253,221
1813,-0.04,-0.97,0.23,2.44,-3.48,-3.05,306,315,222,252,219
1814,-0.03,-0.97,0.24,0.49,-0.85,-6.04,304,311,219,249,217
1815,-0.02,-0.96,0.25,2.44,-5.37,-3.36,304,313,219,252,220
1816,-0.02,-0.98,0.21,-2.26,-3.11,-4.09,303,312,217,249,213
1817,-0.03,-0.98,0.22,3.91,-2.26,-1.65,302,315,221,255,219
1818,-0.02,-0.98,0.24,-0.67,-2.99,-1.83,302,313,223,254,226
1819,-0.03,-0.98,0.22,3.91,-2.2,-0.85,304,310,220,249,219
1820,-0.01,-0.97,0.24,1.77,-4.52,-2.01,303,318,221,254,218
1821,-0.01,-0.97,0.25,3.97,-3.91,-2.87,304,314,223,252,220
1822,-0.04,-0.97,0.26,-0.79,-4.52,-1.95,305,315,219,253,220
1823,-0.05,-0.97,0.27,1.1,-3.72,-2.32,306,306,223,250,218
1824,-0.05,-0.96,0.29,1.59,-3.85,-1.65,303,309,221,251,219
1825,-0.03,-0.97,0.26,-1.53,-2.5,-4.64,301,310,223,254,219
1826,-0.01,-0.97,0.25,-0.67,-4.94,-1.71,295,311,221,257,220
1827,-0.06,-0.97,0.27,-3.05,-1.89,-3.36,304,311,224,252,218
1828,-0.03,-0.97,0.27,0.98,-3.78,-2.08,306,312,224,254,222
1829,-0.0,-0.96,0.25,4.15,-3.17,-0.98,304,314,222,252,222
1830,-0.03,-0.96,0.3,3.66,-2.69,-2.62,307,312,222,254,217
1831,-0.02,-0.96,0.29,-1.16,-2.32,-1.59,305,312,228,256,220
1832,-0.01,-0.96,0.27,0.24,-4.82,-0.73,306,310,220,252,219
1833,-0.02,-0.96,0.27,0.55,-3.3,-2.44,305,315,221,253,217
1834,-0.03,-0.96,0.29,-0.67,-2.93,-2.38,306,307,223,254,218
1835,-0.02,-0.96,0.27,1.16,-4.21,-1.65,308,311,219,253,217
1836,-0.03,-0.96,0.27,1.83,-3.6,-2.56,306,315,221,254,218
1837,-0.02,-0.96,0.27,0.37,-2.56,-2.62,306,316,224,256,220
1838,-0.02,-0.95,0.3,-3.3,-2.32,-5.19,306,305,221,257,219
1839,-0.02,-0.96,0.28,0.0,-2.62,-3.05,306,311,224,256,220
1840,-0.03,-0.96,0.28,0.24,-2.56,-2.62,301,310,221,254,221
1841,-0.04,-0.95,0.33,-0.37,-1.16,-2.69,307,311,218,251,218
1842,-0.03,-0.96,0.29,0.0,-3.05,-3.54,306,311,224,254,221
1843,-0.02,-0.96,0.27,2.2,-3.3,-1.71,308,311,224,257,219
1844,-0.02,-0.96,0.27,-0.43,-1.22,-2.26,307,305,219,255,218
1845,-0.02,-0.96,0.29,3.42,-2.99,-1.89,303,305,220,252,219
1846,-0.05,-0.96,0.29,-0.37,-2.44,-4.33,302,316,218,256,220
1847,-0.03,-0.96,0.3,-0.49,-3.91,-1.59,307,312,221,254,222
1848,-0.02,-0.96,0.25,-0.67,-3.85,-2.81,308,305,222,255,219
1849,-0.03,-0.96,0.27,-0.43,0.49,-5.55,307,311,219,254,218
1850,-0.01,-0.96,0.26,1.22,-2.44,-1.04,306,306,221,257,219
1851,-0.02,-0.96,0.26,-3.3,18.43,-4.52,304,310,216,248,218
1852,-0.04,-0.96,0.27,-1.34,-5.19,-3.42,304,310,218,242,214
1853,-0.03,-0.97,0.28,-1.89,-3.78,-5.07,305,321,222,246,218
1854,-0.02,-0.96,0.26,1.83,-2.01,-1.77,306,314,222,255,217
1855,-0.05,-0.96,0.27,0.85,-1.59,-4.27,308,318,219,251,256
1856,-0.02,-0.96,0.28,-0.37,-3.05,-2.93,307,317,221,247,217
1857,-0.03,-0.96,0.27,0.37,-4.03,-3.17,307,313,219,252,218
1858,-0.02,-0.97,0.27,-0.49,-3.11,-2.26,307,308,221,253,217
1859,-0.04,-0.96,0.26,0.24,-3.97,-1.22,306,312,223,249,219
1860,-0.03,-0.97,0.26,0.06,-3.78,-2.56,307,312,220,250,220
1861,-0.03,-0.97,0.25,0.79,-3.05,-2.32,305,309,222,249,217
1862,-0.03,-0.97,0.27,-0.12,-3.42,-2.14,307,315,221,252,216
1863,-0.04,-0.97,0.26,-0.67,-3.72,-2.99,306,313,220,248,216
1864,-0.03,-0.97,0.27,-0.18,-3.3,-2.5,305,318,220,253,217
1865,-0.03,-0.96,0.26,1.77,-3.36,-2.32,306,316,220,252,219
1866,-0.04,-0.97,0.26,0.49,-3.17,-2.14,307,310,218,251,218
1867,-0.05,-0.97,0.26,-1.1,-2.87,-4.15,305,317,220,253,215
1868,-0.03,-0.96,0.26,0.55,-2.44,-3.36,304,315,224,253,216
1869,-0.04,-0.96,0.28,-0.31,-2.44,-2.93,302,318,224,252,221
1870,-0.04,-0.96,0.27,-1.71,-3.17,-2.32,303,311,219,251,219
1871,-0.04,-0.96,0.26,1.83,-4.03,-1.65,316,311,222,254,218
1872,-0.03,-0.96,0.26,0.31,-2.01,-2.75,308,316,220,252,218
1873,-0.04,-0.97,0.25,0.31,-3.54,-2.87,308,315,224,254,220
1874,-0.04,-0.97,0.26,-0.37,-3.36,-3.11,305,318,221,254,219
1875,-0.03,-0.97,0.25,0.67,-2.5,-2.56,314,315,224,250,220
1876,-0.04,-0.97,0.26,1.46,-2.93,-1.71,306,317,226,252,214
1877,-0.04,-0.97,0.25,0.98,-2.81,-2.81,306,320,223,252,220
1878,-0.04,-0.97,0.26,0.85,-3.72,-2.38,307,319,220,252,221
1879,-0.04,-0.97,0.25,0.0,-3.66,-1.34,306,316,223,251,219
1880,-0.03,-0.96,0.26,-0.24,-2.69,-2.56,306,314,224,254,220
1881,-0.03,-0.97,0.25,-0.06,-3.05,-2.26,309,314,221,255,218
1882,-0.03,-0.97,0.25,-1.28,-3.17,-2.62,308,314,220,253,216
1883,-0.04,-0.96,0.27,0.55,-3.6,-2.08,304,318,223,253,220
1884,-0.04,-0.96,0.26,0.49,-3.3,-2.26,306,314,223,252,213
1885,-0.05,-0.96,0.26,1.16,-2.75,-2.56,308,320,222,263,216
1886,-0.03,-0.96,0.26,1.04,-3.11,-2.62,306,314,222,253,217
1887,-0.04,-0.97,0.25,1.59,-7.02,-0.73,308,314,223,255,221
1888,-0.05,-0.96,0.28,9.52,-4.94,1.4,308,313,224,252,218
1889,-0.04,-0.96,0.26,-0.31,-1.95,-2.26,310,320,226,254,217
1890,-0.04,-0.96,0.26,0.92,-1.53,-1.83,309,315,222,254,220
1891,-0.04,-0.96,0.27,0.49,-2.69,-1.65,308,315,226,256,222
1892,-0.04,-0.96,0.27,0.67,-1.22,-2.44,308,332,222,258,219
1893,-0.04,-0.96,0.26,0.31,-2.81,-3.05,312,325,227,254,216
1894,-0.04,-0.96,0.26,-0.18,-2.87,-2.38,309,328,224,254,222
1895,-0.05,-0.96,0.27,0.06,-4.15,-2.81,308,330,223,255,222
1896,-0.04,-0.96,0.27,1.28,-2.01,-3.66,301,330,223,256,227
1897,-0.04,-0.96,0.28,1.4,-3.36,-2.38,308,325,228,255,219
1898,-0.03,-0.96,0.26,-0.85,-3.11,-2.26,311,326,222,252,218
1899,-0.04,-0.95,0.29,3.05,-1.59,-2.08,309,326,223,257,219
1900,-0.04,-0.96,0.28,0.37,-2.75,-3.54,307,331,222,255,222
1901,-0.04,-0.96,0.27,0.24,-3.48,-1.53,306,321,221,258,220
1902,-0.04,-0.96,0.28,0.79,-2.56,-2.26,310,326,227,258,219
1903,-0.04,-0.96,0.28,0.73,-3.42,-2.08,311,322,235,255,222
1904,-0.05,-0.96,0.28,1.34,-4.27,-2.2,306,335,226,261,222
1905,-0.04,-0.96,0.3,-0.49,-2.99,-3.05,309,330,220,258,218
1906,-0.04,-0.96,0.28,-0.55,-1.34,-2.69,308,326,227,253,220
1907,-0.06,-0.96,0.25,-9.28,-3.23,-4.58,305,325,226,256,219
1908,-0.06,-0.96,0.3,2.75,-2.62,-0.49,307,322,226,255,220
1909,-0.05,-0.97,0.23,0.73,-3.42,-4.33,307,325,227,257,220
1910,0.01,-0.96,0.22,-0.61,-2.26,-5.62,307,322,226,255,221
1911,-0.04,-0.97,0.23,-1.1,-0.24,-2.38,310,327,222,259,223
1912,-0.05,-0.97,0.22,-6.35,-3.91,-3.91,307,330,225,256,218
1913,-0.01,-0.98,0.22,-0.55,-4.94,-3.48,306,328,221,256,221
1914,0.02,-0.97,0.25,0.0,-4.15,0.24,308,332,226,259,220
1915,-0.02,-0.99,0.15,7.26,-2.38,4.52,310,328,227,255,222
1916,-0.04,-0.98,0.22,-3.17,-2.32,-1.71,305,331,223,259,220
1917,-0.05,-0.93,0.15,-26.73,-14.83,4.76,308,325,223,255,220
1918,-0.05,-1.0,0.09,4.52,-1.04,-5.0,307,326,222,256,214
1919,-0.03,-1.01,0.07,5.92,-3.91,-2.5,304,327,221,254,221
1920,-0.03,-0.99,0.1,-0.85,-1.71,-3.54,308,325,221,258,220
1921,-0.03,-0.99,0.15,9.22,0.85,-3.54,310,324,222,255,213
1922,-0.05,-0.99,0.16,1.83,-3.23,-3.6,308,321,221,256,219
1923,-0.03,-0.99,0.14,2.44,-5.31,-0.98,308,318,225,258,217
1924,-0.0,-0.97,0.19,5.92,-2.75,-4.58,305,320,218,261,223
1925,0.04,-0.97,0.16,-2.26,-0.37,-8.48,307,315,222,259,218
1926,-0.02,-0.99,0.16,-0.49,-1.89,-2.14,307,317,220,256,219
1927,-0.01,-0.98,0.17,-0.92,-0.79,-4.64,302,317,224,257,219
1928,-0.02,-0.98,0.18,0.12,-2.75,-1.89,309,318,234,262,220
1929,-0.01,-0.98,0.17,1.28,-5.43,-0.31,307,313,220,256,227
1930,-0.01,-0.98,0.17,-2.87,-4.88,-2.5,304,317,221,257,218
1931,-0.02,-0.99,0.17,-0.18,-2.99,0.24,308,322,220,256,218
1932,-0.03,-0.98,0.18,0.37,-3.6,-3.48,308,324,220,256,221
1933,-0.0,-0.98,0.19,0.92,-3.17,-1.95,308,323,219,255,222
1934,-0.01,-0.98,0.17,1.22,-1.95,-3.85,308,320,224,264,216
1935,-0.03,-0.98,0.18,-1.28,-2.38,-3.91,310,320,220,256,219
1936,-0.01,-0.98,0.19,-0.37,-3.23,-3.3,310,320,225,258,222
1937,-0.0,-0.98,0.19,-0.18,-1.77,-2.75,307,316,222,256,219
1938,-0.02,-0.98,0.18,0.12,-4.7,-1.46,306,334,221,255,221
1939,-0.01,-0.98,0.18,-3.72,-2.01,-4.39,308,324,223,257,221
1940,-0.01,-0.98,0.16,0.92,-4.46,-2.08,308,318,220,258,211
1941,-0.06,-1.0,0.17,-0.24,7.75,-2.14,307,326,221,260,220
1942,-0.01,-0.98,0.17,0.12,-1.71,-2.38,308,318,220,258,222
1943,-0.02,-0.98,0.18,0.18,-3.36,-2.32,308,322,221,260,222
1944,-0.02,-0.98,0.15,-0.49,-2.75,-2.69,310,325,221,257,219
1945,-0.03,-0.99,0.17,4.21,1.1,-3.36,307,322,219,259,221
1946,-0.04,-0.98,0.19,1.04,-1.28,-2.38,307,323,221,256,216
1947,-0.02,-0.98,0.18,2.08,-1.59,-2.26,306,323,222,251,215
1948,-0.04,-0.97,0.18,0.31,-2.56,-3.11,307,330,220,255,215
1949,-0.03,-0.98,0.18,0.49,-3.54,-2.38,303,332,225,253,221
1950,-0.03,-0.98,0.2,1.59,-3.85,-2.81,303,333,223,253,222
1951,-0.04,-0.98,0.19,0.37,-4.21,-2.5,303,328,223,259,220
1952,-0.03,-0.98,0.2,0.43,-2.32,-2.69,304,330,227,259,221
1953,-0.02,-0.98,0.18,0.12,-3.78,-2.32,306,332,221,255,221
1954,-0.04,-0.98,0.17,0.61,-2.81,-2.01,306,329,222,258,221
1955,-0.03,-0.98,0.19,1.28,-2.75,-1.53,304,329,222,255,219
1956,-0.05,-0.98,0.19,-1.65,-3.36,-2.38,305,331,220,253,221
1957,-0.06,-0.98,0.19,0.37,-4.76,-2.5,305,329,226,251,220
1958,-0.04,-0.98,0.18,1.65,-4.09,-2.44,301,334,221,259,215
1959,-0.04,-0.98,0.18,0.12,-2.81,-2.38,307,330,220,260,224
1960,-0.03,-0.98,0.19,0.55,-3.6,-3.48,306,326,223,255,222
1961,-0.04,-0.98,0.19,0.49,-2.44,-2.44,306,330,222,257,222
1962,-0.04,-0.98,0.19,0.55,-2.99,-2.26,307,335,226,257,217
1963,-0.04,-0.98,0.18,-0.98,-2.32,-2.99,307,334,223,261,222
1964,-0.03,-0.98,0.17,1.89,-3.97,-2.01,307,332,227,257,224
1965,-0.04,-0.98,0.18,-0.31,-2.5,-2.93,307,330,229,257,218
1966,-0.03,-0.98,0.18,0.49,-4.27,-1.04,306,325,224,259,217
1967,-0.04,-0.98,0.18,2.75,-4.21,-2.2,306,329,220,257,221
1968,-0.04,-0.98,0.19,0.79,-2.5,-2.62,307,332,226,260,220
1969,-0.04,-0.98,0.2,0.0,-2.75,-2.56,308,331,226,258,224
1970,-0.03,-0.98,0.17,-0.18,-4.03,-2.01,307,331,225,258,220
1971,0.0,-0.97,0.17,0.37,-2.62,-3.72,306,329,224,256,222
1972,-0.04,-0.98,0.19,-2.38,-0.55,-4.88,307,330,225,259,221
1973,-0.05,-0.98,0.18,1.4,-3.78,-1.53,308,328,224,259,222
1974,-0.04,-0.98,0.19,0.79,-3.6,-2.38,306,334,227,261,222
1975,-0.04,-0.98,0.19,0.43,-3.97,-2.38,309,326,224,258,220
1976,-0.06,-0.98,0.2,0.24,-1.89,-2.56,307,330,226,258,223
1977,-0.06,-0.98,0.2,-0.98,-3.97,-3.54,308,328,224,259,223
1978,-0.03,-0.98,0.17,-1.71,-2.5,-3.42,309,334,224,260,218
1979,-0.05,-0.98,0.19,0.73,-2.14,-1.95,306,325,224,259,220
1980,-0.05,-0.98,0.21,-1.1,-4.94,-2.81,305,327,227,260,228
1981,-0.04,-0.98,0.19,0.73,-3.85,-3.11,304,326,227,259,221
1982,-0.04,-0.98,0.19,1.1,-4.7,-1.46,306,332,226,258,226
1983,-0.03,-0.98,0.18,2.2,-3.78,-1.4,305,339,225,258,220
1984,-0.04,-0.98,0.19,2.5,-5.68,-2.14,312,329,227,259,223
1985,-0.04,-0.98,0.18,0.61,-2.5,-2.26,306,328,225,259,220
1986,-0.04,-0.98,0.18,-0.79,-1.46,-2.01,309,333,234,260,222
1987,-0.04,-0.98,0.19,-0.31,-2.2,-2.69,306,328,225,257,222
1988,-0.04,-0.98,0.18,0.73,-3.72,-2.32,306,327,224,261,221
1989,-0.05,-0.98,0.18,-0.18,-2.93,-2.5,307,329,226,256,231
1990,-0.04,-0.98,0.17,0.18,-3.3,-2.69,308,334,228,259,226
1991,-0.05,-0.98,0.18,-0.18,-2.56,-3.05,303,325,227,259,223
1992,-0.05,-0.98,0.19,-0.73,0.67,-3.11,310,330,228,259,223
1993,-0.05,-0.98,0.17,0.06,-2.75,-2.38,307,331,229,258,221
1994,-0.05,-0.98,0.18,-0.12,-2.62,-2.2,308,325,226,256,220
1995,-0.04,-0.98,0.16,-0.98,-1.4,-3.23,308,335,228,262,220
1996,-0.06,-1.0,0.19,-1.65,-0.49,-2.2,303,326,226,256,222
1997,-0.02,-0.98,0.13,-8.3,-5.98,-6.59,304,334,228,259,222
1998,-0.0,-0.98,0.13,2.44,-2.93,-1.4,307,332,225,261,221
1999,0.0,-0.98,0.19,-3.66,-0.85,-5.68,303,326,225,262,219
2000,-0.01,-0.99,0.16,-1.1,-1.65,-2.69,307,328,224,262,223
2001,-0.02,-0.98,0.16,1.22,-2.87,-1.46,306,332,230,262,220
2002,-0.02,-0.98,0.16,1.34,-3.11,-2.01,307,330,223,263,221
2003,-0.03,-0.98,0.17,0.55,-3.36,-1.65,307,331,226,261,222
2004,-0.03,-0.99,0.18,0.12,-2.26,-2.5,306,330,222,261,224
2005,-0.03,-0.99,0.15,1.22,-4.76,-0.79,306,332,227,256,222
2006,0.0,-0.98,0.15,1.1,-3.6,-1.89,307,335,226,259,223
2007,-0.02,-0.99,0.15,0.31,-2.62,-2.87,304,327,227,260,221
