,aX,aY,aZ,gX,gY,gZ,little,ring,middle,index,thumb
0,-0.17,-0.97,0.15,0.73,-4.03,-2.14,349,318,269,429,464
1,-0.17,-0.97,0.15,0.85,-2.87,-3.05,348,318,269,432,462
2,-0.17,-0.97,0.15,1.34,-2.62,-2.01,345,318,266,433,463
3,-0.17,-0.97,0.15,1.89,-2.38,-2.62,349,321,266,432,482
4,-0.17,-0.97,0.15,-0.61,-2.99,-1.65,351,318,267,431,460
5,-0.18,-0.97,0.15,-0.79,-2.01,-2.14,351,315,273,430,463
6,-0.17,-0.97,0.16,0.12,-3.11,-3.48,348,323,271,431,460
7,-0.18,-0.97,0.15,0.85,-3.97,-2.32,349,318,282,431,461
8,-0.17,-0.97,0.15,0.18,-2.69,-3.05,349,318,270,430,458
9,-0.15,-0.97,0.15,1.46,-3.72,-2.99,349,315,272,430,462
10,-0.17,-0.97,0.17,0.85,-3.54,-2.5,349,315,268,431,463
11,-0.17,-0.97,0.16,0.06,-3.42,-2.56,350,318,271,429,458
12,-0.15,-0.96,0.17,0.92,-4.76,-2.44,350,320,269,430,459
13,-0.17,-0.97,0.17,-0.73,-3.48,-2.87,348,324,273,427,458
14,-0.17,-0.97,0.17,-0.24,-3.6,-2.08,349,326,269,427,461
15,-0.17,-0.97,0.17,-0.67,-2.87,-3.05,350,325,269,427,456
16,-0.16,-0.97,0.15,0.0,-2.99,-2.93,352,325,269,426,473
17,-0.17,-0.96,0.17,-1.65,-0.31,-2.87,349,321,269,429,497
18,-0.17,-0.99,0.16,-4.7,-0.31,-2.56,351,324,272,425,459
19,-0.17,-0.97,0.16,-0.18,-2.14,-2.01,350,323,272,426,455
20,-0.18,-0.97,0.14,-1.83,-0.43,-3.17,351,323,270,426,463
21,-0.17,-0.97,0.12,-1.89,-0.67,-2.75,349,325,271,424,459
22,-0.19,-0.98,0.18,-1.46,-9.28,-3.11,346,327,276,425,453
23,-0.15,-0.97,0.09,4.58,-4.39,-2.69,348,323,272,420,455
24,-0.14,-0.97,0.15,1.65,-1.59,-2.75,351,318,271,419,454
25,-0.14,-0.98,0.14,0.55,-3.6,-2.38,352,324,273,426,455
26,-0.15,-0.97,0.16,1.59,-3.42,-1.65,345,324,272,426,455
27,-0.15,-0.98,0.16,-1.46,-4.03,-3.3,351,321,274,419,452
28,-0.14,-0.98,0.17,1.71,-3.78,-2.99,348,323,277,422,453
29,-0.13,-0.97,0.16,0.37,-2.87,-2.32,349,321,274,423,457
30,-0.15,-0.97,0.15,-0.31,-2.62,-2.87,347,327,274,423,458
31,-0.13,-0.97,0.13,-0.43,-2.26,-1.59,349,325,271,422,459
32,-0.13,-0.98,0.17,-4.33,-1.53,-0.98,347,324,273,425,458
33,-0.15,-0.97,0.07,-12.7,1.53,-6.77,343,326,270,421,456
34,-0.1,-0.99,0.06,-4.64,-10.31,1.53,344,329,276,419,457
35,-0.15,-0.98,-0.0,-0.67,-7.87,9.64,344,328,274,414,453
36,-0.15,-0.97,0.03,0.31,-22.09,-4.15,350,325,274,418,465
37,-0.13,-0.98,0.1,4.46,-7.69,-3.78,350,322,274,415,453
38,-0.15,-0.98,0.13,3.97,-4.88,-5.19,348,325,286,418,458
39,-0.14,-0.98,0.16,1.4,-1.71,-3.6,349,321,274,415,451
40,-0.14,-0.97,0.1,1.34,-5.31,-3.72,349,326,270,419,450
41,-0.14,-0.97,0.11,-3.97,-0.43,-2.75,350,332,273,417,453
42,-0.13,-0.98,0.14,-0.43,3.36,-5.55,348,327,275,421,450
43,-0.16,-0.99,0.1,-0.49,-2.44,1.89,352,329,274,418,444
44,-0.15,-0.98,0.11,1.34,-2.38,2.81,347,326,271,416,452
45,-0.12,-0.98,0.09,6.1,-7.63,-2.5,349,328,272,416,451
46,-0.15,-0.98,0.1,0.0,-4.64,-2.08,351,322,273,416,453
47,-0.15,-0.98,0.1,2.44,-2.5,-3.11,349,331,273,413,452
48,-0.15,-0.98,0.09,1.71,-1.53,-2.38,346,328,278,416,454
49,-0.15,-0.98,0.1,1.4,-3.6,-2.2,348,325,274,422,450
50,-0.16,-0.98,0.11,0.73,-2.08,-1.77,344,327,277,418,451
51,-0.14,-0.98,0.09,-1.28,-7.81,0.31,346,333,272,414,450
52,-0.16,-0.98,0.1,-0.49,-3.97,-2.01,347,328,275,417,449
53,-0.16,-0.98,0.11,0.79,-3.72,-2.62,348,329,275,416,450
54,-0.15,-0.98,0.1,1.77,-4.09,-1.83,344,326,276,415,450
55,-0.17,-0.98,0.11,1.53,-2.81,-1.65,343,328,273,415,452
56,-0.16,-0.98,0.11,-0.85,-2.44,-2.99,346,323,276,414,444
57,-0.15,-0.98,0.1,0.18,-3.17,-2.75,347,327,273,415,448
58,-0.14,-0.97,0.1,-0.85,5.37,-3.72,344,333,272,418,449
59,-0.17,-0.98,0.03,-2.87,-7.81,-5.31,349,327,272,415,444
60,-0.12,-0.98,0.08,-8.48,5.55,2.2,347,327,280,416,443
61,-0.1,-0.99,0.06,-5.0,-5.37,-2.62,347,330,274,417,434
62,-0.13,-0.99,0.04,-0.12,-2.01,-4.33,346,323,276,413,441
63,-0.13,-0.99,0.03,1.77,1.04,-4.46,346,332,275,415,444
64,-0.13,-0.99,0.04,3.3,-0.37,-0.37,349,332,273,411,443
65,-0.13,-0.98,0.09,5.25,-2.62,-2.69,348,328,275,415,441
66,-0.13,-0.98,0.09,0.55,-2.56,-2.69,345,328,275,414,439
67,-0.14,-0.98,0.08,-0.73,-3.48,-2.01,345,330,276,415,437
68,-0.14,-0.98,0.05,1.16,-2.62,-1.89,346,331,276,414,443
69,-0.15,-0.98,0.08,0.73,-3.6,-2.14,346,328,273,411,443
70,-0.14,-0.99,0.09,-0.18,-2.62,-2.44,348,328,273,411,439
71,-0.14,-0.98,0.08,1.95,-3.66,-2.62,347,325,274,413,437
72,-0.14,-0.98,0.1,0.61,-3.23,-2.14,346,328,271,413,440
73,-0.14,-0.99,0.09,-0.85,-3.6,-2.99,345,329,272,410,443
74,-0.13,-0.99,0.1,0.24,-3.3,-2.69,346,330,274,411,442
75,-0.13,-0.98,0.07,0.24,-3.17,-1.4,347,330,273,409,439
76,-0.13,-0.98,0.07,-0.24,-3.48,-2.44,348,335,273,410,443
77,-0.14,-0.98,0.07,-1.16,-2.69,-2.2,347,329,275,414,441
78,-0.14,-0.98,0.08,0.92,-4.03,-2.56,344,327,275,411,442
79,-0.14,-0.98,0.06,1.77,-2.08,-2.32,348,337,273,414,441
80,-0.13,-0.98,0.07,1.34,-3.85,-2.93,348,330,271,413,437
81,-0.14,-0.98,0.08,1.95,-2.44,-2.69,344,328,274,410,441
82,-0.13,-0.98,0.09,1.4,-3.66,-2.56,345,332,273,408,442
83,-0.14,-0.98,0.09,0.0,-3.3,-2.56,348,331,273,413,440
84,-0.14,-0.98,0.08,1.34,-3.78,-3.05,346,338,277,411,442
85,-0.14,-0.98,0.08,1.77,-3.11,-2.2,348,330,280,410,439
86,-0.14,-0.98,0.09,1.04,-3.42,-2.38,344,334,270,411,443
87,-0.14,-0.98,0.1,0.24,-3.42,-2.62,344,336,271,411,443
88,-0.15,-0.98,0.1,-0.37,-3.66,-2.08,346,335,272,410,442
89,-0.13,-0.98,0.09,0.12,-3.48,-2.99,346,332,272,411,448
90,-0.15,-0.98,0.1,-0.12,-3.23,-2.99,349,343,273,410,441
91,-0.14,-0.98,0.1,0.55,-3.17,-2.2,346,335,271,411,440
92,-0.14,-0.98,0.11,0.49,-2.69,-2.99,348,326,276,412,441
93,-0.15,-0.98,0.11,1.22,-3.54,-1.83,346,333,273,410,434
94,-0.14,-0.98,0.09,0.49,-2.81,-2.99,346,332,276,409,440
95,-0.15,-0.98,0.12,0.18,-3.23,-1.4,348,332,274,410,438
96,-0.15,-0.98,0.11,1.53,-3.11,-2.26,346,331,271,406,468
97,-0.15,-0.97,0.09,0.61,-2.75,-3.05,345,327,278,410,437
98,-0.14,-0.98,0.1,0.67,-3.23,-2.44,349,335,272,412,439
99,-0.14,-0.98,0.11,0.79,-2.38,-2.87,347,331,276,409,437
100,-0.13,-0.99,0.13,0.37,-2.87,-2.08,346,332,269,407,437
101,-0.14,-0.98,0.1,0.55,-3.17,-2.62,349,336,271,409,439
102,-0.14,-0.98,0.13,2.01,-3.54,-2.01,345,332,273,411,440
103,-0.14,-0.98,0.12,-0.24,-2.01,-2.75,345,332,271,410,437
104,-0.15,-0.98,0.11,0.85,-1.4,-2.5,347,334,273,409,438
105,-0.15,-0.98,0.11,0.98,-3.97,-2.2,350,330,272,412,439
106,-0.15,-0.98,0.11,-0.37,-2.87,-2.69,343,331,272,408,438
107,-0.15,-0.98,0.11,-0.24,-3.23,-3.05,350,332,272,408,438
108,-0.13,-0.98,0.11,1.89,-3.23,-2.44,344,332,273,411,438
109,-0.15,-0.98,0.12,1.95,-2.93,-1.04,345,335,276,411,434
110,-0.15,-0.98,0.13,1.46,-2.99,-2.14,347,336,273,407,439
111,-0.15,-0.98,0.11,-1.1,-3.05,-2.26,346,337,274,409,438
112,-0.15,-0.98,0.11,-1.4,-2.62,-2.69,348,333,272,409,438
113,-0.16,-0.98,0.13,-2.87,-1.53,-4.27,347,337,271,407,436
114,-0.14,-0.98,0.12,1.4,-2.38,-3.05,349,334,276,412,436
115,-0.13,-0.98,0.17,3.48,-4.27,-1.4,346,329,273,406,437
116,-0.14,-0.98,0.13,-1.16,-1.65,-3.05,354,331,274,413,437
117,-0.15,-0.97,0.15,1.89,-0.79,-3.66,343,336,268,407,427
118,-0.14,-0.98,0.13,0.92,-2.75,-2.01,346,334,271,410,437
119,-0.13,-0.98,0.13,4.15,-4.58,-1.65,348,336,271,411,438
120,-0.14,-0.98,0.14,-1.71,-3.6,-2.14,346,341,268,409,436
121,-0.14,-0.98,0.14,0.37,-2.14,-3.72,346,337,271,409,440
122,-0.16,-0.98,0.11,-0.73,-0.12,-5.19,346,337,267,413,436
123,-0.11,-0.98,0.11,0.73,-2.08,-2.26,346,336,269,405,435
124,-0.1,-1.0,0.06,-6.35,0.31,-1.1,347,339,269,408,437
125,-0.11,-0.97,0.05,-8.91,1.16,-4.76,344,335,269,403,437
126,-0.14,-0.99,0.05,4.82,-3.78,-2.62,340,335,272,403,430
127,-0.15,-0.98,0.08,0.24,-1.53,-1.34,345,336,274,404,427
128,-0.15,-0.98,0.05,-2.32,-1.89,-3.6,344,331,272,405,428
129,-0.14,-0.98,0.05,1.89,-2.99,-3.17,344,335,272,405,431
130,-0.14,-0.98,0.05,1.77,-3.36,-1.59,345,340,272,406,433
131,-0.15,-0.98,0.07,0.12,-3.91,-1.22,344,332,275,402,432
132,-0.15,-0.98,0.09,2.99,-3.72,-3.23,344,346,270,400,431
133,-0.16,-0.98,0.09,-0.79,-1.4,-1.95,344,336,274,403,433
134,-0.16,-0.98,0.08,-1.28,-2.87,-2.5,343,332,268,404,430
135,-0.15,-0.98,0.09,1.53,-2.08,-2.32,345,339,273,405,432
136,-0.16,-0.98,0.07,-0.06,-3.42,-3.05,346,337,274,403,429
137,-0.15,-0.98,0.08,0.31,-2.99,-3.11,343,337,272,400,431
138,-0.15,-0.98,0.09,0.67,-3.6,-2.87,343,340,271,404,437
139,-0.14,-0.98,0.08,1.53,-3.3,-2.26,339,340,270,409,432
140,-0.17,-0.98,0.09,0.73,-2.93,-2.99,344,332,272,407,432
141,-0.17,-0.98,0.08,1.89,-3.6,-3.3,344,340,269,404,431
142,-0.17,-0.98,0.09,0.79,-3.11,-1.77,344,336,278,404,431
143,-0.16,-0.98,0.08,0.98,-1.16,-3.72,342,337,272,406,432
144,-0.16,-0.98,0.08,-0.49,-3.48,-2.44,343,336,271,403,432
145,-0.17,-0.98,0.1,1.83,-2.81,-2.38,341,339,274,409,428
146,-0.16,-0.98,0.12,-1.16,-4.27,-2.26,346,336,277,404,430
147,-0.16,-0.98,0.11,-0.18,-3.23,-2.93,343,336,270,405,433
148,-0.17,-0.98,0.1,0.49,-2.26,-1.83,345,336,274,404,429
149,-0.16,-0.98,0.12,0.92,-3.42,-1.59,340,334,276,408,431
150,-0.14,-0.97,0.07,0.61,-4.52,-4.03,343,341,271,405,427
151,-0.17,-0.97,0.1,-0.24,-1.22,-1.83,340,337,270,401,433
152,-0.17,-0.98,0.1,0.31,-3.72,-2.87,341,339,272,406,431
153,-0.17,-0.98,0.11,-0.06,-3.66,-1.89,344,332,277,407,430
154,-0.17,-0.98,0.1,0.31,-3.42,-2.38,339,341,270,406,430
155,-0.18,-0.98,0.1,0.18,-3.85,-2.69,342,332,274,403,438
156,-0.16,-0.98,0.11,0.49,-2.93,-1.83,343,339,272,403,427
157,-0.16,-0.98,0.12,0.24,-2.75,-2.62,344,338,274,406,430
158,-0.17,-0.97,0.11,0.12,-2.44,-2.81,340,342,269,403,427
159,-0.17,-0.97,0.11,-1.34,-1.16,-3.72,343,340,272,405,428
160,-0.17,-0.98,0.12,0.67,-3.97,-2.99,341,337,275,403,426
161,-0.18,-0.98,0.12,0.12,-3.72,-2.99,344,338,270,408,429
162,-0.18,-0.97,0.11,2.75,-6.23,-2.2,345,339,273,404,432
163,-0.16,-0.98,0.1,0.24,-1.83,-2.56,346,337,273,404,429
164,-0.18,-0.98,0.11,0.37,-2.75,-2.44,343,336,275,403,432
165,-0.16,-0.98,0.12,0.18,-2.26,-1.77,346,335,279,403,429
166,-0.15,-0.97,0.1,-0.61,-1.28,-2.87,347,336,274,404,443
167,-0.16,-0.97,0.11,0.73,-2.62,-2.26,343,333,270,404,428
168,-0.18,-0.97,0.12,0.73,-3.78,-2.01,338,338,270,405,428
169,-0.18,-0.97,0.12,0.0,-2.56,-2.99,343,339,271,404,426
170,-0.18,-0.97,0.11,-0.92,-2.75,-2.75,342,341,272,402,437
171,-0.17,-0.97,0.12,0.92,-2.75,-2.5,345,337,275,404,430
172,-0.16,-0.98,0.14,-0.24,-2.56,-3.42,341,332,274,403,429
173,-0.17,-0.97,0.13,1.22,-2.99,-2.2,344,332,276,405,430
174,-0.16,-0.97,0.13,0.31,-2.32,-2.87,346,338,275,404,424
175,-0.15,-0.98,0.14,4.15,-4.03,-1.65,344,340,267,405,428
176,-0.16,-0.97,0.13,1.34,-3.66,-2.08,343,340,269,406,428
177,-0.17,-0.98,0.16,2.81,-2.62,-1.71,344,337,271,404,426
178,-0.17,-0.97,0.14,-0.79,-3.36,-2.87,340,338,275,404,441
179,-0.18,-0.97,0.14,-0.18,-3.3,-2.08,341,341,270,403,429
180,-0.16,-0.97,0.15,0.43,-1.4,-2.32,341,341,272,400,429
181,-0.18,-0.97,0.15,-0.67,-2.01,-2.93,338,332,270,399,429
182,-0.17,-0.97,0.14,-0.31,-1.28,-3.05,340,339,269,404,428
183,-0.17,-0.97,0.13,1.1,-2.69,-2.38,337,333,275,404,430
184,-0.16,-0.97,0.12,1.89,-3.42,-1.83,339,340,275,402,429
185,-0.17,-0.97,0.13,0.18,-3.11,-2.69,334,338,270,407,430
186,-0.15,-0.98,0.14,0.85,-1.34,-2.2,325,335,274,404,430
187,-0.17,-0.97,0.14,-0.61,-2.81,-2.56,332,344,274,400,428
188,-0.16,-0.97,0.13,-1.16,-0.92,-2.44,330,337,272,400,429
189,-0.16,-0.97,0.11,-1.53,-2.26,-2.93,330,333,274,397,427
190,-0.16,-0.97,0.13,1.53,-3.05,-2.81,330,334,276,405,428
191,-0.15,-0.97,0.14,-0.55,-3.17,-2.93,330,333,276,401,424
192,-0.15,-0.97,0.13,-1.59,-1.95,-2.99,330,337,271,403,429
193,-0.16,-0.98,0.14,0.12,-2.75,-2.14,331,333,271,401,424
194,-0.17,-0.97,0.13,2.08,-2.32,-2.14,333,335,270,401,428
195,-0.2,-0.97,0.13,-2.32,13.0,1.59,328,338,271,401,427
196,-0.18,-0.98,0.12,-8.0,-9.16,-3.66,331,337,278,403,426
197,-0.14,-0.96,-0.06,-9.09,-3.85,-3.91,335,337,312,410,397
198,-0.11,-1.0,-0.09,-13.43,3.72,-6.29,333,337,316,415,398
199,-0.17,-0.95,-0.07,6.53,-0.79,-1.95,339,333,308,416,419
200,-0.17,-0.97,-0.09,3.48,-2.2,-1.77,333,328,326,431,432
201,-0.17,-0.97,-0.07,1.16,-2.93,-0.73,333,329,323,431,433
202,-0.19,-0.96,-0.06,3.97,-1.53,-2.93,336,332,318,426,433
203,-0.17,-0.98,-0.04,0.43,-2.81,-2.99,335,332,307,426,435
204,-0.19,-0.99,-0.04,-1.71,-1.16,-1.22,340,328,282,422,427
205,-0.2,-0.98,-0.03,1.65,-5.68,-2.38,338,331,292,422,431
206,-0.18,-0.97,-0.05,-0.31,-4.27,-3.36,337,328,304,423,432
207,-0.18,-0.97,-0.05,0.92,-2.44,-2.87,341,334,301,422,433
208,-0.18,-0.98,-0.03,-0.06,-6.9,-2.99,341,332,298,419,433
209,-0.18,-0.98,-0.04,0.31,-3.91,-2.99,340,328,298,423,434
210,-0.18,-0.97,-0.05,1.22,-3.97,-2.26,338,338,295,422,433
211,-0.18,-0.98,-0.04,1.16,-3.66,-2.38,342,333,294,420,431
212,-0.18,-0.98,-0.05,-0.31,-2.38,-2.99,342,332,297,421,434
213,-0.2,-0.98,-0.05,-1.04,-4.82,-4.76,342,336,297,419,432
214,-0.16,-0.99,-0.01,-3.72,-3.42,-2.87,337,332,296,419,429
215,-0.14,-0.98,-0.09,-4.39,-4.27,-4.39,340,333,297,421,446
216,-0.15,-0.98,-0.1,2.62,-3.6,-2.99,340,339,295,418,430
217,-0.14,-0.98,-0.07,2.38,-4.09,-3.3,343,330,299,421,427
218,-0.15,-0.98,-0.07,-1.04,-1.22,-3.23,343,332,299,421,432
219,-0.15,-0.98,-0.07,1.16,-1.22,-1.16,337,338,295,422,427
220,-0.14,-0.98,-0.08,5.19,-4.58,-2.81,342,336,303,422,430
221,-0.18,-0.99,-0.02,3.05,-1.46,-5.68,340,336,285,417,425
222,-0.15,-0.97,-0.09,5.43,-1.53,-1.77,340,338,294,415,433
223,-0.16,-0.99,-0.06,3.72,-3.11,-0.55,336,337,294,419,429
224,-0.15,-0.97,-0.08,-0.98,-3.97,-4.39,341,338,288,417,428
225,-0.16,-0.98,-0.06,1.53,-6.41,1.1,342,330,287,416,429
226,-0.16,-0.98,-0.03,-9.7,-10.31,-2.32,340,329,288,413,469
227,-0.18,-0.98,-0.11,0.49,-11.9,-0.79,341,336,282,420,429
228,-0.18,-0.97,-0.13,5.19,-8.54,0.06,344,333,285,414,430
229,-0.21,-0.98,-0.08,3.05,-3.6,-0.06,342,334,288,416,427
230,-0.23,-0.96,-0.13,0.79,2.44,-0.73,342,334,287,415,426
231,-0.21,-0.97,-0.08,2.81,-2.99,-2.93,333,339,286,421,432
232,-0.22,-0.97,-0.06,1.59,-1.71,0.49,338,339,286,423,441
233,-0.21,-0.97,-0.05,1.65,-2.08,-4.03,343,335,301,413,426
234,-0.19,-0.97,-0.09,0.79,-1.34,-3.05,340,339,287,412,427
235,-0.2,-0.97,-0.07,2.44,-3.05,-2.32,340,336,286,418,423
236,-0.2,-0.98,-0.06,3.36,-1.4,-1.34,342,336,286,420,423
237,-0.19,-0.97,-0.08,-1.16,-2.08,-2.44,342,339,287,415,423
238,-0.2,-0.97,-0.08,-0.12,-0.92,-2.2,341,335,289,415,422
239,-0.2,-0.97,-0.08,1.28,-3.42,-1.59,338,332,288,418,426
240,-0.21,-0.97,-0.06,1.16,-3.54,-2.44,342,336,285,418,424
241,-0.2,-0.97,-0.07,-0.43,-2.75,-2.93,342,336,288,415,424
242,-0.19,-0.97,-0.07,1.04,-2.99,-2.87,342,332,295,416,423
243,-0.17,-0.98,-0.07,-1.22,-1.53,-1.4,342,340,290,418,429
244,-0.17,-0.98,-0.06,-3.91,-9.7,-3.3,343,337,288,413,423
245,-0.16,-0.97,-0.09,-3.3,-41.63,-15.99,342,336,287,417,426
246,-0.17,-0.99,-0.07,4.64,-5.25,-4.82,344,337,283,413,423
247,-0.18,-0.97,-0.09,-2.69,-2.62,-2.38,343,336,287,416,427
248,-0.17,-0.97,-0.11,-0.49,-1.22,-2.32,342,339,287,414,421
249,-0.16,-0.97,-0.13,15.56,-3.78,-1.83,340,331,299,413,423
250,-0.18,-0.97,-0.11,-2.08,-2.62,-3.3,339,340,285,412,422
251,-0.18,-0.98,-0.08,0.06,1.22,-5.37,341,338,284,420,423
252,-0.13,-0.98,-0.11,0.85,-2.14,-2.08,344,336,285,413,422
253,-0.16,-0.97,-0.12,0.98,-4.39,-2.5,339,336,285,409,421
254,-0.16,-0.97,-0.12,0.67,-2.08,-1.65,340,335,281,414,419
255,-0.16,-0.97,-0.11,1.22,-4.03,-1.71,343,336,284,411,424
256,-0.17,-0.97,-0.11,0.61,-3.85,-2.75,343,339,282,414,424
257,-0.15,-0.98,-0.1,3.97,-4.52,-2.14,340,342,287,411,420
258,-0.17,-0.97,-0.11,0.79,-3.72,-2.44,343,340,299,413,421
259,-0.15,-0.97,-0.11,1.04,-1.77,-2.69,343,334,283,409,424
260,-0.17,-0.97,-0.09,3.91,-2.75,-6.29,340,336,283,410,421
261,-0.15,-0.97,-0.12,-2.5,-1.89,-3.66,342,331,283,416,422
262,-0.14,-0.98,-0.12,-1.71,-1.65,-2.87,343,337,284,409,419
263,-0.15,-0.98,-0.11,2.62,-2.99,-2.2,340,341,285,423,424
264,-0.15,-0.97,-0.11,0.92,-3.11,-2.75,341,337,286,410,421
265,-0.15,-0.98,-0.11,0.55,-3.6,-2.38,344,340,294,407,424
266,-0.16,-0.98,-0.11,2.14,-4.7,-2.38,340,337,286,410,422
267,-0.14,-0.98,-0.1,0.61,-3.36,-3.05,342,332,282,410,422
268,-0.16,-0.98,-0.09,2.62,-2.99,-3.11,343,337,284,413,422
269,-0.15,-0.98,-0.1,-0.49,-2.32,-2.26,338,338,284,409,420
270,-0.17,-0.97,-0.09,1.77,-3.42,-2.62,341,340,286,409,460
271,-0.16,-0.98,-0.07,-1.34,-3.85,-2.32,341,337,284,408,422
272,-0.16,-0.98,-0.08,0.61,-2.81,-2.75,341,342,287,411,422
273,-0.17,-0.98,-0.07,0.12,-2.44,-2.56,340,343,283,409,425
274,-0.16,-0.98,-0.07,1.59,-2.08,-3.11,343,342,287,410,422
275,-0.17,-0.98,-0.08,0.06,-3.23,-2.01,340,334,286,409,423
276,-0.16,-0.98,-0.08,0.12,-2.93,-3.17,341,341,286,410,420
277,-0.17,-0.98,-0.08,-0.61,-3.23,-3.17,338,342,285,412,423
278,-0.15,-0.98,-0.07,-1.77,0.18,-2.44,339,337,287,408,430
279,-0.16,-0.97,-0.1,0.06,-2.56,-2.14,343,339,287,411,423
280,-0.21,-0.98,-0.09,2.87,26.67,9.4,341,337,282,409,421
281,-0.13,-0.96,-0.17,-3.91,0.49,-7.93,341,340,284,408,423
282,-0.17,-0.97,-0.17,-5.98,-2.56,-4.7,342,338,288,408,463
283,-0.08,-0.97,-0.18,-5.62,-11.47,-2.75,340,339,285,409,425
284,-0.13,-0.98,-0.16,3.72,4.46,1.34,344,342,286,405,423
285,-0.15,-0.98,-0.13,1.77,-2.08,-1.04,343,334,285,409,422
286,-0.13,-0.96,-0.22,-4.94,-4.52,-10.93,344,336,288,410,423
287,-0.23,-0.95,-0.23,6.16,3.42,-1.16,344,342,283,409,418
288,-0.18,-0.96,-0.18,4.03,-1.59,0.24,343,339,286,408,423
289,-0.17,-0.97,-0.17,-1.46,-2.38,-2.75,342,339,285,407,425
290,-0.17,-0.96,-0.17,0.92,-1.89,-3.23,344,335,287,406,422
291,-0.16,-0.96,-0.19,-2.62,-4.39,-1.46,342,342,286,407,422
292,-0.17,-0.96,-0.2,0.85,-3.36,-1.53,338,339,288,408,421
293,-0.17,-0.96,-0.19,1.59,-3.72,-2.01,341,343,288,409,422
294,-0.16,-0.96,-0.19,0.06,-3.3,-4.09,344,343,286,408,421
295,-0.16,-0.96,-0.19,-0.43,-2.81,-3.36,342,343,288,408,420
296,-0.15,-0.96,-0.19,0.18,-3.11,-2.01,344,342,289,408,422
297,-0.17,-0.96,-0.18,-0.12,-2.81,-2.08,342,343,285,409,425
298,-0.17,-0.96,-0.18,-1.16,-2.56,-2.14,342,339,288,409,427
299,-0.17,-0.96,-0.19,1.22,-2.32,-2.14,338,339,286,412,422
300,-0.18,-0.96,-0.19,0.43,-1.59,-2.93,343,339,285,414,422
301,-0.17,-0.96,-0.18,1.46,-1.46,-1.71,344,339,288,411,421
302,-0.19,-0.96,-0.16,0.49,-4.21,-1.04,343,339,289,408,424
303,-0.18,-0.96,-0.17,-1.28,-2.32,-3.3,342,340,285,409,422
304,-0.19,-0.96,-0.19,-1.46,-3.05,-1.77,342,336,290,408,425
305,-0.18,-0.96,-0.16,-0.06,-0.79,-1.77,342,343,283,408,423
306,-0.18,-0.96,-0.16,-0.73,-3.11,-2.32,342,343,289,409,425
307,-0.19,-0.96,-0.17,-0.79,-2.38,-3.48,344,345,289,409,419
308,-0.18,-0.96,-0.17,-1.65,-2.01,-3.48,343,339,287,406,422
309,-0.19,-0.96,-0.18,1.04,-2.87,-2.44,342,345,287,410,426
310,-0.19,-0.96,-0.18,0.31,-3.23,-2.56,341,339,286,410,454
311,-0.19,-0.96,-0.17,0.49,-3.48,-2.44,343,342,286,404,444
312,-0.19,-0.96,-0.18,0.92,-3.48,-3.36,340,339,285,407,421
313,-0.18,-0.96,-0.17,0.67,-3.05,-2.99,342,346,284,411,423
314,-0.17,-0.96,-0.18,-0.43,-1.89,-2.01,343,340,290,424,422
315,-0.2,-0.96,-0.18,1.46,-3.42,-1.46,343,343,286,410,422
316,-0.19,-0.96,-0.18,0.73,-3.11,-2.2,330,343,286,406,421
317,-0.19,-0.96,-0.17,-0.98,-2.99,-2.99,343,338,288,409,430
318,-0.19,-0.96,-0.18,0.31,-2.87,-2.2,343,339,286,409,419
319,-0.19,-0.96,-0.16,0.85,-2.87,-2.62,342,338,286,413,423
320,-0.19,-0.96,-0.17,0.37,-3.05,-3.36,341,335,299,406,424
321,-0.19,-0.96,-0.16,0.49,-2.93,-1.95,343,339,285,408,422
322,-0.19,-0.96,-0.17,0.31,-3.85,-1.53,340,337,284,404,422
323,-0.19,-0.96,-0.17,-0.92,-3.05,-3.05,343,342,290,414,421
324,-0.2,-0.96,-0.17,0.0,-2.87,-1.77,340,343,287,404,422
325,-0.2,-0.96,-0.16,-0.06,-2.5,-2.5,343,338,290,408,424
326,-0.2,-0.96,-0.16,0.12,-3.54,-2.32,341,342,287,407,420
327,-0.19,-0.96,-0.16,-0.06,-3.17,-2.81,343,341,292,404,422
328,-0.19,-0.96,-0.17,0.85,-3.3,-2.87,342,355,285,405,423
329,-0.2,-0.96,-0.17,1.04,-2.5,-1.95,341,349,287,410,424
330,-0.19,-0.96,-0.16,-0.55,-2.44,-2.32,342,345,286,409,421
331,-0.2,-0.96,-0.16,0.43,-2.81,-2.14,340,342,287,405,423
332,-0.21,-0.95,-0.17,0.06,-2.62,-2.5,346,340,286,408,419
333,-0.2,-0.96,-0.17,-0.12,-2.08,-2.56,348,340,283,408,422
334,-0.2,-0.96,-0.17,0.43,-3.05,-2.75,342,340,284,407,423
335,-0.2,-0.96,-0.17,0.0,-2.5,-3.05,343,340,284,407,419
336,-0.2,-0.96,-0.17,1.1,-3.91,-2.62,344,343,285,407,419
337,-0.2,-0.96,-0.16,-0.12,-2.93,-1.89,346,340,288,411,425
338,-0.2,-0.96,-0.16,0.24,-3.48,-2.2,344,340,285,408,422
339,-0.2,-0.96,-0.16,0.49,-2.87,-2.5,343,340,285,409,423
340,-0.2,-0.96,-0.17,0.24,-2.87,-2.81,339,341,287,407,424
341,-0.21,-0.96,-0.17,0.85,-3.54,-2.69,340,351,289,408,421
342,-0.21,-0.96,-0.16,1.46,-3.17,-2.5,343,344,286,409,421
343,-0.2,-0.96,-0.16,1.16,-3.48,-2.38,348,336,287,408,421
344,-0.2,-0.96,-0.16,-0.37,-2.56,-2.38,345,341,290,409,422
345,-0.21,-0.96,-0.16,0.12,-3.05,-2.38,345,339,286,406,423
346,-0.21,-0.96,-0.15,-0.55,-3.17,-2.5,345,337,289,407,422
347,-0.21,-0.95,-0.17,0.31,-3.3,-2.44,344,341,287,407,425
348,-0.2,-0.96,-0.16,0.43,-3.23,-2.2,337,361,289,406,419
349,-0.21,-0.96,-0.16,-0.18,-3.05,-3.17,344,345,284,408,422
350,-0.21,-0.96,-0.16,1.4,-3.17,-2.87,343,342,290,406,424
351,-0.2,-0.96,-0.15,0.12,-1.83,-3.23,346,341,289,405,420
352,-0.21,-0.96,-0.16,0.31,-3.6,-1.59,339,342,287,405,418
353,-0.21,-0.96,-0.16,0.06,-2.44,-2.44,339,341,289,403,423
354,-0.2,-0.95,-0.17,-0.06,-2.56,-2.32,346,341,289,407,421
355,-0.21,-0.96,-0.17,0.61,-3.23,-2.08,342,344,287,409,422
356,-0.21,-0.96,-0.16,-0.67,-1.46,-3.17,342,341,289,406,423
357,-0.21,-0.96,-0.18,1.89,0.85,-3.6,349,339,289,407,422
358,-0.24,-0.98,-0.11,8.18,-21.79,-4.46,343,343,286,405,419
359,-0.23,-0.96,-0.08,-10.01,2.38,1.59,338,339,280,405,422
360,-0.21,-0.96,-0.14,0.0,-2.5,-0.85,342,337,285,415,420
361,-0.2,-0.96,-0.13,1.65,-3.78,-1.4,342,341,281,412,419
362,-0.19,-0.96,-0.12,-4.39,-2.14,-4.33,342,340,284,410,422
363,-0.21,-0.97,-0.11,2.2,-1.28,-2.62,346,344,283,410,422
364,-0.2,-0.97,-0.13,1.04,-2.38,-1.53,344,341,286,410,433
365,-0.21,-0.96,-0.13,3.48,-2.5,-5.68,340,341,288,409,423
366,-0.21,-0.97,-0.13,0.49,-0.73,-3.78,346,344,285,409,422
367,-0.13,-0.98,-0.11,2.32,-2.56,-4.03,352,345,286,409,422
368,-0.16,-0.97,-0.14,-2.32,9.58,-15.87,348,341,286,411,422
369,-0.03,-0.99,-0.11,4.52,0.31,1.95,344,337,286,407,421
370,-0.08,-0.98,-0.1,3.85,0.92,-2.14,343,343,288,409,422
371,-0.09,-0.98,-0.15,-6.77,-7.39,-2.81,339,338,279,403,424
372,-0.08,-1.0,-0.09,-5.37,-5.62,-1.22,339,341,290,401,423
373,-0.1,-0.99,-0.1,-0.55,1.1,-1.4,334,345,277,401,422
374,-0.1,-0.98,-0.12,0.61,-3.97,-1.65,328,341,275,399,418
375,-0.11,-0.98,-0.11,-0.61,-2.44,-2.01,327,337,276,407,421
376,-0.11,-0.99,-0.1,1.28,-2.44,-2.26,327,339,274,398,419
377,-0.09,-0.98,-0.11,0.55,-4.21,-2.75,329,333,277,399,421
378,-0.1,-0.98,-0.12,-1.59,-2.93,-2.01,331,336,278,398,422
379,-0.1,-0.97,-0.13,1.71,-5.55,-1.65,337,341,277,401,419
380,-0.12,-0.97,-0.13,2.44,-5.86,-1.89,336,342,296,414,418
381,-0.12,-0.98,-0.12,0.31,-3.91,-1.83,339,337,291,412,459
382,-0.13,-0.98,-0.13,2.32,-3.78,-2.44,337,338,277,405,414
383,-0.14,-0.97,-0.15,9.64,-3.6,-1.59,341,341,279,409,419
384,-0.14,-0.97,-0.12,-0.98,-2.44,-2.87,342,338,286,408,426
385,-0.14,-0.98,-0.11,-15.38,-4.46,-2.81,337,340,286,407,420
386,-0.13,-0.98,-0.1,2.81,5.31,-0.67,339,335,281,404,421
387,-0.13,-0.97,-0.11,-3.48,-3.17,-2.87,340,342,280,406,418
388,-0.14,-0.99,-0.05,4.88,-6.35,-9.4,342,337,286,405,419
389,-0.07,-0.97,-0.15,8.3,-0.12,-6.41,339,334,285,405,416
390,0.01,-0.98,-0.07,-5.43,-13.12,-27.34,341,341,283,408,417
391,0.11,-1.01,0.03,10.44,-7.39,-5.8,343,345,285,407,419
392,0.06,-0.99,-0.03,0.31,-10.99,5.43,339,341,285,406,419
393,-0.04,-0.99,-0.03,-5.13,-7.14,0.37,343,340,286,406,415
394,-0.03,-1.0,-0.03,1.16,-4.94,1.83,342,344,284,405,418
395,-0.02,-0.99,-0.05,-2.99,-6.96,-4.27,340,339,280,408,418
396,-0.06,-0.99,-0.08,-1.53,-3.42,1.95,340,335,280,402,424
397,-0.06,-0.99,-0.09,-7.87,-2.26,-4.82,340,342,283,405,441
398,-0.1,-1.0,-0.07,3.05,-4.27,1.1,344,340,284,405,422
399,-0.1,-0.99,-0.08,2.2,-2.44,0.92,339,343,284,404,416
400,-0.1,-0.99,-0.09,-5.86,-1.77,-4.64,344,345,284,403,419
401,-0.09,-0.98,-0.09,-0.73,-2.32,-3.36,342,346,283,403,417
402,-0.11,-0.98,-0.12,-0.55,-2.93,-1.59,342,343,282,406,420
403,-0.09,-0.99,-0.12,-1.4,-2.69,-2.2,342,341,285,406,419
404,-0.08,-0.99,-0.12,0.85,-3.48,-1.71,342,342,284,406,421
405,-0.07,-0.98,-0.12,-1.46,-3.85,-0.31,342,345,283,406,418
406,-0.08,-0.98,-0.13,-3.66,-3.05,-2.38,344,340,278,402,417
407,-0.08,-0.98,-0.12,-0.12,-3.54,-4.15,343,345,284,401,419
408,-0.1,-0.98,-0.12,-0.37,-2.56,-2.5,342,343,284,409,421
409,-0.1,-0.98,-0.14,0.24,-3.85,-1.77,341,343,281,406,420
410,-0.09,-0.98,-0.13,0.12,-2.75,-2.81,346,338,284,407,417
411,-0.09,-0.98,-0.13,-0.06,-3.42,-3.05,343,338,282,406,418
412,-0.11,-0.98,-0.11,0.49,-3.05,-3.36,344,339,284,413,414
413,-0.11,-0.99,-0.11,1.22,-2.62,-2.44,344,343,286,406,419
414,-0.12,-0.98,-0.14,-1.59,-3.91,-0.67,345,343,284,407,416
415,-0.11,-0.98,-0.13,0.85,-2.38,-4.46,340,339,283,401,420
416,-0.1,-0.98,-0.12,0.43,-3.36,-3.17,346,341,283,405,418
417,-0.11,-0.98,-0.12,2.2,-4.15,-2.08,346,339,286,401,418
418,-0.1,-0.98,-0.13,1.77,-3.3,-1.16,343,343,284,406,417
419,-0.11,-0.97,-0.14,-0.43,-3.3,-1.59,354,343,284,404,414
420,-0.11,-0.98,-0.13,-0.49,-3.36,-1.34,340,343,286,404,418
421,-0.11,-0.98,-0.13,-0.79,-3.66,-2.75,344,338,287,405,418
422,-0.12,-0.98,-0.13,1.65,-2.2,-2.87,344,344,284,406,421
423,-0.13,-0.97,-0.14,-0.24,-4.21,-2.26,348,347,291,405,419
424,-0.12,-0.98,-0.15,-1.1,-3.05,-2.56,346,353,296,400,417
425,-0.11,-0.98,-0.15,-0.06,-3.36,-2.2,344,340,301,406,417
426,-0.12,-0.97,-0.19,1.83,-4.76,-1.46,344,344,300,403,420
427,-0.12,-0.97,-0.17,4.39,-5.13,-2.75,344,343,299,405,417
428,-0.12,-0.97,-0.17,-1.16,-2.99,-3.17,344,347,303,409,416
429,-0.12,-0.97,-0.18,-1.22,-3.91,-2.08,341,347,299,408,425
430,-0.12,-0.97,-0.18,-1.04,-2.99,-2.62,343,344,302,404,413
431,-0.11,-0.98,-0.17,1.16,-3.97,-0.85,344,341,294,404,414
432,-0.11,-0.97,-0.18,-0.12,-1.83,-3.11,350,349,297,407,428
433,-0.12,-0.96,-0.18,-0.85,-2.81,-3.05,343,345,294,408,416
434,-0.12,-0.96,-0.18,0.37,-1.83,-3.05,344,346,297,410,415
435,-0.12,-0.97,-0.18,0.85,-3.17,-2.62,344,347,293,407,437
436,-0.12,-0.97,-0.18,-1.28,-2.99,-2.01,345,349,299,406,417
437,-0.13,-0.97,-0.17,-1.59,-2.75,-2.5,344,356,295,411,416
438,-0.13,-0.97,-0.18,1.34,-2.01,-1.4,345,349,297,410,419
439,-0.12,-0.97,-0.19,-0.18,-3.11,-1.46,347,345,296,404,417
440,-0.12,-0.96,-0.2,0.73,-3.78,-1.83,348,345,295,404,418
441,-0.13,-0.97,-0.19,0.37,-2.44,-3.78,341,342,295,410,419
442,-0.11,-0.97,-0.19,0.92,-2.75,-2.38,346,347,295,406,416
443,-0.12,-0.97,-0.18,-0.06,-3.72,-2.56,341,349,294,408,416
444,-0.11,-0.97,-0.18,0.92,-2.5,-2.62,346,343,297,407,419
445,-0.13,-0.97,-0.18,1.22,-2.99,-1.77,342,346,298,407,444
446,-0.12,-0.97,-0.19,0.06,-2.99,-2.56,344,344,294,404,416
447,-0.12,-0.97,-0.18,0.0,-3.66,-2.75,341,349,291,408,413
448,-0.13,-0.97,-0.19,0.79,-3.05,-2.99,348,348,297,406,417
449,-0.12,-0.97,-0.18,-0.37,-3.54,-2.32,346,345,296,405,418
450,-0.13,-0.96,-0.2,0.49,-3.66,-2.5,345,348,295,406,414
451,-0.12,-0.97,-0.19,0.92,-3.05,-3.11,345,348,294,408,417
452,-0.12,-0.97,-0.19,0.24,-2.99,-2.69,347,347,300,406,416
453,-0.11,-0.97,-0.19,0.61,-3.11,-2.56,345,341,296,404,418
454,-0.12,-0.97,-0.19,0.12,-3.17,-2.44,342,344,295,403,414
455,-0.12,-0.97,-0.18,-1.65,-4.03,-1.46,343,346,298,406,417
456,-0.11,-0.97,-0.19,1.22,-2.26,-1.04,346,345,294,402,416
457,-0.12,-0.97,-0.19,-1.04,-2.87,-1.83,345,356,294,407,417
458,-0.13,-0.97,-0.19,0.31,-3.17,-2.38,347,345,295,406,417
459,-0.13,-0.97,-0.19,-1.16,-3.36,-2.56,345,349,297,404,417
460,-0.13,-0.96,-0.2,-0.49,-3.6,-3.11,345,349,305,407,417
461,-0.13,-0.96,-0.19,0.92,-2.99,-2.32,346,348,298,407,415
462,-0.12,-0.97,-0.19,1.22,-3.42,-1.46,344,351,294,406,417
463,-0.12,-0.97,-0.19,1.28,-2.5,-2.56,346,340,296,406,420
464,-0.12,-0.97,-0.2,-0.79,-2.69,-2.56,346,345,294,406,416
465,-0.13,-0.97,-0.19,0.06,-2.26,-2.08,346,346,298,406,419
466,-0.12,-0.96,-0.2,-0.06,-3.48,-2.26,348,347,292,406,412
467,-0.13,-0.97,-0.18,-0.24,-2.69,-1.95,347,349,296,405,416
468,-0.12,-0.96,-0.19,1.04,-3.3,-2.69,342,346,300,407,417
469,-0.09,-0.96,-0.19,-0.24,-1.28,-2.2,347,348,302,409,419
470,-0.12,-0.97,-0.19,-1.65,-2.5,-2.08,348,348,303,408,416
471,-0.12,-0.96,-0.2,-1.34,-3.66,-2.81,347,346,299,412,417
472,-0.12,-0.96,-0.19,0.92,-3.6,-2.2,348,345,301,410,413
473,-0.13,-0.96,-0.19,2.93,-2.75,-1.83,347,349,301,408,420
474,-0.13,-0.97,-0.19,-1.16,-2.87,-2.69,346,352,301,408,417
475,-0.12,-0.97,-0.19,0.73,-3.05,-2.93,346,343,302,411,417
476,-0.12,-0.97,-0.18,-0.18,-2.81,-2.01,344,344,297,409,417
477,-0.12,-0.97,-0.19,0.12,-2.32,-1.95,347,346,301,407,416
478,-0.11,-0.97,-0.19,1.59,-2.38,-2.99,346,348,300,409,413
479,-0.12,-0.97,-0.18,-1.1,-2.69,-0.98,348,351,302,411,418
480,-0.13,-0.97,-0.19,0.06,-2.75,-2.38,353,349,300,411,423
481,-0.12,-0.97,-0.19,0.0,-3.36,-2.32,347,348,298,411,416
482,-0.13,-0.97,-0.19,-0.43,-2.75,-2.87,348,347,300,409,417
483,-0.12,-0.97,-0.19,0.31,-3.48,-2.5,347,347,297,408,417
484,-0.12,-0.97,-0.19,-0.31,-3.97,-2.14,348,346,301,409,417
485,-0.13,-0.97,-0.19,-1.4,-3.05,-2.44,349,351,299,412,421
486,-0.12,-0.97,-0.2,0.73,-3.05,-2.38,351,343,298,410,414
487,-0.12,-0.96,-0.19,0.12,-2.99,-2.2,350,352,299,411,417
488,-0.14,-0.96,-0.2,-0.79,-3.85,-2.26,350,345,298,409,423
489,-0.12,-0.96,-0.19,-0.12,-2.81,-2.56,351,346,303,405,418
490,-0.14,-0.96,-0.2,-0.55,-3.11,-2.87,346,344,302,407,418
491,-0.12,-0.97,-0.19,0.12,-2.62,-2.2,354,347,298,409,416
492,-0.13,-0.96,-0.2,0.0,-2.14,-2.14,349,344,301,408,413
493,-0.13,-0.96,-0.2,0.67,-3.6,-2.75,349,346,302,406,416
494,-0.13,-0.96,-0.2,0.55,-3.05,-2.44,351,345,297,409,417
495,-0.12,-0.97,-0.2,0.12,-2.62,-2.5,351,346,302,408,417
496,-0.13,-0.96,-0.2,0.0,-3.17,-2.44,348,348,298,407,418
497,-0.13,-0.97,-0.2,-0.61,-2.26,-2.01,349,347,297,408,414
498,-0.13,-0.96,-0.2,0.12,-3.05,-2.93,345,351,298,405,417
499,-0.13,-0.96,-0.2,0.43,-2.56,-2.26,350,350,297,408,417
500,-0.12,-0.96,-0.19,0.12,-3.17,-1.83,347,343,304,405,416
501,-0.17,-0.97,0.15,0.73,-4.03,-2.14,349,318,269,429,464
502,-0.17,-0.97,0.15,0.85,-2.87,-3.05,348,318,269,432,462
503,-0.17,-0.97,0.15,1.34,-2.62,-2.01,345,318,266,433,463
504,-0.17,-0.97,0.15,1.89,-2.38,-2.62,349,321,266,432,482
505,-0.17,-0.97,0.15,-0.61,-2.99,-1.65,351,318,267,431,460
506,-0.18,-0.97,0.15,-0.79,-2.01,-2.14,351,315,273,430,463
507,-0.17,-0.97,0.16,0.12,-3.11,-3.48,348,323,271,431,460
508,-0.18,-0.97,0.15,0.85,-3.97,-2.32,349,318,282,431,461
509,-0.17,-0.97,0.15,0.18,-2.69,-3.05,349,318,270,430,458
510,-0.15,-0.97,0.15,1.46,-3.72,-2.99,349,315,272,430,462
511,-0.17,-0.97,0.17,0.85,-3.54,-2.5,349,315,268,431,463
512,-0.17,-0.97,0.16,0.06,-3.42,-2.56,350,318,271,429,458
513,-0.15,-0.96,0.17,0.92,-4.76,-2.44,350,320,269,430,459
514,-0.17,-0.97,0.17,-0.73,-3.48,-2.87,348,324,273,427,458
515,-0.17,-0.97,0.17,-0.24,-3.6,-2.08,349,326,269,427,461
516,-0.17,-0.97,0.17,-0.67,-2.87,-3.05,350,325,269,427,456
517,-0.16,-0.97,0.15,0.0,-2.99,-2.93,352,325,269,426,473
518,-0.17,-0.96,0.17,-1.65,-0.31,-2.87,349,321,269,429,497
519,-0.17,-0.99,0.16,-4.7,-0.31,-2.56,351,324,272,425,459
520,-0.17,-0.97,0.16,-0.18,-2.14,-2.01,350,323,272,426,455
521,-0.18,-0.97,0.14,-1.83,-0.43,-3.17,351,323,270,426,463
522,-0.17,-0.97,0.12,-1.89,-0.67,-2.75,349,325,271,424,459
523,-0.19,-0.98,0.18,-1.46,-9.28,-3.11,346,327,276,425,453
524,-0.15,-0.97,0.09,4.58,-4.39,-2.69,348,323,272,420,455
525,-0.14,-0.97,0.15,1.65,-1.59,-2.75,351,318,271,419,454
526,-0.14,-0.98,0.14,0.55,-3.6,-2.38,352,324,273,426,455
527,-0.15,-0.97,0.16,1.59,-3.42,-1.65,345,324,272,426,455
528,-0.15,-0.98,0.16,-1.46,-4.03,-3.3,351,321,274,419,452
529,-0.14,-0.98,0.17,1.71,-3.78,-2.99,348,323,277,422,453
530,-0.13,-0.97,0.16,0.37,-2.87,-2.32,349,321,274,423,457
531,-0.15,-0.97,0.15,-0.31,-2.62,-2.87,347,327,274,423,458
532,-0.13,-0.97,0.13,-0.43,-2.26,-1.59,349,325,271,422,459
533,-0.13,-0.98,0.17,-4.33,-1.53,-0.98,347,324,273,425,458
534,-0.15,-0.97,0.07,-12.7,1.53,-6.77,343,326,270,421,456
535,-0.1,-0.99,0.06,-4.64,-10.31,1.53,344,329,276,419,457
536,-0.15,-0.98,-0.0,-0.67,-7.87,9.64,344,328,274,414,453
537,-0.15,-0.97,0.03,0.31,-22.09,-4.15,350,325,274,418,465
538,-0.13,-0.98,0.1,4.46,-7.69,-3.78,350,322,274,415,453
539,-0.15,-0.98,0.13,3.97,-4.88,-5.19,348,325,286,418,458
540,-0.14,-0.98,0.16,1.4,-1.71,-3.6,349,321,274,415,451
541,-0.14,-0.97,0.1,1.34,-5.31,-3.72,349,326,270,419,450
542,-0.14,-0.97,0.11,-3.97,-0.43,-2.75,350,332,273,417,453
543,-0.13,-0.98,0.14,-0.43,3.36,-5.55,348,327,275,421,450
544,-0.16,-0.99,0.1,-0.49,-2.44,1.89,352,329,274,418,444
545,-0.15,-0.98,0.11,1.34,-2.38,2.81,347,326,271,416,452
546,-0.12,-0.98,0.09,6.1,-7.63,-2.5,349,328,272,416,451
547,-0.15,-0.98,0.1,0.0,-4.64,-2.08,351,322,273,416,453
548,-0.15,-0.98,0.1,2.44,-2.5,-3.11,349,331,273,413,452
549,-0.15,-0.98,0.09,1.71,-1.53,-2.38,346,328,278,416,454
550,-0.15,-0.98,0.1,1.4,-3.6,-2.2,348,325,274,422,450
551,-0.16,-0.98,0.11,0.73,-2.08,-1.77,344,327,277,418,451
552,-0.14,-0.98,0.09,-1.28,-7.81,0.31,346,333,272,414,450
553,-0.16,-0.98,0.1,-0.49,-3.97,-2.01,347,328,275,417,449
554,-0.16,-0.98,0.11,0.79,-3.72,-2.62,348,329,275,416,450
555,-0.15,-0.98,0.1,1.77,-4.09,-1.83,344,326,276,415,450
556,-0.17,-0.98,0.11,1.53,-2.81,-1.65,343,328,273,415,452
557,-0.16,-0.98,0.11,-0.85,-2.44,-2.99,346,323,276,414,444
558,-0.15,-0.98,0.1,0.18,-3.17,-2.75,347,327,273,415,448
559,-0.14,-0.97,0.1,-0.85,5.37,-3.72,344,333,272,418,449
560,-0.17,-0.98,0.03,-2.87,-7.81,-5.31,349,327,272,415,444
561,-0.12,-0.98,0.08,-8.48,5.55,2.2,347,327,280,416,443
562,-0.1,-0.99,0.06,-5.0,-5.37,-2.62,347,330,274,417,434
563,-0.13,-0.99,0.04,-0.12,-2.01,-4.33,346,323,276,413,441
564,-0.13,-0.99,0.03,1.77,1.04,-4.46,346,332,275,415,444
565,-0.13,-0.99,0.04,3.3,-0.37,-0.37,349,332,273,411,443
566,-0.13,-0.98,0.09,5.25,-2.62,-2.69,348,328,275,415,441
567,-0.13,-0.98,0.09,0.55,-2.56,-2.69,345,328,275,414,439
568,-0.14,-0.98,0.08,-0.73,-3.48,-2.01,345,330,276,415,437
569,-0.14,-0.98,0.05,1.16,-2.62,-1.89,346,331,276,414,443
570,-0.15,-0.98,0.08,0.73,-3.6,-2.14,346,328,273,411,443
571,-0.14,-0.99,0.09,-0.18,-2.62,-2.44,348,328,273,411,439
572,-0.14,-0.98,0.08,1.95,-3.66,-2.62,347,325,274,413,437
573,-0.14,-0.98,0.1,0.61,-3.23,-2.14,346,328,271,413,440
574,-0.14,-0.99,0.09,-0.85,-3.6,-2.99,345,329,272,410,443
575,-0.13,-0.99,0.1,0.24,-3.3,-2.69,346,330,274,411,442
576,-0.13,-0.98,0.07,0.24,-3.17,-1.4,347,330,273,409,439
577,-0.13,-0.98,0.07,-0.24,-3.48,-2.44,348,335,273,410,443
578,-0.14,-0.98,0.07,-1.16,-2.69,-2.2,347,329,275,414,441
579,-0.14,-0.98,0.08,0.92,-4.03,-2.56,344,327,275,411,442
580,-0.14,-0.98,0.06,1.77,-2.08,-2.32,348,337,273,414,441
581,-0.13,-0.98,0.07,1.34,-3.85,-2.93,348,330,271,413,437
582,-0.14,-0.98,0.08,1.95,-2.44,-2.69,344,328,274,410,441
583,-0.13,-0.98,0.09,1.4,-3.66,-2.56,345,332,273,408,442
584,-0.14,-0.98,0.09,0.0,-3.3,-2.56,348,331,273,413,440
585,-0.14,-0.98,0.08,1.34,-3.78,-3.05,346,338,277,411,442
586,-0.14,-0.98,0.08,1.77,-3.11,-2.2,348,330,280,410,439
587,-0.14,-0.98,0.09,1.04,-3.42,-2.38,344,334,270,411,443
588,-0.14,-0.98,0.1,0.24,-3.42,-2.62,344,336,271,411,443
589,-0.15,-0.98,0.1,-0.37,-3.66,-2.08,346,335,272,410,442
590,-0.13,-0.98,0.09,0.12,-3.48,-2.99,346,332,272,411,448
591,-0.15,-0.98,0.1,-0.12,-3.23,-2.99,349,343,273,410,441
592,-0.14,-0.98,0.1,0.55,-3.17,-2.2,346,335,271,411,440
593,-0.14,-0.98,0.11,0.49,-2.69,-2.99,348,326,276,412,441
594,-0.15,-0.98,0.11,1.22,-3.54,-1.83,346,333,273,410,434
595,-0.14,-0.98,0.09,0.49,-2.81,-2.99,346,332,276,409,440
596,-0.15,-0.98,0.12,0.18,-3.23,-1.4,348,332,274,410,438
597,-0.15,-0.98,0.11,1.53,-3.11,-2.26,346,331,271,406,468
598,-0.15,-0.97,0.09,0.61,-2.75,-3.05,345,327,278,410,437
599,-0.14,-0.98,0.1,0.67,-3.23,-2.44,349,335,272,412,439
600,-0.14,-0.98,0.11,0.79,-2.38,-2.87,347,331,276,409,437
601,-0.13,-0.99,0.13,0.37,-2.87,-2.08,346,332,269,407,437
602,-0.14,-0.98,0.1,0.55,-3.17,-2.62,349,336,271,409,439
603,-0.14,-0.98,0.13,2.01,-3.54,-2.01,345,332,273,411,440
604,-0.14,-0.98,0.12,-0.24,-2.01,-2.75,345,332,271,410,437
605,-0.15,-0.98,0.11,0.85,-1.4,-2.5,347,334,273,409,438
606,-0.15,-0.98,0.11,0.98,-3.97,-2.2,350,330,272,412,439
607,-0.15,-0.98,0.11,-0.37,-2.87,-2.69,343,331,272,408,438
608,-0.15,-0.98,0.11,-0.24,-3.23,-3.05,350,332,272,408,438
609,-0.13,-0.98,0.11,1.89,-3.23,-2.44,344,332,273,411,438
610,-0.15,-0.98,0.12,1.95,-2.93,-1.04,345,335,276,411,434
611,-0.15,-0.98,0.13,1.46,-2.99,-2.14,347,336,273,407,439
612,-0.15,-0.98,0.11,-1.1,-3.05,-2.26,346,337,274,409,438
613,-0.15,-0.98,0.11,-1.4,-2.62,-2.69,348,333,272,409,438
614,-0.16,-0.98,0.13,-2.87,-1.53,-4.27,347,337,271,407,436
615,-0.14,-0.98,0.12,1.4,-2.38,-3.05,349,334,276,412,436
616,-0.13,-0.98,0.17,3.48,-4.27,-1.4,346,329,273,406,437
617,-0.14,-0.98,0.13,-1.16,-1.65,-3.05,354,331,274,413,437
618,-0.15,-0.97,0.15,1.89,-0.79,-3.66,343,336,268,407,427
619,-0.14,-0.98,0.13,0.92,-2.75,-2.01,346,334,271,410,437
620,-0.13,-0.98,0.13,4.15,-4.58,-1.65,348,336,271,411,438
621,-0.14,-0.98,0.14,-1.71,-3.6,-2.14,346,341,268,409,436
622,-0.14,-0.98,0.14,0.37,-2.14,-3.72,346,337,271,409,440
623,-0.16,-0.98,0.11,-0.73,-0.12,-5.19,346,337,267,413,436
624,-0.11,-0.98,0.11,0.73,-2.08,-2.26,346,336,269,405,435
625,-0.1,-1.0,0.06,-6.35,0.31,-1.1,347,339,269,408,437
626,-0.11,-0.97,0.05,-8.91,1.16,-4.76,344,335,269,403,437
627,-0.14,-0.99,0.05,4.82,-3.78,-2.62,340,335,272,403,430
628,-0.15,-0.98,0.08,0.24,-1.53,-1.34,345,336,274,404,427
629,-0.15,-0.98,0.05,-2.32,-1.89,-3.6,344,331,272,405,428
630,-0.14,-0.98,0.05,1.89,-2.99,-3.17,344,335,272,405,431
631,-0.14,-0.98,0.05,1.77,-3.36,-1.59,345,340,272,406,433
632,-0.15,-0.98,0.07,0.12,-3.91,-1.22,344,332,275,402,432
633,-0.15,-0.98,0.09,2.99,-3.72,-3.23,344,346,270,400,431
634,-0.16,-0.98,0.09,-0.79,-1.4,-1.95,344,336,274,403,433
635,-0.16,-0.98,0.08,-1.28,-2.87,-2.5,343,332,268,404,430
636,-0.15,-0.98,0.09,1.53,-2.08,-2.32,345,339,273,405,432
637,-0.16,-0.98,0.07,-0.06,-3.42,-3.05,346,337,274,403,429
638,-0.15,-0.98,0.08,0.31,-2.99,-3.11,343,337,272,400,431
639,-0.15,-0.98,0.09,0.67,-3.6,-2.87,343,340,271,404,437
640,-0.14,-0.98,0.08,1.53,-3.3,-2.26,339,340,270,409,432
641,-0.17,-0.98,0.09,0.73,-2.93,-2.99,344,332,272,407,432
642,-0.17,-0.98,0.08,1.89,-3.6,-3.3,344,340,269,404,431
643,-0.17,-0.98,0.09,0.79,-3.11,-1.77,344,336,278,404,431
644,-0.16,-0.98,0.08,0.98,-1.16,-3.72,342,337,272,406,432
645,-0.16,-0.98,0.08,-0.49,-3.48,-2.44,343,336,271,403,432
646,-0.17,-0.98,0.1,1.83,-2.81,-2.38,341,339,274,409,428
647,-0.16,-0.98,0.12,-1.16,-4.27,-2.26,346,336,277,404,430
648,-0.16,-0.98,0.11,-0.18,-3.23,-2.93,343,336,270,405,433
649,-0.17,-0.98,0.1,0.49,-2.26,-1.83,345,336,274,404,429
650,-0.16,-0.98,0.12,0.92,-3.42,-1.59,340,334,276,408,431
651,-0.14,-0.97,0.07,0.61,-4.52,-4.03,343,341,271,405,427
652,-0.17,-0.97,0.1,-0.24,-1.22,-1.83,340,337,270,401,433
653,-0.17,-0.98,0.1,0.31,-3.72,-2.87,341,339,272,406,431
654,-0.17,-0.98,0.11,-0.06,-3.66,-1.89,344,332,277,407,430
655,-0.17,-0.98,0.1,0.31,-3.42,-2.38,339,341,270,406,430
656,-0.18,-0.98,0.1,0.18,-3.85,-2.69,342,332,274,403,438
657,-0.16,-0.98,0.11,0.49,-2.93,-1.83,343,339,272,403,427
658,-0.16,-0.98,0.12,0.24,-2.75,-2.62,344,338,274,406,430
659,-0.17,-0.97,0.11,0.12,-2.44,-2.81,340,342,269,403,427
660,-0.17,-0.97,0.11,-1.34,-1.16,-3.72,343,340,272,405,428
661,-0.17,-0.98,0.12,0.67,-3.97,-2.99,341,337,275,403,426
662,-0.18,-0.98,0.12,0.12,-3.72,-2.99,344,338,270,408,429
663,-0.18,-0.97,0.11,2.75,-6.23,-2.2,345,339,273,404,432
664,-0.16,-0.98,0.1,0.24,-1.83,-2.56,346,337,273,404,429
665,-0.18,-0.98,0.11,0.37,-2.75,-2.44,343,336,275,403,432
666,-0.16,-0.98,0.12,0.18,-2.26,-1.77,346,335,279,403,429
667,-0.15,-0.97,0.1,-0.61,-1.28,-2.87,347,336,274,404,443
668,-0.16,-0.97,0.11,0.73,-2.62,-2.26,343,333,270,404,428
669,-0.18,-0.97,0.12,0.73,-3.78,-2.01,338,338,270,405,428
670,-0.18,-0.97,0.12,0.0,-2.56,-2.99,343,339,271,404,426
671,-0.18,-0.97,0.11,-0.92,-2.75,-2.75,342,341,272,402,437
672,-0.17,-0.97,0.12,0.92,-2.75,-2.5,345,337,275,404,430
673,-0.16,-0.98,0.14,-0.24,-2.56,-3.42,341,332,274,403,429
674,-0.17,-0.97,0.13,1.22,-2.99,-2.2,344,332,276,405,430
675,-0.16,-0.97,0.13,0.31,-2.32,-2.87,346,338,275,404,424
676,-0.15,-0.98,0.14,4.15,-4.03,-1.65,344,340,267,405,428
677,-0.16,-0.97,0.13,1.34,-3.66,-2.08,343,340,269,406,428
678,-0.17,-0.98,0.16,2.81,-2.62,-1.71,344,337,271,404,426
679,-0.17,-0.97,0.14,-0.79,-3.36,-2.87,340,338,275,404,441
680,-0.18,-0.97,0.14,-0.18,-3.3,-2.08,341,341,270,403,429
681,-0.16,-0.97,0.15,0.43,-1.4,-2.32,341,341,272,400,429
682,-0.18,-0.97,0.15,-0.67,-2.01,-2.93,338,332,270,399,429
683,-0.17,-0.97,0.14,-0.31,-1.28,-3.05,340,339,269,404,428
684,-0.17,-0.97,0.13,1.1,-2.69,-2.38,337,333,275,404,430
685,-0.16,-0.97,0.12,1.89,-3.42,-1.83,339,340,275,402,429
686,-0.17,-0.97,0.13,0.18,-3.11,-2.69,334,338,270,407,430
687,-0.15,-0.98,0.14,0.85,-1.34,-2.2,325,335,274,404,430
688,-0.17,-0.97,0.14,-0.61,-2.81,-2.56,332,344,274,400,428
689,-0.16,-0.97,0.13,-1.16,-0.92,-2.44,330,337,272,400,429
690,-0.16,-0.97,0.11,-1.53,-2.26,-2.93,330,333,274,397,427
691,-0.16,-0.97,0.13,1.53,-3.05,-2.81,330,334,276,405,428
692,-0.15,-0.97,0.14,-0.55,-3.17,-2.93,330,333,276,401,424
693,-0.15,-0.97,0.13,-1.59,-1.95,-2.99,330,337,271,403,429
694,-0.16,-0.98,0.14,0.12,-2.75,-2.14,331,333,271,401,424
695,-0.17,-0.97,0.13,2.08,-2.32,-2.14,333,335,270,401,428
696,-0.2,-0.97,0.13,-2.32,13.0,1.59,328,338,271,401,427
697,-0.18,-0.98,0.12,-8.0,-9.16,-3.66,331,337,278,403,426
698,-0.14,-0.96,-0.06,-9.09,-3.85,-3.91,335,337,312,410,397
699,-0.11,-1.0,-0.09,-13.43,3.72,-6.29,333,337,316,415,398
700,-0.17,-0.95,-0.07,6.53,-0.79,-1.95,339,333,308,416,419
701,-0.17,-0.97,-0.09,3.48,-2.2,-1.77,333,328,326,431,432
702,-0.17,-0.97,-0.07,1.16,-2.93,-0.73,333,329,323,431,433
703,-0.19,-0.96,-0.06,3.97,-1.53,-2.93,336,332,318,426,433
704,-0.17,-0.98,-0.04,0.43,-2.81,-2.99,335,332,307,426,435
705,-0.19,-0.99,-0.04,-1.71,-1.16,-1.22,340,328,282,422,427
706,-0.2,-0.98,-0.03,1.65,-5.68,-2.38,338,331,292,422,431
707,-0.18,-0.97,-0.05,-0.31,-4.27,-3.36,337,328,304,423,432
708,-0.18,-0.97,-0.05,0.92,-2.44,-2.87,341,334,301,422,433
709,-0.18,-0.98,-0.03,-0.06,-6.9,-2.99,341,332,298,419,433
710,-0.18,-0.98,-0.04,0.31,-3.91,-2.99,340,328,298,423,434
711,-0.18,-0.97,-0.05,1.22,-3.97,-2.26,338,338,295,422,433
712,-0.18,-0.98,-0.04,1.16,-3.66,-2.38,342,333,294,420,431
713,-0.18,-0.98,-0.05,-0.31,-2.38,-2.99,342,332,297,421,434
714,-0.2,-0.98,-0.05,-1.04,-4.82,-4.76,342,336,297,419,432
715,-0.16,-0.99,-0.01,-3.72,-3.42,-2.87,337,332,296,419,429
716,-0.14,-0.98,-0.09,-4.39,-4.27,-4.39,340,333,297,421,446
717,-0.15,-0.98,-0.1,2.62,-3.6,-2.99,340,339,295,418,430
718,-0.14,-0.98,-0.07,2.38,-4.09,-3.3,343,330,299,421,427
719,-0.15,-0.98,-0.07,-1.04,-1.22,-3.23,343,332,299,421,432
720,-0.15,-0.98,-0.07,1.16,-1.22,-1.16,337,338,295,422,427
721,-0.14,-0.98,-0.08,5.19,-4.58,-2.81,342,336,303,422,430
722,-0.18,-0.99,-0.02,3.05,-1.46,-5.68,340,336,285,417,425
723,-0.15,-0.97,-0.09,5.43,-1.53,-1.77,340,338,294,415,433
724,-0.16,-0.99,-0.06,3.72,-3.11,-0.55,336,337,294,419,429
725,-0.15,-0.97,-0.08,-0.98,-3.97,-4.39,341,338,288,417,428
726,-0.16,-0.98,-0.06,1.53,-6.41,1.1,342,330,287,416,429
727,-0.16,-0.98,-0.03,-9.7,-10.31,-2.32,340,329,288,413,469
728,-0.18,-0.98,-0.11,0.49,-11.9,-0.79,341,336,282,420,429
729,-0.18,-0.97,-0.13,5.19,-8.54,0.06,344,333,285,414,430
730,-0.21,-0.98,-0.08,3.05,-3.6,-0.06,342,334,288,416,427
731,-0.23,-0.96,-0.13,0.79,2.44,-0.73,342,334,287,415,426
732,-0.21,-0.97,-0.08,2.81,-2.99,-2.93,333,339,286,421,432
733,-0.22,-0.97,-0.06,1.59,-1.71,0.49,338,339,286,423,441
734,-0.21,-0.97,-0.05,1.65,-2.08,-4.03,343,335,301,413,426
735,-0.19,-0.97,-0.09,0.79,-1.34,-3.05,340,339,287,412,427
736,-0.2,-0.97,-0.07,2.44,-3.05,-2.32,340,336,286,418,423
737,-0.2,-0.98,-0.06,3.36,-1.4,-1.34,342,336,286,420,423
738,-0.19,-0.97,-0.08,-1.16,-2.08,-2.44,342,339,287,415,423
739,-0.2,-0.97,-0.08,-0.12,-0.92,-2.2,341,335,289,415,422
740,-0.2,-0.97,-0.08,1.28,-3.42,-1.59,338,332,288,418,426
741,-0.21,-0.97,-0.06,1.16,-3.54,-2.44,342,336,285,418,424
742,-0.2,-0.97,-0.07,-0.43,-2.75,-2.93,342,336,288,415,424
743,-0.19,-0.97,-0.07,1.04,-2.99,-2.87,342,332,295,416,423
744,-0.17,-0.98,-0.07,-1.22,-1.53,-1.4,342,340,290,418,429
745,-0.17,-0.98,-0.06,-3.91,-9.7,-3.3,343,337,288,413,423
746,-0.16,-0.97,-0.09,-3.3,-41.63,-15.99,342,336,287,417,426
747,-0.17,-0.99,-0.07,4.64,-5.25,-4.82,344,337,283,413,423
748,-0.18,-0.97,-0.09,-2.69,-2.62,-2.38,343,336,287,416,427
749,-0.17,-0.97,-0.11,-0.49,-1.22,-2.32,342,339,287,414,421
750,-0.16,-0.97,-0.13,15.56,-3.78,-1.83,340,331,299,413,423
751,-0.18,-0.97,-0.11,-2.08,-2.62,-3.3,339,340,285,412,422
752,-0.18,-0.98,-0.08,0.06,1.22,-5.37,341,338,284,420,423
753,-0.13,-0.98,-0.11,0.85,-2.14,-2.08,344,336,285,413,422
754,-0.16,-0.97,-0.12,0.98,-4.39,-2.5,339,336,285,409,421
755,-0.16,-0.97,-0.12,0.67,-2.08,-1.65,340,335,281,414,419
756,-0.16,-0.97,-0.11,1.22,-4.03,-1.71,343,336,284,411,424
757,-0.17,-0.97,-0.11,0.61,-3.85,-2.75,343,339,282,414,424
758,-0.15,-0.98,-0.1,3.97,-4.52,-2.14,340,342,287,411,420
759,-0.17,-0.97,-0.11,0.79,-3.72,-2.44,343,340,299,413,421
760,-0.15,-0.97,-0.11,1.04,-1.77,-2.69,343,334,283,409,424
761,-0.17,-0.97,-0.09,3.91,-2.75,-6.29,340,336,283,410,421
762,-0.15,-0.97,-0.12,-2.5,-1.89,-3.66,342,331,283,416,422
763,-0.14,-0.98,-0.12,-1.71,-1.65,-2.87,343,337,284,409,419
764,-0.15,-0.98,-0.11,2.62,-2.99,-2.2,340,341,285,423,424
765,-0.15,-0.97,-0.11,0.92,-3.11,-2.75,341,337,286,410,421
766,-0.15,-0.98,-0.11,0.55,-3.6,-2.38,344,340,294,407,424
767,-0.16,-0.98,-0.11,2.14,-4.7,-2.38,340,337,286,410,422
768,-0.14,-0.98,-0.1,0.61,-3.36,-3.05,342,332,282,410,422
769,-0.16,-0.98,-0.09,2.62,-2.99,-3.11,343,337,284,413,422
770,-0.15,-0.98,-0.1,-0.49,-2.32,-2.26,338,338,284,409,420
771,-0.17,-0.97,-0.09,1.77,-3.42,-2.62,341,340,286,409,460
772,-0.16,-0.98,-0.07,-1.34,-3.85,-2.32,341,337,284,408,422
773,-0.16,-0.98,-0.08,0.61,-2.81,-2.75,341,342,287,411,422
774,-0.17,-0.98,-0.07,0.12,-2.44,-2.56,340,343,283,409,425
775,-0.16,-0.98,-0.07,1.59,-2.08,-3.11,343,342,287,410,422
776,-0.17,-0.98,-0.08,0.06,-3.23,-2.01,340,334,286,409,423
777,-0.16,-0.98,-0.08,0.12,-2.93,-3.17,341,341,286,410,420
778,-0.17,-0.98,-0.08,-0.61,-3.23,-3.17,338,342,285,412,423
779,-0.15,-0.98,-0.07,-1.77,0.18,-2.44,339,337,287,408,430
780,-0.16,-0.97,-0.1,0.06,-2.56,-2.14,343,339,287,411,423
781,-0.21,-0.98,-0.09,2.87,26.67,9.4,341,337,282,409,421
782,-0.13,-0.96,-0.17,-3.91,0.49,-7.93,341,340,284,408,423
783,-0.17,-0.97,-0.17,-5.98,-2.56,-4.7,342,338,288,408,463
784,-0.08,-0.97,-0.18,-5.62,-11.47,-2.75,340,339,285,409,425
785,-0.13,-0.98,-0.16,3.72,4.46,1.34,344,342,286,405,423
786,-0.15,-0.98,-0.13,1.77,-2.08,-1.04,343,334,285,409,422
787,-0.13,-0.96,-0.22,-4.94,-4.52,-10.93,344,336,288,410,423
788,-0.23,-0.95,-0.23,6.16,3.42,-1.16,344,342,283,409,418
789,-0.18,-0.96,-0.18,4.03,-1.59,0.24,343,339,286,408,423
790,-0.17,-0.97,-0.17,-1.46,-2.38,-2.75,342,339,285,407,425
791,-0.17,-0.96,-0.17,0.92,-1.89,-3.23,344,335,287,406,422
792,-0.16,-0.96,-0.19,-2.62,-4.39,-1.46,342,342,286,407,422
793,-0.17,-0.96,-0.2,0.85,-3.36,-1.53,338,339,288,408,421
794,-0.17,-0.96,-0.19,1.59,-3.72,-2.01,341,343,288,409,422
795,-0.16,-0.96,-0.19,0.06,-3.3,-4.09,344,343,286,408,421
796,-0.16,-0.96,-0.19,-0.43,-2.81,-3.36,342,343,288,408,420
797,-0.15,-0.96,-0.19,0.18,-3.11,-2.01,344,342,289,408,422
798,-0.17,-0.96,-0.18,-0.12,-2.81,-2.08,342,343,285,409,425
799,-0.17,-0.96,-0.18,-1.16,-2.56,-2.14,342,339,288,409,427
800,-0.17,-0.96,-0.19,1.22,-2.32,-2.14,338,339,286,412,422
801,-0.18,-0.96,-0.19,0.43,-1.59,-2.93,343,339,285,414,422
802,-0.17,-0.96,-0.18,1.46,-1.46,-1.71,344,339,288,411,421
803,-0.19,-0.96,-0.16,0.49,-4.21,-1.04,343,339,289,408,424
804,-0.18,-0.96,-0.17,-1.28,-2.32,-3.3,342,340,285,409,422
805,-0.19,-0.96,-0.19,-1.46,-3.05,-1.77,342,336,290,408,425
806,-0.18,-0.96,-0.16,-0.06,-0.79,-1.77,342,343,283,408,423
807,-0.18,-0.96,-0.16,-0.73,-3.11,-2.32,342,343,289,409,425
808,-0.19,-0.96,-0.17,-0.79,-2.38,-3.48,344,345,289,409,419
809,-0.18,-0.96,-0.17,-1.65,-2.01,-3.48,343,339,287,406,422
810,-0.19,-0.96,-0.18,1.04,-2.87,-2.44,342,345,287,410,426
811,-0.19,-0.96,-0.18,0.31,-3.23,-2.56,341,339,286,410,454
812,-0.19,-0.96,-0.17,0.49,-3.48,-2.44,343,342,286,404,444
813,-0.19,-0.96,-0.18,0.92,-3.48,-3.36,340,339,285,407,421
814,-0.18,-0.96,-0.17,0.67,-3.05,-2.99,342,346,284,411,423
815,-0.17,-0.96,-0.18,-0.43,-1.89,-2.01,343,340,290,424,422
816,-0.2,-0.96,-0.18,1.46,-3.42,-1.46,343,343,286,410,422
817,-0.19,-0.96,-0.18,0.73,-3.11,-2.2,330,343,286,406,421
818,-0.19,-0.96,-0.17,-0.98,-2.99,-2.99,343,338,288,409,430
819,-0.19,-0.96,-0.18,0.31,-2.87,-2.2,343,339,286,409,419
820,-0.19,-0.96,-0.16,0.85,-2.87,-2.62,342,338,286,413,423
821,-0.19,-0.96,-0.17,0.37,-3.05,-3.36,341,335,299,406,424
822,-0.19,-0.96,-0.16,0.49,-2.93,-1.95,343,339,285,408,422
823,-0.19,-0.96,-0.17,0.31,-3.85,-1.53,340,337,284,404,422
824,-0.19,-0.96,-0.17,-0.92,-3.05,-3.05,343,342,290,414,421
825,-0.2,-0.96,-0.17,0.0,-2.87,-1.77,340,343,287,404,422
826,-0.2,-0.96,-0.16,-0.06,-2.5,-2.5,343,338,290,408,424
827,-0.2,-0.96,-0.16,0.12,-3.54,-2.32,341,342,287,407,420
828,-0.19,-0.96,-0.16,-0.06,-3.17,-2.81,343,341,292,404,422
829,-0.19,-0.96,-0.17,0.85,-3.3,-2.87,342,355,285,405,423
830,-0.2,-0.96,-0.17,1.04,-2.5,-1.95,341,349,287,410,424
831,-0.19,-0.96,-0.16,-0.55,-2.44,-2.32,342,345,286,409,421
832,-0.2,-0.96,-0.16,0.43,-2.81,-2.14,340,342,287,405,423
833,-0.21,-0.95,-0.17,0.06,-2.62,-2.5,346,340,286,408,419
834,-0.2,-0.96,-0.17,-0.12,-2.08,-2.56,348,340,283,408,422
835,-0.2,-0.96,-0.17,0.43,-3.05,-2.75,342,340,284,407,423
836,-0.2,-0.96,-0.17,0.0,-2.5,-3.05,343,340,284,407,419
837,-0.2,-0.96,-0.17,1.1,-3.91,-2.62,344,343,285,407,419
838,-0.2,-0.96,-0.16,-0.12,-2.93,-1.89,346,340,288,411,425
839,-0.2,-0.96,-0.16,0.24,-3.48,-2.2,344,340,285,408,422
840,-0.2,-0.96,-0.16,0.49,-2.87,-2.5,343,340,285,409,423
841,-0.2,-0.96,-0.17,0.24,-2.87,-2.81,339,341,287,407,424
842,-0.21,-0.96,-0.17,0.85,-3.54,-2.69,340,351,289,408,421
843,-0.21,-0.96,-0.16,1.46,-3.17,-2.5,343,344,286,409,421
844,-0.2,-0.96,-0.16,1.16,-3.48,-2.38,348,336,287,408,421
845,-0.2,-0.96,-0.16,-0.37,-2.56,-2.38,345,341,290,409,422
846,-0.21,-0.96,-0.16,0.12,-3.05,-2.38,345,339,286,406,423
847,-0.21,-0.96,-0.15,-0.55,-3.17,-2.5,345,337,289,407,422
848,-0.21,-0.95,-0.17,0.31,-3.3,-2.44,344,341,287,407,425
849,-0.2,-0.96,-0.16,0.43,-3.23,-2.2,337,361,289,406,419
850,-0.21,-0.96,-0.16,-0.18,-3.05,-3.17,344,345,284,408,422
851,-0.21,-0.96,-0.16,1.4,-3.17,-2.87,343,342,290,406,424
852,-0.2,-0.96,-0.15,0.12,-1.83,-3.23,346,341,289,405,420
853,-0.21,-0.96,-0.16,0.31,-3.6,-1.59,339,342,287,405,418
854,-0.21,-0.96,-0.16,0.06,-2.44,-2.44,339,341,289,403,423
855,-0.2,-0.95,-0.17,-0.06,-2.56,-2.32,346,341,289,407,421
856,-0.21,-0.96,-0.17,0.61,-3.23,-2.08,342,344,287,409,422
857,-0.21,-0.96,-0.16,-0.67,-1.46,-3.17,342,341,289,406,423
858,-0.21,-0.96,-0.18,1.89,0.85,-3.6,349,339,289,407,422
859,-0.24,-0.98,-0.11,8.18,-21.79,-4.46,343,343,286,405,419
860,-0.23,-0.96,-0.08,-10.01,2.38,1.59,338,339,280,405,422
861,-0.21,-0.96,-0.14,0.0,-2.5,-0.85,342,337,285,415,420
862,-0.2,-0.96,-0.13,1.65,-3.78,-1.4,342,341,281,412,419
863,-0.19,-0.96,-0.12,-4.39,-2.14,-4.33,342,340,284,410,422
864,-0.21,-0.97,-0.11,2.2,-1.28,-2.62,346,344,283,410,422
865,-0.2,-0.97,-0.13,1.04,-2.38,-1.53,344,341,286,410,433
866,-0.21,-0.96,-0.13,3.48,-2.5,-5.68,340,341,288,409,423
867,-0.21,-0.97,-0.13,0.49,-0.73,-3.78,346,344,285,409,422
868,-0.13,-0.98,-0.11,2.32,-2.56,-4.03,352,345,286,409,422
869,-0.16,-0.97,-0.14,-2.32,9.58,-15.87,348,341,286,411,422
870,-0.03,-0.99,-0.11,4.52,0.31,1.95,344,337,286,407,421
871,-0.08,-0.98,-0.1,3.85,0.92,-2.14,343,343,288,409,422
872,-0.09,-0.98,-0.15,-6.77,-7.39,-2.81,339,338,279,403,424
873,-0.08,-1.0,-0.09,-5.37,-5.62,-1.22,339,341,290,401,423
874,-0.1,-0.99,-0.1,-0.55,1.1,-1.4,334,345,277,401,422
875,-0.1,-0.98,-0.12,0.61,-3.97,-1.65,328,341,275,399,418
876,-0.11,-0.98,-0.11,-0.61,-2.44,-2.01,327,337,276,407,421
877,-0.11,-0.99,-0.1,1.28,-2.44,-2.26,327,339,274,398,419
878,-0.09,-0.98,-0.11,0.55,-4.21,-2.75,329,333,277,399,421
879,-0.1,-0.98,-0.12,-1.59,-2.93,-2.01,331,336,278,398,422
880,-0.1,-0.97,-0.13,1.71,-5.55,-1.65,337,341,277,401,419
881,-0.12,-0.97,-0.13,2.44,-5.86,-1.89,336,342,296,414,418
882,-0.12,-0.98,-0.12,0.31,-3.91,-1.83,339,337,291,412,459
883,-0.13,-0.98,-0.13,2.32,-3.78,-2.44,337,338,277,405,414
884,-0.14,-0.97,-0.15,9.64,-3.6,-1.59,341,341,279,409,419
885,-0.14,-0.97,-0.12,-0.98,-2.44,-2.87,342,338,286,408,426
886,-0.14,-0.98,-0.11,-15.38,-4.46,-2.81,337,340,286,407,420
887,-0.13,-0.98,-0.1,2.81,5.31,-0.67,339,335,281,404,421
888,-0.13,-0.97,-0.11,-3.48,-3.17,-2.87,340,342,280,406,418
889,-0.14,-0.99,-0.05,4.88,-6.35,-9.4,342,337,286,405,419
890,-0.07,-0.97,-0.15,8.3,-0.12,-6.41,339,334,285,405,416
891,0.01,-0.98,-0.07,-5.43,-13.12,-27.34,341,341,283,408,417
892,0.11,-1.01,0.03,10.44,-7.39,-5.8,343,345,285,407,419
893,0.06,-0.99,-0.03,0.31,-10.99,5.43,339,341,285,406,419
894,-0.04,-0.99,-0.03,-5.13,-7.14,0.37,343,340,286,406,415
895,-0.03,-1.0,-0.03,1.16,-4.94,1.83,342,344,284,405,418
896,-0.02,-0.99,-0.05,-2.99,-6.96,-4.27,340,339,280,408,418
897,-0.06,-0.99,-0.08,-1.53,-3.42,1.95,340,335,280,402,424
898,-0.06,-0.99,-0.09,-7.87,-2.26,-4.82,340,342,283,405,441
899,-0.1,-1.0,-0.07,3.05,-4.27,1.1,344,340,284,405,422
900,-0.1,-0.99,-0.08,2.2,-2.44,0.92,339,343,284,404,416
901,-0.1,-0.99,-0.09,-5.86,-1.77,-4.64,344,345,284,403,419
902,-0.09,-0.98,-0.09,-0.73,-2.32,-3.36,342,346,283,403,417
903,-0.11,-0.98,-0.12,-0.55,-2.93,-1.59,342,343,282,406,420
904,-0.09,-0.99,-0.12,-1.4,-2.69,-2.2,342,341,285,406,419
905,-0.08,-0.99,-0.12,0.85,-3.48,-1.71,342,342,284,406,421
906,-0.07,-0.98,-0.12,-1.46,-3.85,-0.31,342,345,283,406,418
907,-0.08,-0.98,-0.13,-3.66,-3.05,-2.38,344,340,278,402,417
908,-0.08,-0.98,-0.12,-0.12,-3.54,-4.15,343,345,284,401,419
909,-0.1,-0.98,-0.12,-0.37,-2.56,-2.5,342,343,284,409,421
910,-0.1,-0.98,-0.14,0.24,-3.85,-1.77,341,343,281,406,420
911,-0.09,-0.98,-0.13,0.12,-2.75,-2.81,346,338,284,407,417
912,-0.09,-0.98,-0.13,-0.06,-3.42,-3.05,343,338,282,406,418
913,-0.11,-0.98,-0.11,0.49,-3.05,-3.36,344,339,284,413,414
914,-0.11,-0.99,-0.11,1.22,-2.62,-2.44,344,343,286,406,419
915,-0.12,-0.98,-0.14,-1.59,-3.91,-0.67,345,343,284,407,416
916,-0.11,-0.98,-0.13,0.85,-2.38,-4.46,340,339,283,401,420
917,-0.1,-0.98,-0.12,0.43,-3.36,-3.17,346,341,283,405,418
918,-0.11,-0.98,-0.12,2.2,-4.15,-2.08,346,339,286,401,418
919,-0.1,-0.98,-0.13,1.77,-3.3,-1.16,343,343,284,406,417
920,-0.11,-0.97,-0.14,-0.43,-3.3,-1.59,354,343,284,404,414
921,-0.11,-0.98,-0.13,-0.49,-3.36,-1.34,340,343,286,404,418
922,-0.11,-0.98,-0.13,-0.79,-3.66,-2.75,344,338,287,405,418
923,-0.12,-0.98,-0.13,1.65,-2.2,-2.87,344,344,284,406,421
924,-0.13,-0.97,-0.14,-0.24,-4.21,-2.26,348,347,291,405,419
925,-0.12,-0.98,-0.15,-1.1,-3.05,-2.56,346,353,296,400,417
926,-0.11,-0.98,-0.15,-0.06,-3.36,-2.2,344,340,301,406,417
927,-0.12,-0.97,-0.19,1.83,-4.76,-1.46,344,344,300,403,420
928,-0.12,-0.97,-0.17,4.39,-5.13,-2.75,344,343,299,405,417
929,-0.12,-0.97,-0.17,-1.16,-2.99,-3.17,344,347,303,409,416
930,-0.12,-0.97,-0.18,-1.22,-3.91,-2.08,341,347,299,408,425
931,-0.12,-0.97,-0.18,-1.04,-2.99,-2.62,343,344,302,404,413
932,-0.11,-0.98,-0.17,1.16,-3.97,-0.85,344,341,294,404,414
933,-0.11,-0.97,-0.18,-0.12,-1.83,-3.11,350,349,297,407,428
934,-0.12,-0.96,-0.18,-0.85,-2.81,-3.05,343,345,294,408,416
935,-0.12,-0.96,-0.18,0.37,-1.83,-3.05,344,346,297,410,415
936,-0.12,-0.97,-0.18,0.85,-3.17,-2.62,344,347,293,407,437
937,-0.12,-0.97,-0.18,-1.28,-2.99,-2.01,345,349,299,406,417
938,-0.13,-0.97,-0.17,-1.59,-2.75,-2.5,344,356,295,411,416
939,-0.13,-0.97,-0.18,1.34,-2.01,-1.4,345,349,297,410,419
940,-0.12,-0.97,-0.19,-0.18,-3.11,-1.46,347,345,296,404,417
941,-0.12,-0.96,-0.2,0.73,-3.78,-1.83,348,345,295,404,418
942,-0.13,-0.97,-0.19,0.37,-2.44,-3.78,341,342,295,410,419
943,-0.11,-0.97,-0.19,0.92,-2.75,-2.38,346,347,295,406,416
944,-0.12,-0.97,-0.18,-0.06,-3.72,-2.56,341,349,294,408,416
945,-0.11,-0.97,-0.18,0.92,-2.5,-2.62,346,343,297,407,419
946,-0.13,-0.97,-0.18,1.22,-2.99,-1.77,342,346,298,407,444
947,-0.12,-0.97,-0.19,0.06,-2.99,-2.56,344,344,294,404,416
948,-0.12,-0.97,-0.18,0.0,-3.66,-2.75,341,349,291,408,413
949,-0.13,-0.97,-0.19,0.79,-3.05,-2.99,348,348,297,406,417
950,-0.12,-0.97,-0.18,-0.37,-3.54,-2.32,346,345,296,405,418
951,-0.13,-0.96,-0.2,0.49,-3.66,-2.5,345,348,295,406,414
952,-0.12,-0.97,-0.19,0.92,-3.05,-3.11,345,348,294,408,417
953,-0.12,-0.97,-0.19,0.24,-2.99,-2.69,347,347,300,406,416
954,-0.11,-0.97,-0.19,0.61,-3.11,-2.56,345,341,296,404,418
955,-0.12,-0.97,-0.19,0.12,-3.17,-2.44,342,344,295,403,414
956,-0.12,-0.97,-0.18,-1.65,-4.03,-1.46,343,346,298,406,417
957,-0.11,-0.97,-0.19,1.22,-2.26,-1.04,346,345,294,402,416
958,-0.12,-0.97,-0.19,-1.04,-2.87,-1.83,345,356,294,407,417
959,-0.13,-0.97,-0.19,0.31,-3.17,-2.38,347,345,295,406,417
960,-0.13,-0.97,-0.19,-1.16,-3.36,-2.56,345,349,297,404,417
961,-0.13,-0.96,-0.2,-0.49,-3.6,-3.11,345,349,305,407,417
962,-0.13,-0.96,-0.19,0.92,-2.99,-2.32,346,348,298,407,415
963,-0.12,-0.97,-0.19,1.22,-3.42,-1.46,344,351,294,406,417
964,-0.12,-0.97,-0.19,1.28,-2.5,-2.56,346,340,296,406,420
965,-0.12,-0.97,-0.2,-0.79,-2.69,-2.56,346,345,294,406,416
966,-0.13,-0.97,-0.19,0.06,-2.26,-2.08,346,346,298,406,419
967,-0.12,-0.96,-0.2,-0.06,-3.48,-2.26,348,347,292,406,412
968,-0.13,-0.97,-0.18,-0.24,-2.69,-1.95,347,349,296,405,416
969,-0.12,-0.96,-0.19,1.04,-3.3,-2.69,342,346,300,407,417
970,-0.09,-0.96,-0.19,-0.24,-1.28,-2.2,347,348,302,409,419
971,-0.12,-0.97,-0.19,-1.65,-2.5,-2.08,348,348,303,408,416
972,-0.12,-0.96,-0.2,-1.34,-3.66,-2.81,347,346,299,412,417
973,-0.12,-0.96,-0.19,0.92,-3.6,-2.2,348,345,301,410,413
974,-0.13,-0.96,-0.19,2.93,-2.75,-1.83,347,349,301,408,420
975,-0.13,-0.97,-0.19,-1.16,-2.87,-2.69,346,352,301,408,417
976,-0.12,-0.97,-0.19,0.73,-3.05,-2.93,346,343,302,411,417
977,-0.12,-0.97,-0.18,-0.18,-2.81,-2.01,344,344,297,409,417
978,-0.12,-0.97,-0.19,0.12,-2.32,-1.95,347,346,301,407,416
979,-0.11,-0.97,-0.19,1.59,-2.38,-2.99,346,348,300,409,413
980,-0.12,-0.97,-0.18,-1.1,-2.69,-0.98,348,351,302,411,418
981,-0.13,-0.97,-0.19,0.06,-2.75,-2.38,353,349,300,411,423
982,-0.12,-0.97,-0.19,0.0,-3.36,-2.32,347,348,298,411,416
983,-0.13,-0.97,-0.19,-0.43,-2.75,-2.87,348,347,300,409,417
984,-0.12,-0.97,-0.19,0.31,-3.48,-2.5,347,347,297,408,417
985,-0.12,-0.97,-0.19,-0.31,-3.97,-2.14,348,346,301,409,417
986,-0.13,-0.97,-0.19,-1.4,-3.05,-2.44,349,351,299,412,421
987,-0.12,-0.97,-0.2,0.73,-3.05,-2.38,351,343,298,410,414
988,-0.12,-0.96,-0.19,0.12,-2.99,-2.2,350,352,299,411,417
989,-0.14,-0.96,-0.2,-0.79,-3.85,-2.26,350,345,298,409,423
990,-0.12,-0.96,-0.19,-0.12,-2.81,-2.56,351,346,303,405,418
991,-0.14,-0.96,-0.2,-0.55,-3.11,-2.87,346,344,302,407,418
992,-0.12,-0.97,-0.19,0.12,-2.62,-2.2,354,347,298,409,416
993,-0.13,-0.96,-0.2,0.0,-2.14,-2.14,349,344,301,408,413
994,-0.13,-0.96,-0.2,0.67,-3.6,-2.75,349,346,302,406,416
995,-0.13,-0.96,-0.2,0.55,-3.05,-2.44,351,345,297,409,417
996,-0.12,-0.97,-0.2,0.12,-2.62,-2.5,351,346,302,408,417
997,-0.13,-0.96,-0.2,0.0,-3.17,-2.44,348,348,298,407,418
998,-0.13,-0.97,-0.2,-0.61,-2.26,-2.01,349,347,297,408,414
999,-0.13,-0.96,-0.2,0.12,-3.05,-2.93,345,351,298,405,417
1000,-0.13,-0.96,-0.2,0.43,-2.56,-2.26,350,350,297,408,417
1001,-0.12,-0.96,-0.19,0.12,-3.17,-1.83,347,343,304,405,416
1002,-0.17,-0.97,0.15,0.73,-4.03,-2.14,349,318,269,429,464
1003,-0.17,-0.97,0.15,0.85,-2.87,-3.05,348,318,269,432,462
1004,-0.17,-0.97,0.15,1.34,-2.62,-2.01,345,318,266,433,463
1005,-0.17,-0.97,0.15,1.89,-2.38,-2.62,349,321,266,432,482
1006,-0.17,-0.97,0.15,-0.61,-2.99,-1.65,351,318,267,431,460
1007,-0.18,-0.97,0.15,-0.79,-2.01,-2.14,351,315,273,430,463
1008,-0.17,-0.97,0.16,0.12,-3.11,-3.48,348,323,271,431,460
1009,-0.18,-0.97,0.15,0.85,-3.97,-2.32,349,318,282,431,461
1010,-0.17,-0.97,0.15,0.18,-2.69,-3.05,349,318,270,430,458
1011,-0.15,-0.97,0.15,1.46,-3.72,-2.99,349,315,272,430,462
1012,-0.17,-0.97,0.17,0.85,-3.54,-2.5,349,315,268,431,463
1013,-0.17,-0.97,0.16,0.06,-3.42,-2.56,350,318,271,429,458
1014,-0.15,-0.96,0.17,0.92,-4.76,-2.44,350,320,269,430,459
1015,-0.17,-0.97,0.17,-0.73,-3.48,-2.87,348,324,273,427,458
1016,-0.17,-0.97,0.17,-0.24,-3.6,-2.08,349,326,269,427,461
1017,-0.17,-0.97,0.17,-0.67,-2.87,-3.05,350,325,269,427,456
1018,-0.16,-0.97,0.15,0.0,-2.99,-2.93,352,325,269,426,473
1019,-0.17,-0.96,0.17,-1.65,-0.31,-2.87,349,321,269,429,497
1020,-0.17,-0.99,0.16,-4.7,-0.31,-2.56,351,324,272,425,459
1021,-0.17,-0.97,0.16,-0.18,-2.14,-2.01,350,323,272,426,455
1022,-0.18,-0.97,0.14,-1.83,-0.43,-3.17,351,323,270,426,463
1023,-0.17,-0.97,0.12,-1.89,-0.67,-2.75,349,325,271,424,459
1024,-0.19,-0.98,0.18,-1.46,-9.28,-3.11,346,327,276,425,453
1025,-0.15,-0.97,0.09,4.58,-4.39,-2.69,348,323,272,420,455
1026,-0.14,-0.97,0.15,1.65,-1.59,-2.75,351,318,271,419,454
1027,-0.14,-0.98,0.14,0.55,-3.6,-2.38,352,324,273,426,455
1028,-0.15,-0.97,0.16,1.59,-3.42,-1.65,345,324,272,426,455
1029,-0.15,-0.98,0.16,-1.46,-4.03,-3.3,351,321,274,419,452
1030,-0.14,-0.98,0.17,1.71,-3.78,-2.99,348,323,277,422,453
1031,-0.13,-0.97,0.16,0.37,-2.87,-2.32,349,321,274,423,457
1032,-0.15,-0.97,0.15,-0.31,-2.62,-2.87,347,327,274,423,458
1033,-0.13,-0.97,0.13,-0.43,-2.26,-1.59,349,325,271,422,459
1034,-0.13,-0.98,0.17,-4.33,-1.53,-0.98,347,324,273,425,458
1035,-0.15,-0.97,0.07,-12.7,1.53,-6.77,343,326,270,421,456
1036,-0.1,-0.99,0.06,-4.64,-10.31,1.53,344,329,276,419,457
1037,-0.15,-0.98,-0.0,-0.67,-7.87,9.64,344,328,274,414,453
1038,-0.15,-0.97,0.03,0.31,-22.09,-4.15,350,325,274,418,465
1039,-0.13,-0.98,0.1,4.46,-7.69,-3.78,350,322,274,415,453
1040,-0.15,-0.98,0.13,3.97,-4.88,-5.19,348,325,286,418,458
1041,-0.14,-0.98,0.16,1.4,-1.71,-3.6,349,321,274,415,451
1042,-0.14,-0.97,0.1,1.34,-5.31,-3.72,349,326,270,419,450
1043,-0.14,-0.97,0.11,-3.97,-0.43,-2.75,350,332,273,417,453
1044,-0.13,-0.98,0.14,-0.43,3.36,-5.55,348,327,275,421,450
1045,-0.16,-0.99,0.1,-0.49,-2.44,1.89,352,329,274,418,444
1046,-0.15,-0.98,0.11,1.34,-2.38,2.81,347,326,271,416,452
1047,-0.12,-0.98,0.09,6.1,-7.63,-2.5,349,328,272,416,451
1048,-0.15,-0.98,0.1,0.0,-4.64,-2.08,351,322,273,416,453
1049,-0.15,-0.98,0.1,2.44,-2.5,-3.11,349,331,273,413,452
1050,-0.15,-0.98,0.09,1.71,-1.53,-2.38,346,328,278,416,454
1051,-0.15,-0.98,0.1,1.4,-3.6,-2.2,348,325,274,422,450
1052,-0.16,-0.98,0.11,0.73,-2.08,-1.77,344,327,277,418,451
1053,-0.14,-0.98,0.09,-1.28,-7.81,0.31,346,333,272,414,450
1054,-0.16,-0.98,0.1,-0.49,-3.97,-2.01,347,328,275,417,449
1055,-0.16,-0.98,0.11,0.79,-3.72,-2.62,348,329,275,416,450
1056,-0.15,-0.98,0.1,1.77,-4.09,-1.83,344,326,276,415,450
1057,-0.17,-0.98,0.11,1.53,-2.81,-1.65,343,328,273,415,452
1058,-0.16,-0.98,0.11,-0.85,-2.44,-2.99,346,323,276,414,444
1059,-0.15,-0.98,0.1,0.18,-3.17,-2.75,347,327,273,415,448
1060,-0.14,-0.97,0.1,-0.85,5.37,-3.72,344,333,272,418,449
1061,-0.17,-0.98,0.03,-2.87,-7.81,-5.31,349,327,272,415,444
1062,-0.12,-0.98,0.08,-8.48,5.55,2.2,347,327,280,416,443
1063,-0.1,-0.99,0.06,-5.0,-5.37,-2.62,347,330,274,417,434
1064,-0.13,-0.99,0.04,-0.12,-2.01,-4.33,346,323,276,413,441
1065,-0.13,-0.99,0.03,1.77,1.04,-4.46,346,332,275,415,444
1066,-0.13,-0.99,0.04,3.3,-0.37,-0.37,349,332,273,411,443
1067,-0.13,-0.98,0.09,5.25,-2.62,-2.69,348,328,275,415,441
1068,-0.13,-0.98,0.09,0.55,-2.56,-2.69,345,328,275,414,439
1069,-0.14,-0.98,0.08,-0.73,-3.48,-2.01,345,330,276,415,437
1070,-0.14,-0.98,0.05,1.16,-2.62,-1.89,346,331,276,414,443
1071,-0.15,-0.98,0.08,0.73,-3.6,-2.14,346,328,273,411,443
1072,-0.14,-0.99,0.09,-0.18,-2.62,-2.44,348,328,273,411,439
1073,-0.14,-0.98,0.08,1.95,-3.66,-2.62,347,325,274,413,437
1074,-0.14,-0.98,0.1,0.61,-3.23,-2.14,346,328,271,413,440
1075,-0.14,-0.99,0.09,-0.85,-3.6,-2.99,345,329,272,410,443
1076,-0.13,-0.99,0.1,0.24,-3.3,-2.69,346,330,274,411,442
1077,-0.13,-0.98,0.07,0.24,-3.17,-1.4,347,330,273,409,439
1078,-0.13,-0.98,0.07,-0.24,-3.48,-2.44,348,335,273,410,443
1079,-0.14,-0.98,0.07,-1.16,-2.69,-2.2,347,329,275,414,441
1080,-0.14,-0.98,0.08,0.92,-4.03,-2.56,344,327,275,411,442
1081,-0.14,-0.98,0.06,1.77,-2.08,-2.32,348,337,273,414,441
1082,-0.13,-0.98,0.07,1.34,-3.85,-2.93,348,330,271,413,437
1083,-0.14,-0.98,0.08,1.95,-2.44,-2.69,344,328,274,410,441
1084,-0.13,-0.98,0.09,1.4,-3.66,-2.56,345,332,273,408,442
1085,-0.14,-0.98,0.09,0.0,-3.3,-2.56,348,331,273,413,440
1086,-0.14,-0.98,0.08,1.34,-3.78,-3.05,346,338,277,411,442
1087,-0.14,-0.98,0.08,1.77,-3.11,-2.2,348,330,280,410,439
1088,-0.14,-0.98,0.09,1.04,-3.42,-2.38,344,334,270,411,443
1089,-0.14,-0.98,0.1,0.24,-3.42,-2.62,344,336,271,411,443
1090,-0.15,-0.98,0.1,-0.37,-3.66,-2.08,346,335,272,410,442
1091,-0.13,-0.98,0.09,0.12,-3.48,-2.99,346,332,272,411,448
1092,-0.15,-0.98,0.1,-0.12,-3.23,-2.99,349,343,273,410,441
1093,-0.14,-0.98,0.1,0.55,-3.17,-2.2,346,335,271,411,440
1094,-0.14,-0.98,0.11,0.49,-2.69,-2.99,348,326,276,412,441
1095,-0.15,-0.98,0.11,1.22,-3.54,-1.83,346,333,273,410,434
1096,-0.14,-0.98,0.09,0.49,-2.81,-2.99,346,332,276,409,440
1097,-0.15,-0.98,0.12,0.18,-3.23,-1.4,348,332,274,410,438
1098,-0.15,-0.98,0.11,1.53,-3.11,-2.26,346,331,271,406,468
1099,-0.15,-0.97,0.09,0.61,-2.75,-3.05,345,327,278,410,437
1100,-0.14,-0.98,0.1,0.67,-3.23,-2.44,349,335,272,412,439
1101,-0.14,-0.98,0.11,0.79,-2.38,-2.87,347,331,276,409,437
1102,-0.13,-0.99,0.13,0.37,-2.87,-2.08,346,332,269,407,437
1103,-0.14,-0.98,0.1,0.55,-3.17,-2.62,349,336,271,409,439
1104,-0.14,-0.98,0.13,2.01,-3.54,-2.01,345,332,273,411,440
1105,-0.14,-0.98,0.12,-0.24,-2.01,-2.75,345,332,271,410,437
1106,-0.15,-0.98,0.11,0.85,-1.4,-2.5,347,334,273,409,438
1107,-0.15,-0.98,0.11,0.98,-3.97,-2.2,350,330,272,412,439
1108,-0.15,-0.98,0.11,-0.37,-2.87,-2.69,343,331,272,408,438
1109,-0.15,-0.98,0.11,-0.24,-3.23,-3.05,350,332,272,408,438
1110,-0.13,-0.98,0.11,1.89,-3.23,-2.44,344,332,273,411,438
1111,-0.15,-0.98,0.12,1.95,-2.93,-1.04,345,335,276,411,434
1112,-0.15,-0.98,0.13,1.46,-2.99,-2.14,347,336,273,407,439
1113,-0.15,-0.98,0.11,-1.1,-3.05,-2.26,346,337,274,409,438
1114,-0.15,-0.98,0.11,-1.4,-2.62,-2.69,348,333,272,409,438
1115,-0.16,-0.98,0.13,-2.87,-1.53,-4.27,347,337,271,407,436
1116,-0.14,-0.98,0.12,1.4,-2.38,-3.05,349,334,276,412,436
1117,-0.13,-0.98,0.17,3.48,-4.27,-1.4,346,329,273,406,437
1118,-0.14,-0.98,0.13,-1.16,-1.65,-3.05,354,331,274,413,437
1119,-0.15,-0.97,0.15,1.89,-0.79,-3.66,343,336,268,407,427
1120,-0.14,-0.98,0.13,0.92,-2.75,-2.01,346,334,271,410,437
1121,-0.13,-0.98,0.13,4.15,-4.58,-1.65,348,336,271,411,438
1122,-0.14,-0.98,0.14,-1.71,-3.6,-2.14,346,341,268,409,436
1123,-0.14,-0.98,0.14,0.37,-2.14,-3.72,346,337,271,409,440
1124,-0.16,-0.98,0.11,-0.73,-0.12,-5.19,346,337,267,413,436
1125,-0.11,-0.98,0.11,0.73,-2.08,-2.26,346,336,269,405,435
1126,-0.1,-1.0,0.06,-6.35,0.31,-1.1,347,339,269,408,437
1127,-0.11,-0.97,0.05,-8.91,1.16,-4.76,344,335,269,403,437
1128,-0.14,-0.99,0.05,4.82,-3.78,-2.62,340,335,272,403,430
1129,-0.15,-0.98,0.08,0.24,-1.53,-1.34,345,336,274,404,427
1130,-0.15,-0.98,0.05,-2.32,-1.89,-3.6,344,331,272,405,428
1131,-0.14,-0.98,0.05,1.89,-2.99,-3.17,344,335,272,405,431
1132,-0.14,-0.98,0.05,1.77,-3.36,-1.59,345,340,272,406,433
1133,-0.15,-0.98,0.07,0.12,-3.91,-1.22,344,332,275,402,432
1134,-0.15,-0.98,0.09,2.99,-3.72,-3.23,344,346,270,400,431
1135,-0.16,-0.98,0.09,-0.79,-1.4,-1.95,344,336,274,403,433
1136,-0.16,-0.98,0.08,-1.28,-2.87,-2.5,343,332,268,404,430
1137,-0.15,-0.98,0.09,1.53,-2.08,-2.32,345,339,273,405,432
1138,-0.16,-0.98,0.07,-0.06,-3.42,-3.05,346,337,274,403,429
1139,-0.15,-0.98,0.08,0.31,-2.99,-3.11,343,337,272,400,431
1140,-0.15,-0.98,0.09,0.67,-3.6,-2.87,343,340,271,404,437
1141,-0.14,-0.98,0.08,1.53,-3.3,-2.26,339,340,270,409,432
1142,-0.17,-0.98,0.09,0.73,-2.93,-2.99,344,332,272,407,432
1143,-0.17,-0.98,0.08,1.89,-3.6,-3.3,344,340,269,404,431
1144,-0.17,-0.98,0.09,0.79,-3.11,-1.77,344,336,278,404,431
1145,-0.16,-0.98,0.08,0.98,-1.16,-3.72,342,337,272,406,432
1146,-0.16,-0.98,0.08,-0.49,-3.48,-2.44,343,336,271,403,432
1147,-0.17,-0.98,0.1,1.83,-2.81,-2.38,341,339,274,409,428
1148,-0.16,-0.98,0.12,-1.16,-4.27,-2.26,346,336,277,404,430
1149,-0.16,-0.98,0.11,-0.18,-3.23,-2.93,343,336,270,405,433
1150,-0.17,-0.98,0.1,0.49,-2.26,-1.83,345,336,274,404,429
1151,-0.16,-0.98,0.12,0.92,-3.42,-1.59,340,334,276,408,431
1152,-0.14,-0.97,0.07,0.61,-4.52,-4.03,343,341,271,405,427
1153,-0.17,-0.97,0.1,-0.24,-1.22,-1.83,340,337,270,401,433
1154,-0.17,-0.98,0.1,0.31,-3.72,-2.87,341,339,272,406,431
1155,-0.17,-0.98,0.11,-0.06,-3.66,-1.89,344,332,277,407,430
1156,-0.17,-0.98,0.1,0.31,-3.42,-2.38,339,341,270,406,430
1157,-0.18,-0.98,0.1,0.18,-3.85,-2.69,342,332,274,403,438
1158,-0.16,-0.98,0.11,0.49,-2.93,-1.83,343,339,272,403,427
1159,-0.16,-0.98,0.12,0.24,-2.75,-2.62,344,338,274,406,430
1160,-0.17,-0.97,0.11,0.12,-2.44,-2.81,340,342,269,403,427
1161,-0.17,-0.97,0.11,-1.34,-1.16,-3.72,343,340,272,405,428
1162,-0.17,-0.98,0.12,0.67,-3.97,-2.99,341,337,275,403,426
1163,-0.18,-0.98,0.12,0.12,-3.72,-2.99,344,338,270,408,429
1164,-0.18,-0.97,0.11,2.75,-6.23,-2.2,345,339,273,404,432
1165,-0.16,-0.98,0.1,0.24,-1.83,-2.56,346,337,273,404,429
1166,-0.18,-0.98,0.11,0.37,-2.75,-2.44,343,336,275,403,432
1167,-0.16,-0.98,0.12,0.18,-2.26,-1.77,346,335,279,403,429
1168,-0.15,-0.97,0.1,-0.61,-1.28,-2.87,347,336,274,404,443
1169,-0.16,-0.97,0.11,0.73,-2.62,-2.26,343,333,270,404,428
1170,-0.18,-0.97,0.12,0.73,-3.78,-2.01,338,338,270,405,428
1171,-0.18,-0.97,0.12,0.0,-2.56,-2.99,343,339,271,404,426
1172,-0.18,-0.97,0.11,-0.92,-2.75,-2.75,342,341,272,402,437
1173,-0.17,-0.97,0.12,0.92,-2.75,-2.5,345,337,275,404,430
1174,-0.16,-0.98,0.14,-0.24,-2.56,-3.42,341,332,274,403,429
1175,-0.17,-0.97,0.13,1.22,-2.99,-2.2,344,332,276,405,430
1176,-0.16,-0.97,0.13,0.31,-2.32,-2.87,346,338,275,404,424
1177,-0.15,-0.98,0.14,4.15,-4.03,-1.65,344,340,267,405,428
1178,-0.16,-0.97,0.13,1.34,-3.66,-2.08,343,340,269,406,428
1179,-0.17,-0.98,0.16,2.81,-2.62,-1.71,344,337,271,404,426
1180,-0.17,-0.97,0.14,-0.79,-3.36,-2.87,340,338,275,404,441
1181,-0.18,-0.97,0.14,-0.18,-3.3,-2.08,341,341,270,403,429
1182,-0.16,-0.97,0.15,0.43,-1.4,-2.32,341,341,272,400,429
1183,-0.18,-0.97,0.15,-0.67,-2.01,-2.93,338,332,270,399,429
1184,-0.17,-0.97,0.14,-0.31,-1.28,-3.05,340,339,269,404,428
1185,-0.17,-0.97,0.13,1.1,-2.69,-2.38,337,333,275,404,430
1186,-0.16,-0.97,0.12,1.89,-3.42,-1.83,339,340,275,402,429
1187,-0.17,-0.97,0.13,0.18,-3.11,-2.69,334,338,270,407,430
1188,-0.15,-0.98,0.14,0.85,-1.34,-2.2,325,335,274,404,430
1189,-0.17,-0.97,0.14,-0.61,-2.81,-2.56,332,344,274,400,428
1190,-0.16,-0.97,0.13,-1.16,-0.92,-2.44,330,337,272,400,429
1191,-0.16,-0.97,0.11,-1.53,-2.26,-2.93,330,333,274,397,427
1192,-0.16,-0.97,0.13,1.53,-3.05,-2.81,330,334,276,405,428
1193,-0.15,-0.97,0.14,-0.55,-3.17,-2.93,330,333,276,401,424
1194,-0.15,-0.97,0.13,-1.59,-1.95,-2.99,330,337,271,403,429
1195,-0.16,-0.98,0.14,0.12,-2.75,-2.14,331,333,271,401,424
1196,-0.17,-0.97,0.13,2.08,-2.32,-2.14,333,335,270,401,428
1197,-0.2,-0.97,0.13,-2.32,13.0,1.59,328,338,271,401,427
1198,-0.18,-0.98,0.12,-8.0,-9.16,-3.66,331,337,278,403,426
1199,-0.14,-0.96,-0.06,-9.09,-3.85,-3.91,335,337,312,410,397
1200,-0.11,-1.0,-0.09,-13.43,3.72,-6.29,333,337,316,415,398
1201,-0.17,-0.95,-0.07,6.53,-0.79,-1.95,339,333,308,416,419
1202,-0.17,-0.97,-0.09,3.48,-2.2,-1.77,333,328,326,431,432
1203,-0.17,-0.97,-0.07,1.16,-2.93,-0.73,333,329,323,431,433
1204,-0.19,-0.96,-0.06,3.97,-1.53,-2.93,336,332,318,426,433
1205,-0.17,-0.98,-0.04,0.43,-2.81,-2.99,335,332,307,426,435
1206,-0.19,-0.99,-0.04,-1.71,-1.16,-1.22,340,328,282,422,427
1207,-0.2,-0.98,-0.03,1.65,-5.68,-2.38,338,331,292,422,431
1208,-0.18,-0.97,-0.05,-0.31,-4.27,-3.36,337,328,304,423,432
1209,-0.18,-0.97,-0.05,0.92,-2.44,-2.87,341,334,301,422,433
1210,-0.18,-0.98,-0.03,-0.06,-6.9,-2.99,341,332,298,419,433
1211,-0.18,-0.98,-0.04,0.31,-3.91,-2.99,340,328,298,423,434
1212,-0.18,-0.97,-0.05,1.22,-3.97,-2.26,338,338,295,422,433
1213,-0.18,-0.98,-0.04,1.16,-3.66,-2.38,342,333,294,420,431
1214,-0.18,-0.98,-0.05,-0.31,-2.38,-2.99,342,332,297,421,434
1215,-0.2,-0.98,-0.05,-1.04,-4.82,-4.76,342,336,297,419,432
1216,-0.16,-0.99,-0.01,-3.72,-3.42,-2.87,337,332,296,419,429
1217,-0.14,-0.98,-0.09,-4.39,-4.27,-4.39,340,333,297,421,446
1218,-0.15,-0.98,-0.1,2.62,-3.6,-2.99,340,339,295,418,430
1219,-0.14,-0.98,-0.07,2.38,-4.09,-3.3,343,330,299,421,427
1220,-0.15,-0.98,-0.07,-1.04,-1.22,-3.23,343,332,299,421,432
1221,-0.15,-0.98,-0.07,1.16,-1.22,-1.16,337,338,295,422,427
1222,-0.14,-0.98,-0.08,5.19,-4.58,-2.81,342,336,303,422,430
1223,-0.18,-0.99,-0.02,3.05,-1.46,-5.68,340,336,285,417,425
1224,-0.15,-0.97,-0.09,5.43,-1.53,-1.77,340,338,294,415,433
1225,-0.16,-0.99,-0.06,3.72,-3.11,-0.55,336,337,294,419,429
1226,-0.15,-0.97,-0.08,-0.98,-3.97,-4.39,341,338,288,417,428
1227,-0.16,-0.98,-0.06,1.53,-6.41,1.1,342,330,287,416,429
1228,-0.16,-0.98,-0.03,-9.7,-10.31,-2.32,340,329,288,413,469
1229,-0.18,-0.98,-0.11,0.49,-11.9,-0.79,341,336,282,420,429
1230,-0.18,-0.97,-0.13,5.19,-8.54,0.06,344,333,285,414,430
1231,-0.21,-0.98,-0.08,3.05,-3.6,-0.06,342,334,288,416,427
1232,-0.23,-0.96,-0.13,0.79,2.44,-0.73,342,334,287,415,426
1233,-0.21,-0.97,-0.08,2.81,-2.99,-2.93,333,339,286,421,432
1234,-0.22,-0.97,-0.06,1.59,-1.71,0.49,338,339,286,423,441
1235,-0.21,-0.97,-0.05,1.65,-2.08,-4.03,343,335,301,413,426
1236,-0.19,-0.97,-0.09,0.79,-1.34,-3.05,340,339,287,412,427
1237,-0.2,-0.97,-0.07,2.44,-3.05,-2.32,340,336,286,418,423
1238,-0.2,-0.98,-0.06,3.36,-1.4,-1.34,342,336,286,420,423
1239,-0.19,-0.97,-0.08,-1.16,-2.08,-2.44,342,339,287,415,423
1240,-0.2,-0.97,-0.08,-0.12,-0.92,-2.2,341,335,289,415,422
1241,-0.2,-0.97,-0.08,1.28,-3.42,-1.59,338,332,288,418,426
1242,-0.21,-0.97,-0.06,1.16,-3.54,-2.44,342,336,285,418,424
1243,-0.2,-0.97,-0.07,-0.43,-2.75,-2.93,342,336,288,415,424
1244,-0.19,-0.97,-0.07,1.04,-2.99,-2.87,342,332,295,416,423
1245,-0.17,-0.98,-0.07,-1.22,-1.53,-1.4,342,340,290,418,429
1246,-0.17,-0.98,-0.06,-3.91,-9.7,-3.3,343,337,288,413,423
1247,-0.16,-0.97,-0.09,-3.3,-41.63,-15.99,342,336,287,417,426
1248,-0.17,-0.99,-0.07,4.64,-5.25,-4.82,344,337,283,413,423
1249,-0.18,-0.97,-0.09,-2.69,-2.62,-2.38,343,336,287,416,427
1250,-0.17,-0.97,-0.11,-0.49,-1.22,-2.32,342,339,287,414,421
1251,-0.16,-0.97,-0.13,15.56,-3.78,-1.83,340,331,299,413,423
1252,-0.18,-0.97,-0.11,-2.08,-2.62,-3.3,339,340,285,412,422
1253,-0.18,-0.98,-0.08,0.06,1.22,-5.37,341,338,284,420,423
1254,-0.13,-0.98,-0.11,0.85,-2.14,-2.08,344,336,285,413,422
1255,-0.16,-0.97,-0.12,0.98,-4.39,-2.5,339,336,285,409,421
1256,-0.16,-0.97,-0.12,0.67,-2.08,-1.65,340,335,281,414,419
1257,-0.16,-0.97,-0.11,1.22,-4.03,-1.71,343,336,284,411,424
1258,-0.17,-0.97,-0.11,0.61,-3.85,-2.75,343,339,282,414,424
1259,-0.15,-0.98,-0.1,3.97,-4.52,-2.14,340,342,287,411,420
1260,-0.17,-0.97,-0.11,0.79,-3.72,-2.44,343,340,299,413,421
1261,-0.15,-0.97,-0.11,1.04,-1.77,-2.69,343,334,283,409,424
1262,-0.17,-0.97,-0.09,3.91,-2.75,-6.29,340,336,283,410,421
1263,-0.15,-0.97,-0.12,-2.5,-1.89,-3.66,342,331,283,416,422
1264,-0.14,-0.98,-0.12,-1.71,-1.65,-2.87,343,337,284,409,419
1265,-0.15,-0.98,-0.11,2.62,-2.99,-2.2,340,341,285,423,424
1266,-0.15,-0.97,-0.11,0.92,-3.11,-2.75,341,337,286,410,421
1267,-0.15,-0.98,-0.11,0.55,-3.6,-2.38,344,340,294,407,424
1268,-0.16,-0.98,-0.11,2.14,-4.7,-2.38,340,337,286,410,422
1269,-0.14,-0.98,-0.1,0.61,-3.36,-3.05,342,332,282,410,422
1270,-0.16,-0.98,-0.09,2.62,-2.99,-3.11,343,337,284,413,422
1271,-0.15,-0.98,-0.1,-0.49,-2.32,-2.26,338,338,284,409,420
1272,-0.17,-0.97,-0.09,1.77,-3.42,-2.62,341,340,286,409,460
1273,-0.16,-0.98,-0.07,-1.34,-3.85,-2.32,341,337,284,408,422
1274,-0.16,-0.98,-0.08,0.61,-2.81,-2.75,341,342,287,411,422
1275,-0.17,-0.98,-0.07,0.12,-2.44,-2.56,340,343,283,409,425
1276,-0.16,-0.98,-0.07,1.59,-2.08,-3.11,343,342,287,410,422
1277,-0.17,-0.98,-0.08,0.06,-3.23,-2.01,340,334,286,409,423
1278,-0.16,-0.98,-0.08,0.12,-2.93,-3.17,341,341,286,410,420
1279,-0.17,-0.98,-0.08,-0.61,-3.23,-3.17,338,342,285,412,423
1280,-0.15,-0.98,-0.07,-1.77,0.18,-2.44,339,337,287,408,430
1281,-0.16,-0.97,-0.1,0.06,-2.56,-2.14,343,339,287,411,423
1282,-0.21,-0.98,-0.09,2.87,26.67,9.4,341,337,282,409,421
1283,-0.13,-0.96,-0.17,-3.91,0.49,-7.93,341,340,284,408,423
1284,-0.17,-0.97,-0.17,-5.98,-2.56,-4.7,342,338,288,408,463
1285,-0.08,-0.97,-0.18,-5.62,-11.47,-2.75,340,339,285,409,425
1286,-0.13,-0.98,-0.16,3.72,4.46,1.34,344,342,286,405,423
1287,-0.15,-0.98,-0.13,1.77,-2.08,-1.04,343,334,285,409,422
1288,-0.13,-0.96,-0.22,-4.94,-4.52,-10.93,344,336,288,410,423
1289,-0.23,-0.95,-0.23,6.16,3.42,-1.16,344,342,283,409,418
1290,-0.18,-0.96,-0.18,4.03,-1.59,0.24,343,339,286,408,423
1291,-0.17,-0.97,-0.17,-1.46,-2.38,-2.75,342,339,285,407,425
1292,-0.17,-0.96,-0.17,0.92,-1.89,-3.23,344,335,287,406,422
1293,-0.16,-0.96,-0.19,-2.62,-4.39,-1.46,342,342,286,407,422
1294,-0.17,-0.96,-0.2,0.85,-3.36,-1.53,338,339,288,408,421
1295,-0.17,-0.96,-0.19,1.59,-3.72,-2.01,341,343,288,409,422
1296,-0.16,-0.96,-0.19,0.06,-3.3,-4.09,344,343,286,408,421
1297,-0.16,-0.96,-0.19,-0.43,-2.81,-3.36,342,343,288,408,420
1298,-0.15,-0.96,-0.19,0.18,-3.11,-2.01,344,342,289,408,422
1299,-0.17,-0.96,-0.18,-0.12,-2.81,-2.08,342,343,285,409,425
1300,-0.17,-0.96,-0.18,-1.16,-2.56,-2.14,342,339,288,409,427
1301,-0.17,-0.96,-0.19,1.22,-2.32,-2.14,338,339,286,412,422
1302,-0.18,-0.96,-0.19,0.43,-1.59,-2.93,343,339,285,414,422
1303,-0.17,-0.96,-0.18,1.46,-1.46,-1.71,344,339,288,411,421
1304,-0.19,-0.96,-0.16,0.49,-4.21,-1.04,343,339,289,408,424
1305,-0.18,-0.96,-0.17,-1.28,-2.32,-3.3,342,340,285,409,422
1306,-0.19,-0.96,-0.19,-1.46,-3.05,-1.77,342,336,290,408,425
1307,-0.18,-0.96,-0.16,-0.06,-0.79,-1.77,342,343,283,408,423
1308,-0.18,-0.96,-0.16,-0.73,-3.11,-2.32,342,343,289,409,425
1309,-0.19,-0.96,-0.17,-0.79,-2.38,-3.48,344,345,289,409,419
1310,-0.18,-0.96,-0.17,-1.65,-2.01,-3.48,343,339,287,406,422
1311,-0.19,-0.96,-0.18,1.04,-2.87,-2.44,342,345,287,410,426
1312,-0.19,-0.96,-0.18,0.31,-3.23,-2.56,341,339,286,410,454
1313,-0.19,-0.96,-0.17,0.49,-3.48,-2.44,343,342,286,404,444
1314,-0.19,-0.96,-0.18,0.92,-3.48,-3.36,340,339,285,407,421
1315,-0.18,-0.96,-0.17,0.67,-3.05,-2.99,342,346,284,411,423
1316,-0.17,-0.96,-0.18,-0.43,-1.89,-2.01,343,340,290,424,422
1317,-0.2,-0.96,-0.18,1.46,-3.42,-1.46,343,343,286,410,422
1318,-0.19,-0.96,-0.18,0.73,-3.11,-2.2,330,343,286,406,421
1319,-0.19,-0.96,-0.17,-0.98,-2.99,-2.99,343,338,288,409,430
1320,-0.19,-0.96,-0.18,0.31,-2.87,-2.2,343,339,286,409,419
1321,-0.19,-0.96,-0.16,0.85,-2.87,-2.62,342,338,286,413,423
1322,-0.19,-0.96,-0.17,0.37,-3.05,-3.36,341,335,299,406,424
1323,-0.19,-0.96,-0.16,0.49,-2.93,-1.95,343,339,285,408,422
1324,-0.19,-0.96,-0.17,0.31,-3.85,-1.53,340,337,284,404,422
1325,-0.19,-0.96,-0.17,-0.92,-3.05,-3.05,343,342,290,414,421
1326,-0.2,-0.96,-0.17,0.0,-2.87,-1.77,340,343,287,404,422
1327,-0.2,-0.96,-0.16,-0.06,-2.5,-2.5,343,338,290,408,424
1328,-0.2,-0.96,-0.16,0.12,-3.54,-2.32,341,342,287,407,420
1329,-0.19,-0.96,-0.16,-0.06,-3.17,-2.81,343,341,292,404,422
1330,-0.19,-0.96,-0.17,0.85,-3.3,-2.87,342,355,285,405,423
1331,-0.2,-0.96,-0.17,1.04,-2.5,-1.95,341,349,287,410,424
1332,-0.19,-0.96,-0.16,-0.55,-2.44,-2.32,342,345,286,409,421
1333,-0.2,-0.96,-0.16,0.43,-2.81,-2.14,340,342,287,405,423
1334,-0.21,-0.95,-0.17,0.06,-2.62,-2.5,346,340,286,408,419
1335,-0.2,-0.96,-0.17,-0.12,-2.08,-2.56,348,340,283,408,422
1336,-0.2,-0.96,-0.17,0.43,-3.05,-2.75,342,340,284,407,423
1337,-0.2,-0.96,-0.17,0.0,-2.5,-3.05,343,340,284,407,419
1338,-0.2,-0.96,-0.17,1.1,-3.91,-2.62,344,343,285,407,419
1339,-0.2,-0.96,-0.16,-0.12,-2.93,-1.89,346,340,288,411,425
1340,-0.2,-0.96,-0.16,0.24,-3.48,-2.2,344,340,285,408,422
1341,-0.2,-0.96,-0.16,0.49,-2.87,-2.5,343,340,285,409,423
1342,-0.2,-0.96,-0.17,0.24,-2.87,-2.81,339,341,287,407,424
1343,-0.21,-0.96,-0.17,0.85,-3.54,-2.69,340,351,289,408,421
1344,-0.21,-0.96,-0.16,1.46,-3.17,-2.5,343,344,286,409,421
1345,-0.2,-0.96,-0.16,1.16,-3.48,-2.38,348,336,287,408,421
1346,-0.2,-0.96,-0.16,-0.37,-2.56,-2.38,345,341,290,409,422
1347,-0.21,-0.96,-0.16,0.12,-3.05,-2.38,345,339,286,406,423
1348,-0.21,-0.96,-0.15,-0.55,-3.17,-2.5,345,337,289,407,422
1349,-0.21,-0.95,-0.17,0.31,-3.3,-2.44,344,341,287,407,425
1350,-0.2,-0.96,-0.16,0.43,-3.23,-2.2,337,361,289,406,419
1351,-0.21,-0.96,-0.16,-0.18,-3.05,-3.17,344,345,284,408,422
1352,-0.21,-0.96,-0.16,1.4,-3.17,-2.87,343,342,290,406,424
1353,-0.2,-0.96,-0.15,0.12,-1.83,-3.23,346,341,289,405,420
1354,-0.21,-0.96,-0.16,0.31,-3.6,-1.59,339,342,287,405,418
1355,-0.21,-0.96,-0.16,0.06,-2.44,-2.44,339,341,289,403,423
1356,-0.2,-0.95,-0.17,-0.06,-2.56,-2.32,346,341,289,407,421
1357,-0.21,-0.96,-0.17,0.61,-3.23,-2.08,342,344,287,409,422
1358,-0.21,-0.96,-0.16,-0.67,-1.46,-3.17,342,341,289,406,423
1359,-0.21,-0.96,-0.18,1.89,0.85,-3.6,349,339,289,407,422
1360,-0.24,-0.98,-0.11,8.18,-21.79,-4.46,343,343,286,405,419
1361,-0.23,-0.96,-0.08,-10.01,2.38,1.59,338,339,280,405,422
1362,-0.21,-0.96,-0.14,0.0,-2.5,-0.85,342,337,285,415,420
1363,-0.2,-0.96,-0.13,1.65,-3.78,-1.4,342,341,281,412,419
1364,-0.19,-0.96,-0.12,-4.39,-2.14,-4.33,342,340,284,410,422
1365,-0.21,-0.97,-0.11,2.2,-1.28,-2.62,346,344,283,410,422
1366,-0.2,-0.97,-0.13,1.04,-2.38,-1.53,344,341,286,410,433
1367,-0.21,-0.96,-0.13,3.48,-2.5,-5.68,340,341,288,409,423
1368,-0.21,-0.97,-0.13,0.49,-0.73,-3.78,346,344,285,409,422
1369,-0.13,-0.98,-0.11,2.32,-2.56,-4.03,352,345,286,409,422
1370,-0.16,-0.97,-0.14,-2.32,9.58,-15.87,348,341,286,411,422
1371,-0.03,-0.99,-0.11,4.52,0.31,1.95,344,337,286,407,421
1372,-0.08,-0.98,-0.1,3.85,0.92,-2.14,343,343,288,409,422
1373,-0.09,-0.98,-0.15,-6.77,-7.39,-2.81,339,338,279,403,424
1374,-0.08,-1.0,-0.09,-5.37,-5.62,-1.22,339,341,290,401,423
1375,-0.1,-0.99,-0.1,-0.55,1.1,-1.4,334,345,277,401,422
1376,-0.1,-0.98,-0.12,0.61,-3.97,-1.65,328,341,275,399,418
1377,-0.11,-0.98,-0.11,-0.61,-2.44,-2.01,327,337,276,407,421
1378,-0.11,-0.99,-0.1,1.28,-2.44,-2.26,327,339,274,398,419
1379,-0.09,-0.98,-0.11,0.55,-4.21,-2.75,329,333,277,399,421
1380,-0.1,-0.98,-0.12,-1.59,-2.93,-2.01,331,336,278,398,422
1381,-0.1,-0.97,-0.13,1.71,-5.55,-1.65,337,341,277,401,419
1382,-0.12,-0.97,-0.13,2.44,-5.86,-1.89,336,342,296,414,418
1383,-0.12,-0.98,-0.12,0.31,-3.91,-1.83,339,337,291,412,459
1384,-0.13,-0.98,-0.13,2.32,-3.78,-2.44,337,338,277,405,414
1385,-0.14,-0.97,-0.15,9.64,-3.6,-1.59,341,341,279,409,419
1386,-0.14,-0.97,-0.12,-0.98,-2.44,-2.87,342,338,286,408,426
1387,-0.14,-0.98,-0.11,-15.38,-4.46,-2.81,337,340,286,407,420
1388,-0.13,-0.98,-0.1,2.81,5.31,-0.67,339,335,281,404,421
1389,-0.13,-0.97,-0.11,-3.48,-3.17,-2.87,340,342,280,406,418
1390,-0.14,-0.99,-0.05,4.88,-6.35,-9.4,342,337,286,405,419
1391,-0.07,-0.97,-0.15,8.3,-0.12,-6.41,339,334,285,405,416
1392,0.01,-0.98,-0.07,-5.43,-13.12,-27.34,341,341,283,408,417
1393,0.11,-1.01,0.03,10.44,-7.39,-5.8,343,345,285,407,419
1394,0.06,-0.99,-0.03,0.31,-10.99,5.43,339,341,285,406,419
1395,-0.04,-0.99,-0.03,-5.13,-7.14,0.37,343,340,286,406,415
1396,-0.03,-1.0,-0.03,1.16,-4.94,1.83,342,344,284,405,418
1397,-0.02,-0.99,-0.05,-2.99,-6.96,-4.27,340,339,280,408,418
1398,-0.06,-0.99,-0.08,-1.53,-3.42,1.95,340,335,280,402,424
1399,-0.06,-0.99,-0.09,-7.87,-2.26,-4.82,340,342,283,405,441
1400,-0.1,-1.0,-0.07,3.05,-4.27,1.1,344,340,284,405,422
1401,-0.1,-0.99,-0.08,2.2,-2.44,0.92,339,343,284,404,416
1402,-0.1,-0.99,-0.09,-5.86,-1.77,-4.64,344,345,284,403,419
1403,-0.09,-0.98,-0.09,-0.73,-2.32,-3.36,342,346,283,403,417
1404,-0.11,-0.98,-0.12,-0.55,-2.93,-1.59,342,343,282,406,420
1405,-0.09,-0.99,-0.12,-1.4,-2.69,-2.2,342,341,285,406,419
1406,-0.08,-0.99,-0.12,0.85,-3.48,-1.71,342,342,284,406,421
1407,-0.07,-0.98,-0.12,-1.46,-3.85,-0.31,342,345,283,406,418
1408,-0.08,-0.98,-0.13,-3.66,-3.05,-2.38,344,340,278,402,417
1409,-0.08,-0.98,-0.12,-0.12,-3.54,-4.15,343,345,284,401,419
1410,-0.1,-0.98,-0.12,-0.37,-2.56,-2.5,342,343,284,409,421
1411,-0.1,-0.98,-0.14,0.24,-3.85,-1.77,341,343,281,406,420
1412,-0.09,-0.98,-0.13,0.12,-2.75,-2.81,346,338,284,407,417
1413,-0.09,-0.98,-0.13,-0.06,-3.42,-3.05,343,338,282,406,418
1414,-0.11,-0.98,-0.11,0.49,-3.05,-3.36,344,339,284,413,414
1415,-0.11,-0.99,-0.11,1.22,-2.62,-2.44,344,343,286,406,419
1416,-0.12,-0.98,-0.14,-1.59,-3.91,-0.67,345,343,284,407,416
1417,-0.11,-0.98,-0.13,0.85,-2.38,-4.46,340,339,283,401,420
1418,-0.1,-0.98,-0.12,0.43,-3.36,-3.17,346,341,283,405,418
1419,-0.11,-0.98,-0.12,2.2,-4.15,-2.08,346,339,286,401,418
1420,-0.1,-0.98,-0.13,1.77,-3.3,-1.16,343,343,284,406,417
1421,-0.11,-0.97,-0.14,-0.43,-3.3,-1.59,354,343,284,404,414
1422,-0.11,-0.98,-0.13,-0.49,-3.36,-1.34,340,343,286,404,418
1423,-0.11,-0.98,-0.13,-0.79,-3.66,-2.75,344,338,287,405,418
1424,-0.12,-0.98,-0.13,1.65,-2.2,-2.87,344,344,284,406,421
1425,-0.13,-0.97,-0.14,-0.24,-4.21,-2.26,348,347,291,405,419
1426,-0.12,-0.98,-0.15,-1.1,-3.05,-2.56,346,353,296,400,417
1427,-0.11,-0.98,-0.15,-0.06,-3.36,-2.2,344,340,301,406,417
1428,-0.12,-0.97,-0.19,1.83,-4.76,-1.46,344,344,300,403,420
1429,-0.12,-0.97,-0.17,4.39,-5.13,-2.75,344,343,299,405,417
1430,-0.12,-0.97,-0.17,-1.16,-2.99,-3.17,344,347,303,409,416
1431,-0.12,-0.97,-0.18,-1.22,-3.91,-2.08,341,347,299,408,425
1432,-0.12,-0.97,-0.18,-1.04,-2.99,-2.62,343,344,302,404,413
1433,-0.11,-0.98,-0.17,1.16,-3.97,-0.85,344,341,294,404,414
1434,-0.11,-0.97,-0.18,-0.12,-1.83,-3.11,350,349,297,407,428
1435,-0.12,-0.96,-0.18,-0.85,-2.81,-3.05,343,345,294,408,416
1436,-0.12,-0.96,-0.18,0.37,-1.83,-3.05,344,346,297,410,415
1437,-0.12,-0.97,-0.18,0.85,-3.17,-2.62,344,347,293,407,437
1438,-0.12,-0.97,-0.18,-1.28,-2.99,-2.01,345,349,299,406,417
1439,-0.13,-0.97,-0.17,-1.59,-2.75,-2.5,344,356,295,411,416
1440,-0.13,-0.97,-0.18,1.34,-2.01,-1.4,345,349,297,410,419
1441,-0.12,-0.97,-0.19,-0.18,-3.11,-1.46,347,345,296,404,417
1442,-0.12,-0.96,-0.2,0.73,-3.78,-1.83,348,345,295,404,418
1443,-0.13,-0.97,-0.19,0.37,-2.44,-3.78,341,342,295,410,419
1444,-0.11,-0.97,-0.19,0.92,-2.75,-2.38,346,347,295,406,416
1445,-0.12,-0.97,-0.18,-0.06,-3.72,-2.56,341,349,294,408,416
1446,-0.11,-0.97,-0.18,0.92,-2.5,-2.62,346,343,297,407,419
1447,-0.13,-0.97,-0.18,1.22,-2.99,-1.77,342,346,298,407,444
1448,-0.12,-0.97,-0.19,0.06,-2.99,-2.56,344,344,294,404,416
1449,-0.12,-0.97,-0.18,0.0,-3.66,-2.75,341,349,291,408,413
1450,-0.13,-0.97,-0.19,0.79,-3.05,-2.99,348,348,297,406,417
1451,-0.12,-0.97,-0.18,-0.37,-3.54,-2.32,346,345,296,405,418
1452,-0.13,-0.96,-0.2,0.49,-3.66,-2.5,345,348,295,406,414
1453,-0.12,-0.97,-0.19,0.92,-3.05,-3.11,345,348,294,408,417
1454,-0.12,-0.97,-0.19,0.24,-2.99,-2.69,347,347,300,406,416
1455,-0.11,-0.97,-0.19,0.61,-3.11,-2.56,345,341,296,404,418
1456,-0.12,-0.97,-0.19,0.12,-3.17,-2.44,342,344,295,403,414
1457,-0.12,-0.97,-0.18,-1.65,-4.03,-1.46,343,346,298,406,417
1458,-0.11,-0.97,-0.19,1.22,-2.26,-1.04,346,345,294,402,416
1459,-0.12,-0.97,-0.19,-1.04,-2.87,-1.83,345,356,294,407,417
1460,-0.13,-0.97,-0.19,0.31,-3.17,-2.38,347,345,295,406,417
1461,-0.13,-0.97,-0.19,-1.16,-3.36,-2.56,345,349,297,404,417
1462,-0.13,-0.96,-0.2,-0.49,-3.6,-3.11,345,349,305,407,417
1463,-0.13,-0.96,-0.19,0.92,-2.99,-2.32,346,348,298,407,415
1464,-0.12,-0.97,-0.19,1.22,-3.42,-1.46,344,351,294,406,417
1465,-0.12,-0.97,-0.19,1.28,-2.5,-2.56,346,340,296,406,420
1466,-0.12,-0.97,-0.2,-0.79,-2.69,-2.56,346,345,294,406,416
1467,-0.13,-0.97,-0.19,0.06,-2.26,-2.08,346,346,298,406,419
1468,-0.12,-0.96,-0.2,-0.06,-3.48,-2.26,348,347,292,406,412
1469,-0.13,-0.97,-0.18,-0.24,-2.69,-1.95,347,349,296,405,416
1470,-0.12,-0.96,-0.19,1.04,-3.3,-2.69,342,346,300,407,417
1471,-0.09,-0.96,-0.19,-0.24,-1.28,-2.2,347,348,302,409,419
1472,-0.12,-0.97,-0.19,-1.65,-2.5,-2.08,348,348,303,408,416
1473,-0.12,-0.96,-0.2,-1.34,-3.66,-2.81,347,346,299,412,417
1474,-0.12,-0.96,-0.19,0.92,-3.6,-2.2,348,345,301,410,413
1475,-0.13,-0.96,-0.19,2.93,-2.75,-1.83,347,349,301,408,420
1476,-0.13,-0.97,-0.19,-1.16,-2.87,-2.69,346,352,301,408,417
1477,-0.12,-0.97,-0.19,0.73,-3.05,-2.93,346,343,302,411,417
1478,-0.12,-0.97,-0.18,-0.18,-2.81,-2.01,344,344,297,409,417
1479,-0.12,-0.97,-0.19,0.12,-2.32,-1.95,347,346,301,407,416
1480,-0.11,-0.97,-0.19,1.59,-2.38,-2.99,346,348,300,409,413
1481,-0.12,-0.97,-0.18,-1.1,-2.69,-0.98,348,351,302,411,418
1482,-0.13,-0.97,-0.19,0.06,-2.75,-2.38,353,349,300,411,423
1483,-0.12,-0.97,-0.19,0.0,-3.36,-2.32,347,348,298,411,416
1484,-0.13,-0.97,-0.19,-0.43,-2.75,-2.87,348,347,300,409,417
1485,-0.12,-0.97,-0.19,0.31,-3.48,-2.5,347,347,297,408,417
1486,-0.12,-0.97,-0.19,-0.31,-3.97,-2.14,348,346,301,409,417
1487,-0.13,-0.97,-0.19,-1.4,-3.05,-2.44,349,351,299,412,421
1488,-0.12,-0.97,-0.2,0.73,-3.05,-2.38,351,343,298,410,414
1489,-0.12,-0.96,-0.19,0.12,-2.99,-2.2,350,352,299,411,417
1490,-0.14,-0.96,-0.2,-0.79,-3.85,-2.26,350,345,298,409,423
1491,-0.12,-0.96,-0.19,-0.12,-2.81,-2.56,351,346,303,405,418
1492,-0.14,-0.96,-0.2,-0.55,-3.11,-2.87,346,344,302,407,418
1493,-0.12,-0.97,-0.19,0.12,-2.62,-2.2,354,347,298,409,416
1494,-0.13,-0.96,-0.2,0.0,-2.14,-2.14,349,344,301,408,413
1495,-0.13,-0.96,-0.2,0.67,-3.6,-2.75,349,346,302,406,416
1496,-0.13,-0.96,-0.2,0.55,-3.05,-2.44,351,345,297,409,417
1497,-0.12,-0.97,-0.2,0.12,-2.62,-2.5,351,346,302,408,417
1498,-0.13,-0.96,-0.2,0.0,-3.17,-2.44,348,348,298,407,418
1499,-0.13,-0.97,-0.2,-0.61,-2.26,-2.01,349,347,297,408,414
1500,-0.13,-0.96,-0.2,0.12,-3.05,-2.93,345,351,298,405,417
1501,-0.13,-0.96,-0.2,0.43,-2.56,-2.26,350,350,297,408,417
1502,-0.12,-0.96,-0.19,0.12,-3.17,-1.83,347,343,304,405,416
1503,-0.17,-0.97,0.15,0.73,-4.03,-2.14,349,318,269,429,464
1504,-0.17,-0.97,0.15,0.85,-2.87,-3.05,348,318,269,432,462
1505,-0.17,-0.97,0.15,1.34,-2.62,-2.01,345,318,266,433,463
1506,-0.17,-0.97,0.15,1.89,-2.38,-2.62,349,321,266,432,482
1507,-0.17,-0.97,0.15,-0.61,-2.99,-1.65,351,318,267,431,460
1508,-0.18,-0.97,0.15,-0.79,-2.01,-2.14,351,315,273,430,463
1509,-0.17,-0.97,0.16,0.12,-3.11,-3.48,348,323,271,431,460
1510,-0.18,-0.97,0.15,0.85,-3.97,-2.32,349,318,282,431,461
1511,-0.17,-0.97,0.15,0.18,-2.69,-3.05,349,318,270,430,458
1512,-0.15,-0.97,0.15,1.46,-3.72,-2.99,349,315,272,430,462
1513,-0.17,-0.97,0.17,0.85,-3.54,-2.5,349,315,268,431,463
1514,-0.17,-0.97,0.16,0.06,-3.42,-2.56,350,318,271,429,458
1515,-0.15,-0.96,0.17,0.92,-4.76,-2.44,350,320,269,430,459
1516,-0.17,-0.97,0.17,-0.73,-3.48,-2.87,348,324,273,427,458
1517,-0.17,-0.97,0.17,-0.24,-3.6,-2.08,349,326,269,427,461
1518,-0.17,-0.97,0.17,-0.67,-2.87,-3.05,350,325,269,427,456
1519,-0.16,-0.97,0.15,0.0,-2.99,-2.93,352,325,269,426,473
1520,-0.17,-0.96,0.17,-1.65,-0.31,-2.87,349,321,269,429,497
1521,-0.17,-0.99,0.16,-4.7,-0.31,-2.56,351,324,272,425,459
1522,-0.17,-0.97,0.16,-0.18,-2.14,-2.01,350,323,272,426,455
1523,-0.18,-0.97,0.14,-1.83,-0.43,-3.17,351,323,270,426,463
1524,-0.17,-0.97,0.12,-1.89,-0.67,-2.75,349,325,271,424,459
1525,-0.19,-0.98,0.18,-1.46,-9.28,-3.11,346,327,276,425,453
1526,-0.15,-0.97,0.09,4.58,-4.39,-2.69,348,323,272,420,455
1527,-0.14,-0.97,0.15,1.65,-1.59,-2.75,351,318,271,419,454
1528,-0.14,-0.98,0.14,0.55,-3.6,-2.38,352,324,273,426,455
1529,-0.15,-0.97,0.16,1.59,-3.42,-1.65,345,324,272,426,455
1530,-0.15,-0.98,0.16,-1.46,-4.03,-3.3,351,321,274,419,452
1531,-0.14,-0.98,0.17,1.71,-3.78,-2.99,348,323,277,422,453
1532,-0.13,-0.97,0.16,0.37,-2.87,-2.32,349,321,274,423,457
1533,-0.15,-0.97,0.15,-0.31,-2.62,-2.87,347,327,274,423,458
1534,-0.13,-0.97,0.13,-0.43,-2.26,-1.59,349,325,271,422,459
1535,-0.13,-0.98,0.17,-4.33,-1.53,-0.98,347,324,273,425,458
1536,-0.15,-0.97,0.07,-12.7,1.53,-6.77,343,326,270,421,456
1537,-0.1,-0.99,0.06,-4.64,-10.31,1.53,344,329,276,419,457
1538,-0.15,-0.98,-0.0,-0.67,-7.87,9.64,344,328,274,414,453
1539,-0.15,-0.97,0.03,0.31,-22.09,-4.15,350,325,274,418,465
1540,-0.13,-0.98,0.1,4.46,-7.69,-3.78,350,322,274,415,453
1541,-0.15,-0.98,0.13,3.97,-4.88,-5.19,348,325,286,418,458
1542,-0.14,-0.98,0.16,1.4,-1.71,-3.6,349,321,274,415,451
1543,-0.14,-0.97,0.1,1.34,-5.31,-3.72,349,326,270,419,450
1544,-0.14,-0.97,0.11,-3.97,-0.43,-2.75,350,332,273,417,453
1545,-0.13,-0.98,0.14,-0.43,3.36,-5.55,348,327,275,421,450
1546,-0.16,-0.99,0.1,-0.49,-2.44,1.89,352,329,274,418,444
1547,-0.15,-0.98,0.11,1.34,-2.38,2.81,347,326,271,416,452
1548,-0.12,-0.98,0.09,6.1,-7.63,-2.5,349,328,272,416,451
1549,-0.15,-0.98,0.1,0.0,-4.64,-2.08,351,322,273,416,453
1550,-0.15,-0.98,0.1,2.44,-2.5,-3.11,349,331,273,413,452
1551,-0.15,-0.98,0.09,1.71,-1.53,-2.38,346,328,278,416,454
1552,-0.15,-0.98,0.1,1.4,-3.6,-2.2,348,325,274,422,450
1553,-0.16,-0.98,0.11,0.73,-2.08,-1.77,344,327,277,418,451
1554,-0.14,-0.98,0.09,-1.28,-7.81,0.31,346,333,272,414,450
1555,-0.16,-0.98,0.1,-0.49,-3.97,-2.01,347,328,275,417,449
1556,-0.16,-0.98,0.11,0.79,-3.72,-2.62,348,329,275,416,450
1557,-0.15,-0.98,0.1,1.77,-4.09,-1.83,344,326,276,415,450
1558,-0.17,-0.98,0.11,1.53,-2.81,-1.65,343,328,273,415,452
1559,-0.16,-0.98,0.11,-0.85,-2.44,-2.99,346,323,276,414,444
1560,-0.15,-0.98,0.1,0.18,-3.17,-2.75,347,327,273,415,448
1561,-0.14,-0.97,0.1,-0.85,5.37,-3.72,344,333,272,418,449
1562,-0.17,-0.98,0.03,-2.87,-7.81,-5.31,349,327,272,415,444
1563,-0.12,-0.98,0.08,-8.48,5.55,2.2,347,327,280,416,443
1564,-0.1,-0.99,0.06,-5.0,-5.37,-2.62,347,330,274,417,434
1565,-0.13,-0.99,0.04,-0.12,-2.01,-4.33,346,323,276,413,441
1566,-0.13,-0.99,0.03,1.77,1.04,-4.46,346,332,275,415,444
1567,-0.13,-0.99,0.04,3.3,-0.37,-0.37,349,332,273,411,443
1568,-0.13,-0.98,0.09,5.25,-2.62,-2.69,348,328,275,415,441
1569,-0.13,-0.98,0.09,0.55,-2.56,-2.69,345,328,275,414,439
1570,-0.14,-0.98,0.08,-0.73,-3.48,-2.01,345,330,276,415,437
1571,-0.14,-0.98,0.05,1.16,-2.62,-1.89,346,331,276,414,443
1572,-0.15,-0.98,0.08,0.73,-3.6,-2.14,346,328,273,411,443
1573,-0.14,-0.99,0.09,-0.18,-2.62,-2.44,348,328,273,411,439
1574,-0.14,-0.98,0.08,1.95,-3.66,-2.62,347,325,274,413,437
1575,-0.14,-0.98,0.1,0.61,-3.23,-2.14,346,328,271,413,440
1576,-0.14,-0.99,0.09,-0.85,-3.6,-2.99,345,329,272,410,443
1577,-0.13,-0.99,0.1,0.24,-3.3,-2.69,346,330,274,411,442
1578,-0.13,-0.98,0.07,0.24,-3.17,-1.4,347,330,273,409,439
1579,-0.13,-0.98,0.07,-0.24,-3.48,-2.44,348,335,273,410,443
1580,-0.14,-0.98,0.07,-1.16,-2.69,-2.2,347,329,275,414,441
1581,-0.14,-0.98,0.08,0.92,-4.03,-2.56,344,327,275,411,442
1582,-0.14,-0.98,0.06,1.77,-2.08,-2.32,348,337,273,414,441
1583,-0.13,-0.98,0.07,1.34,-3.85,-2.93,348,330,271,413,437
1584,-0.14,-0.98,0.08,1.95,-2.44,-2.69,344,328,274,410,441
1585,-0.13,-0.98,0.09,1.4,-3.66,-2.56,345,332,273,408,442
1586,-0.14,-0.98,0.09,0.0,-3.3,-2.56,348,331,273,413,440
1587,-0.14,-0.98,0.08,1.34,-3.78,-3.05,346,338,277,411,442
1588,-0.14,-0.98,0.08,1.77,-3.11,-2.2,348,330,280,410,439
1589,-0.14,-0.98,0.09,1.04,-3.42,-2.38,344,334,270,411,443
1590,-0.14,-0.98,0.1,0.24,-3.42,-2.62,344,336,271,411,443
1591,-0.15,-0.98,0.1,-0.37,-3.66,-2.08,346,335,272,410,442
1592,-0.13,-0.98,0.09,0.12,-3.48,-2.99,346,332,272,411,448
1593,-0.15,-0.98,0.1,-0.12,-3.23,-2.99,349,343,273,410,441
1594,-0.14,-0.98,0.1,0.55,-3.17,-2.2,346,335,271,411,440
1595,-0.14,-0.98,0.11,0.49,-2.69,-2.99,348,326,276,412,441
1596,-0.15,-0.98,0.11,1.22,-3.54,-1.83,346,333,273,410,434
1597,-0.14,-0.98,0.09,0.49,-2.81,-2.99,346,332,276,409,440
1598,-0.15,-0.98,0.12,0.18,-3.23,-1.4,348,332,274,410,438
1599,-0.15,-0.98,0.11,1.53,-3.11,-2.26,346,331,271,406,468
1600,-0.15,-0.97,0.09,0.61,-2.75,-3.05,345,327,278,410,437
1601,-0.14,-0.98,0.1,0.67,-3.23,-2.44,349,335,272,412,439
1602,-0.14,-0.98,0.11,0.79,-2.38,-2.87,347,331,276,409,437
1603,-0.13,-0.99,0.13,0.37,-2.87,-2.08,346,332,269,407,437
1604,-0.14,-0.98,0.1,0.55,-3.17,-2.62,349,336,271,409,439
1605,-0.14,-0.98,0.13,2.01,-3.54,-2.01,345,332,273,411,440
1606,-0.14,-0.98,0.12,-0.24,-2.01,-2.75,345,332,271,410,437
1607,-0.15,-0.98,0.11,0.85,-1.4,-2.5,347,334,273,409,438
1608,-0.15,-0.98,0.11,0.98,-3.97,-2.2,350,330,272,412,439
1609,-0.15,-0.98,0.11,-0.37,-2.87,-2.69,343,331,272,408,438
1610,-0.15,-0.98,0.11,-0.24,-3.23,-3.05,350,332,272,408,438
1611,-0.13,-0.98,0.11,1.89,-3.23,-2.44,344,332,273,411,438
1612,-0.15,-0.98,0.12,1.95,-2.93,-1.04,345,335,276,411,434
1613,-0.15,-0.98,0.13,1.46,-2.99,-2.14,347,336,273,407,439
1614,-0.15,-0.98,0.11,-1.1,-3.05,-2.26,346,337,274,409,438
1615,-0.15,-0.98,0.11,-1.4,-2.62,-2.69,348,333,272,409,438
1616,-0.16,-0.98,0.13,-2.87,-1.53,-4.27,347,337,271,407,436
1617,-0.14,-0.98,0.12,1.4,-2.38,-3.05,349,334,276,412,436
1618,-0.13,-0.98,0.17,3.48,-4.27,-1.4,346,329,273,406,437
1619,-0.14,-0.98,0.13,-1.16,-1.65,-3.05,354,331,274,413,437
1620,-0.15,-0.97,0.15,1.89,-0.79,-3.66,343,336,268,407,427
1621,-0.14,-0.98,0.13,0.92,-2.75,-2.01,346,334,271,410,437
1622,-0.13,-0.98,0.13,4.15,-4.58,-1.65,348,336,271,411,438
1623,-0.14,-0.98,0.14,-1.71,-3.6,-2.14,346,341,268,409,436
1624,-0.14,-0.98,0.14,0.37,-2.14,-3.72,346,337,271,409,440
1625,-0.16,-0.98,0.11,-0.73,-0.12,-5.19,346,337,267,413,436
1626,-0.11,-0.98,0.11,0.73,-2.08,-2.26,346,336,269,405,435
1627,-0.1,-1.0,0.06,-6.35,0.31,-1.1,347,339,269,408,437
1628,-0.11,-0.97,0.05,-8.91,1.16,-4.76,344,335,269,403,437
1629,-0.14,-0.99,0.05,4.82,-3.78,-2.62,340,335,272,403,430
1630,-0.15,-0.98,0.08,0.24,-1.53,-1.34,345,336,274,404,427
1631,-0.15,-0.98,0.05,-2.32,-1.89,-3.6,344,331,272,405,428
1632,-0.14,-0.98,0.05,1.89,-2.99,-3.17,344,335,272,405,431
1633,-0.14,-0.98,0.05,1.77,-3.36,-1.59,345,340,272,406,433
1634,-0.15,-0.98,0.07,0.12,-3.91,-1.22,344,332,275,402,432
1635,-0.15,-0.98,0.09,2.99,-3.72,-3.23,344,346,270,400,431
1636,-0.16,-0.98,0.09,-0.79,-1.4,-1.95,344,336,274,403,433
1637,-0.16,-0.98,0.08,-1.28,-2.87,-2.5,343,332,268,404,430
1638,-0.15,-0.98,0.09,1.53,-2.08,-2.32,345,339,273,405,432
1639,-0.16,-0.98,0.07,-0.06,-3.42,-3.05,346,337,274,403,429
1640,-0.15,-0.98,0.08,0.31,-2.99,-3.11,343,337,272,400,431
1641,-0.15,-0.98,0.09,0.67,-3.6,-2.87,343,340,271,404,437
1642,-0.14,-0.98,0.08,1.53,-3.3,-2.26,339,340,270,409,432
1643,-0.17,-0.98,0.09,0.73,-2.93,-2.99,344,332,272,407,432
1644,-0.17,-0.98,0.08,1.89,-3.6,-3.3,344,340,269,404,431
1645,-0.17,-0.98,0.09,0.79,-3.11,-1.77,344,336,278,404,431
1646,-0.16,-0.98,0.08,0.98,-1.16,-3.72,342,337,272,406,432
1647,-0.16,-0.98,0.08,-0.49,-3.48,-2.44,343,336,271,403,432
1648,-0.17,-0.98,0.1,1.83,-2.81,-2.38,341,339,274,409,428
1649,-0.16,-0.98,0.12,-1.16,-4.27,-2.26,346,336,277,404,430
1650,-0.16,-0.98,0.11,-0.18,-3.23,-2.93,343,336,270,405,433
1651,-0.17,-0.98,0.1,0.49,-2.26,-1.83,345,336,274,404,429
1652,-0.16,-0.98,0.12,0.92,-3.42,-1.59,340,334,276,408,431
1653,-0.14,-0.97,0.07,0.61,-4.52,-4.03,343,341,271,405,427
1654,-0.17,-0.97,0.1,-0.24,-1.22,-1.83,340,337,270,401,433
1655,-0.17,-0.98,0.1,0.31,-3.72,-2.87,341,339,272,406,431
1656,-0.17,-0.98,0.11,-0.06,-3.66,-1.89,344,332,277,407,430
1657,-0.17,-0.98,0.1,0.31,-3.42,-2.38,339,341,270,406,430
1658,-0.18,-0.98,0.1,0.18,-3.85,-2.69,342,332,274,403,438
1659,-0.16,-0.98,0.11,0.49,-2.93,-1.83,343,339,272,403,427
1660,-0.16,-0.98,0.12,0.24,-2.75,-2.62,344,338,274,406,430
1661,-0.17,-0.97,0.11,0.12,-2.44,-2.81,340,342,269,403,427
1662,-0.17,-0.97,0.11,-1.34,-1.16,-3.72,343,340,272,405,428
1663,-0.17,-0.98,0.12,0.67,-3.97,-2.99,341,337,275,403,426
1664,-0.18,-0.98,0.12,0.12,-3.72,-2.99,344,338,270,408,429
1665,-0.18,-0.97,0.11,2.75,-6.23,-2.2,345,339,273,404,432
1666,-0.16,-0.98,0.1,0.24,-1.83,-2.56,346,337,273,404,429
1667,-0.18,-0.98,0.11,0.37,-2.75,-2.44,343,336,275,403,432
1668,-0.16,-0.98,0.12,0.18,-2.26,-1.77,346,335,279,403,429
1669,-0.15,-0.97,0.1,-0.61,-1.28,-2.87,347,336,274,404,443
1670,-0.16,-0.97,0.11,0.73,-2.62,-2.26,343,333,270,404,428
1671,-0.18,-0.97,0.12,0.73,-3.78,-2.01,338,338,270,405,428
1672,-0.18,-0.97,0.12,0.0,-2.56,-2.99,343,339,271,404,426
1673,-0.18,-0.97,0.11,-0.92,-2.75,-2.75,342,341,272,402,437
1674,-0.17,-0.97,0.12,0.92,-2.75,-2.5,345,337,275,404,430
1675,-0.16,-0.98,0.14,-0.24,-2.56,-3.42,341,332,274,403,429
1676,-0.17,-0.97,0.13,1.22,-2.99,-2.2,344,332,276,405,430
1677,-0.16,-0.97,0.13,0.31,-2.32,-2.87,346,338,275,404,424
1678,-0.15,-0.98,0.14,4.15,-4.03,-1.65,344,340,267,405,428
1679,-0.16,-0.97,0.13,1.34,-3.66,-2.08,343,340,269,406,428
1680,-0.17,-0.98,0.16,2.81,-2.62,-1.71,344,337,271,404,426
1681,-0.17,-0.97,0.14,-0.79,-3.36,-2.87,340,338,275,404,441
1682,-0.18,-0.97,0.14,-0.18,-3.3,-2.08,341,341,270,403,429
1683,-0.16,-0.97,0.15,0.43,-1.4,-2.32,341,341,272,400,429
1684,-0.18,-0.97,0.15,-0.67,-2.01,-2.93,338,332,270,399,429
1685,-0.17,-0.97,0.14,-0.31,-1.28,-3.05,340,339,269,404,428
1686,-0.17,-0.97,0.13,1.1,-2.69,-2.38,337,333,275,404,430
1687,-0.16,-0.97,0.12,1.89,-3.42,-1.83,339,340,275,402,429
1688,-0.17,-0.97,0.13,0.18,-3.11,-2.69,334,338,270,407,430
1689,-0.15,-0.98,0.14,0.85,-1.34,-2.2,325,335,274,404,430
1690,-0.17,-0.97,0.14,-0.61,-2.81,-2.56,332,344,274,400,428
1691,-0.16,-0.97,0.13,-1.16,-0.92,-2.44,330,337,272,400,429
1692,-0.16,-0.97,0.11,-1.53,-2.26,-2.93,330,333,274,397,427
1693,-0.16,-0.97,0.13,1.53,-3.05,-2.81,330,334,276,405,428
1694,-0.15,-0.97,0.14,-0.55,-3.17,-2.93,330,333,276,401,424
1695,-0.15,-0.97,0.13,-1.59,-1.95,-2.99,330,337,271,403,429
1696,-0.16,-0.98,0.14,0.12,-2.75,-2.14,331,333,271,401,424
1697,-0.17,-0.97,0.13,2.08,-2.32,-2.14,333,335,270,401,428
1698,-0.2,-0.97,0.13,-2.32,13.0,1.59,328,338,271,401,427
1699,-0.18,-0.98,0.12,-8.0,-9.16,-3.66,331,337,278,403,426
1700,-0.14,-0.96,-0.06,-9.09,-3.85,-3.91,335,337,312,410,397
1701,-0.11,-1.0,-0.09,-13.43,3.72,-6.29,333,337,316,415,398
1702,-0.17,-0.95,-0.07,6.53,-0.79,-1.95,339,333,308,416,419
1703,-0.17,-0.97,-0.09,3.48,-2.2,-1.77,333,328,326,431,432
1704,-0.17,-0.97,-0.07,1.16,-2.93,-0.73,333,329,323,431,433
1705,-0.19,-0.96,-0.06,3.97,-1.53,-2.93,336,332,318,426,433
1706,-0.17,-0.98,-0.04,0.43,-2.81,-2.99,335,332,307,426,435
1707,-0.19,-0.99,-0.04,-1.71,-1.16,-1.22,340,328,282,422,427
1708,-0.2,-0.98,-0.03,1.65,-5.68,-2.38,338,331,292,422,431
1709,-0.18,-0.97,-0.05,-0.31,-4.27,-3.36,337,328,304,423,432
1710,-0.18,-0.97,-0.05,0.92,-2.44,-2.87,341,334,301,422,433
1711,-0.18,-0.98,-0.03,-0.06,-6.9,-2.99,341,332,298,419,433
1712,-0.18,-0.98,-0.04,0.31,-3.91,-2.99,340,328,298,423,434
1713,-0.18,-0.97,-0.05,1.22,-3.97,-2.26,338,338,295,422,433
1714,-0.18,-0.98,-0.04,1.16,-3.66,-2.38,342,333,294,420,431
1715,-0.18,-0.98,-0.05,-0.31,-2.38,-2.99,342,332,297,421,434
1716,-0.2,-0.98,-0.05,-1.04,-4.82,-4.76,342,336,297,419,432
1717,-0.16,-0.99,-0.01,-3.72,-3.42,-2.87,337,332,296,419,429
1718,-0.14,-0.98,-0.09,-4.39,-4.27,-4.39,340,333,297,421,446
1719,-0.15,-0.98,-0.1,2.62,-3.6,-2.99,340,339,295,418,430
1720,-0.14,-0.98,-0.07,2.38,-4.09,-3.3,343,330,299,421,427
1721,-0.15,-0.98,-0.07,-1.04,-1.22,-3.23,343,332,299,421,432
1722,-0.15,-0.98,-0.07,1.16,-1.22,-1.16,337,338,295,422,427
1723,-0.14,-0.98,-0.08,5.19,-4.58,-2.81,342,336,303,422,430
1724,-0.18,-0.99,-0.02,3.05,-1.46,-5.68,340,336,285,417,425
1725,-0.15,-0.97,-0.09,5.43,-1.53,-1.77,340,338,294,415,433
1726,-0.16,-0.99,-0.06,3.72,-3.11,-0.55,336,337,294,419,429
1727,-0.15,-0.97,-0.08,-0.98,-3.97,-4.39,341,338,288,417,428
1728,-0.16,-0.98,-0.06,1.53,-6.41,1.1,342,330,287,416,429
1729,-0.16,-0.98,-0.03,-9.7,-10.31,-2.32,340,329,288,413,469
1730,-0.18,-0.98,-0.11,0.49,-11.9,-0.79,341,336,282,420,429
1731,-0.18,-0.97,-0.13,5.19,-8.54,0.06,344,333,285,414,430
1732,-0.21,-0.98,-0.08,3.05,-3.6,-0.06,342,334,288,416,427
1733,-0.23,-0.96,-0.13,0.79,2.44,-0.73,342,334,287,415,426
1734,-0.21,-0.97,-0.08,2.81,-2.99,-2.93,333,339,286,421,432
1735,-0.22,-0.97,-0.06,1.59,-1.71,0.49,338,339,286,423,441
1736,-0.21,-0.97,-0.05,1.65,-2.08,-4.03,343,335,301,413,426
1737,-0.19,-0.97,-0.09,0.79,-1.34,-3.05,340,339,287,412,427
1738,-0.2,-0.97,-0.07,2.44,-3.05,-2.32,340,336,286,418,423
1739,-0.2,-0.98,-0.06,3.36,-1.4,-1.34,342,336,286,420,423
1740,-0.19,-0.97,-0.08,-1.16,-2.08,-2.44,342,339,287,415,423
1741,-0.2,-0.97,-0.08,-0.12,-0.92,-2.2,341,335,289,415,422
1742,-0.2,-0.97,-0.08,1.28,-3.42,-1.59,338,332,288,418,426
1743,-0.21,-0.97,-0.06,1.16,-3.54,-2.44,342,336,285,418,424
1744,-0.2,-0.97,-0.07,-0.43,-2.75,-2.93,342,336,288,415,424
1745,-0.19,-0.97,-0.07,1.04,-2.99,-2.87,342,332,295,416,423
1746,-0.17,-0.98,-0.07,-1.22,-1.53,-1.4,342,340,290,418,429
1747,-0.17,-0.98,-0.06,-3.91,-9.7,-3.3,343,337,288,413,423
1748,-0.16,-0.97,-0.09,-3.3,-41.63,-15.99,342,336,287,417,426
1749,-0.17,-0.99,-0.07,4.64,-5.25,-4.82,344,337,283,413,423
1750,-0.18,-0.97,-0.09,-2.69,-2.62,-2.38,343,336,287,416,427
1751,-0.17,-0.97,-0.11,-0.49,-1.22,-2.32,342,339,287,414,421
1752,-0.16,-0.97,-0.13,15.56,-3.78,-1.83,340,331,299,413,423
1753,-0.18,-0.97,-0.11,-2.08,-2.62,-3.3,339,340,285,412,422
1754,-0.18,-0.98,-0.08,0.06,1.22,-5.37,341,338,284,420,423
1755,-0.13,-0.98,-0.11,0.85,-2.14,-2.08,344,336,285,413,422
1756,-0.16,-0.97,-0.12,0.98,-4.39,-2.5,339,336,285,409,421
1757,-0.16,-0.97,-0.12,0.67,-2.08,-1.65,340,335,281,414,419
1758,-0.16,-0.97,-0.11,1.22,-4.03,-1.71,343,336,284,411,424
1759,-0.17,-0.97,-0.11,0.61,-3.85,-2.75,343,339,282,414,424
1760,-0.15,-0.98,-0.1,3.97,-4.52,-2.14,340,342,287,411,420
1761,-0.17,-0.97,-0.11,0.79,-3.72,-2.44,343,340,299,413,421
1762,-0.15,-0.97,-0.11,1.04,-1.77,-2.69,343,334,283,409,424
1763,-0.17,-0.97,-0.09,3.91,-2.75,-6.29,340,336,283,410,421
1764,-0.15,-0.97,-0.12,-2.5,-1.89,-3.66,342,331,283,416,422
1765,-0.14,-0.98,-0.12,-1.71,-1.65,-2.87,343,337,284,409,419
1766,-0.15,-0.98,-0.11,2.62,-2.99,-2.2,340,341,285,423,424
1767,-0.15,-0.97,-0.11,0.92,-3.11,-2.75,341,337,286,410,421
1768,-0.15,-0.98,-0.11,0.55,-3.6,-2.38,344,340,294,407,424
1769,-0.16,-0.98,-0.11,2.14,-4.7,-2.38,340,337,286,410,422
1770,-0.14,-0.98,-0.1,0.61,-3.36,-3.05,342,332,282,410,422
1771,-0.16,-0.98,-0.09,2.62,-2.99,-3.11,343,337,284,413,422
1772,-0.15,-0.98,-0.1,-0.49,-2.32,-2.26,338,338,284,409,420
1773,-0.17,-0.97,-0.09,1.77,-3.42,-2.62,341,340,286,409,460
1774,-0.16,-0.98,-0.07,-1.34,-3.85,-2.32,341,337,284,408,422
1775,-0.16,-0.98,-0.08,0.61,-2.81,-2.75,341,342,287,411,422
1776,-0.17,-0.98,-0.07,0.12,-2.44,-2.56,340,343,283,409,425
1777,-0.16,-0.98,-0.07,1.59,-2.08,-3.11,343,342,287,410,422
1778,-0.17,-0.98,-0.08,0.06,-3.23,-2.01,340,334,286,409,423
1779,-0.16,-0.98,-0.08,0.12,-2.93,-3.17,341,341,286,410,420
1780,-0.17,-0.98,-0.08,-0.61,-3.23,-3.17,338,342,285,412,423
1781,-0.15,-0.98,-0.07,-1.77,0.18,-2.44,339,337,287,408,430
1782,-0.16,-0.97,-0.1,0.06,-2.56,-2.14,343,339,287,411,423
1783,-0.21,-0.98,-0.09,2.87,26.67,9.4,341,337,282,409,421
1784,-0.13,-0.96,-0.17,-3.91,0.49,-7.93,341,340,284,408,423
1785,-0.17,-0.97,-0.17,-5.98,-2.56,-4.7,342,338,288,408,463
1786,-0.08,-0.97,-0.18,-5.62,-11.47,-2.75,340,339,285,409,425
1787,-0.13,-0.98,-0.16,3.72,4.46,1.34,344,342,286,405,423
1788,-0.15,-0.98,-0.13,1.77,-2.08,-1.04,343,334,285,409,422
1789,-0.13,-0.96,-0.22,-4.94,-4.52,-10.93,344,336,288,410,423
1790,-0.23,-0.95,-0.23,6.16,3.42,-1.16,344,342,283,409,418
1791,-0.18,-0.96,-0.18,4.03,-1.59,0.24,343,339,286,408,423
1792,-0.17,-0.97,-0.17,-1.46,-2.38,-2.75,342,339,285,407,425
1793,-0.17,-0.96,-0.17,0.92,-1.89,-3.23,344,335,287,406,422
1794,-0.16,-0.96,-0.19,-2.62,-4.39,-1.46,342,342,286,407,422
1795,-0.17,-0.96,-0.2,0.85,-3.36,-1.53,338,339,288,408,421
1796,-0.17,-0.96,-0.19,1.59,-3.72,-2.01,341,343,288,409,422
1797,-0.16,-0.96,-0.19,0.06,-3.3,-4.09,344,343,286,408,421
1798,-0.16,-0.96,-0.19,-0.43,-2.81,-3.36,342,343,288,408,420
1799,-0.15,-0.96,-0.19,0.18,-3.11,-2.01,344,342,289,408,422
1800,-0.17,-0.96,-0.18,-0.12,-2.81,-2.08,342,343,285,409,425
1801,-0.17,-0.96,-0.18,-1.16,-2.56,-2.14,342,339,288,409,427
1802,-0.17,-0.96,-0.19,1.22,-2.32,-2.14,338,339,286,412,422
1803,-0.18,-0.96,-0.19,0.43,-1.59,-2.93,343,339,285,414,422
1804,-0.17,-0.96,-0.18,1.46,-1.46,-1.71,344,339,288,411,421
1805,-0.19,-0.96,-0.16,0.49,-4.21,-1.04,343,339,289,408,424
1806,-0.18,-0.96,-0.17,-1.28,-2.32,-3.3,342,340,285,409,422
1807,-0.19,-0.96,-0.19,-1.46,-3.05,-1.77,342,336,290,408,425
1808,-0.18,-0.96,-0.16,-0.06,-0.79,-1.77,342,343,283,408,423
1809,-0.18,-0.96,-0.16,-0.73,-3.11,-2.32,342,343,289,409,425
1810,-0.19,-0.96,-0.17,-0.79,-2.38,-3.48,344,345,289,409,419
1811,-0.18,-0.96,-0.17,-1.65,-2.01,-3.48,343,339,287,406,422
1812,-0.19,-0.96,-0.18,1.04,-2.87,-2.44,342,345,287,410,426
1813,-0.19,-0.96,-0.18,0.31,-3.23,-2.56,341,339,286,410,454
1814,-0.19,-0.96,-0.17,0.49,-3.48,-2.44,343,342,286,404,444
1815,-0.19,-0.96,-0.18,0.92,-3.48,-3.36,340,339,285,407,421
1816,-0.18,-0.96,-0.17,0.67,-3.05,-2.99,342,346,284,411,423
1817,-0.17,-0.96,-0.18,-0.43,-1.89,-2.01,343,340,290,424,422
1818,-0.2,-0.96,-0.18,1.46,-3.42,-1.46,343,343,286,410,422
1819,-0.19,-0.96,-0.18,0.73,-3.11,-2.2,330,343,286,406,421
1820,-0.19,-0.96,-0.17,-0.98,-2.99,-2.99,343,338,288,409,430
1821,-0.19,-0.96,-0.18,0.31,-2.87,-2.2,343,339,286,409,419
1822,-0.19,-0.96,-0.16,0.85,-2.87,-2.62,342,338,286,413,423
1823,-0.19,-0.96,-0.17,0.37,-3.05,-3.36,341,335,299,406,424
1824,-0.19,-0.96,-0.16,0.49,-2.93,-1.95,343,339,285,408,422
1825,-0.19,-0.96,-0.17,0.31,-3.85,-1.53,340,337,284,404,422
1826,-0.19,-0.96,-0.17,-0.92,-3.05,-3.05,343,342,290,414,421
1827,-0.2,-0.96,-0.17,0.0,-2.87,-1.77,340,343,287,404,422
1828,-0.2,-0.96,-0.16,-0.06,-2.5,-2.5,343,338,290,408,424
1829,-0.2,-0.96,-0.16,0.12,-3.54,-2.32,341,342,287,407,420
1830,-0.19,-0.96,-0.16,-0.06,-3.17,-2.81,343,341,292,404,422
1831,-0.19,-0.96,-0.17,0.85,-3.3,-2.87,342,355,285,405,423
1832,-0.2,-0.96,-0.17,1.04,-2.5,-1.95,341,349,287,410,424
1833,-0.19,-0.96,-0.16,-0.55,-2.44,-2.32,342,345,286,409,421
1834,-0.2,-0.96,-0.16,0.43,-2.81,-2.14,340,342,287,405,423
1835,-0.21,-0.95,-0.17,0.06,-2.62,-2.5,346,340,286,408,419
1836,-0.2,-0.96,-0.17,-0.12,-2.08,-2.56,348,340,283,408,422
1837,-0.2,-0.96,-0.17,0.43,-3.05,-2.75,342,340,284,407,423
1838,-0.2,-0.96,-0.17,0.0,-2.5,-3.05,343,340,284,407,419
1839,-0.2,-0.96,-0.17,1.1,-3.91,-2.62,344,343,285,407,419
1840,-0.2,-0.96,-0.16,-0.12,-2.93,-1.89,346,340,288,411,425
1841,-0.2,-0.96,-0.16,0.24,-3.48,-2.2,344,340,285,408,422
1842,-0.2,-0.96,-0.16,0.49,-2.87,-2.5,343,340,285,409,423
1843,-0.2,-0.96,-0.17,0.24,-2.87,-2.81,339,341,287,407,424
1844,-0.21,-0.96,-0.17,0.85,-3.54,-2.69,340,351,289,408,421
1845,-0.21,-0.96,-0.16,1.46,-3.17,-2.5,343,344,286,409,421
1846,-0.2,-0.96,-0.16,1.16,-3.48,-2.38,348,336,287,408,421
1847,-0.2,-0.96,-0.16,-0.37,-2.56,-2.38,345,341,290,409,422
1848,-0.21,-0.96,-0.16,0.12,-3.05,-2.38,345,339,286,406,423
1849,-0.21,-0.96,-0.15,-0.55,-3.17,-2.5,345,337,289,407,422
1850,-0.21,-0.95,-0.17,0.31,-3.3,-2.44,344,341,287,407,425
1851,-0.2,-0.96,-0.16,0.43,-3.23,-2.2,337,361,289,406,419
1852,-0.21,-0.96,-0.16,-0.18,-3.05,-3.17,344,345,284,408,422
1853,-0.21,-0.96,-0.16,1.4,-3.17,-2.87,343,342,290,406,424
1854,-0.2,-0.96,-0.15,0.12,-1.83,-3.23,346,341,289,405,420
1855,-0.21,-0.96,-0.16,0.31,-3.6,-1.59,339,342,287,405,418
1856,-0.21,-0.96,-0.16,0.06,-2.44,-2.44,339,341,289,403,423
1857,-0.2,-0.95,-0.17,-0.06,-2.56,-2.32,346,341,289,407,421
1858,-0.21,-0.96,-0.17,0.61,-3.23,-2.08,342,344,287,409,422
1859,-0.21,-0.96,-0.16,-0.67,-1.46,-3.17,342,341,289,406,423
1860,-0.21,-0.96,-0.18,1.89,0.85,-3.6,349,339,289,407,422
1861,-0.24,-0.98,-0.11,8.18,-21.79,-4.46,343,343,286,405,419
1862,-0.23,-0.96,-0.08,-10.01,2.38,1.59,338,339,280,405,422
1863,-0.21,-0.96,-0.14,0.0,-2.5,-0.85,342,337,285,415,420
1864,-0.2,-0.96,-0.13,1.65,-3.78,-1.4,342,341,281,412,419
1865,-0.19,-0.96,-0.12,-4.39,-2.14,-4.33,342,340,284,410,422
1866,-0.21,-0.97,-0.11,2.2,-1.28,-2.62,346,344,283,410,422
1867,-0.2,-0.97,-0.13,1.04,-2.38,-1.53,344,341,286,410,433
1868,-0.21,-0.96,-0.13,3.48,-2.5,-5.68,340,341,288,409,423
1869,-0.21,-0.97,-0.13,0.49,-0.73,-3.78,346,344,285,409,422
1870,-0.13,-0.98,-0.11,2.32,-2.56,-4.03,352,345,286,409,422
1871,-0.16,-0.97,-0.14,-2.32,9.58,-15.87,348,341,286,411,422
1872,-0.03,-0.99,-0.11,4.52,0.31,1.95,344,337,286,407,421
1873,-0.08,-0.98,-0.1,3.85,0.92,-2.14,343,343,288,409,422
1874,-0.09,-0.98,-0.15,-6.77,-7.39,-2.81,339,338,279,403,424
1875,-0.08,-1.0,-0.09,-5.37,-5.62,-1.22,339,341,290,401,423
1876,-0.1,-0.99,-0.1,-0.55,1.1,-1.4,334,345,277,401,422
1877,-0.1,-0.98,-0.12,0.61,-3.97,-1.65,328,341,275,399,418
1878,-0.11,-0.98,-0.11,-0.61,-2.44,-2.01,327,337,276,407,421
1879,-0.11,-0.99,-0.1,1.28,-2.44,-2.26,327,339,274,398,419
1880,-0.09,-0.98,-0.11,0.55,-4.21,-2.75,329,333,277,399,421
1881,-0.1,-0.98,-0.12,-1.59,-2.93,-2.01,331,336,278,398,422
1882,-0.1,-0.97,-0.13,1.71,-5.55,-1.65,337,341,277,401,419
1883,-0.12,-0.97,-0.13,2.44,-5.86,-1.89,336,342,296,414,418
1884,-0.12,-0.98,-0.12,0.31,-3.91,-1.83,339,337,291,412,459
1885,-0.13,-0.98,-0.13,2.32,-3.78,-2.44,337,338,277,405,414
1886,-0.14,-0.97,-0.15,9.64,-3.6,-1.59,341,341,279,409,419
1887,-0.14,-0.97,-0.12,-0.98,-2.44,-2.87,342,338,286,408,426
1888,-0.14,-0.98,-0.11,-15.38,-4.46,-2.81,337,340,286,407,420
1889,-0.13,-0.98,-0.1,2.81,5.31,-0.67,339,335,281,404,421
1890,-0.13,-0.97,-0.11,-3.48,-3.17,-2.87,340,342,280,406,418
1891,-0.14,-0.99,-0.05,4.88,-6.35,-9.4,342,337,286,405,419
1892,-0.07,-0.97,-0.15,8.3,-0.12,-6.41,339,334,285,405,416
1893,0.01,-0.98,-0.07,-5.43,-13.12,-27.34,341,341,283,408,417
1894,0.11,-1.01,0.03,10.44,-7.39,-5.8,343,345,285,407,419
1895,0.06,-0.99,-0.03,0.31,-10.99,5.43,339,341,285,406,419
1896,-0.04,-0.99,-0.03,-5.13,-7.14,0.37,343,340,286,406,415
1897,-0.03,-1.0,-0.03,1.16,-4.94,1.83,342,344,284,405,418
1898,-0.02,-0.99,-0.05,-2.99,-6.96,-4.27,340,339,280,408,418
1899,-0.06,-0.99,-0.08,-1.53,-3.42,1.95,340,335,280,402,424
1900,-0.06,-0.99,-0.09,-7.87,-2.26,-4.82,340,342,283,405,441
1901,-0.1,-1.0,-0.07,3.05,-4.27,1.1,344,340,284,405,422
1902,-0.1,-0.99,-0.08,2.2,-2.44,0.92,339,343,284,404,416
1903,-0.1,-0.99,-0.09,-5.86,-1.77,-4.64,344,345,284,403,419
1904,-0.09,-0.98,-0.09,-0.73,-2.32,-3.36,342,346,283,403,417
1905,-0.11,-0.98,-0.12,-0.55,-2.93,-1.59,342,343,282,406,420
1906,-0.09,-0.99,-0.12,-1.4,-2.69,-2.2,342,341,285,406,419
1907,-0.08,-0.99,-0.12,0.85,-3.48,-1.71,342,342,284,406,421
1908,-0.07,-0.98,-0.12,-1.46,-3.85,-0.31,342,345,283,406,418
1909,-0.08,-0.98,-0.13,-3.66,-3.05,-2.38,344,340,278,402,417
1910,-0.08,-0.98,-0.12,-0.12,-3.54,-4.15,343,345,284,401,419
1911,-0.1,-0.98,-0.12,-0.37,-2.56,-2.5,342,343,284,409,421
1912,-0.1,-0.98,-0.14,0.24,-3.85,-1.77,341,343,281,406,420
1913,-0.09,-0.98,-0.13,0.12,-2.75,-2.81,346,338,284,407,417
1914,-0.09,-0.98,-0.13,-0.06,-3.42,-3.05,343,338,282,406,418
1915,-0.11,-0.98,-0.11,0.49,-3.05,-3.36,344,339,284,413,414
1916,-0.11,-0.99,-0.11,1.22,-2.62,-2.44,344,343,286,406,419
1917,-0.12,-0.98,-0.14,-1.59,-3.91,-0.67,345,343,284,407,416
1918,-0.11,-0.98,-0.13,0.85,-2.38,-4.46,340,339,283,401,420
1919,-0.1,-0.98,-0.12,0.43,-3.36,-3.17,346,341,283,405,418
1920,-0.11,-0.98,-0.12,2.2,-4.15,-2.08,346,339,286,401,418
1921,-0.1,-0.98,-0.13,1.77,-3.3,-1.16,343,343,284,406,417
1922,-0.11,-0.97,-0.14,-0.43,-3.3,-1.59,354,343,284,404,414
1923,-0.11,-0.98,-0.13,-0.49,-3.36,-1.34,340,343,286,404,418
1924,-0.11,-0.98,-0.13,-0.79,-3.66,-2.75,344,338,287,405,418
1925,-0.12,-0.98,-0.13,1.65,-2.2,-2.87,344,344,284,406,421
1926,-0.13,-0.97,-0.14,-0.24,-4.21,-2.26,348,347,291,405,419
1927,-0.12,-0.98,-0.15,-1.1,-3.05,-2.56,346,353,296,400,417
1928,-0.11,-0.98,-0.15,-0.06,-3.36,-2.2,344,340,301,406,417
1929,-0.12,-0.97,-0.19,1.83,-4.76,-1.46,344,344,300,403,420
1930,-0.12,-0.97,-0.17,4.39,-5.13,-2.75,344,343,299,405,417
1931,-0.12,-0.97,-0.17,-1.16,-2.99,-3.17,344,347,303,409,416
1932,-0.12,-0.97,-0.18,-1.22,-3.91,-2.08,341,347,299,408,425
1933,-0.12,-0.97,-0.18,-1.04,-2.99,-2.62,343,344,302,404,413
1934,-0.11,-0.98,-0.17,1.16,-3.97,-0.85,344,341,294,404,414
1935,-0.11,-0.97,-0.18,-0.12,-1.83,-3.11,350,349,297,407,428
1936,-0.12,-0.96,-0.18,-0.85,-2.81,-3.05,343,345,294,408,416
1937,-0.12,-0.96,-0.18,0.37,-1.83,-3.05,344,346,297,410,415
1938,-0.12,-0.97,-0.18,0.85,-3.17,-2.62,344,347,293,407,437
1939,-0.12,-0.97,-0.18,-1.28,-2.99,-2.01,345,349,299,406,417
1940,-0.13,-0.97,-0.17,-1.59,-2.75,-2.5,344,356,295,411,416
1941,-0.13,-0.97,-0.18,1.34,-2.01,-1.4,345,349,297,410,419
1942,-0.12,-0.97,-0.19,-0.18,-3.11,-1.46,347,345,296,404,417
1943,-0.12,-0.96,-0.2,0.73,-3.78,-1.83,348,345,295,404,418
1944,-0.13,-0.97,-0.19,0.37,-2.44,-3.78,341,342,295,410,419
1945,-0.11,-0.97,-0.19,0.92,-2.75,-2.38,346,347,295,406,416
1946,-0.12,-0.97,-0.18,-0.06,-3.72,-2.56,341,349,294,408,416
1947,-0.11,-0.97,-0.18,0.92,-2.5,-2.62,346,343,297,407,419
1948,-0.13,-0.97,-0.18,1.22,-2.99,-1.77,342,346,298,407,444
1949,-0.12,-0.97,-0.19,0.06,-2.99,-2.56,344,344,294,404,416
1950,-0.12,-0.97,-0.18,0.0,-3.66,-2.75,341,349,291,408,413
1951,-0.13,-0.97,-0.19,0.79,-3.05,-2.99,348,348,297,406,417
1952,-0.12,-0.97,-0.18,-0.37,-3.54,-2.32,346,345,296,405,418
1953,-0.13,-0.96,-0.2,0.49,-3.66,-2.5,345,348,295,406,414
1954,-0.12,-0.97,-0.19,0.92,-3.05,-3.11,345,348,294,408,417
1955,-0.12,-0.97,-0.19,0.24,-2.99,-2.69,347,347,300,406,416
1956,-0.11,-0.97,-0.19,0.61,-3.11,-2.56,345,341,296,404,418
1957,-0.12,-0.97,-0.19,0.12,-3.17,-2.44,342,344,295,403,414
1958,-0.12,-0.97,-0.18,-1.65,-4.03,-1.46,343,346,298,406,417
1959,-0.11,-0.97,-0.19,1.22,-2.26,-1.04,346,345,294,402,416
1960,-0.12,-0.97,-0.19,-1.04,-2.87,-1.83,345,356,294,407,417
1961,-0.13,-0.97,-0.19,0.31,-3.17,-2.38,347,345,295,406,417
1962,-0.13,-0.97,-0.19,-1.16,-3.36,-2.56,345,349,297,404,417
1963,-0.13,-0.96,-0.2,-0.49,-3.6,-3.11,345,349,305,407,417
1964,-0.13,-0.96,-0.19,0.92,-2.99,-2.32,346,348,298,407,415
1965,-0.12,-0.97,-0.19,1.22,-3.42,-1.46,344,351,294,406,417
1966,-0.12,-0.97,-0.19,1.28,-2.5,-2.56,346,340,296,406,420
1967,-0.12,-0.97,-0.2,-0.79,-2.69,-2.56,346,345,294,406,416
1968,-0.13,-0.97,-0.19,0.06,-2.26,-2.08,346,346,298,406,419
1969,-0.12,-0.96,-0.2,-0.06,-3.48,-2.26,348,347,292,406,412
1970,-0.13,-0.97,-0.18,-0.24,-2.69,-1.95,347,349,296,405,416
1971,-0.12,-0.96,-0.19,1.04,-3.3,-2.69,342,346,300,407,417
1972,-0.09,-0.96,-0.19,-0.24,-1.28,-2.2,347,348,302,409,419
1973,-0.12,-0.97,-0.19,-1.65,-2.5,-2.08,348,348,303,408,416
1974,-0.12,-0.96,-0.2,-1.34,-3.66,-2.81,347,346,299,412,417
1975,-0.12,-0.96,-0.19,0.92,-3.6,-2.2,348,345,301,410,413
1976,-0.13,-0.96,-0.19,2.93,-2.75,-1.83,347,349,301,408,420
1977,-0.13,-0.97,-0.19,-1.16,-2.87,-2.69,346,352,301,408,417
1978,-0.12,-0.97,-0.19,0.73,-3.05,-2.93,346,343,302,411,417
1979,-0.12,-0.97,-0.18,-0.18,-2.81,-2.01,344,344,297,409,417
1980,-0.12,-0.97,-0.19,0.12,-2.32,-1.95,347,346,301,407,416
1981,-0.11,-0.97,-0.19,1.59,-2.38,-2.99,346,348,300,409,413
1982,-0.12,-0.97,-0.18,-1.1,-2.69,-0.98,348,351,302,411,418
1983,-0.13,-0.97,-0.19,0.06,-2.75,-2.38,353,349,300,411,423
1984,-0.12,-0.97,-0.19,0.0,-3.36,-2.32,347,348,298,411,416
1985,-0.13,-0.97,-0.19,-0.43,-2.75,-2.87,348,347,300,409,417
1986,-0.12,-0.97,-0.19,0.31,-3.48,-2.5,347,347,297,408,417
1987,-0.12,-0.97,-0.19,-0.31,-3.97,-2.14,348,346,301,409,417
1988,-0.13,-0.97,-0.19,-1.4,-3.05,-2.44,349,351,299,412,421
1989,-0.12,-0.97,-0.2,0.73,-3.05,-2.38,351,343,298,410,414
1990,-0.12,-0.96,-0.19,0.12,-2.99,-2.2,350,352,299,411,417
1991,-0.14,-0.96,-0.2,-0.79,-3.85,-2.26,350,345,298,409,423
1992,-0.12,-0.96,-0.19,-0.12,-2.81,-2.56,351,346,303,405,418
1993,-0.14,-0.96,-0.2,-0.55,-3.11,-2.87,346,344,302,407,418
1994,-0.12,-0.97,-0.19,0.12,-2.62,-2.2,354,347,298,409,416
1995,-0.13,-0.96,-0.2,0.0,-2.14,-2.14,349,344,301,408,413
1996,-0.13,-0.96,-0.2,0.67,-3.6,-2.75,349,346,302,406,416
1997,-0.13,-0.96,-0.2,0.55,-3.05,-2.44,351,345,297,409,417
1998,-0.12,-0.97,-0.2,0.12,-2.62,-2.5,351,346,302,408,417
1999,-0.13,-0.96,-0.2,0.0,-3.17,-2.44,348,348,298,407,418
2000,-0.13,-0.97,-0.2,-0.61,-2.26,-2.01,349,347,297,408,414
2001,-0.13,-0.96,-0.2,0.12,-3.05,-2.93,345,351,298,405,417
2002,-0.13,-0.96,-0.2,0.43,-2.56,-2.26,350,350,297,408,417
2003,-0.12,-0.96,-0.19,0.12,-3.17,-1.83,347,343,304,405,416
