,aX,aY,aZ,gX,gY,gZ,little,ring,middle,index,thumb
0,0.31,0.82,0.5,-1.28,-4.21,-0.92,421,464,412,430,255
1,0.31,0.81,0.5,-0.61,-4.15,-2.14,422,462,409,437,259
2,0.32,0.81,0.49,5.25,0.85,-0.24,424,468,411,436,254
3,0.31,0.81,0.5,-2.69,-2.38,-2.38,422,460,411,436,258
4,0.31,0.8,0.5,1.46,-3.36,0.24,421,458,416,437,259
5,0.34,0.82,0.48,1.46,-3.42,-2.62,420,461,407,435,257
6,0.33,0.82,0.49,-2.38,-3.6,-1.53,424,461,413,438,256
7,0.35,0.83,0.48,0.06,-1.77,-3.72,425,457,411,458,289
8,0.32,0.79,0.5,0.49,-2.87,-3.48,420,464,411,460,270
9,0.34,0.81,0.5,-0.73,-2.75,-2.93,425,462,416,459,267
10,0.32,0.81,0.49,0.98,-2.75,-2.44,423,459,415,449,269
11,0.33,0.81,0.48,1.59,-3.78,-2.5,423,464,414,450,266
12,0.32,0.82,0.49,-1.53,-2.26,-1.59,420,476,413,440,265
13,0.33,0.82,0.49,0.49,-2.32,-1.1,420,461,410,444,268
14,0.31,0.82,0.48,1.65,-1.34,-5.62,427,458,410,423,257
15,0.31,0.82,0.49,0.18,-2.26,-2.38,423,466,413,438,264
16,0.31,0.82,0.48,1.53,-3.36,-2.08,425,461,412,441,287
17,0.32,0.82,0.48,1.22,-2.69,-2.56,425,457,409,440,264
18,0.3,0.83,0.49,-0.55,-1.95,-2.01,426,465,424,433,268
19,0.3,0.8,0.48,-2.26,-2.87,-4.46,421,462,412,436,267
20,0.25,0.95,0.6,1.59,-6.1,-6.9,424,465,408,450,268
21,0.27,0.78,0.52,-0.24,-10.13,-4.46,426,461,410,432,270
22,0.25,0.66,0.39,2.87,15.08,-2.01,423,464,410,438,270
23,0.33,0.88,0.49,3.85,-5.0,-3.78,421,460,417,436,271
24,0.27,0.85,0.48,-3.3,-4.03,-4.94,429,462,412,433,271
25,0.28,0.88,0.5,3.42,-18.43,12.02,425,459,416,439,271
26,0.24,0.77,0.5,2.99,-6.71,-11.05,424,463,414,438,274
27,0.26,0.88,0.51,5.31,-5.19,3.78,422,461,408,438,271
28,0.26,0.81,0.48,2.01,-0.43,-3.42,426,462,411,435,268
29,0.24,0.86,0.48,3.6,-1.95,-6.35,423,463,414,433,276
30,0.24,0.87,0.47,6.53,-1.59,-2.62,423,465,412,439,270
31,0.22,0.84,0.43,0.61,-3.97,-0.31,424,462,411,430,269
32,0.23,0.9,0.45,-0.61,1.28,-1.89,430,454,414,430,269
33,0.23,0.84,0.47,-0.67,-4.33,-5.8,426,461,412,436,273
34,0.23,0.86,0.43,0.61,-1.59,1.83,422,464,409,439,274
35,0.24,0.85,0.45,-2.14,-1.65,-5.62,427,461,409,427,297
36,0.21,0.86,0.48,-9.83,0.98,-8.85,424,466,409,428,272
37,0.22,0.87,0.49,-2.44,-1.65,-2.81,433,459,413,428,268
38,0.23,0.83,0.5,1.46,-5.86,-2.69,427,464,411,426,270
39,0.21,0.84,0.48,0.31,-2.87,0.0,422,467,411,425,263
40,0.22,0.85,0.48,-1.65,-2.56,-4.33,426,464,410,424,294
41,0.25,0.88,0.47,4.94,-3.3,-7.51,427,467,409,420,266
42,0.23,0.8,0.49,-5.68,-5.31,-0.61,421,458,413,424,265
43,0.22,0.85,0.46,-2.62,-2.5,-2.38,424,466,408,427,267
44,0.21,0.83,0.49,-2.87,-4.03,-4.64,428,457,412,425,272
45,0.2,0.82,0.5,-4.94,-1.95,-9.28,424,467,408,424,270
46,0.23,0.84,0.51,-1.04,-1.28,-5.43,426,459,410,427,274
47,0.16,0.85,0.53,0.24,-3.17,-5.25,431,461,405,428,273
48,0.18,0.82,0.51,0.85,-1.04,-4.09,425,463,405,423,274
49,0.2,0.86,0.49,2.56,-2.26,-2.32,426,459,406,424,262
50,0.23,0.84,0.47,2.38,-8.3,5.25,428,461,409,426,270
51,0.2,0.86,0.48,-0.79,-3.85,-3.23,427,460,411,423,276
52,0.19,0.85,0.48,3.85,-2.99,-3.48,427,464,409,420,256
53,0.18,0.86,0.48,-1.89,-2.99,-2.14,428,460,407,418,265
54,0.19,0.79,0.48,3.48,0.06,13.55,428,460,412,415,264
55,0.2,0.84,0.58,1.1,-10.68,5.43,427,458,409,416,265
56,0.29,0.82,0.46,20.32,-1.71,2.99,426,464,411,417,270
57,0.32,0.89,0.38,9.22,0.06,-6.47,426,464,409,418,268
58,0.14,0.91,0.39,-7.2,-9.4,-7.2,427,463,405,419,265
59,0.22,0.91,0.41,2.38,-4.33,-6.65,426,459,407,420,266
60,0.2,0.92,0.37,13.24,-3.05,-3.17,423,461,409,416,261
61,0.2,0.89,0.39,-2.2,-2.44,-0.55,425,460,407,417,266
62,0.18,0.9,0.41,-4.46,-3.05,-4.03,430,457,407,416,265
63,0.19,0.88,0.42,-1.16,-3.54,-0.12,424,462,414,412,257
64,0.17,0.88,0.43,-2.93,-0.73,-10.07,430,463,410,414,265
65,0.17,0.91,0.42,-0.18,-2.99,-0.37,429,461,418,413,263
66,0.14,0.88,0.47,-3.54,0.43,-2.87,428,465,409,417,263
67,0.13,0.86,0.48,8.12,4.09,-8.97,431,460,413,424,266
68,0.2,0.89,0.42,2.5,-6.96,-4.21,430,465,412,407,263
69,0.19,0.94,0.45,6.41,-1.89,-4.52,429,460,412,410,265
70,0.21,0.83,0.4,0.31,-7.87,7.32,428,459,407,412,263
71,0.18,0.83,0.46,-0.06,-2.81,10.38,430,460,414,418,268
72,0.23,0.83,0.44,5.31,-6.41,-1.16,429,456,410,415,267
73,0.21,0.88,0.46,-7.87,2.87,-3.23,427,460,410,416,270
74,0.28,0.9,0.42,13.61,-16.54,3.97,428,459,410,422,270
75,0.34,0.89,0.38,10.01,-4.94,-3.42,427,459,409,417,268
76,0.31,0.83,0.33,-2.69,-9.89,3.17,425,456,411,384,247
77,0.25,0.91,0.35,-0.85,-4.09,-5.98,424,463,407,397,265
78,0.3,0.88,0.4,-11.35,-10.01,9.22,421,460,412,398,248
79,0.23,0.86,0.48,3.91,4.39,-1.71,423,459,408,398,252
80,0.34,0.87,0.39,3.3,-11.05,-1.28,430,458,406,398,255
81,0.34,0.91,0.31,-1.83,-10.8,14.65,424,451,410,401,254
82,0.35,0.98,0.45,1.89,-16.6,-1.46,428,461,406,398,257
83,0.38,0.79,0.51,2.14,3.66,-5.43,427,456,408,401,273
84,0.56,0.78,0.4,8.61,2.14,10.44,428,457,406,403,261
85,0.46,0.76,0.43,-5.55,-3.11,-10.68,438,459,404,405,271
86,0.25,0.69,0.57,-8.12,-8.79,-10.19,426,461,402,404,264
87,0.28,0.69,0.55,7.14,-5.68,-2.62,427,454,408,405,263
88,0.26,0.8,0.53,-6.29,-2.38,1.89,426,455,408,404,266
89,0.26,0.82,0.55,11.6,-5.92,-5.8,428,461,406,405,265
90,0.28,0.8,0.53,4.21,-2.08,-6.35,426,460,407,405,267
91,0.3,0.79,0.55,-1.4,-1.53,1.53,428,463,404,402,274
92,0.32,0.81,0.56,3.05,-1.59,-6.59,429,463,406,401,268
93,0.34,0.81,0.53,5.43,-2.93,-2.93,425,462,407,403,272
94,0.33,0.79,0.54,5.0,-1.95,-2.01,428,458,402,404,269
95,0.31,0.77,0.53,5.13,-9.64,9.4,430,460,405,402,266
96,0.34,0.79,0.54,-3.11,-0.37,-2.2,424,461,408,405,272
97,0.35,0.78,0.54,-2.75,-4.88,0.73,425,460,407,398,269
98,0.35,0.75,0.56,-8.48,-3.3,-3.17,429,460,402,406,269
99,0.36,0.74,0.57,-2.62,-2.99,0.06,426,456,408,402,272
100,0.37,0.75,0.57,-3.23,-5.92,-0.55,430,459,409,414,270
101,0.37,0.74,0.59,-3.72,-3.85,-1.46,430,463,403,409,272
102,0.38,0.75,0.58,-4.21,-2.75,-0.98,427,460,405,403,274
103,0.39,0.67,0.57,-1.77,-1.89,-7.75,429,461,406,402,274
104,0.38,0.71,0.55,2.14,-1.04,-8.3,425,461,408,401,275
105,0.37,0.74,0.57,2.08,-3.11,-3.6,425,463,421,403,271
106,0.37,0.76,0.58,0.37,-1.95,-2.93,427,457,407,402,276
107,0.4,0.73,0.58,1.53,-5.19,0.06,427,460,405,402,273
108,0.42,0.72,0.58,0.12,-5.37,-0.12,427,464,407,406,275
109,0.45,0.71,0.58,-1.22,-2.26,-2.08,428,459,405,405,274
110,0.43,0.69,0.58,0.12,-3.91,-2.2,427,463,411,404,276
111,0.42,0.71,0.58,3.23,-2.14,-5.25,428,462,405,403,274
112,0.41,0.73,0.56,-0.92,-0.06,-5.43,428,462,402,399,248
113,0.41,0.74,0.55,-0.24,-2.56,-0.73,428,463,405,404,250
114,0.41,0.73,0.56,-2.32,-6.29,0.85,428,462,403,412,262
115,0.41,0.7,0.54,-2.08,-2.87,-2.5,428,455,402,404,264
116,0.46,0.7,0.57,-1.1,-2.32,-1.34,427,461,405,403,274
117,0.44,0.72,0.57,-0.06,-1.65,-2.5,428,456,411,404,268
118,0.44,0.71,0.57,0.12,-2.75,-2.62,427,459,405,404,269
119,0.44,0.7,0.58,-0.24,-2.87,-2.62,429,460,402,402,269
120,0.45,0.69,0.59,2.26,-2.87,-2.32,428,456,405,404,269
121,0.46,0.68,0.58,0.12,-4.39,-1.89,421,460,408,400,272
122,0.45,0.69,0.58,0.37,-1.04,-3.6,425,460,404,406,273
123,0.45,0.67,0.58,-0.92,-2.81,-2.2,425,456,405,405,272
124,0.45,0.68,0.57,-1.1,-0.92,-2.2,426,459,405,404,274
125,0.44,0.7,0.59,2.26,-2.32,-6.53,425,459,405,405,257
126,0.42,0.73,0.56,3.72,-2.32,-1.1,424,455,408,403,257
127,0.42,0.73,0.57,10.19,3.54,-13.67,429,464,405,402,258
128,0.31,0.77,0.5,4.15,1.71,-8.85,426,460,405,412,265
129,0.27,0.82,0.53,-0.31,0.61,-1.77,426,460,416,412,266
130,0.31,0.74,0.55,0.37,-4.27,-0.55,427,463,405,413,271
131,0.34,0.81,0.53,-1.16,-5.43,0.98,427,456,408,408,273
132,0.35,0.78,0.5,1.65,-2.38,-4.27,428,462,406,408,300
133,0.34,0.79,0.5,-4.88,-2.01,1.95,429,459,406,409,274
134,0.36,0.81,0.53,-4.27,-2.01,-1.1,428,461,402,405,274
135,0.35,0.74,0.53,1.04,-6.1,-0.06,429,461,408,406,276
136,0.38,0.8,0.53,1.65,-4.82,1.59,430,461,402,408,276
137,0.38,0.77,0.51,-1.28,-4.94,0.55,425,460,405,404,276
138,0.36,0.76,0.52,-0.92,-2.69,-3.36,425,459,406,405,276
139,0.33,0.76,0.51,2.32,2.75,-9.7,428,464,406,406,273
140,0.34,0.79,0.53,1.77,-3.6,-4.03,428,456,404,404,265
141,0.36,0.79,0.52,3.11,-0.98,-4.52,425,462,406,418,264
142,0.35,0.79,0.5,-0.31,-4.39,-2.38,420,448,408,431,263
143,0.36,0.8,0.5,3.6,-0.61,-2.5,422,453,416,432,267
144,0.36,0.8,0.51,3.48,-4.21,-6.41,424,457,407,425,274
145,0.36,0.78,0.48,4.46,-0.31,-4.21,424,454,404,428,273
146,0.35,0.8,0.51,1.34,-3.36,-2.38,425,454,402,427,275
147,0.35,0.79,0.5,-1.16,0.98,-1.22,424,458,406,422,280
148,0.33,0.8,0.52,1.65,-2.26,-1.89,421,451,405,419,278
149,0.34,0.79,0.51,-1.46,-3.48,-2.56,421,455,402,423,286
150,0.3,0.78,0.52,-2.08,0.67,-2.5,420,459,405,420,278
151,0.34,0.79,0.52,-0.98,-2.56,-3.6,426,455,406,422,277
152,0.32,0.79,0.52,-0.79,-0.98,-3.11,425,460,405,424,277
153,0.33,0.8,0.51,0.18,-0.98,-3.23,426,458,407,421,280
154,0.33,0.8,0.51,0.24,-4.21,1.89,422,456,400,420,280
155,0.34,0.8,0.5,-3.36,-2.38,-1.04,425,459,404,422,279
156,0.34,0.8,0.51,-0.12,-3.17,-0.79,426,457,405,423,281
157,0.35,0.77,0.49,1.16,-3.97,-2.99,427,457,402,424,278
158,0.35,0.8,0.52,1.28,-2.69,-1.83,429,455,403,424,278
159,0.35,0.8,0.52,0.85,-1.4,-4.58,427,454,406,421,278
160,0.35,0.78,0.51,2.08,-2.44,-3.85,427,456,406,424,277
161,0.36,0.78,0.5,0.06,-2.08,-2.14,428,458,401,424,278
162,0.37,0.79,0.5,-2.56,-2.26,-3.97,426,457,407,420,277
163,0.34,0.78,0.52,-0.31,-1.65,-2.01,426,452,406,422,278
164,0.35,0.8,0.51,1.22,-3.78,-2.5,426,453,404,420,276
165,0.37,0.8,0.51,-0.61,-3.36,-0.37,426,458,403,422,277
166,0.36,0.79,0.51,-0.55,-4.46,-0.31,425,474,407,418,271
167,0.36,0.8,0.49,1.46,-1.59,-2.62,423,462,404,421,271
168,0.35,0.79,0.51,0.06,-3.05,-3.54,432,461,407,423,271
169,0.37,0.79,0.5,0.49,-1.65,-4.46,426,458,404,420,272
170,0.36,0.8,0.51,1.22,-2.62,-0.79,427,458,405,419,275
171,0.36,0.77,0.5,0.0,-2.14,-2.69,427,458,404,419,274
172,0.36,0.82,0.5,-3.54,-2.99,-1.95,425,460,407,420,275
173,0.37,0.79,0.5,-7.14,-2.2,-5.8,432,462,403,420,268
174,0.34,0.8,0.5,0.37,-3.72,-0.49,423,458,407,428,273
175,0.33,0.8,0.51,0.92,-2.32,-2.93,425,455,405,428,262
176,0.33,0.8,0.51,-0.49,-4.33,-1.59,427,458,404,434,264
177,0.31,0.82,0.48,-4.46,-7.02,-4.03,431,459,405,428,265
178,0.33,0.75,0.52,6.65,-6.1,-8.06,427,454,401,428,276
179,0.32,0.78,0.44,0.06,-9.64,-20.32,427,455,403,426,276
180,0.26,0.95,0.45,6.84,-16.05,-18.74,428,453,406,429,275
181,0.25,0.9,0.41,-10.31,-11.47,-4.7,425,459,406,431,277
182,0.28,0.82,0.33,-11.41,-18.07,-15.01,427,460,403,428,270
183,0.17,0.88,0.43,5.74,0.73,1.95,426,461,404,425,265
184,0.21,0.89,0.42,3.97,-1.34,-5.55,425,464,404,423,260
185,0.16,0.89,0.43,3.36,-6.1,-2.01,426,459,406,421,254
186,0.22,0.82,0.39,-0.06,-5.49,-4.09,434,454,407,423,258
187,0.19,0.85,0.42,1.34,-2.87,-1.83,427,463,404,425,258
188,0.18,0.89,0.43,5.86,-4.82,-8.79,422,459,405,415,271
189,0.17,0.89,0.44,-1.46,-2.5,-1.59,424,463,405,418,269
190,0.18,0.9,0.46,0.43,-2.44,-2.08,426,457,404,416,301
191,0.16,0.87,0.45,-2.01,-2.62,-2.99,427,463,406,411,270
192,0.17,0.89,0.45,-0.61,0.61,-2.44,423,463,402,416,271
193,0.15,0.88,0.4,6.71,1.65,-1.83,422,465,407,417,268
194,0.13,0.9,0.43,3.11,-4.46,-3.85,423,455,407,420,273
195,0.12,0.88,0.42,-4.7,-3.17,1.04,429,464,406,419,278
196,0.13,0.91,0.41,14.53,-1.28,-3.05,425,459,406,398,266
197,0.13,0.88,0.42,3.23,-3.97,-2.32,430,460,405,412,270
198,0.15,0.9,0.43,1.65,-1.1,-4.33,426,459,408,413,270
199,0.14,0.89,0.43,0.55,-4.64,-2.99,423,453,399,421,269
200,0.12,0.9,0.41,7.26,-2.69,-3.85,421,455,404,406,260
201,0.11,0.9,0.42,1.1,-4.58,-2.69,424,451,404,416,259
202,0.12,0.89,0.43,-0.55,-2.08,-2.5,424,458,405,417,268
203,0.1,0.92,0.44,-2.44,-0.61,-5.98,424,459,404,421,263
204,0.09,0.93,0.44,4.39,-6.47,-6.23,429,457,405,418,269
205,0.09,0.89,0.46,-1.71,-1.59,-4.64,429,451,405,419,269
206,0.01,0.87,0.47,1.16,-7.93,-1.83,426,457,405,419,268
207,0.06,0.91,0.47,3.36,-0.24,-1.65,422,461,409,421,270
208,0.06,0.88,0.47,5.13,-7.32,3.54,424,457,405,420,271
209,0.08,0.88,0.46,-2.44,-2.5,-4.76,430,456,404,422,271
210,0.06,0.89,0.46,-1.28,-3.11,-0.49,427,457,400,421,272
211,0.07,0.88,0.45,-0.37,-4.46,-3.97,427,455,407,412,274
212,0.07,0.89,0.48,-0.06,-3.97,-0.85,427,457,410,416,272
213,0.05,0.89,0.46,-0.55,-3.11,-2.01,424,457,404,420,274
214,0.1,0.87,0.45,9.89,-1.1,-11.72,427,457,407,422,274
215,0.11,0.93,0.45,3.72,-3.42,-5.74,428,460,404,420,272
216,0.1,0.9,0.44,4.58,-3.85,-7.32,429,458,405,419,276
217,0.06,0.9,0.41,0.79,-3.11,-3.91,426,461,401,417,280
218,0.08,0.89,0.43,2.01,-3.3,-2.81,425,454,400,422,277
219,0.07,0.89,0.41,2.08,-0.98,-3.11,428,448,404,422,274
220,0.08,0.92,0.4,-2.87,-6.1,-2.38,427,451,406,418,276
221,0.09,0.9,0.39,-1.16,-4.39,-4.33,423,454,400,431,274
222,0.05,0.91,0.38,1.65,-0.49,-2.01,425,453,403,432,277
223,0.05,0.9,0.39,-0.18,-2.69,-3.97,428,446,404,435,275
224,0.05,0.91,0.41,-0.67,-2.2,-3.48,426,450,405,435,277
225,0.06,0.91,0.39,-1.22,-3.17,-2.14,425,451,404,430,281
226,0.05,0.89,0.41,-3.91,-3.6,-4.94,425,456,404,436,281
227,0.03,0.89,0.42,-5.37,-2.69,-3.36,428,451,404,432,271
228,0.03,0.91,0.44,2.01,-1.34,-3.11,426,454,403,431,280
229,0.03,0.92,0.43,-0.55,-1.28,-2.5,428,454,403,430,281
230,0.03,0.91,0.43,0.85,-3.17,-2.62,427,451,406,421,279
231,0.03,0.9,0.43,1.46,-2.08,-2.5,425,452,406,422,281
232,0.01,0.88,0.4,-1.22,-2.93,-1.04,426,455,403,427,277
233,0.05,0.91,0.44,-0.67,0.12,-4.21,426,451,401,430,285
234,0.01,0.9,0.44,2.26,-3.97,-3.78,421,451,404,426,285
235,0.02,0.9,0.43,2.81,-2.44,-3.23,425,452,402,422,286
236,0.02,0.91,0.42,0.55,-3.05,-1.22,425,456,405,421,274
237,0.02,0.9,0.43,-1.4,-3.42,-2.38,429,447,401,420,262
238,0.02,0.91,0.42,-2.2,-2.81,-2.56,418,447,404,410,254
239,0.02,0.9,0.43,-0.67,-2.62,-1.71,428,449,406,415,255
240,0.01,0.9,0.43,1.1,-3.23,-3.23,426,454,404,414,263
241,0.0,0.85,0.44,-3.6,-1.1,1.16,429,454,403,417,267
242,0.06,0.87,0.47,-2.5,-6.23,-3.11,430,453,403,419,266
243,0.09,0.88,0.49,-1.53,-4.7,-0.79,422,453,403,415,268
244,0.1,0.83,0.5,1.34,-7.39,-0.18,424,459,404,414,273
245,0.11,0.85,0.51,-0.98,-4.82,-3.11,427,448,405,413,273
246,0.11,0.85,0.53,-0.73,-3.17,-2.01,426,453,401,414,271
247,0.09,0.86,0.52,2.44,-3.23,-4.39,426,454,402,416,276
248,0.07,0.85,0.54,-1.1,-3.36,-1.53,427,454,405,418,270
249,0.1,0.84,0.52,1.53,-2.93,-0.61,424,457,405,416,278
250,0.09,0.85,0.52,-2.75,-3.48,-3.48,429,455,403,417,277
251,0.09,0.85,0.55,-0.06,-2.2,-2.56,430,456,403,414,273
252,0.09,0.85,0.54,0.55,-3.85,-2.01,424,457,403,415,278
253,0.09,0.85,0.54,0.67,-2.38,-3.42,427,452,406,416,278
254,0.09,0.86,0.53,1.65,-3.85,-2.14,423,449,405,417,274
255,0.09,0.85,0.53,0.24,-2.5,-3.91,427,453,403,416,283
256,0.09,0.85,0.53,0.61,-2.99,-1.77,427,454,405,418,279
257,0.08,0.84,0.53,0.55,-1.95,-2.26,423,452,405,418,277
258,0.07,0.84,0.54,-0.55,-2.69,-2.32,423,452,406,426,278
259,0.08,0.85,0.53,1.34,-2.08,-3.72,431,454,402,417,280
260,0.07,0.85,0.55,0.49,-1.46,0.12,427,453,401,417,275
261,0.11,0.84,0.55,-0.24,-1.16,-1.59,425,451,406,418,276
262,0.07,0.86,0.52,0.61,-0.49,-9.89,425,456,402,418,277
263,0.03,0.86,0.52,2.32,-1.71,-5.13,426,457,419,418,277
264,0.02,0.85,0.5,-4.46,1.77,-8.36,427,452,402,418,276
265,-0.0,0.85,0.53,5.43,0.24,-7.08,428,452,402,413,276
266,-0.03,0.87,0.5,5.13,-1.53,5.07,424,451,403,419,262
267,0.14,0.84,0.45,9.4,-19.04,18.31,417,454,405,428,263
268,0.13,0.89,0.44,1.77,-0.37,1.65,419,453,404,424,265
269,0.15,0.86,0.45,-2.01,-2.01,-3.11,424,459,404,430,275
270,0.12,0.86,0.44,0.0,0.73,-3.17,423,457,400,430,303
271,0.12,0.9,0.45,-0.85,-2.2,-1.28,423,458,402,438,269
272,0.1,0.88,0.44,5.43,3.17,-16.11,421,453,402,424,285
273,0.08,0.88,0.44,-1.59,-5.92,-1.46,423,447,403,419,271
274,0.08,0.87,0.42,18.13,2.81,-19.1,424,452,404,413,264
275,0.06,0.88,0.43,0.0,-7.63,-0.85,418,455,407,414,267
276,0.09,0.88,0.44,-2.75,-2.87,-1.4,417,452,403,419,260
277,0.09,0.88,0.45,-2.38,-1.77,-2.08,418,453,405,414,263
278,0.07,0.87,0.46,-3.66,-2.5,-4.39,420,455,401,414,254
279,0.08,0.88,0.44,-8.3,-4.03,-6.84,418,460,406,409,264
280,0.06,0.88,0.45,-2.44,-1.77,-1.4,421,461,402,411,266
281,0.07,0.88,0.48,0.37,-3.23,-2.01,422,457,400,408,264
282,0.05,0.88,0.45,1.95,-3.66,-1.53,424,453,405,410,265
283,0.07,0.87,0.43,2.87,-0.79,-0.31,425,457,406,405,267
284,0.05,0.91,0.45,2.69,-2.32,1.04,421,461,405,405,266
285,0.07,0.92,0.44,3.17,0.24,0.98,428,457,402,408,269
286,0.06,0.87,0.41,2.32,-1.46,-2.26,424,460,403,408,268
287,0.03,0.89,0.41,-5.19,5.86,-12.21,428,457,405,403,271
288,0.1,0.92,0.41,-1.83,-1.77,-9.83,430,453,405,406,272
289,0.1,0.92,0.41,0.98,-6.16,1.95,423,456,401,405,273
290,0.12,0.92,0.41,0.12,-4.82,-7.81,419,457,400,397,261
291,0.1,0.89,0.42,-4.82,-5.68,-5.19,423,457,411,405,265
292,0.1,0.9,0.44,-5.62,-3.36,1.46,425,461,400,407,264
293,0.11,0.87,0.44,-4.09,1.46,-13.73,423,459,401,404,269
294,0.09,0.86,0.46,-0.61,-1.95,-6.23,422,454,403,409,269
295,0.1,0.87,0.45,0.55,-4.39,-1.59,425,461,401,409,270
296,0.08,0.91,0.48,2.2,-3.36,-2.26,421,458,401,412,268
297,0.1,0.89,0.45,3.42,-2.32,-2.62,423,454,405,399,264
298,0.09,0.92,0.46,0.49,-3.11,-3.6,424,455,400,392,261
299,0.1,0.9,0.46,-0.55,-2.14,-0.61,424,460,401,399,260
300,0.11,0.89,0.44,3.17,-1.83,-1.65,423,453,402,418,268
301,0.09,0.89,0.44,-3.54,-2.14,-3.23,428,456,402,420,269
302,0.09,0.9,0.45,1.4,-2.2,-4.09,423,454,403,423,269
303,0.08,0.87,0.45,1.53,-1.71,-2.93,423,455,402,420,265
304,0.05,0.89,0.46,-1.1,-3.17,-2.56,420,450,403,422,269
305,0.04,0.88,0.48,0.67,-1.71,-2.38,425,451,403,430,277
306,0.07,0.89,0.46,-0.55,-1.83,-1.71,423,456,403,431,278
307,0.07,0.88,0.46,-1.4,-4.58,-1.59,428,457,403,441,279
308,0.07,0.87,0.47,-0.49,-3.11,-4.09,425,450,405,443,286
309,0.05,0.89,0.45,3.54,-0.92,-2.56,424,454,404,444,282
310,0.06,0.88,0.46,-0.24,-3.23,-2.56,424,451,405,445,287
311,0.05,0.88,0.46,-1.95,-2.62,-1.95,427,456,407,457,288
312,0.05,0.89,0.47,-0.31,-2.81,-2.75,421,453,406,453,294
313,0.06,0.89,0.48,-0.79,-3.42,-2.32,426,456,408,458,312
314,0.06,0.89,0.47,-0.43,-2.81,-2.44,428,455,411,454,294
315,0.04,0.89,0.47,1.1,-3.23,-1.53,426,458,411,457,290
316,0.05,0.89,0.45,3.17,-2.81,-2.75,429,459,409,454,267
317,0.05,0.9,0.45,-1.28,-1.59,-1.46,423,457,411,453,263
318,0.05,0.9,0.44,3.3,-4.33,-2.38,426,451,412,447,267
319,0.05,0.89,0.45,-0.73,-1.89,-2.5,435,460,416,449,268
320,0.03,0.89,0.46,-0.55,-1.46,-2.26,423,460,415,451,271
321,0.04,0.89,0.45,2.32,-3.85,-2.99,426,458,414,449,293
322,0.02,0.89,0.46,-0.49,-2.2,-2.5,427,460,411,451,277
323,0.04,0.88,0.46,0.24,-2.69,-2.14,430,455,416,451,279
324,0.03,0.89,0.46,2.93,-2.62,-3.6,426,462,413,448,273
325,0.03,0.89,0.46,1.4,-3.23,-3.48,428,462,413,451,278
326,0.04,0.89,0.45,1.71,-1.4,-2.32,422,457,424,448,276
327,0.03,0.89,0.45,-0.98,-2.38,-2.08,422,464,410,432,264
328,0.02,0.88,0.46,-1.1,-5.25,-4.09,426,464,411,427,264
329,0.27,1.01,0.29,7.08,-19.47,-13.92,422,459,413,428,265
330,0.19,0.95,0.31,-0.49,-6.16,-1.83,427,459,408,431,272
331,0.21,0.86,0.35,-5.13,-3.72,10.8,413,457,413,432,270
332,0.23,0.87,0.41,-2.26,17.03,-10.38,417,459,413,430,271
333,0.23,0.87,0.37,-2.69,-1.34,-0.98,420,461,410,419,268
334,0.23,0.87,0.42,-2.81,-2.69,-5.68,420,465,413,425,263
335,0.18,0.86,0.42,-2.87,-3.97,-2.32,423,463,412,417,267
336,0.25,0.87,0.37,2.01,-6.71,-2.99,424,463,410,412,270
337,0.27,0.92,0.37,0.43,-1.59,-8.12,422,457,412,408,270
338,0.21,0.91,0.38,-0.49,-2.26,-2.44,422,460,410,414,274
339,0.21,0.9,0.38,-0.37,-1.89,-5.37,421,463,411,418,271
340,0.21,0.91,0.38,-2.14,-1.65,-1.71,426,457,412,417,275
341,0.19,0.89,0.37,2.2,-2.62,-2.5,425,455,408,417,275
342,0.2,0.89,0.37,-2.69,-2.44,-3.17,423,460,412,416,274
343,0.19,0.89,0.38,0.0,-2.08,-3.85,422,465,410,416,278
344,0.17,0.91,0.39,-1.46,-2.32,-2.26,423,457,410,420,277
345,0.19,0.9,0.38,0.92,-2.56,-3.97,423,460,411,428,283
346,0.17,0.89,0.39,-1.34,-4.27,-5.62,428,461,413,423,272
347,0.16,0.9,0.41,-0.92,-1.89,-3.72,424,460,414,424,275
348,0.17,0.9,0.41,-1.04,-4.88,-2.38,422,461,414,425,269
349,0.17,0.89,0.42,-1.77,-2.87,-2.62,424,465,412,425,276
350,0.16,0.89,0.42,1.71,-1.59,-3.42,426,461,413,425,281
351,0.15,0.89,0.42,-1.28,-0.49,-3.3,426,466,408,429,281
352,0.15,0.89,0.42,-0.49,-4.21,-1.65,427,461,409,436,278
353,0.13,0.9,0.44,1.34,-0.37,-2.93,427,456,415,428,283
354,0.17,0.9,0.42,-1.16,-4.09,-2.75,425,470,412,431,285
355,0.14,0.89,0.42,1.1,-2.44,-1.4,422,461,411,429,281
356,0.17,0.89,0.41,2.5,-3.05,-3.97,428,457,412,430,283
357,0.15,0.9,0.43,1.65,-4.46,-2.62,425,456,412,428,284
358,0.15,0.9,0.42,1.1,-3.85,-2.32,426,456,411,430,275
359,0.18,0.89,0.41,2.08,-2.81,-1.59,421,465,412,420,303
360,0.16,0.9,0.4,3.3,-4.88,-2.69,426,465,414,421,269
361,0.17,0.91,0.4,3.66,-0.98,-6.53,426,463,411,416,270
362,0.13,0.92,0.39,6.77,-2.56,-1.95,426,464,409,419,266
363,0.14,0.91,0.36,1.4,-4.7,0.79,427,462,409,415,275
364,0.15,0.9,0.39,0.49,1.1,-5.13,426,461,412,418,272
365,0.16,0.91,0.4,0.18,-1.59,-2.75,423,463,412,420,282
366,0.15,0.9,0.39,-3.17,-2.75,-2.87,427,467,410,419,277
367,0.15,0.89,0.4,-3.72,0.0,-7.45,427,470,411,418,281
368,0.16,0.88,0.41,-1.34,-5.62,-7.08,426,460,413,416,277
369,0.11,0.9,0.41,1.65,-2.81,-3.17,423,463,408,410,277
370,0.12,0.92,0.43,-1.46,-4.39,-2.32,426,463,409,420,279
371,0.12,0.91,0.43,0.61,-2.93,-1.4,431,463,412,418,299
372,0.15,0.89,0.41,-1.46,-6.1,-1.22,423,463,411,417,281
373,0.13,0.9,0.42,0.92,-2.01,-3.36,425,462,406,418,285
374,0.12,0.9,0.41,-0.06,-2.14,-3.48,422,459,408,432,296
375,0.13,0.9,0.43,1.83,-3.91,-2.81,428,461,411,428,282
376,0.11,0.91,0.42,1.22,-2.87,-2.99,425,467,412,420,272
377,0.12,0.9,0.41,0.73,-2.62,-2.81,428,465,410,425,271
378,0.12,0.9,0.39,-1.04,-3.3,-2.08,423,466,411,424,269
379,0.13,0.9,0.4,-0.98,-1.77,-3.78,427,463,410,425,278
380,0.14,0.9,0.4,-1.77,-2.62,-0.18,427,466,408,423,279
381,0.13,0.9,0.42,1.65,-2.93,-2.69,424,468,410,422,279
382,0.12,0.92,0.41,7.14,-3.23,-1.1,429,460,413,424,282
383,0.14,0.91,0.41,0.31,-2.93,-1.59,428,463,413,423,283
384,0.16,0.9,0.4,-1.89,-1.34,-3.48,429,463,414,424,287
385,0.15,0.9,0.42,-2.14,-2.75,-0.61,426,464,411,430,292
386,0.16,0.89,0.4,-1.4,-3.17,-2.93,426,464,407,431,294
387,0.15,0.9,0.41,0.0,-2.99,-3.66,427,462,412,431,290
388,0.16,0.89,0.41,2.38,-2.32,-3.54,429,463,411,429,298
389,0.14,0.9,0.41,0.85,-4.46,-2.08,425,458,413,427,285
390,0.14,0.91,0.4,0.18,-3.23,-2.81,424,467,410,429,288
391,0.16,0.89,0.4,-0.24,-4.94,-4.09,427,463,407,434,298
392,0.15,0.91,0.42,0.06,-4.03,-2.93,423,466,412,429,282
393,0.14,0.91,0.41,1.16,-3.3,-0.61,423,464,409,435,280
394,0.13,0.9,0.4,0.61,-3.48,-3.66,427,467,408,441,286
395,0.14,0.89,0.41,-2.26,-3.72,-2.01,429,474,407,435,289
396,0.15,0.91,0.42,3.36,-4.39,-1.46,428,458,411,440,291
397,0.15,0.9,0.4,2.01,-5.07,-2.75,428,459,410,450,295
398,0.15,0.9,0.41,1.16,-2.38,-3.17,426,463,409,452,301
399,0.15,0.9,0.41,-0.12,-3.36,-1.77,429,464,413,465,302
400,0.14,0.9,0.41,-0.06,-2.87,-2.14,428,463,413,453,302
401,0.13,0.9,0.4,-1.04,-1.65,-2.01,425,456,413,457,297
402,0.12,0.9,0.4,0.67,-1.1,-2.14,424,466,412,456,303
403,0.12,0.89,0.41,-1.53,0.31,-3.72,424,463,412,454,305
404,0.14,0.89,0.43,1.95,-4.03,-1.59,427,463,412,451,300
405,0.15,0.86,0.41,-0.85,-4.15,-4.94,429,474,412,448,338
406,0.14,0.89,0.41,-0.92,-2.75,-2.38,426,462,413,451,302
407,0.14,0.88,0.42,1.04,-3.66,-1.77,428,468,414,452,298
408,0.13,0.9,0.41,-1.83,-5.68,-5.68,426,459,413,452,301
409,0.13,0.88,0.43,-2.26,-0.92,0.37,427,458,413,445,305
410,0.1,0.9,0.44,-1.16,-2.08,-4.64,426,464,416,448,304
411,0.11,0.89,0.43,3.3,-1.77,-2.93,428,463,410,451,300
412,0.1,0.91,0.44,-0.06,-3.23,-2.08,430,461,413,453,290
413,0.12,0.9,0.42,0.37,-2.56,-1.65,429,464,412,455,297
414,0.09,0.92,0.45,1.83,-0.24,-1.16,426,468,409,448,316
415,0.12,0.9,0.43,-1.34,-3.23,0.92,431,463,415,452,305
416,0.13,0.89,0.43,-3.54,-2.14,-0.49,429,464,414,454,306
417,0.13,0.9,0.46,-0.18,-1.16,-2.01,428,468,413,456,302
418,0.1,0.88,0.43,-1.89,-1.83,-2.32,425,463,412,454,298
419,0.1,0.89,0.44,-0.43,-2.14,-3.48,427,464,414,452,298
420,0.14,0.9,0.45,2.32,-3.3,-0.06,431,463,412,452,304
421,0.13,0.89,0.44,0.24,-4.15,-3.23,428,468,414,452,300
422,0.12,0.89,0.45,0.24,-2.2,-3.6,430,460,414,448,299
423,0.11,0.9,0.44,0.37,-3.66,-1.28,427,468,409,449,302
424,0.12,0.89,0.44,-3.11,-5.43,-1.83,423,464,412,446,300
425,0.15,0.87,0.44,1.34,-4.52,-5.07,425,464,415,451,303
426,0.1,0.89,0.46,0.92,-0.31,-6.71,423,468,413,452,304
427,0.11,0.88,0.45,-0.24,-2.2,-1.4,427,465,411,449,303
428,0.09,0.89,0.48,-5.0,-2.44,-6.04,424,462,414,450,305
429,0.12,0.89,0.47,0.73,-4.27,-2.14,427,461,412,450,303
430,0.1,0.87,0.45,-2.01,-3.48,0.31,427,468,411,451,302
431,0.1,0.88,0.45,-1.83,-3.97,-1.77,430,465,414,445,304
432,0.11,0.89,0.46,0.43,-4.21,-1.89,428,464,411,446,306
433,0.12,0.89,0.43,3.66,-4.94,-2.44,424,466,411,451,301
434,0.11,0.9,0.43,-2.2,-2.81,-0.67,428,459,413,445,272
435,0.13,0.88,0.4,2.14,-1.04,-1.34,431,464,411,442,272
436,0.14,0.87,0.4,-1.65,-3.3,-1.95,428,466,413,446,279
437,0.15,0.88,0.4,0.49,-2.99,-1.46,429,466,415,457,282
438,0.17,0.9,0.41,0.98,-1.77,-2.26,424,459,415,442,285
439,0.15,0.9,0.41,-1.1,-2.62,-1.4,428,459,412,444,290
440,0.15,0.9,0.43,-2.5,-1.46,-5.43,423,466,412,453,290
441,0.11,0.9,0.38,-13.31,-7.2,-0.24,426,463,413,442,292
442,0.12,0.87,0.44,-18.19,-7.02,3.48,424,464,413,445,289
443,0.22,0.78,0.58,-12.94,-1.59,17.82,427,458,413,447,292
444,0.27,0.8,0.62,-3.3,9.34,15.26,428,465,414,443,294
445,0.25,0.69,0.64,0.98,0.31,5.13,428,458,417,446,291
446,0.29,0.69,0.63,-0.31,3.85,7.69,431,458,413,440,292
447,0.29,0.71,0.64,-4.27,-3.66,3.78,427,468,410,440,296
448,0.34,0.66,0.66,-5.19,-7.2,-0.31,429,460,414,441,315
449,0.31,0.69,0.66,2.99,0.24,-13.61,426,465,414,439,294
450,0.31,0.72,0.66,3.17,-3.72,-3.72,427,463,427,441,291
451,0.31,0.72,0.64,0.37,-1.71,-1.34,429,465,410,443,294
452,0.35,0.73,0.67,-0.37,-4.03,-4.58,429,460,414,440,296
453,0.31,0.68,0.65,0.98,-0.31,-0.24,429,468,417,441,293
454,0.4,0.66,0.63,4.88,-3.05,-9.77,430,463,413,437,297
455,0.37,0.7,0.64,0.31,-3.91,-3.23,427,467,419,441,296
456,0.32,0.69,0.65,-0.73,-2.87,-2.2,428,464,412,443,296
457,0.32,0.7,0.64,-3.11,-3.72,1.4,430,463,414,442,299
458,0.37,0.68,0.67,-1.71,-5.25,-5.19,430,464,414,444,296
459,0.33,0.7,0.68,-2.32,0.85,1.89,424,464,412,439,300
460,0.34,0.67,0.69,0.12,-2.08,-4.7,425,468,411,440,299
461,0.35,0.67,0.67,-1.22,-3.85,-2.26,427,463,412,444,318
462,0.35,0.66,0.66,1.04,-4.76,0.55,424,463,412,449,296
463,0.35,0.66,0.69,0.67,-1.53,-2.62,427,466,415,441,300
464,0.37,0.64,0.68,-3.48,-3.97,-4.46,425,465,411,441,299
465,0.35,0.67,0.67,3.42,-2.81,-4.94,426,468,414,438,307
466,0.35,0.69,0.64,1.4,-4.27,-2.14,428,464,415,447,277
467,0.35,0.69,0.65,-2.5,-2.81,-1.83,424,464,410,448,286
468,0.31,0.66,0.65,-6.59,-16.3,-5.13,425,461,411,448,290
469,0.33,0.7,0.68,2.14,-2.99,-12.33,413,435,412,449,293
470,0.27,0.72,0.63,13.79,-8.42,-4.52,413,431,413,448,290
471,0.29,0.77,0.55,4.88,-4.15,-1.65,414,437,414,446,294
472,0.27,0.8,0.56,4.58,-1.04,-2.87,409,439,416,446,290
473,0.31,0.79,0.56,-1.89,-4.33,-0.73,414,440,415,443,279
474,0.31,0.77,0.56,3.11,-3.72,-0.55,414,441,413,450,264
475,0.31,0.77,0.56,0.61,-4.03,2.81,417,440,413,445,270
476,0.31,0.77,0.57,-1.71,-2.56,-1.59,420,444,414,445,276
477,0.32,0.77,0.58,-2.2,-2.01,0.67,417,448,417,442,278
478,0.33,0.77,0.59,-3.17,-1.4,-0.61,418,445,413,461,281
479,0.34,0.73,0.59,-3.17,-0.49,-5.8,418,450,413,450,284
480,0.32,0.73,0.58,6.04,-4.7,-5.49,420,446,410,448,277
481,0.35,0.76,0.58,-0.79,-2.81,-2.32,421,449,412,445,278
482,0.35,0.76,0.57,-0.24,-2.26,-2.01,418,453,413,443,270
483,0.36,0.76,0.56,2.32,-4.7,-1.83,421,449,412,443,266
484,0.34,0.75,0.57,-1.46,-1.53,-2.93,418,449,413,441,272
485,0.34,0.76,0.57,-1.95,3.48,-10.13,416,446,416,442,279
486,0.32,0.75,0.59,1.71,-1.65,-1.89,419,447,413,435,277
487,0.32,0.76,0.57,-1.4,-2.99,-2.14,421,445,409,439,287
488,0.32,0.76,0.59,-0.55,-2.62,-2.38,421,448,415,435,282
489,0.32,0.76,0.59,-2.2,-3.48,-3.54,424,450,414,434,283
490,0.31,0.76,0.59,0.79,-2.69,-2.08,421,446,416,430,282
491,0.31,0.75,0.59,-0.55,-3.11,-1.71,420,448,413,433,284
492,0.31,0.76,0.59,0.31,-2.38,-2.44,423,448,416,434,282
493,0.31,0.74,0.59,-0.06,-3.05,-2.32,421,445,415,433,279
494,0.32,0.75,0.59,0.24,-3.42,-1.4,418,452,414,434,283
495,0.32,0.76,0.6,0.0,-3.11,-3.3,422,448,418,432,285
496,0.32,0.76,0.6,0.67,-3.42,-4.21,423,451,412,433,285
497,0.3,0.75,0.6,-0.12,-4.39,-2.69,418,449,413,433,287
498,0.31,0.76,0.59,-0.92,-3.78,-2.56,422,446,412,437,278
499,0.31,0.75,0.58,0.43,-2.38,-2.38,423,450,410,433,275
500,0.32,0.75,0.58,1.71,-4.64,-2.75,420,452,412,437,269
501,0.32,0.76,0.59,0.24,-3.72,-2.32,424,447,409,437,271
502,0.32,0.75,0.59,-1.46,-2.81,-2.81,419,453,409,438,271
503,0.33,0.75,0.59,-0.06,-3.11,-3.05,422,451,410,439,276
504,0.31,0.82,0.5,-1.28,-4.21,-0.92,421,464,412,430,255
505,0.31,0.81,0.5,-0.61,-4.15,-2.14,422,462,409,437,259
506,0.32,0.81,0.49,5.25,0.85,-0.24,424,468,411,436,254
507,0.31,0.81,0.5,-2.69,-2.38,-2.38,422,460,411,436,258
508,0.31,0.8,0.5,1.46,-3.36,0.24,421,458,416,437,259
509,0.34,0.82,0.48,1.46,-3.42,-2.62,420,461,407,435,257
510,0.33,0.82,0.49,-2.38,-3.6,-1.53,424,461,413,438,256
511,0.35,0.83,0.48,0.06,-1.77,-3.72,425,457,411,458,289
512,0.32,0.79,0.5,0.49,-2.87,-3.48,420,464,411,460,270
513,0.34,0.81,0.5,-0.73,-2.75,-2.93,425,462,416,459,267
514,0.32,0.81,0.49,0.98,-2.75,-2.44,423,459,415,449,269
515,0.33,0.81,0.48,1.59,-3.78,-2.5,423,464,414,450,266
516,0.32,0.82,0.49,-1.53,-2.26,-1.59,420,476,413,440,265
517,0.33,0.82,0.49,0.49,-2.32,-1.1,420,461,410,444,268
518,0.31,0.82,0.48,1.65,-1.34,-5.62,427,458,410,423,257
519,0.31,0.82,0.49,0.18,-2.26,-2.38,423,466,413,438,264
520,0.31,0.82,0.48,1.53,-3.36,-2.08,425,461,412,441,287
521,0.32,0.82,0.48,1.22,-2.69,-2.56,425,457,409,440,264
522,0.3,0.83,0.49,-0.55,-1.95,-2.01,426,465,424,433,268
523,0.3,0.8,0.48,-2.26,-2.87,-4.46,421,462,412,436,267
524,0.25,0.95,0.6,1.59,-6.1,-6.9,424,465,408,450,268
525,0.27,0.78,0.52,-0.24,-10.13,-4.46,426,461,410,432,270
526,0.25,0.66,0.39,2.87,15.08,-2.01,423,464,410,438,270
527,0.33,0.88,0.49,3.85,-5.0,-3.78,421,460,417,436,271
528,0.27,0.85,0.48,-3.3,-4.03,-4.94,429,462,412,433,271
529,0.28,0.88,0.5,3.42,-18.43,12.02,425,459,416,439,271
530,0.24,0.77,0.5,2.99,-6.71,-11.05,424,463,414,438,274
531,0.26,0.88,0.51,5.31,-5.19,3.78,422,461,408,438,271
532,0.26,0.81,0.48,2.01,-0.43,-3.42,426,462,411,435,268
533,0.24,0.86,0.48,3.6,-1.95,-6.35,423,463,414,433,276
534,0.24,0.87,0.47,6.53,-1.59,-2.62,423,465,412,439,270
535,0.22,0.84,0.43,0.61,-3.97,-0.31,424,462,411,430,269
536,0.23,0.9,0.45,-0.61,1.28,-1.89,430,454,414,430,269
537,0.23,0.84,0.47,-0.67,-4.33,-5.8,426,461,412,436,273
538,0.23,0.86,0.43,0.61,-1.59,1.83,422,464,409,439,274
539,0.24,0.85,0.45,-2.14,-1.65,-5.62,427,461,409,427,297
540,0.21,0.86,0.48,-9.83,0.98,-8.85,424,466,409,428,272
541,0.22,0.87,0.49,-2.44,-1.65,-2.81,433,459,413,428,268
542,0.23,0.83,0.5,1.46,-5.86,-2.69,427,464,411,426,270
543,0.21,0.84,0.48,0.31,-2.87,0.0,422,467,411,425,263
544,0.22,0.85,0.48,-1.65,-2.56,-4.33,426,464,410,424,294
545,0.25,0.88,0.47,4.94,-3.3,-7.51,427,467,409,420,266
546,0.23,0.8,0.49,-5.68,-5.31,-0.61,421,458,413,424,265
547,0.22,0.85,0.46,-2.62,-2.5,-2.38,424,466,408,427,267
548,0.21,0.83,0.49,-2.87,-4.03,-4.64,428,457,412,425,272
549,0.2,0.82,0.5,-4.94,-1.95,-9.28,424,467,408,424,270
550,0.23,0.84,0.51,-1.04,-1.28,-5.43,426,459,410,427,274
551,0.16,0.85,0.53,0.24,-3.17,-5.25,431,461,405,428,273
552,0.18,0.82,0.51,0.85,-1.04,-4.09,425,463,405,423,274
553,0.2,0.86,0.49,2.56,-2.26,-2.32,426,459,406,424,262
554,0.23,0.84,0.47,2.38,-8.3,5.25,428,461,409,426,270
555,0.2,0.86,0.48,-0.79,-3.85,-3.23,427,460,411,423,276
556,0.19,0.85,0.48,3.85,-2.99,-3.48,427,464,409,420,256
557,0.18,0.86,0.48,-1.89,-2.99,-2.14,428,460,407,418,265
558,0.19,0.79,0.48,3.48,0.06,13.55,428,460,412,415,264
559,0.2,0.84,0.58,1.1,-10.68,5.43,427,458,409,416,265
560,0.29,0.82,0.46,20.32,-1.71,2.99,426,464,411,417,270
561,0.32,0.89,0.38,9.22,0.06,-6.47,426,464,409,418,268
562,0.14,0.91,0.39,-7.2,-9.4,-7.2,427,463,405,419,265
563,0.22,0.91,0.41,2.38,-4.33,-6.65,426,459,407,420,266
564,0.2,0.92,0.37,13.24,-3.05,-3.17,423,461,409,416,261
565,0.2,0.89,0.39,-2.2,-2.44,-0.55,425,460,407,417,266
566,0.18,0.9,0.41,-4.46,-3.05,-4.03,430,457,407,416,265
567,0.19,0.88,0.42,-1.16,-3.54,-0.12,424,462,414,412,257
568,0.17,0.88,0.43,-2.93,-0.73,-10.07,430,463,410,414,265
569,0.17,0.91,0.42,-0.18,-2.99,-0.37,429,461,418,413,263
570,0.14,0.88,0.47,-3.54,0.43,-2.87,428,465,409,417,263
571,0.13,0.86,0.48,8.12,4.09,-8.97,431,460,413,424,266
572,0.2,0.89,0.42,2.5,-6.96,-4.21,430,465,412,407,263
573,0.19,0.94,0.45,6.41,-1.89,-4.52,429,460,412,410,265
574,0.21,0.83,0.4,0.31,-7.87,7.32,428,459,407,412,263
575,0.18,0.83,0.46,-0.06,-2.81,10.38,430,460,414,418,268
576,0.23,0.83,0.44,5.31,-6.41,-1.16,429,456,410,415,267
577,0.21,0.88,0.46,-7.87,2.87,-3.23,427,460,410,416,270
578,0.28,0.9,0.42,13.61,-16.54,3.97,428,459,410,422,270
579,0.34,0.89,0.38,10.01,-4.94,-3.42,427,459,409,417,268
580,0.31,0.83,0.33,-2.69,-9.89,3.17,425,456,411,384,247
581,0.25,0.91,0.35,-0.85,-4.09,-5.98,424,463,407,397,265
582,0.3,0.88,0.4,-11.35,-10.01,9.22,421,460,412,398,248
583,0.23,0.86,0.48,3.91,4.39,-1.71,423,459,408,398,252
584,0.34,0.87,0.39,3.3,-11.05,-1.28,430,458,406,398,255
585,0.34,0.91,0.31,-1.83,-10.8,14.65,424,451,410,401,254
586,0.35,0.98,0.45,1.89,-16.6,-1.46,428,461,406,398,257
587,0.38,0.79,0.51,2.14,3.66,-5.43,427,456,408,401,273
588,0.56,0.78,0.4,8.61,2.14,10.44,428,457,406,403,261
589,0.46,0.76,0.43,-5.55,-3.11,-10.68,438,459,404,405,271
590,0.25,0.69,0.57,-8.12,-8.79,-10.19,426,461,402,404,264
591,0.28,0.69,0.55,7.14,-5.68,-2.62,427,454,408,405,263
592,0.26,0.8,0.53,-6.29,-2.38,1.89,426,455,408,404,266
593,0.26,0.82,0.55,11.6,-5.92,-5.8,428,461,406,405,265
594,0.28,0.8,0.53,4.21,-2.08,-6.35,426,460,407,405,267
595,0.3,0.79,0.55,-1.4,-1.53,1.53,428,463,404,402,274
596,0.32,0.81,0.56,3.05,-1.59,-6.59,429,463,406,401,268
597,0.34,0.81,0.53,5.43,-2.93,-2.93,425,462,407,403,272
598,0.33,0.79,0.54,5.0,-1.95,-2.01,428,458,402,404,269
599,0.31,0.77,0.53,5.13,-9.64,9.4,430,460,405,402,266
600,0.34,0.79,0.54,-3.11,-0.37,-2.2,424,461,408,405,272
601,0.35,0.78,0.54,-2.75,-4.88,0.73,425,460,407,398,269
602,0.35,0.75,0.56,-8.48,-3.3,-3.17,429,460,402,406,269
603,0.36,0.74,0.57,-2.62,-2.99,0.06,426,456,408,402,272
604,0.37,0.75,0.57,-3.23,-5.92,-0.55,430,459,409,414,270
605,0.37,0.74,0.59,-3.72,-3.85,-1.46,430,463,403,409,272
606,0.38,0.75,0.58,-4.21,-2.75,-0.98,427,460,405,403,274
607,0.39,0.67,0.57,-1.77,-1.89,-7.75,429,461,406,402,274
608,0.38,0.71,0.55,2.14,-1.04,-8.3,425,461,408,401,275
609,0.37,0.74,0.57,2.08,-3.11,-3.6,425,463,421,403,271
610,0.37,0.76,0.58,0.37,-1.95,-2.93,427,457,407,402,276
611,0.4,0.73,0.58,1.53,-5.19,0.06,427,460,405,402,273
612,0.42,0.72,0.58,0.12,-5.37,-0.12,427,464,407,406,275
613,0.45,0.71,0.58,-1.22,-2.26,-2.08,428,459,405,405,274
614,0.43,0.69,0.58,0.12,-3.91,-2.2,427,463,411,404,276
615,0.42,0.71,0.58,3.23,-2.14,-5.25,428,462,405,403,274
616,0.41,0.73,0.56,-0.92,-0.06,-5.43,428,462,402,399,248
617,0.41,0.74,0.55,-0.24,-2.56,-0.73,428,463,405,404,250
618,0.41,0.73,0.56,-2.32,-6.29,0.85,428,462,403,412,262
619,0.41,0.7,0.54,-2.08,-2.87,-2.5,428,455,402,404,264
620,0.46,0.7,0.57,-1.1,-2.32,-1.34,427,461,405,403,274
621,0.44,0.72,0.57,-0.06,-1.65,-2.5,428,456,411,404,268
622,0.44,0.71,0.57,0.12,-2.75,-2.62,427,459,405,404,269
623,0.44,0.7,0.58,-0.24,-2.87,-2.62,429,460,402,402,269
624,0.45,0.69,0.59,2.26,-2.87,-2.32,428,456,405,404,269
625,0.46,0.68,0.58,0.12,-4.39,-1.89,421,460,408,400,272
626,0.45,0.69,0.58,0.37,-1.04,-3.6,425,460,404,406,273
627,0.45,0.67,0.58,-0.92,-2.81,-2.2,425,456,405,405,272
628,0.45,0.68,0.57,-1.1,-0.92,-2.2,426,459,405,404,274
629,0.44,0.7,0.59,2.26,-2.32,-6.53,425,459,405,405,257
630,0.42,0.73,0.56,3.72,-2.32,-1.1,424,455,408,403,257
631,0.42,0.73,0.57,10.19,3.54,-13.67,429,464,405,402,258
632,0.31,0.77,0.5,4.15,1.71,-8.85,426,460,405,412,265
633,0.27,0.82,0.53,-0.31,0.61,-1.77,426,460,416,412,266
634,0.31,0.74,0.55,0.37,-4.27,-0.55,427,463,405,413,271
635,0.34,0.81,0.53,-1.16,-5.43,0.98,427,456,408,408,273
636,0.35,0.78,0.5,1.65,-2.38,-4.27,428,462,406,408,300
637,0.34,0.79,0.5,-4.88,-2.01,1.95,429,459,406,409,274
638,0.36,0.81,0.53,-4.27,-2.01,-1.1,428,461,402,405,274
639,0.35,0.74,0.53,1.04,-6.1,-0.06,429,461,408,406,276
640,0.38,0.8,0.53,1.65,-4.82,1.59,430,461,402,408,276
641,0.38,0.77,0.51,-1.28,-4.94,0.55,425,460,405,404,276
642,0.36,0.76,0.52,-0.92,-2.69,-3.36,425,459,406,405,276
643,0.33,0.76,0.51,2.32,2.75,-9.7,428,464,406,406,273
644,0.34,0.79,0.53,1.77,-3.6,-4.03,428,456,404,404,265
645,0.36,0.79,0.52,3.11,-0.98,-4.52,425,462,406,418,264
646,0.35,0.79,0.5,-0.31,-4.39,-2.38,420,448,408,431,263
647,0.36,0.8,0.5,3.6,-0.61,-2.5,422,453,416,432,267
648,0.36,0.8,0.51,3.48,-4.21,-6.41,424,457,407,425,274
649,0.36,0.78,0.48,4.46,-0.31,-4.21,424,454,404,428,273
650,0.35,0.8,0.51,1.34,-3.36,-2.38,425,454,402,427,275
651,0.35,0.79,0.5,-1.16,0.98,-1.22,424,458,406,422,280
652,0.33,0.8,0.52,1.65,-2.26,-1.89,421,451,405,419,278
653,0.34,0.79,0.51,-1.46,-3.48,-2.56,421,455,402,423,286
654,0.3,0.78,0.52,-2.08,0.67,-2.5,420,459,405,420,278
655,0.34,0.79,0.52,-0.98,-2.56,-3.6,426,455,406,422,277
656,0.32,0.79,0.52,-0.79,-0.98,-3.11,425,460,405,424,277
657,0.33,0.8,0.51,0.18,-0.98,-3.23,426,458,407,421,280
658,0.33,0.8,0.51,0.24,-4.21,1.89,422,456,400,420,280
659,0.34,0.8,0.5,-3.36,-2.38,-1.04,425,459,404,422,279
660,0.34,0.8,0.51,-0.12,-3.17,-0.79,426,457,405,423,281
661,0.35,0.77,0.49,1.16,-3.97,-2.99,427,457,402,424,278
662,0.35,0.8,0.52,1.28,-2.69,-1.83,429,455,403,424,278
663,0.35,0.8,0.52,0.85,-1.4,-4.58,427,454,406,421,278
664,0.35,0.78,0.51,2.08,-2.44,-3.85,427,456,406,424,277
665,0.36,0.78,0.5,0.06,-2.08,-2.14,428,458,401,424,278
666,0.37,0.79,0.5,-2.56,-2.26,-3.97,426,457,407,420,277
667,0.34,0.78,0.52,-0.31,-1.65,-2.01,426,452,406,422,278
668,0.35,0.8,0.51,1.22,-3.78,-2.5,426,453,404,420,276
669,0.37,0.8,0.51,-0.61,-3.36,-0.37,426,458,403,422,277
670,0.36,0.79,0.51,-0.55,-4.46,-0.31,425,474,407,418,271
671,0.36,0.8,0.49,1.46,-1.59,-2.62,423,462,404,421,271
672,0.35,0.79,0.51,0.06,-3.05,-3.54,432,461,407,423,271
673,0.37,0.79,0.5,0.49,-1.65,-4.46,426,458,404,420,272
674,0.36,0.8,0.51,1.22,-2.62,-0.79,427,458,405,419,275
675,0.36,0.77,0.5,0.0,-2.14,-2.69,427,458,404,419,274
676,0.36,0.82,0.5,-3.54,-2.99,-1.95,425,460,407,420,275
677,0.37,0.79,0.5,-7.14,-2.2,-5.8,432,462,403,420,268
678,0.34,0.8,0.5,0.37,-3.72,-0.49,423,458,407,428,273
679,0.33,0.8,0.51,0.92,-2.32,-2.93,425,455,405,428,262
680,0.33,0.8,0.51,-0.49,-4.33,-1.59,427,458,404,434,264
681,0.31,0.82,0.48,-4.46,-7.02,-4.03,431,459,405,428,265
682,0.33,0.75,0.52,6.65,-6.1,-8.06,427,454,401,428,276
683,0.32,0.78,0.44,0.06,-9.64,-20.32,427,455,403,426,276
684,0.26,0.95,0.45,6.84,-16.05,-18.74,428,453,406,429,275
685,0.25,0.9,0.41,-10.31,-11.47,-4.7,425,459,406,431,277
686,0.28,0.82,0.33,-11.41,-18.07,-15.01,427,460,403,428,270
687,0.17,0.88,0.43,5.74,0.73,1.95,426,461,404,425,265
688,0.21,0.89,0.42,3.97,-1.34,-5.55,425,464,404,423,260
689,0.16,0.89,0.43,3.36,-6.1,-2.01,426,459,406,421,254
690,0.22,0.82,0.39,-0.06,-5.49,-4.09,434,454,407,423,258
691,0.19,0.85,0.42,1.34,-2.87,-1.83,427,463,404,425,258
692,0.18,0.89,0.43,5.86,-4.82,-8.79,422,459,405,415,271
693,0.17,0.89,0.44,-1.46,-2.5,-1.59,424,463,405,418,269
694,0.18,0.9,0.46,0.43,-2.44,-2.08,426,457,404,416,301
695,0.16,0.87,0.45,-2.01,-2.62,-2.99,427,463,406,411,270
696,0.17,0.89,0.45,-0.61,0.61,-2.44,423,463,402,416,271
697,0.15,0.88,0.4,6.71,1.65,-1.83,422,465,407,417,268
698,0.13,0.9,0.43,3.11,-4.46,-3.85,423,455,407,420,273
699,0.12,0.88,0.42,-4.7,-3.17,1.04,429,464,406,419,278
700,0.13,0.91,0.41,14.53,-1.28,-3.05,425,459,406,398,266
701,0.13,0.88,0.42,3.23,-3.97,-2.32,430,460,405,412,270
702,0.15,0.9,0.43,1.65,-1.1,-4.33,426,459,408,413,270
703,0.14,0.89,0.43,0.55,-4.64,-2.99,423,453,399,421,269
704,0.12,0.9,0.41,7.26,-2.69,-3.85,421,455,404,406,260
705,0.11,0.9,0.42,1.1,-4.58,-2.69,424,451,404,416,259
706,0.12,0.89,0.43,-0.55,-2.08,-2.5,424,458,405,417,268
707,0.1,0.92,0.44,-2.44,-0.61,-5.98,424,459,404,421,263
708,0.09,0.93,0.44,4.39,-6.47,-6.23,429,457,405,418,269
709,0.09,0.89,0.46,-1.71,-1.59,-4.64,429,451,405,419,269
710,0.01,0.87,0.47,1.16,-7.93,-1.83,426,457,405,419,268
711,0.06,0.91,0.47,3.36,-0.24,-1.65,422,461,409,421,270
712,0.06,0.88,0.47,5.13,-7.32,3.54,424,457,405,420,271
713,0.08,0.88,0.46,-2.44,-2.5,-4.76,430,456,404,422,271
714,0.06,0.89,0.46,-1.28,-3.11,-0.49,427,457,400,421,272
715,0.07,0.88,0.45,-0.37,-4.46,-3.97,427,455,407,412,274
716,0.07,0.89,0.48,-0.06,-3.97,-0.85,427,457,410,416,272
717,0.05,0.89,0.46,-0.55,-3.11,-2.01,424,457,404,420,274
718,0.1,0.87,0.45,9.89,-1.1,-11.72,427,457,407,422,274
719,0.11,0.93,0.45,3.72,-3.42,-5.74,428,460,404,420,272
720,0.1,0.9,0.44,4.58,-3.85,-7.32,429,458,405,419,276
721,0.06,0.9,0.41,0.79,-3.11,-3.91,426,461,401,417,280
722,0.08,0.89,0.43,2.01,-3.3,-2.81,425,454,400,422,277
723,0.07,0.89,0.41,2.08,-0.98,-3.11,428,448,404,422,274
724,0.08,0.92,0.4,-2.87,-6.1,-2.38,427,451,406,418,276
725,0.09,0.9,0.39,-1.16,-4.39,-4.33,423,454,400,431,274
726,0.05,0.91,0.38,1.65,-0.49,-2.01,425,453,403,432,277
727,0.05,0.9,0.39,-0.18,-2.69,-3.97,428,446,404,435,275
728,0.05,0.91,0.41,-0.67,-2.2,-3.48,426,450,405,435,277
729,0.06,0.91,0.39,-1.22,-3.17,-2.14,425,451,404,430,281
730,0.05,0.89,0.41,-3.91,-3.6,-4.94,425,456,404,436,281
731,0.03,0.89,0.42,-5.37,-2.69,-3.36,428,451,404,432,271
732,0.03,0.91,0.44,2.01,-1.34,-3.11,426,454,403,431,280
733,0.03,0.92,0.43,-0.55,-1.28,-2.5,428,454,403,430,281
734,0.03,0.91,0.43,0.85,-3.17,-2.62,427,451,406,421,279
735,0.03,0.9,0.43,1.46,-2.08,-2.5,425,452,406,422,281
736,0.01,0.88,0.4,-1.22,-2.93,-1.04,426,455,403,427,277
737,0.05,0.91,0.44,-0.67,0.12,-4.21,426,451,401,430,285
738,0.01,0.9,0.44,2.26,-3.97,-3.78,421,451,404,426,285
739,0.02,0.9,0.43,2.81,-2.44,-3.23,425,452,402,422,286
740,0.02,0.91,0.42,0.55,-3.05,-1.22,425,456,405,421,274
741,0.02,0.9,0.43,-1.4,-3.42,-2.38,429,447,401,420,262
742,0.02,0.91,0.42,-2.2,-2.81,-2.56,418,447,404,410,254
743,0.02,0.9,0.43,-0.67,-2.62,-1.71,428,449,406,415,255
744,0.01,0.9,0.43,1.1,-3.23,-3.23,426,454,404,414,263
745,0.0,0.85,0.44,-3.6,-1.1,1.16,429,454,403,417,267
746,0.06,0.87,0.47,-2.5,-6.23,-3.11,430,453,403,419,266
747,0.09,0.88,0.49,-1.53,-4.7,-0.79,422,453,403,415,268
748,0.1,0.83,0.5,1.34,-7.39,-0.18,424,459,404,414,273
749,0.11,0.85,0.51,-0.98,-4.82,-3.11,427,448,405,413,273
750,0.11,0.85,0.53,-0.73,-3.17,-2.01,426,453,401,414,271
751,0.09,0.86,0.52,2.44,-3.23,-4.39,426,454,402,416,276
752,0.07,0.85,0.54,-1.1,-3.36,-1.53,427,454,405,418,270
753,0.1,0.84,0.52,1.53,-2.93,-0.61,424,457,405,416,278
754,0.09,0.85,0.52,-2.75,-3.48,-3.48,429,455,403,417,277
755,0.09,0.85,0.55,-0.06,-2.2,-2.56,430,456,403,414,273
756,0.09,0.85,0.54,0.55,-3.85,-2.01,424,457,403,415,278
757,0.09,0.85,0.54,0.67,-2.38,-3.42,427,452,406,416,278
758,0.09,0.86,0.53,1.65,-3.85,-2.14,423,449,405,417,274
759,0.09,0.85,0.53,0.24,-2.5,-3.91,427,453,403,416,283
760,0.09,0.85,0.53,0.61,-2.99,-1.77,427,454,405,418,279
761,0.08,0.84,0.53,0.55,-1.95,-2.26,423,452,405,418,277
762,0.07,0.84,0.54,-0.55,-2.69,-2.32,423,452,406,426,278
763,0.08,0.85,0.53,1.34,-2.08,-3.72,431,454,402,417,280
764,0.07,0.85,0.55,0.49,-1.46,0.12,427,453,401,417,275
765,0.11,0.84,0.55,-0.24,-1.16,-1.59,425,451,406,418,276
766,0.07,0.86,0.52,0.61,-0.49,-9.89,425,456,402,418,277
767,0.03,0.86,0.52,2.32,-1.71,-5.13,426,457,419,418,277
768,0.02,0.85,0.5,-4.46,1.77,-8.36,427,452,402,418,276
769,-0.0,0.85,0.53,5.43,0.24,-7.08,428,452,402,413,276
770,-0.03,0.87,0.5,5.13,-1.53,5.07,424,451,403,419,262
771,0.14,0.84,0.45,9.4,-19.04,18.31,417,454,405,428,263
772,0.13,0.89,0.44,1.77,-0.37,1.65,419,453,404,424,265
773,0.15,0.86,0.45,-2.01,-2.01,-3.11,424,459,404,430,275
774,0.12,0.86,0.44,0.0,0.73,-3.17,423,457,400,430,303
775,0.12,0.9,0.45,-0.85,-2.2,-1.28,423,458,402,438,269
776,0.1,0.88,0.44,5.43,3.17,-16.11,421,453,402,424,285
777,0.08,0.88,0.44,-1.59,-5.92,-1.46,423,447,403,419,271
778,0.08,0.87,0.42,18.13,2.81,-19.1,424,452,404,413,264
779,0.06,0.88,0.43,0.0,-7.63,-0.85,418,455,407,414,267
780,0.09,0.88,0.44,-2.75,-2.87,-1.4,417,452,403,419,260
781,0.09,0.88,0.45,-2.38,-1.77,-2.08,418,453,405,414,263
782,0.07,0.87,0.46,-3.66,-2.5,-4.39,420,455,401,414,254
783,0.08,0.88,0.44,-8.3,-4.03,-6.84,418,460,406,409,264
784,0.06,0.88,0.45,-2.44,-1.77,-1.4,421,461,402,411,266
785,0.07,0.88,0.48,0.37,-3.23,-2.01,422,457,400,408,264
786,0.05,0.88,0.45,1.95,-3.66,-1.53,424,453,405,410,265
787,0.07,0.87,0.43,2.87,-0.79,-0.31,425,457,406,405,267
788,0.05,0.91,0.45,2.69,-2.32,1.04,421,461,405,405,266
789,0.07,0.92,0.44,3.17,0.24,0.98,428,457,402,408,269
790,0.06,0.87,0.41,2.32,-1.46,-2.26,424,460,403,408,268
791,0.03,0.89,0.41,-5.19,5.86,-12.21,428,457,405,403,271
792,0.1,0.92,0.41,-1.83,-1.77,-9.83,430,453,405,406,272
793,0.1,0.92,0.41,0.98,-6.16,1.95,423,456,401,405,273
794,0.12,0.92,0.41,0.12,-4.82,-7.81,419,457,400,397,261
795,0.1,0.89,0.42,-4.82,-5.68,-5.19,423,457,411,405,265
796,0.1,0.9,0.44,-5.62,-3.36,1.46,425,461,400,407,264
797,0.11,0.87,0.44,-4.09,1.46,-13.73,423,459,401,404,269
798,0.09,0.86,0.46,-0.61,-1.95,-6.23,422,454,403,409,269
799,0.1,0.87,0.45,0.55,-4.39,-1.59,425,461,401,409,270
800,0.08,0.91,0.48,2.2,-3.36,-2.26,421,458,401,412,268
801,0.1,0.89,0.45,3.42,-2.32,-2.62,423,454,405,399,264
802,0.09,0.92,0.46,0.49,-3.11,-3.6,424,455,400,392,261
803,0.1,0.9,0.46,-0.55,-2.14,-0.61,424,460,401,399,260
804,0.11,0.89,0.44,3.17,-1.83,-1.65,423,453,402,418,268
805,0.09,0.89,0.44,-3.54,-2.14,-3.23,428,456,402,420,269
806,0.09,0.9,0.45,1.4,-2.2,-4.09,423,454,403,423,269
807,0.08,0.87,0.45,1.53,-1.71,-2.93,423,455,402,420,265
808,0.05,0.89,0.46,-1.1,-3.17,-2.56,420,450,403,422,269
809,0.04,0.88,0.48,0.67,-1.71,-2.38,425,451,403,430,277
810,0.07,0.89,0.46,-0.55,-1.83,-1.71,423,456,403,431,278
811,0.07,0.88,0.46,-1.4,-4.58,-1.59,428,457,403,441,279
812,0.07,0.87,0.47,-0.49,-3.11,-4.09,425,450,405,443,286
813,0.05,0.89,0.45,3.54,-0.92,-2.56,424,454,404,444,282
814,0.06,0.88,0.46,-0.24,-3.23,-2.56,424,451,405,445,287
815,0.05,0.88,0.46,-1.95,-2.62,-1.95,427,456,407,457,288
816,0.05,0.89,0.47,-0.31,-2.81,-2.75,421,453,406,453,294
817,0.06,0.89,0.48,-0.79,-3.42,-2.32,426,456,408,458,312
818,0.06,0.89,0.47,-0.43,-2.81,-2.44,428,455,411,454,294
819,0.04,0.89,0.47,1.1,-3.23,-1.53,426,458,411,457,290
820,0.05,0.89,0.45,3.17,-2.81,-2.75,429,459,409,454,267
821,0.05,0.9,0.45,-1.28,-1.59,-1.46,423,457,411,453,263
822,0.05,0.9,0.44,3.3,-4.33,-2.38,426,451,412,447,267
823,0.05,0.89,0.45,-0.73,-1.89,-2.5,435,460,416,449,268
824,0.03,0.89,0.46,-0.55,-1.46,-2.26,423,460,415,451,271
825,0.04,0.89,0.45,2.32,-3.85,-2.99,426,458,414,449,293
826,0.02,0.89,0.46,-0.49,-2.2,-2.5,427,460,411,451,277
827,0.04,0.88,0.46,0.24,-2.69,-2.14,430,455,416,451,279
828,0.03,0.89,0.46,2.93,-2.62,-3.6,426,462,413,448,273
829,0.03,0.89,0.46,1.4,-3.23,-3.48,428,462,413,451,278
830,0.04,0.89,0.45,1.71,-1.4,-2.32,422,457,424,448,276
831,0.03,0.89,0.45,-0.98,-2.38,-2.08,422,464,410,432,264
832,0.02,0.88,0.46,-1.1,-5.25,-4.09,426,464,411,427,264
833,0.27,1.01,0.29,7.08,-19.47,-13.92,422,459,413,428,265
834,0.19,0.95,0.31,-0.49,-6.16,-1.83,427,459,408,431,272
835,0.21,0.86,0.35,-5.13,-3.72,10.8,413,457,413,432,270
836,0.23,0.87,0.41,-2.26,17.03,-10.38,417,459,413,430,271
837,0.23,0.87,0.37,-2.69,-1.34,-0.98,420,461,410,419,268
838,0.23,0.87,0.42,-2.81,-2.69,-5.68,420,465,413,425,263
839,0.18,0.86,0.42,-2.87,-3.97,-2.32,423,463,412,417,267
840,0.25,0.87,0.37,2.01,-6.71,-2.99,424,463,410,412,270
841,0.27,0.92,0.37,0.43,-1.59,-8.12,422,457,412,408,270
842,0.21,0.91,0.38,-0.49,-2.26,-2.44,422,460,410,414,274
843,0.21,0.9,0.38,-0.37,-1.89,-5.37,421,463,411,418,271
844,0.21,0.91,0.38,-2.14,-1.65,-1.71,426,457,412,417,275
845,0.19,0.89,0.37,2.2,-2.62,-2.5,425,455,408,417,275
846,0.2,0.89,0.37,-2.69,-2.44,-3.17,423,460,412,416,274
847,0.19,0.89,0.38,0.0,-2.08,-3.85,422,465,410,416,278
848,0.17,0.91,0.39,-1.46,-2.32,-2.26,423,457,410,420,277
849,0.19,0.9,0.38,0.92,-2.56,-3.97,423,460,411,428,283
850,0.17,0.89,0.39,-1.34,-4.27,-5.62,428,461,413,423,272
851,0.16,0.9,0.41,-0.92,-1.89,-3.72,424,460,414,424,275
852,0.17,0.9,0.41,-1.04,-4.88,-2.38,422,461,414,425,269
853,0.17,0.89,0.42,-1.77,-2.87,-2.62,424,465,412,425,276
854,0.16,0.89,0.42,1.71,-1.59,-3.42,426,461,413,425,281
855,0.15,0.89,0.42,-1.28,-0.49,-3.3,426,466,408,429,281
856,0.15,0.89,0.42,-0.49,-4.21,-1.65,427,461,409,436,278
857,0.13,0.9,0.44,1.34,-0.37,-2.93,427,456,415,428,283
858,0.17,0.9,0.42,-1.16,-4.09,-2.75,425,470,412,431,285
859,0.14,0.89,0.42,1.1,-2.44,-1.4,422,461,411,429,281
860,0.17,0.89,0.41,2.5,-3.05,-3.97,428,457,412,430,283
861,0.15,0.9,0.43,1.65,-4.46,-2.62,425,456,412,428,284
862,0.15,0.9,0.42,1.1,-3.85,-2.32,426,456,411,430,275
863,0.18,0.89,0.41,2.08,-2.81,-1.59,421,465,412,420,303
864,0.16,0.9,0.4,3.3,-4.88,-2.69,426,465,414,421,269
865,0.17,0.91,0.4,3.66,-0.98,-6.53,426,463,411,416,270
866,0.13,0.92,0.39,6.77,-2.56,-1.95,426,464,409,419,266
867,0.14,0.91,0.36,1.4,-4.7,0.79,427,462,409,415,275
868,0.15,0.9,0.39,0.49,1.1,-5.13,426,461,412,418,272
869,0.16,0.91,0.4,0.18,-1.59,-2.75,423,463,412,420,282
870,0.15,0.9,0.39,-3.17,-2.75,-2.87,427,467,410,419,277
871,0.15,0.89,0.4,-3.72,0.0,-7.45,427,470,411,418,281
872,0.16,0.88,0.41,-1.34,-5.62,-7.08,426,460,413,416,277
873,0.11,0.9,0.41,1.65,-2.81,-3.17,423,463,408,410,277
874,0.12,0.92,0.43,-1.46,-4.39,-2.32,426,463,409,420,279
875,0.12,0.91,0.43,0.61,-2.93,-1.4,431,463,412,418,299
876,0.15,0.89,0.41,-1.46,-6.1,-1.22,423,463,411,417,281
877,0.13,0.9,0.42,0.92,-2.01,-3.36,425,462,406,418,285
878,0.12,0.9,0.41,-0.06,-2.14,-3.48,422,459,408,432,296
879,0.13,0.9,0.43,1.83,-3.91,-2.81,428,461,411,428,282
880,0.11,0.91,0.42,1.22,-2.87,-2.99,425,467,412,420,272
881,0.12,0.9,0.41,0.73,-2.62,-2.81,428,465,410,425,271
882,0.12,0.9,0.39,-1.04,-3.3,-2.08,423,466,411,424,269
883,0.13,0.9,0.4,-0.98,-1.77,-3.78,427,463,410,425,278
884,0.14,0.9,0.4,-1.77,-2.62,-0.18,427,466,408,423,279
885,0.13,0.9,0.42,1.65,-2.93,-2.69,424,468,410,422,279
886,0.12,0.92,0.41,7.14,-3.23,-1.1,429,460,413,424,282
887,0.14,0.91,0.41,0.31,-2.93,-1.59,428,463,413,423,283
888,0.16,0.9,0.4,-1.89,-1.34,-3.48,429,463,414,424,287
889,0.15,0.9,0.42,-2.14,-2.75,-0.61,426,464,411,430,292
890,0.16,0.89,0.4,-1.4,-3.17,-2.93,426,464,407,431,294
891,0.15,0.9,0.41,0.0,-2.99,-3.66,427,462,412,431,290
892,0.16,0.89,0.41,2.38,-2.32,-3.54,429,463,411,429,298
893,0.14,0.9,0.41,0.85,-4.46,-2.08,425,458,413,427,285
894,0.14,0.91,0.4,0.18,-3.23,-2.81,424,467,410,429,288
895,0.16,0.89,0.4,-0.24,-4.94,-4.09,427,463,407,434,298
896,0.15,0.91,0.42,0.06,-4.03,-2.93,423,466,412,429,282
897,0.14,0.91,0.41,1.16,-3.3,-0.61,423,464,409,435,280
898,0.13,0.9,0.4,0.61,-3.48,-3.66,427,467,408,441,286
899,0.14,0.89,0.41,-2.26,-3.72,-2.01,429,474,407,435,289
900,0.15,0.91,0.42,3.36,-4.39,-1.46,428,458,411,440,291
901,0.15,0.9,0.4,2.01,-5.07,-2.75,428,459,410,450,295
902,0.15,0.9,0.41,1.16,-2.38,-3.17,426,463,409,452,301
903,0.15,0.9,0.41,-0.12,-3.36,-1.77,429,464,413,465,302
904,0.14,0.9,0.41,-0.06,-2.87,-2.14,428,463,413,453,302
905,0.13,0.9,0.4,-1.04,-1.65,-2.01,425,456,413,457,297
906,0.12,0.9,0.4,0.67,-1.1,-2.14,424,466,412,456,303
907,0.12,0.89,0.41,-1.53,0.31,-3.72,424,463,412,454,305
908,0.14,0.89,0.43,1.95,-4.03,-1.59,427,463,412,451,300
909,0.15,0.86,0.41,-0.85,-4.15,-4.94,429,474,412,448,338
910,0.14,0.89,0.41,-0.92,-2.75,-2.38,426,462,413,451,302
911,0.14,0.88,0.42,1.04,-3.66,-1.77,428,468,414,452,298
912,0.13,0.9,0.41,-1.83,-5.68,-5.68,426,459,413,452,301
913,0.13,0.88,0.43,-2.26,-0.92,0.37,427,458,413,445,305
914,0.1,0.9,0.44,-1.16,-2.08,-4.64,426,464,416,448,304
915,0.11,0.89,0.43,3.3,-1.77,-2.93,428,463,410,451,300
916,0.1,0.91,0.44,-0.06,-3.23,-2.08,430,461,413,453,290
917,0.12,0.9,0.42,0.37,-2.56,-1.65,429,464,412,455,297
918,0.09,0.92,0.45,1.83,-0.24,-1.16,426,468,409,448,316
919,0.12,0.9,0.43,-1.34,-3.23,0.92,431,463,415,452,305
920,0.13,0.89,0.43,-3.54,-2.14,-0.49,429,464,414,454,306
921,0.13,0.9,0.46,-0.18,-1.16,-2.01,428,468,413,456,302
922,0.1,0.88,0.43,-1.89,-1.83,-2.32,425,463,412,454,298
923,0.1,0.89,0.44,-0.43,-2.14,-3.48,427,464,414,452,298
924,0.14,0.9,0.45,2.32,-3.3,-0.06,431,463,412,452,304
925,0.13,0.89,0.44,0.24,-4.15,-3.23,428,468,414,452,300
926,0.12,0.89,0.45,0.24,-2.2,-3.6,430,460,414,448,299
927,0.11,0.9,0.44,0.37,-3.66,-1.28,427,468,409,449,302
928,0.12,0.89,0.44,-3.11,-5.43,-1.83,423,464,412,446,300
929,0.15,0.87,0.44,1.34,-4.52,-5.07,425,464,415,451,303
930,0.1,0.89,0.46,0.92,-0.31,-6.71,423,468,413,452,304
931,0.11,0.88,0.45,-0.24,-2.2,-1.4,427,465,411,449,303
932,0.09,0.89,0.48,-5.0,-2.44,-6.04,424,462,414,450,305
933,0.12,0.89,0.47,0.73,-4.27,-2.14,427,461,412,450,303
934,0.1,0.87,0.45,-2.01,-3.48,0.31,427,468,411,451,302
935,0.1,0.88,0.45,-1.83,-3.97,-1.77,430,465,414,445,304
936,0.11,0.89,0.46,0.43,-4.21,-1.89,428,464,411,446,306
937,0.12,0.89,0.43,3.66,-4.94,-2.44,424,466,411,451,301
938,0.11,0.9,0.43,-2.2,-2.81,-0.67,428,459,413,445,272
939,0.13,0.88,0.4,2.14,-1.04,-1.34,431,464,411,442,272
940,0.14,0.87,0.4,-1.65,-3.3,-1.95,428,466,413,446,279
941,0.15,0.88,0.4,0.49,-2.99,-1.46,429,466,415,457,282
942,0.17,0.9,0.41,0.98,-1.77,-2.26,424,459,415,442,285
943,0.15,0.9,0.41,-1.1,-2.62,-1.4,428,459,412,444,290
944,0.15,0.9,0.43,-2.5,-1.46,-5.43,423,466,412,453,290
945,0.11,0.9,0.38,-13.31,-7.2,-0.24,426,463,413,442,292
946,0.12,0.87,0.44,-18.19,-7.02,3.48,424,464,413,445,289
947,0.22,0.78,0.58,-12.94,-1.59,17.82,427,458,413,447,292
948,0.27,0.8,0.62,-3.3,9.34,15.26,428,465,414,443,294
949,0.25,0.69,0.64,0.98,0.31,5.13,428,458,417,446,291
950,0.29,0.69,0.63,-0.31,3.85,7.69,431,458,413,440,292
951,0.29,0.71,0.64,-4.27,-3.66,3.78,427,468,410,440,296
952,0.34,0.66,0.66,-5.19,-7.2,-0.31,429,460,414,441,315
953,0.31,0.69,0.66,2.99,0.24,-13.61,426,465,414,439,294
954,0.31,0.72,0.66,3.17,-3.72,-3.72,427,463,427,441,291
955,0.31,0.72,0.64,0.37,-1.71,-1.34,429,465,410,443,294
956,0.35,0.73,0.67,-0.37,-4.03,-4.58,429,460,414,440,296
957,0.31,0.68,0.65,0.98,-0.31,-0.24,429,468,417,441,293
958,0.4,0.66,0.63,4.88,-3.05,-9.77,430,463,413,437,297
959,0.37,0.7,0.64,0.31,-3.91,-3.23,427,467,419,441,296
960,0.32,0.69,0.65,-0.73,-2.87,-2.2,428,464,412,443,296
961,0.32,0.7,0.64,-3.11,-3.72,1.4,430,463,414,442,299
962,0.37,0.68,0.67,-1.71,-5.25,-5.19,430,464,414,444,296
963,0.33,0.7,0.68,-2.32,0.85,1.89,424,464,412,439,300
964,0.34,0.67,0.69,0.12,-2.08,-4.7,425,468,411,440,299
965,0.35,0.67,0.67,-1.22,-3.85,-2.26,427,463,412,444,318
966,0.35,0.66,0.66,1.04,-4.76,0.55,424,463,412,449,296
967,0.35,0.66,0.69,0.67,-1.53,-2.62,427,466,415,441,300
968,0.37,0.64,0.68,-3.48,-3.97,-4.46,425,465,411,441,299
969,0.35,0.67,0.67,3.42,-2.81,-4.94,426,468,414,438,307
970,0.35,0.69,0.64,1.4,-4.27,-2.14,428,464,415,447,277
971,0.35,0.69,0.65,-2.5,-2.81,-1.83,424,464,410,448,286
972,0.31,0.66,0.65,-6.59,-16.3,-5.13,425,461,411,448,290
973,0.33,0.7,0.68,2.14,-2.99,-12.33,413,435,412,449,293
974,0.27,0.72,0.63,13.79,-8.42,-4.52,413,431,413,448,290
975,0.29,0.77,0.55,4.88,-4.15,-1.65,414,437,414,446,294
976,0.27,0.8,0.56,4.58,-1.04,-2.87,409,439,416,446,290
977,0.31,0.79,0.56,-1.89,-4.33,-0.73,414,440,415,443,279
978,0.31,0.77,0.56,3.11,-3.72,-0.55,414,441,413,450,264
979,0.31,0.77,0.56,0.61,-4.03,2.81,417,440,413,445,270
980,0.31,0.77,0.57,-1.71,-2.56,-1.59,420,444,414,445,276
981,0.32,0.77,0.58,-2.2,-2.01,0.67,417,448,417,442,278
982,0.33,0.77,0.59,-3.17,-1.4,-0.61,418,445,413,461,281
983,0.34,0.73,0.59,-3.17,-0.49,-5.8,418,450,413,450,284
984,0.32,0.73,0.58,6.04,-4.7,-5.49,420,446,410,448,277
985,0.35,0.76,0.58,-0.79,-2.81,-2.32,421,449,412,445,278
986,0.35,0.76,0.57,-0.24,-2.26,-2.01,418,453,413,443,270
987,0.36,0.76,0.56,2.32,-4.7,-1.83,421,449,412,443,266
988,0.34,0.75,0.57,-1.46,-1.53,-2.93,418,449,413,441,272
989,0.34,0.76,0.57,-1.95,3.48,-10.13,416,446,416,442,279
990,0.32,0.75,0.59,1.71,-1.65,-1.89,419,447,413,435,277
991,0.32,0.76,0.57,-1.4,-2.99,-2.14,421,445,409,439,287
992,0.32,0.76,0.59,-0.55,-2.62,-2.38,421,448,415,435,282
993,0.32,0.76,0.59,-2.2,-3.48,-3.54,424,450,414,434,283
994,0.31,0.76,0.59,0.79,-2.69,-2.08,421,446,416,430,282
995,0.31,0.75,0.59,-0.55,-3.11,-1.71,420,448,413,433,284
996,0.31,0.76,0.59,0.31,-2.38,-2.44,423,448,416,434,282
997,0.31,0.74,0.59,-0.06,-3.05,-2.32,421,445,415,433,279
998,0.32,0.75,0.59,0.24,-3.42,-1.4,418,452,414,434,283
999,0.32,0.76,0.6,0.0,-3.11,-3.3,422,448,418,432,285
1000,0.32,0.76,0.6,0.67,-3.42,-4.21,423,451,412,433,285
1001,0.3,0.75,0.6,-0.12,-4.39,-2.69,418,449,413,433,287
1002,0.31,0.76,0.59,-0.92,-3.78,-2.56,422,446,412,437,278
1003,0.31,0.75,0.58,0.43,-2.38,-2.38,423,450,410,433,275
1004,0.32,0.75,0.58,1.71,-4.64,-2.75,420,452,412,437,269
1005,0.32,0.76,0.59,0.24,-3.72,-2.32,424,447,409,437,271
1006,0.32,0.75,0.59,-1.46,-2.81,-2.81,419,453,409,438,271
1007,0.33,0.75,0.59,-0.06,-3.11,-3.05,422,451,410,439,276
1008,0.31,0.82,0.5,-1.28,-4.21,-0.92,421,464,412,430,255
1009,0.31,0.81,0.5,-0.61,-4.15,-2.14,422,462,409,437,259
1010,0.32,0.81,0.49,5.25,0.85,-0.24,424,468,411,436,254
1011,0.31,0.81,0.5,-2.69,-2.38,-2.38,422,460,411,436,258
1012,0.31,0.8,0.5,1.46,-3.36,0.24,421,458,416,437,259
1013,0.34,0.82,0.48,1.46,-3.42,-2.62,420,461,407,435,257
1014,0.33,0.82,0.49,-2.38,-3.6,-1.53,424,461,413,438,256
1015,0.35,0.83,0.48,0.06,-1.77,-3.72,425,457,411,458,289
1016,0.32,0.79,0.5,0.49,-2.87,-3.48,420,464,411,460,270
1017,0.34,0.81,0.5,-0.73,-2.75,-2.93,425,462,416,459,267
1018,0.32,0.81,0.49,0.98,-2.75,-2.44,423,459,415,449,269
1019,0.33,0.81,0.48,1.59,-3.78,-2.5,423,464,414,450,266
1020,0.32,0.82,0.49,-1.53,-2.26,-1.59,420,476,413,440,265
1021,0.33,0.82,0.49,0.49,-2.32,-1.1,420,461,410,444,268
1022,0.31,0.82,0.48,1.65,-1.34,-5.62,427,458,410,423,257
1023,0.31,0.82,0.49,0.18,-2.26,-2.38,423,466,413,438,264
1024,0.31,0.82,0.48,1.53,-3.36,-2.08,425,461,412,441,287
1025,0.32,0.82,0.48,1.22,-2.69,-2.56,425,457,409,440,264
1026,0.3,0.83,0.49,-0.55,-1.95,-2.01,426,465,424,433,268
1027,0.3,0.8,0.48,-2.26,-2.87,-4.46,421,462,412,436,267
1028,0.25,0.95,0.6,1.59,-6.1,-6.9,424,465,408,450,268
1029,0.27,0.78,0.52,-0.24,-10.13,-4.46,426,461,410,432,270
1030,0.25,0.66,0.39,2.87,15.08,-2.01,423,464,410,438,270
1031,0.33,0.88,0.49,3.85,-5.0,-3.78,421,460,417,436,271
1032,0.27,0.85,0.48,-3.3,-4.03,-4.94,429,462,412,433,271
1033,0.28,0.88,0.5,3.42,-18.43,12.02,425,459,416,439,271
1034,0.24,0.77,0.5,2.99,-6.71,-11.05,424,463,414,438,274
1035,0.26,0.88,0.51,5.31,-5.19,3.78,422,461,408,438,271
1036,0.26,0.81,0.48,2.01,-0.43,-3.42,426,462,411,435,268
1037,0.24,0.86,0.48,3.6,-1.95,-6.35,423,463,414,433,276
1038,0.24,0.87,0.47,6.53,-1.59,-2.62,423,465,412,439,270
1039,0.22,0.84,0.43,0.61,-3.97,-0.31,424,462,411,430,269
1040,0.23,0.9,0.45,-0.61,1.28,-1.89,430,454,414,430,269
1041,0.23,0.84,0.47,-0.67,-4.33,-5.8,426,461,412,436,273
1042,0.23,0.86,0.43,0.61,-1.59,1.83,422,464,409,439,274
1043,0.24,0.85,0.45,-2.14,-1.65,-5.62,427,461,409,427,297
1044,0.21,0.86,0.48,-9.83,0.98,-8.85,424,466,409,428,272
1045,0.22,0.87,0.49,-2.44,-1.65,-2.81,433,459,413,428,268
1046,0.23,0.83,0.5,1.46,-5.86,-2.69,427,464,411,426,270
1047,0.21,0.84,0.48,0.31,-2.87,0.0,422,467,411,425,263
1048,0.22,0.85,0.48,-1.65,-2.56,-4.33,426,464,410,424,294
1049,0.25,0.88,0.47,4.94,-3.3,-7.51,427,467,409,420,266
1050,0.23,0.8,0.49,-5.68,-5.31,-0.61,421,458,413,424,265
1051,0.22,0.85,0.46,-2.62,-2.5,-2.38,424,466,408,427,267
1052,0.21,0.83,0.49,-2.87,-4.03,-4.64,428,457,412,425,272
1053,0.2,0.82,0.5,-4.94,-1.95,-9.28,424,467,408,424,270
1054,0.23,0.84,0.51,-1.04,-1.28,-5.43,426,459,410,427,274
1055,0.16,0.85,0.53,0.24,-3.17,-5.25,431,461,405,428,273
1056,0.18,0.82,0.51,0.85,-1.04,-4.09,425,463,405,423,274
1057,0.2,0.86,0.49,2.56,-2.26,-2.32,426,459,406,424,262
1058,0.23,0.84,0.47,2.38,-8.3,5.25,428,461,409,426,270
1059,0.2,0.86,0.48,-0.79,-3.85,-3.23,427,460,411,423,276
1060,0.19,0.85,0.48,3.85,-2.99,-3.48,427,464,409,420,256
1061,0.18,0.86,0.48,-1.89,-2.99,-2.14,428,460,407,418,265
1062,0.19,0.79,0.48,3.48,0.06,13.55,428,460,412,415,264
1063,0.2,0.84,0.58,1.1,-10.68,5.43,427,458,409,416,265
1064,0.29,0.82,0.46,20.32,-1.71,2.99,426,464,411,417,270
1065,0.32,0.89,0.38,9.22,0.06,-6.47,426,464,409,418,268
1066,0.14,0.91,0.39,-7.2,-9.4,-7.2,427,463,405,419,265
1067,0.22,0.91,0.41,2.38,-4.33,-6.65,426,459,407,420,266
1068,0.2,0.92,0.37,13.24,-3.05,-3.17,423,461,409,416,261
1069,0.2,0.89,0.39,-2.2,-2.44,-0.55,425,460,407,417,266
1070,0.18,0.9,0.41,-4.46,-3.05,-4.03,430,457,407,416,265
1071,0.19,0.88,0.42,-1.16,-3.54,-0.12,424,462,414,412,257
1072,0.17,0.88,0.43,-2.93,-0.73,-10.07,430,463,410,414,265
1073,0.17,0.91,0.42,-0.18,-2.99,-0.37,429,461,418,413,263
1074,0.14,0.88,0.47,-3.54,0.43,-2.87,428,465,409,417,263
1075,0.13,0.86,0.48,8.12,4.09,-8.97,431,460,413,424,266
1076,0.2,0.89,0.42,2.5,-6.96,-4.21,430,465,412,407,263
1077,0.19,0.94,0.45,6.41,-1.89,-4.52,429,460,412,410,265
1078,0.21,0.83,0.4,0.31,-7.87,7.32,428,459,407,412,263
1079,0.18,0.83,0.46,-0.06,-2.81,10.38,430,460,414,418,268
1080,0.23,0.83,0.44,5.31,-6.41,-1.16,429,456,410,415,267
1081,0.21,0.88,0.46,-7.87,2.87,-3.23,427,460,410,416,270
1082,0.28,0.9,0.42,13.61,-16.54,3.97,428,459,410,422,270
1083,0.34,0.89,0.38,10.01,-4.94,-3.42,427,459,409,417,268
1084,0.31,0.83,0.33,-2.69,-9.89,3.17,425,456,411,384,247
1085,0.25,0.91,0.35,-0.85,-4.09,-5.98,424,463,407,397,265
1086,0.3,0.88,0.4,-11.35,-10.01,9.22,421,460,412,398,248
1087,0.23,0.86,0.48,3.91,4.39,-1.71,423,459,408,398,252
1088,0.34,0.87,0.39,3.3,-11.05,-1.28,430,458,406,398,255
1089,0.34,0.91,0.31,-1.83,-10.8,14.65,424,451,410,401,254
1090,0.35,0.98,0.45,1.89,-16.6,-1.46,428,461,406,398,257
1091,0.38,0.79,0.51,2.14,3.66,-5.43,427,456,408,401,273
1092,0.56,0.78,0.4,8.61,2.14,10.44,428,457,406,403,261
1093,0.46,0.76,0.43,-5.55,-3.11,-10.68,438,459,404,405,271
1094,0.25,0.69,0.57,-8.12,-8.79,-10.19,426,461,402,404,264
1095,0.28,0.69,0.55,7.14,-5.68,-2.62,427,454,408,405,263
1096,0.26,0.8,0.53,-6.29,-2.38,1.89,426,455,408,404,266
1097,0.26,0.82,0.55,11.6,-5.92,-5.8,428,461,406,405,265
1098,0.28,0.8,0.53,4.21,-2.08,-6.35,426,460,407,405,267
1099,0.3,0.79,0.55,-1.4,-1.53,1.53,428,463,404,402,274
1100,0.32,0.81,0.56,3.05,-1.59,-6.59,429,463,406,401,268
1101,0.34,0.81,0.53,5.43,-2.93,-2.93,425,462,407,403,272
1102,0.33,0.79,0.54,5.0,-1.95,-2.01,428,458,402,404,269
1103,0.31,0.77,0.53,5.13,-9.64,9.4,430,460,405,402,266
1104,0.34,0.79,0.54,-3.11,-0.37,-2.2,424,461,408,405,272
1105,0.35,0.78,0.54,-2.75,-4.88,0.73,425,460,407,398,269
1106,0.35,0.75,0.56,-8.48,-3.3,-3.17,429,460,402,406,269
1107,0.36,0.74,0.57,-2.62,-2.99,0.06,426,456,408,402,272
1108,0.37,0.75,0.57,-3.23,-5.92,-0.55,430,459,409,414,270
1109,0.37,0.74,0.59,-3.72,-3.85,-1.46,430,463,403,409,272
1110,0.38,0.75,0.58,-4.21,-2.75,-0.98,427,460,405,403,274
1111,0.39,0.67,0.57,-1.77,-1.89,-7.75,429,461,406,402,274
1112,0.38,0.71,0.55,2.14,-1.04,-8.3,425,461,408,401,275
1113,0.37,0.74,0.57,2.08,-3.11,-3.6,425,463,421,403,271
1114,0.37,0.76,0.58,0.37,-1.95,-2.93,427,457,407,402,276
1115,0.4,0.73,0.58,1.53,-5.19,0.06,427,460,405,402,273
1116,0.42,0.72,0.58,0.12,-5.37,-0.12,427,464,407,406,275
1117,0.45,0.71,0.58,-1.22,-2.26,-2.08,428,459,405,405,274
1118,0.43,0.69,0.58,0.12,-3.91,-2.2,427,463,411,404,276
1119,0.42,0.71,0.58,3.23,-2.14,-5.25,428,462,405,403,274
1120,0.41,0.73,0.56,-0.92,-0.06,-5.43,428,462,402,399,248
1121,0.41,0.74,0.55,-0.24,-2.56,-0.73,428,463,405,404,250
1122,0.41,0.73,0.56,-2.32,-6.29,0.85,428,462,403,412,262
1123,0.41,0.7,0.54,-2.08,-2.87,-2.5,428,455,402,404,264
1124,0.46,0.7,0.57,-1.1,-2.32,-1.34,427,461,405,403,274
1125,0.44,0.72,0.57,-0.06,-1.65,-2.5,428,456,411,404,268
1126,0.44,0.71,0.57,0.12,-2.75,-2.62,427,459,405,404,269
1127,0.44,0.7,0.58,-0.24,-2.87,-2.62,429,460,402,402,269
1128,0.45,0.69,0.59,2.26,-2.87,-2.32,428,456,405,404,269
1129,0.46,0.68,0.58,0.12,-4.39,-1.89,421,460,408,400,272
1130,0.45,0.69,0.58,0.37,-1.04,-3.6,425,460,404,406,273
1131,0.45,0.67,0.58,-0.92,-2.81,-2.2,425,456,405,405,272
1132,0.45,0.68,0.57,-1.1,-0.92,-2.2,426,459,405,404,274
1133,0.44,0.7,0.59,2.26,-2.32,-6.53,425,459,405,405,257
1134,0.42,0.73,0.56,3.72,-2.32,-1.1,424,455,408,403,257
1135,0.42,0.73,0.57,10.19,3.54,-13.67,429,464,405,402,258
1136,0.31,0.77,0.5,4.15,1.71,-8.85,426,460,405,412,265
1137,0.27,0.82,0.53,-0.31,0.61,-1.77,426,460,416,412,266
1138,0.31,0.74,0.55,0.37,-4.27,-0.55,427,463,405,413,271
1139,0.34,0.81,0.53,-1.16,-5.43,0.98,427,456,408,408,273
1140,0.35,0.78,0.5,1.65,-2.38,-4.27,428,462,406,408,300
1141,0.34,0.79,0.5,-4.88,-2.01,1.95,429,459,406,409,274
1142,0.36,0.81,0.53,-4.27,-2.01,-1.1,428,461,402,405,274
1143,0.35,0.74,0.53,1.04,-6.1,-0.06,429,461,408,406,276
1144,0.38,0.8,0.53,1.65,-4.82,1.59,430,461,402,408,276
1145,0.38,0.77,0.51,-1.28,-4.94,0.55,425,460,405,404,276
1146,0.36,0.76,0.52,-0.92,-2.69,-3.36,425,459,406,405,276
1147,0.33,0.76,0.51,2.32,2.75,-9.7,428,464,406,406,273
1148,0.34,0.79,0.53,1.77,-3.6,-4.03,428,456,404,404,265
1149,0.36,0.79,0.52,3.11,-0.98,-4.52,425,462,406,418,264
1150,0.35,0.79,0.5,-0.31,-4.39,-2.38,420,448,408,431,263
1151,0.36,0.8,0.5,3.6,-0.61,-2.5,422,453,416,432,267
1152,0.36,0.8,0.51,3.48,-4.21,-6.41,424,457,407,425,274
1153,0.36,0.78,0.48,4.46,-0.31,-4.21,424,454,404,428,273
1154,0.35,0.8,0.51,1.34,-3.36,-2.38,425,454,402,427,275
1155,0.35,0.79,0.5,-1.16,0.98,-1.22,424,458,406,422,280
1156,0.33,0.8,0.52,1.65,-2.26,-1.89,421,451,405,419,278
1157,0.34,0.79,0.51,-1.46,-3.48,-2.56,421,455,402,423,286
1158,0.3,0.78,0.52,-2.08,0.67,-2.5,420,459,405,420,278
1159,0.34,0.79,0.52,-0.98,-2.56,-3.6,426,455,406,422,277
1160,0.32,0.79,0.52,-0.79,-0.98,-3.11,425,460,405,424,277
1161,0.33,0.8,0.51,0.18,-0.98,-3.23,426,458,407,421,280
1162,0.33,0.8,0.51,0.24,-4.21,1.89,422,456,400,420,280
1163,0.34,0.8,0.5,-3.36,-2.38,-1.04,425,459,404,422,279
1164,0.34,0.8,0.51,-0.12,-3.17,-0.79,426,457,405,423,281
1165,0.35,0.77,0.49,1.16,-3.97,-2.99,427,457,402,424,278
1166,0.35,0.8,0.52,1.28,-2.69,-1.83,429,455,403,424,278
1167,0.35,0.8,0.52,0.85,-1.4,-4.58,427,454,406,421,278
1168,0.35,0.78,0.51,2.08,-2.44,-3.85,427,456,406,424,277
1169,0.36,0.78,0.5,0.06,-2.08,-2.14,428,458,401,424,278
1170,0.37,0.79,0.5,-2.56,-2.26,-3.97,426,457,407,420,277
1171,0.34,0.78,0.52,-0.31,-1.65,-2.01,426,452,406,422,278
1172,0.35,0.8,0.51,1.22,-3.78,-2.5,426,453,404,420,276
1173,0.37,0.8,0.51,-0.61,-3.36,-0.37,426,458,403,422,277
1174,0.36,0.79,0.51,-0.55,-4.46,-0.31,425,474,407,418,271
1175,0.36,0.8,0.49,1.46,-1.59,-2.62,423,462,404,421,271
1176,0.35,0.79,0.51,0.06,-3.05,-3.54,432,461,407,423,271
1177,0.37,0.79,0.5,0.49,-1.65,-4.46,426,458,404,420,272
1178,0.36,0.8,0.51,1.22,-2.62,-0.79,427,458,405,419,275
1179,0.36,0.77,0.5,0.0,-2.14,-2.69,427,458,404,419,274
1180,0.36,0.82,0.5,-3.54,-2.99,-1.95,425,460,407,420,275
1181,0.37,0.79,0.5,-7.14,-2.2,-5.8,432,462,403,420,268
1182,0.34,0.8,0.5,0.37,-3.72,-0.49,423,458,407,428,273
1183,0.33,0.8,0.51,0.92,-2.32,-2.93,425,455,405,428,262
1184,0.33,0.8,0.51,-0.49,-4.33,-1.59,427,458,404,434,264
1185,0.31,0.82,0.48,-4.46,-7.02,-4.03,431,459,405,428,265
1186,0.33,0.75,0.52,6.65,-6.1,-8.06,427,454,401,428,276
1187,0.32,0.78,0.44,0.06,-9.64,-20.32,427,455,403,426,276
1188,0.26,0.95,0.45,6.84,-16.05,-18.74,428,453,406,429,275
1189,0.25,0.9,0.41,-10.31,-11.47,-4.7,425,459,406,431,277
1190,0.28,0.82,0.33,-11.41,-18.07,-15.01,427,460,403,428,270
1191,0.17,0.88,0.43,5.74,0.73,1.95,426,461,404,425,265
1192,0.21,0.89,0.42,3.97,-1.34,-5.55,425,464,404,423,260
1193,0.16,0.89,0.43,3.36,-6.1,-2.01,426,459,406,421,254
1194,0.22,0.82,0.39,-0.06,-5.49,-4.09,434,454,407,423,258
1195,0.19,0.85,0.42,1.34,-2.87,-1.83,427,463,404,425,258
1196,0.18,0.89,0.43,5.86,-4.82,-8.79,422,459,405,415,271
1197,0.17,0.89,0.44,-1.46,-2.5,-1.59,424,463,405,418,269
1198,0.18,0.9,0.46,0.43,-2.44,-2.08,426,457,404,416,301
1199,0.16,0.87,0.45,-2.01,-2.62,-2.99,427,463,406,411,270
1200,0.17,0.89,0.45,-0.61,0.61,-2.44,423,463,402,416,271
1201,0.15,0.88,0.4,6.71,1.65,-1.83,422,465,407,417,268
1202,0.13,0.9,0.43,3.11,-4.46,-3.85,423,455,407,420,273
1203,0.12,0.88,0.42,-4.7,-3.17,1.04,429,464,406,419,278
1204,0.13,0.91,0.41,14.53,-1.28,-3.05,425,459,406,398,266
1205,0.13,0.88,0.42,3.23,-3.97,-2.32,430,460,405,412,270
1206,0.15,0.9,0.43,1.65,-1.1,-4.33,426,459,408,413,270
1207,0.14,0.89,0.43,0.55,-4.64,-2.99,423,453,399,421,269
1208,0.12,0.9,0.41,7.26,-2.69,-3.85,421,455,404,406,260
1209,0.11,0.9,0.42,1.1,-4.58,-2.69,424,451,404,416,259
1210,0.12,0.89,0.43,-0.55,-2.08,-2.5,424,458,405,417,268
1211,0.1,0.92,0.44,-2.44,-0.61,-5.98,424,459,404,421,263
1212,0.09,0.93,0.44,4.39,-6.47,-6.23,429,457,405,418,269
1213,0.09,0.89,0.46,-1.71,-1.59,-4.64,429,451,405,419,269
1214,0.01,0.87,0.47,1.16,-7.93,-1.83,426,457,405,419,268
1215,0.06,0.91,0.47,3.36,-0.24,-1.65,422,461,409,421,270
1216,0.06,0.88,0.47,5.13,-7.32,3.54,424,457,405,420,271
1217,0.08,0.88,0.46,-2.44,-2.5,-4.76,430,456,404,422,271
1218,0.06,0.89,0.46,-1.28,-3.11,-0.49,427,457,400,421,272
1219,0.07,0.88,0.45,-0.37,-4.46,-3.97,427,455,407,412,274
1220,0.07,0.89,0.48,-0.06,-3.97,-0.85,427,457,410,416,272
1221,0.05,0.89,0.46,-0.55,-3.11,-2.01,424,457,404,420,274
1222,0.1,0.87,0.45,9.89,-1.1,-11.72,427,457,407,422,274
1223,0.11,0.93,0.45,3.72,-3.42,-5.74,428,460,404,420,272
1224,0.1,0.9,0.44,4.58,-3.85,-7.32,429,458,405,419,276
1225,0.06,0.9,0.41,0.79,-3.11,-3.91,426,461,401,417,280
1226,0.08,0.89,0.43,2.01,-3.3,-2.81,425,454,400,422,277
1227,0.07,0.89,0.41,2.08,-0.98,-3.11,428,448,404,422,274
1228,0.08,0.92,0.4,-2.87,-6.1,-2.38,427,451,406,418,276
1229,0.09,0.9,0.39,-1.16,-4.39,-4.33,423,454,400,431,274
1230,0.05,0.91,0.38,1.65,-0.49,-2.01,425,453,403,432,277
1231,0.05,0.9,0.39,-0.18,-2.69,-3.97,428,446,404,435,275
1232,0.05,0.91,0.41,-0.67,-2.2,-3.48,426,450,405,435,277
1233,0.06,0.91,0.39,-1.22,-3.17,-2.14,425,451,404,430,281
1234,0.05,0.89,0.41,-3.91,-3.6,-4.94,425,456,404,436,281
1235,0.03,0.89,0.42,-5.37,-2.69,-3.36,428,451,404,432,271
1236,0.03,0.91,0.44,2.01,-1.34,-3.11,426,454,403,431,280
1237,0.03,0.92,0.43,-0.55,-1.28,-2.5,428,454,403,430,281
1238,0.03,0.91,0.43,0.85,-3.17,-2.62,427,451,406,421,279
1239,0.03,0.9,0.43,1.46,-2.08,-2.5,425,452,406,422,281
1240,0.01,0.88,0.4,-1.22,-2.93,-1.04,426,455,403,427,277
1241,0.05,0.91,0.44,-0.67,0.12,-4.21,426,451,401,430,285
1242,0.01,0.9,0.44,2.26,-3.97,-3.78,421,451,404,426,285
1243,0.02,0.9,0.43,2.81,-2.44,-3.23,425,452,402,422,286
1244,0.02,0.91,0.42,0.55,-3.05,-1.22,425,456,405,421,274
1245,0.02,0.9,0.43,-1.4,-3.42,-2.38,429,447,401,420,262
1246,0.02,0.91,0.42,-2.2,-2.81,-2.56,418,447,404,410,254
1247,0.02,0.9,0.43,-0.67,-2.62,-1.71,428,449,406,415,255
1248,0.01,0.9,0.43,1.1,-3.23,-3.23,426,454,404,414,263
1249,0.0,0.85,0.44,-3.6,-1.1,1.16,429,454,403,417,267
1250,0.06,0.87,0.47,-2.5,-6.23,-3.11,430,453,403,419,266
1251,0.09,0.88,0.49,-1.53,-4.7,-0.79,422,453,403,415,268
1252,0.1,0.83,0.5,1.34,-7.39,-0.18,424,459,404,414,273
1253,0.11,0.85,0.51,-0.98,-4.82,-3.11,427,448,405,413,273
1254,0.11,0.85,0.53,-0.73,-3.17,-2.01,426,453,401,414,271
1255,0.09,0.86,0.52,2.44,-3.23,-4.39,426,454,402,416,276
1256,0.07,0.85,0.54,-1.1,-3.36,-1.53,427,454,405,418,270
1257,0.1,0.84,0.52,1.53,-2.93,-0.61,424,457,405,416,278
1258,0.09,0.85,0.52,-2.75,-3.48,-3.48,429,455,403,417,277
1259,0.09,0.85,0.55,-0.06,-2.2,-2.56,430,456,403,414,273
1260,0.09,0.85,0.54,0.55,-3.85,-2.01,424,457,403,415,278
1261,0.09,0.85,0.54,0.67,-2.38,-3.42,427,452,406,416,278
1262,0.09,0.86,0.53,1.65,-3.85,-2.14,423,449,405,417,274
1263,0.09,0.85,0.53,0.24,-2.5,-3.91,427,453,403,416,283
1264,0.09,0.85,0.53,0.61,-2.99,-1.77,427,454,405,418,279
1265,0.08,0.84,0.53,0.55,-1.95,-2.26,423,452,405,418,277
1266,0.07,0.84,0.54,-0.55,-2.69,-2.32,423,452,406,426,278
1267,0.08,0.85,0.53,1.34,-2.08,-3.72,431,454,402,417,280
1268,0.07,0.85,0.55,0.49,-1.46,0.12,427,453,401,417,275
1269,0.11,0.84,0.55,-0.24,-1.16,-1.59,425,451,406,418,276
1270,0.07,0.86,0.52,0.61,-0.49,-9.89,425,456,402,418,277
1271,0.03,0.86,0.52,2.32,-1.71,-5.13,426,457,419,418,277
1272,0.02,0.85,0.5,-4.46,1.77,-8.36,427,452,402,418,276
1273,-0.0,0.85,0.53,5.43,0.24,-7.08,428,452,402,413,276
1274,-0.03,0.87,0.5,5.13,-1.53,5.07,424,451,403,419,262
1275,0.14,0.84,0.45,9.4,-19.04,18.31,417,454,405,428,263
1276,0.13,0.89,0.44,1.77,-0.37,1.65,419,453,404,424,265
1277,0.15,0.86,0.45,-2.01,-2.01,-3.11,424,459,404,430,275
1278,0.12,0.86,0.44,0.0,0.73,-3.17,423,457,400,430,303
1279,0.12,0.9,0.45,-0.85,-2.2,-1.28,423,458,402,438,269
1280,0.1,0.88,0.44,5.43,3.17,-16.11,421,453,402,424,285
1281,0.08,0.88,0.44,-1.59,-5.92,-1.46,423,447,403,419,271
1282,0.08,0.87,0.42,18.13,2.81,-19.1,424,452,404,413,264
1283,0.06,0.88,0.43,0.0,-7.63,-0.85,418,455,407,414,267
1284,0.09,0.88,0.44,-2.75,-2.87,-1.4,417,452,403,419,260
1285,0.09,0.88,0.45,-2.38,-1.77,-2.08,418,453,405,414,263
1286,0.07,0.87,0.46,-3.66,-2.5,-4.39,420,455,401,414,254
1287,0.08,0.88,0.44,-8.3,-4.03,-6.84,418,460,406,409,264
1288,0.06,0.88,0.45,-2.44,-1.77,-1.4,421,461,402,411,266
1289,0.07,0.88,0.48,0.37,-3.23,-2.01,422,457,400,408,264
1290,0.05,0.88,0.45,1.95,-3.66,-1.53,424,453,405,410,265
1291,0.07,0.87,0.43,2.87,-0.79,-0.31,425,457,406,405,267
1292,0.05,0.91,0.45,2.69,-2.32,1.04,421,461,405,405,266
1293,0.07,0.92,0.44,3.17,0.24,0.98,428,457,402,408,269
1294,0.06,0.87,0.41,2.32,-1.46,-2.26,424,460,403,408,268
1295,0.03,0.89,0.41,-5.19,5.86,-12.21,428,457,405,403,271
1296,0.1,0.92,0.41,-1.83,-1.77,-9.83,430,453,405,406,272
1297,0.1,0.92,0.41,0.98,-6.16,1.95,423,456,401,405,273
1298,0.12,0.92,0.41,0.12,-4.82,-7.81,419,457,400,397,261
1299,0.1,0.89,0.42,-4.82,-5.68,-5.19,423,457,411,405,265
1300,0.1,0.9,0.44,-5.62,-3.36,1.46,425,461,400,407,264
1301,0.11,0.87,0.44,-4.09,1.46,-13.73,423,459,401,404,269
1302,0.09,0.86,0.46,-0.61,-1.95,-6.23,422,454,403,409,269
1303,0.1,0.87,0.45,0.55,-4.39,-1.59,425,461,401,409,270
1304,0.08,0.91,0.48,2.2,-3.36,-2.26,421,458,401,412,268
1305,0.1,0.89,0.45,3.42,-2.32,-2.62,423,454,405,399,264
1306,0.09,0.92,0.46,0.49,-3.11,-3.6,424,455,400,392,261
1307,0.1,0.9,0.46,-0.55,-2.14,-0.61,424,460,401,399,260
1308,0.11,0.89,0.44,3.17,-1.83,-1.65,423,453,402,418,268
1309,0.09,0.89,0.44,-3.54,-2.14,-3.23,428,456,402,420,269
1310,0.09,0.9,0.45,1.4,-2.2,-4.09,423,454,403,423,269
1311,0.08,0.87,0.45,1.53,-1.71,-2.93,423,455,402,420,265
1312,0.05,0.89,0.46,-1.1,-3.17,-2.56,420,450,403,422,269
1313,0.04,0.88,0.48,0.67,-1.71,-2.38,425,451,403,430,277
1314,0.07,0.89,0.46,-0.55,-1.83,-1.71,423,456,403,431,278
1315,0.07,0.88,0.46,-1.4,-4.58,-1.59,428,457,403,441,279
1316,0.07,0.87,0.47,-0.49,-3.11,-4.09,425,450,405,443,286
1317,0.05,0.89,0.45,3.54,-0.92,-2.56,424,454,404,444,282
1318,0.06,0.88,0.46,-0.24,-3.23,-2.56,424,451,405,445,287
1319,0.05,0.88,0.46,-1.95,-2.62,-1.95,427,456,407,457,288
1320,0.05,0.89,0.47,-0.31,-2.81,-2.75,421,453,406,453,294
1321,0.06,0.89,0.48,-0.79,-3.42,-2.32,426,456,408,458,312
1322,0.06,0.89,0.47,-0.43,-2.81,-2.44,428,455,411,454,294
1323,0.04,0.89,0.47,1.1,-3.23,-1.53,426,458,411,457,290
1324,0.05,0.89,0.45,3.17,-2.81,-2.75,429,459,409,454,267
1325,0.05,0.9,0.45,-1.28,-1.59,-1.46,423,457,411,453,263
1326,0.05,0.9,0.44,3.3,-4.33,-2.38,426,451,412,447,267
1327,0.05,0.89,0.45,-0.73,-1.89,-2.5,435,460,416,449,268
1328,0.03,0.89,0.46,-0.55,-1.46,-2.26,423,460,415,451,271
1329,0.04,0.89,0.45,2.32,-3.85,-2.99,426,458,414,449,293
1330,0.02,0.89,0.46,-0.49,-2.2,-2.5,427,460,411,451,277
1331,0.04,0.88,0.46,0.24,-2.69,-2.14,430,455,416,451,279
1332,0.03,0.89,0.46,2.93,-2.62,-3.6,426,462,413,448,273
1333,0.03,0.89,0.46,1.4,-3.23,-3.48,428,462,413,451,278
1334,0.04,0.89,0.45,1.71,-1.4,-2.32,422,457,424,448,276
1335,0.03,0.89,0.45,-0.98,-2.38,-2.08,422,464,410,432,264
1336,0.02,0.88,0.46,-1.1,-5.25,-4.09,426,464,411,427,264
1337,0.27,1.01,0.29,7.08,-19.47,-13.92,422,459,413,428,265
1338,0.19,0.95,0.31,-0.49,-6.16,-1.83,427,459,408,431,272
1339,0.21,0.86,0.35,-5.13,-3.72,10.8,413,457,413,432,270
1340,0.23,0.87,0.41,-2.26,17.03,-10.38,417,459,413,430,271
1341,0.23,0.87,0.37,-2.69,-1.34,-0.98,420,461,410,419,268
1342,0.23,0.87,0.42,-2.81,-2.69,-5.68,420,465,413,425,263
1343,0.18,0.86,0.42,-2.87,-3.97,-2.32,423,463,412,417,267
1344,0.25,0.87,0.37,2.01,-6.71,-2.99,424,463,410,412,270
1345,0.27,0.92,0.37,0.43,-1.59,-8.12,422,457,412,408,270
1346,0.21,0.91,0.38,-0.49,-2.26,-2.44,422,460,410,414,274
1347,0.21,0.9,0.38,-0.37,-1.89,-5.37,421,463,411,418,271
1348,0.21,0.91,0.38,-2.14,-1.65,-1.71,426,457,412,417,275
1349,0.19,0.89,0.37,2.2,-2.62,-2.5,425,455,408,417,275
1350,0.2,0.89,0.37,-2.69,-2.44,-3.17,423,460,412,416,274
1351,0.19,0.89,0.38,0.0,-2.08,-3.85,422,465,410,416,278
1352,0.17,0.91,0.39,-1.46,-2.32,-2.26,423,457,410,420,277
1353,0.19,0.9,0.38,0.92,-2.56,-3.97,423,460,411,428,283
1354,0.17,0.89,0.39,-1.34,-4.27,-5.62,428,461,413,423,272
1355,0.16,0.9,0.41,-0.92,-1.89,-3.72,424,460,414,424,275
1356,0.17,0.9,0.41,-1.04,-4.88,-2.38,422,461,414,425,269
1357,0.17,0.89,0.42,-1.77,-2.87,-2.62,424,465,412,425,276
1358,0.16,0.89,0.42,1.71,-1.59,-3.42,426,461,413,425,281
1359,0.15,0.89,0.42,-1.28,-0.49,-3.3,426,466,408,429,281
1360,0.15,0.89,0.42,-0.49,-4.21,-1.65,427,461,409,436,278
1361,0.13,0.9,0.44,1.34,-0.37,-2.93,427,456,415,428,283
1362,0.17,0.9,0.42,-1.16,-4.09,-2.75,425,470,412,431,285
1363,0.14,0.89,0.42,1.1,-2.44,-1.4,422,461,411,429,281
1364,0.17,0.89,0.41,2.5,-3.05,-3.97,428,457,412,430,283
1365,0.15,0.9,0.43,1.65,-4.46,-2.62,425,456,412,428,284
1366,0.15,0.9,0.42,1.1,-3.85,-2.32,426,456,411,430,275
1367,0.18,0.89,0.41,2.08,-2.81,-1.59,421,465,412,420,303
1368,0.16,0.9,0.4,3.3,-4.88,-2.69,426,465,414,421,269
1369,0.17,0.91,0.4,3.66,-0.98,-6.53,426,463,411,416,270
1370,0.13,0.92,0.39,6.77,-2.56,-1.95,426,464,409,419,266
1371,0.14,0.91,0.36,1.4,-4.7,0.79,427,462,409,415,275
1372,0.15,0.9,0.39,0.49,1.1,-5.13,426,461,412,418,272
1373,0.16,0.91,0.4,0.18,-1.59,-2.75,423,463,412,420,282
1374,0.15,0.9,0.39,-3.17,-2.75,-2.87,427,467,410,419,277
1375,0.15,0.89,0.4,-3.72,0.0,-7.45,427,470,411,418,281
1376,0.16,0.88,0.41,-1.34,-5.62,-7.08,426,460,413,416,277
1377,0.11,0.9,0.41,1.65,-2.81,-3.17,423,463,408,410,277
1378,0.12,0.92,0.43,-1.46,-4.39,-2.32,426,463,409,420,279
1379,0.12,0.91,0.43,0.61,-2.93,-1.4,431,463,412,418,299
1380,0.15,0.89,0.41,-1.46,-6.1,-1.22,423,463,411,417,281
1381,0.13,0.9,0.42,0.92,-2.01,-3.36,425,462,406,418,285
1382,0.12,0.9,0.41,-0.06,-2.14,-3.48,422,459,408,432,296
1383,0.13,0.9,0.43,1.83,-3.91,-2.81,428,461,411,428,282
1384,0.11,0.91,0.42,1.22,-2.87,-2.99,425,467,412,420,272
1385,0.12,0.9,0.41,0.73,-2.62,-2.81,428,465,410,425,271
1386,0.12,0.9,0.39,-1.04,-3.3,-2.08,423,466,411,424,269
1387,0.13,0.9,0.4,-0.98,-1.77,-3.78,427,463,410,425,278
1388,0.14,0.9,0.4,-1.77,-2.62,-0.18,427,466,408,423,279
1389,0.13,0.9,0.42,1.65,-2.93,-2.69,424,468,410,422,279
1390,0.12,0.92,0.41,7.14,-3.23,-1.1,429,460,413,424,282
1391,0.14,0.91,0.41,0.31,-2.93,-1.59,428,463,413,423,283
1392,0.16,0.9,0.4,-1.89,-1.34,-3.48,429,463,414,424,287
1393,0.15,0.9,0.42,-2.14,-2.75,-0.61,426,464,411,430,292
1394,0.16,0.89,0.4,-1.4,-3.17,-2.93,426,464,407,431,294
1395,0.15,0.9,0.41,0.0,-2.99,-3.66,427,462,412,431,290
1396,0.16,0.89,0.41,2.38,-2.32,-3.54,429,463,411,429,298
1397,0.14,0.9,0.41,0.85,-4.46,-2.08,425,458,413,427,285
1398,0.14,0.91,0.4,0.18,-3.23,-2.81,424,467,410,429,288
1399,0.16,0.89,0.4,-0.24,-4.94,-4.09,427,463,407,434,298
1400,0.15,0.91,0.42,0.06,-4.03,-2.93,423,466,412,429,282
1401,0.14,0.91,0.41,1.16,-3.3,-0.61,423,464,409,435,280
1402,0.13,0.9,0.4,0.61,-3.48,-3.66,427,467,408,441,286
1403,0.14,0.89,0.41,-2.26,-3.72,-2.01,429,474,407,435,289
1404,0.15,0.91,0.42,3.36,-4.39,-1.46,428,458,411,440,291
1405,0.15,0.9,0.4,2.01,-5.07,-2.75,428,459,410,450,295
1406,0.15,0.9,0.41,1.16,-2.38,-3.17,426,463,409,452,301
1407,0.15,0.9,0.41,-0.12,-3.36,-1.77,429,464,413,465,302
1408,0.14,0.9,0.41,-0.06,-2.87,-2.14,428,463,413,453,302
1409,0.13,0.9,0.4,-1.04,-1.65,-2.01,425,456,413,457,297
1410,0.12,0.9,0.4,0.67,-1.1,-2.14,424,466,412,456,303
1411,0.12,0.89,0.41,-1.53,0.31,-3.72,424,463,412,454,305
1412,0.14,0.89,0.43,1.95,-4.03,-1.59,427,463,412,451,300
1413,0.15,0.86,0.41,-0.85,-4.15,-4.94,429,474,412,448,338
1414,0.14,0.89,0.41,-0.92,-2.75,-2.38,426,462,413,451,302
1415,0.14,0.88,0.42,1.04,-3.66,-1.77,428,468,414,452,298
1416,0.13,0.9,0.41,-1.83,-5.68,-5.68,426,459,413,452,301
1417,0.13,0.88,0.43,-2.26,-0.92,0.37,427,458,413,445,305
1418,0.1,0.9,0.44,-1.16,-2.08,-4.64,426,464,416,448,304
1419,0.11,0.89,0.43,3.3,-1.77,-2.93,428,463,410,451,300
1420,0.1,0.91,0.44,-0.06,-3.23,-2.08,430,461,413,453,290
1421,0.12,0.9,0.42,0.37,-2.56,-1.65,429,464,412,455,297
1422,0.09,0.92,0.45,1.83,-0.24,-1.16,426,468,409,448,316
1423,0.12,0.9,0.43,-1.34,-3.23,0.92,431,463,415,452,305
1424,0.13,0.89,0.43,-3.54,-2.14,-0.49,429,464,414,454,306
1425,0.13,0.9,0.46,-0.18,-1.16,-2.01,428,468,413,456,302
1426,0.1,0.88,0.43,-1.89,-1.83,-2.32,425,463,412,454,298
1427,0.1,0.89,0.44,-0.43,-2.14,-3.48,427,464,414,452,298
1428,0.14,0.9,0.45,2.32,-3.3,-0.06,431,463,412,452,304
1429,0.13,0.89,0.44,0.24,-4.15,-3.23,428,468,414,452,300
1430,0.12,0.89,0.45,0.24,-2.2,-3.6,430,460,414,448,299
1431,0.11,0.9,0.44,0.37,-3.66,-1.28,427,468,409,449,302
1432,0.12,0.89,0.44,-3.11,-5.43,-1.83,423,464,412,446,300
1433,0.15,0.87,0.44,1.34,-4.52,-5.07,425,464,415,451,303
1434,0.1,0.89,0.46,0.92,-0.31,-6.71,423,468,413,452,304
1435,0.11,0.88,0.45,-0.24,-2.2,-1.4,427,465,411,449,303
1436,0.09,0.89,0.48,-5.0,-2.44,-6.04,424,462,414,450,305
1437,0.12,0.89,0.47,0.73,-4.27,-2.14,427,461,412,450,303
1438,0.1,0.87,0.45,-2.01,-3.48,0.31,427,468,411,451,302
1439,0.1,0.88,0.45,-1.83,-3.97,-1.77,430,465,414,445,304
1440,0.11,0.89,0.46,0.43,-4.21,-1.89,428,464,411,446,306
1441,0.12,0.89,0.43,3.66,-4.94,-2.44,424,466,411,451,301
1442,0.11,0.9,0.43,-2.2,-2.81,-0.67,428,459,413,445,272
1443,0.13,0.88,0.4,2.14,-1.04,-1.34,431,464,411,442,272
1444,0.14,0.87,0.4,-1.65,-3.3,-1.95,428,466,413,446,279
1445,0.15,0.88,0.4,0.49,-2.99,-1.46,429,466,415,457,282
1446,0.17,0.9,0.41,0.98,-1.77,-2.26,424,459,415,442,285
1447,0.15,0.9,0.41,-1.1,-2.62,-1.4,428,459,412,444,290
1448,0.15,0.9,0.43,-2.5,-1.46,-5.43,423,466,412,453,290
1449,0.11,0.9,0.38,-13.31,-7.2,-0.24,426,463,413,442,292
1450,0.12,0.87,0.44,-18.19,-7.02,3.48,424,464,413,445,289
1451,0.22,0.78,0.58,-12.94,-1.59,17.82,427,458,413,447,292
1452,0.27,0.8,0.62,-3.3,9.34,15.26,428,465,414,443,294
1453,0.25,0.69,0.64,0.98,0.31,5.13,428,458,417,446,291
1454,0.29,0.69,0.63,-0.31,3.85,7.69,431,458,413,440,292
1455,0.29,0.71,0.64,-4.27,-3.66,3.78,427,468,410,440,296
1456,0.34,0.66,0.66,-5.19,-7.2,-0.31,429,460,414,441,315
1457,0.31,0.69,0.66,2.99,0.24,-13.61,426,465,414,439,294
1458,0.31,0.72,0.66,3.17,-3.72,-3.72,427,463,427,441,291
1459,0.31,0.72,0.64,0.37,-1.71,-1.34,429,465,410,443,294
1460,0.35,0.73,0.67,-0.37,-4.03,-4.58,429,460,414,440,296
1461,0.31,0.68,0.65,0.98,-0.31,-0.24,429,468,417,441,293
1462,0.4,0.66,0.63,4.88,-3.05,-9.77,430,463,413,437,297
1463,0.37,0.7,0.64,0.31,-3.91,-3.23,427,467,419,441,296
1464,0.32,0.69,0.65,-0.73,-2.87,-2.2,428,464,412,443,296
1465,0.32,0.7,0.64,-3.11,-3.72,1.4,430,463,414,442,299
1466,0.37,0.68,0.67,-1.71,-5.25,-5.19,430,464,414,444,296
1467,0.33,0.7,0.68,-2.32,0.85,1.89,424,464,412,439,300
1468,0.34,0.67,0.69,0.12,-2.08,-4.7,425,468,411,440,299
1469,0.35,0.67,0.67,-1.22,-3.85,-2.26,427,463,412,444,318
1470,0.35,0.66,0.66,1.04,-4.76,0.55,424,463,412,449,296
1471,0.35,0.66,0.69,0.67,-1.53,-2.62,427,466,415,441,300
1472,0.37,0.64,0.68,-3.48,-3.97,-4.46,425,465,411,441,299
1473,0.35,0.67,0.67,3.42,-2.81,-4.94,426,468,414,438,307
1474,0.35,0.69,0.64,1.4,-4.27,-2.14,428,464,415,447,277
1475,0.35,0.69,0.65,-2.5,-2.81,-1.83,424,464,410,448,286
1476,0.31,0.66,0.65,-6.59,-16.3,-5.13,425,461,411,448,290
1477,0.33,0.7,0.68,2.14,-2.99,-12.33,413,435,412,449,293
1478,0.27,0.72,0.63,13.79,-8.42,-4.52,413,431,413,448,290
1479,0.29,0.77,0.55,4.88,-4.15,-1.65,414,437,414,446,294
1480,0.27,0.8,0.56,4.58,-1.04,-2.87,409,439,416,446,290
1481,0.31,0.79,0.56,-1.89,-4.33,-0.73,414,440,415,443,279
1482,0.31,0.77,0.56,3.11,-3.72,-0.55,414,441,413,450,264
1483,0.31,0.77,0.56,0.61,-4.03,2.81,417,440,413,445,270
1484,0.31,0.77,0.57,-1.71,-2.56,-1.59,420,444,414,445,276
1485,0.32,0.77,0.58,-2.2,-2.01,0.67,417,448,417,442,278
1486,0.33,0.77,0.59,-3.17,-1.4,-0.61,418,445,413,461,281
1487,0.34,0.73,0.59,-3.17,-0.49,-5.8,418,450,413,450,284
1488,0.32,0.73,0.58,6.04,-4.7,-5.49,420,446,410,448,277
1489,0.35,0.76,0.58,-0.79,-2.81,-2.32,421,449,412,445,278
1490,0.35,0.76,0.57,-0.24,-2.26,-2.01,418,453,413,443,270
1491,0.36,0.76,0.56,2.32,-4.7,-1.83,421,449,412,443,266
1492,0.34,0.75,0.57,-1.46,-1.53,-2.93,418,449,413,441,272
1493,0.34,0.76,0.57,-1.95,3.48,-10.13,416,446,416,442,279
1494,0.32,0.75,0.59,1.71,-1.65,-1.89,419,447,413,435,277
1495,0.32,0.76,0.57,-1.4,-2.99,-2.14,421,445,409,439,287
1496,0.32,0.76,0.59,-0.55,-2.62,-2.38,421,448,415,435,282
1497,0.32,0.76,0.59,-2.2,-3.48,-3.54,424,450,414,434,283
1498,0.31,0.76,0.59,0.79,-2.69,-2.08,421,446,416,430,282
1499,0.31,0.75,0.59,-0.55,-3.11,-1.71,420,448,413,433,284
1500,0.31,0.76,0.59,0.31,-2.38,-2.44,423,448,416,434,282
1501,0.31,0.74,0.59,-0.06,-3.05,-2.32,421,445,415,433,279
1502,0.32,0.75,0.59,0.24,-3.42,-1.4,418,452,414,434,283
1503,0.32,0.76,0.6,0.0,-3.11,-3.3,422,448,418,432,285
1504,0.32,0.76,0.6,0.67,-3.42,-4.21,423,451,412,433,285
1505,0.3,0.75,0.6,-0.12,-4.39,-2.69,418,449,413,433,287
1506,0.31,0.76,0.59,-0.92,-3.78,-2.56,422,446,412,437,278
1507,0.31,0.75,0.58,0.43,-2.38,-2.38,423,450,410,433,275
1508,0.32,0.75,0.58,1.71,-4.64,-2.75,420,452,412,437,269
1509,0.32,0.76,0.59,0.24,-3.72,-2.32,424,447,409,437,271
1510,0.32,0.75,0.59,-1.46,-2.81,-2.81,419,453,409,438,271
1511,0.33,0.75,0.59,-0.06,-3.11,-3.05,422,451,410,439,276
1512,0.31,0.82,0.5,-1.28,-4.21,-0.92,421,464,412,430,255
1513,0.31,0.81,0.5,-0.61,-4.15,-2.14,422,462,409,437,259
1514,0.32,0.81,0.49,5.25,0.85,-0.24,424,468,411,436,254
1515,0.31,0.81,0.5,-2.69,-2.38,-2.38,422,460,411,436,258
1516,0.31,0.8,0.5,1.46,-3.36,0.24,421,458,416,437,259
1517,0.34,0.82,0.48,1.46,-3.42,-2.62,420,461,407,435,257
1518,0.33,0.82,0.49,-2.38,-3.6,-1.53,424,461,413,438,256
1519,0.35,0.83,0.48,0.06,-1.77,-3.72,425,457,411,458,289
1520,0.32,0.79,0.5,0.49,-2.87,-3.48,420,464,411,460,270
1521,0.34,0.81,0.5,-0.73,-2.75,-2.93,425,462,416,459,267
1522,0.32,0.81,0.49,0.98,-2.75,-2.44,423,459,415,449,269
1523,0.33,0.81,0.48,1.59,-3.78,-2.5,423,464,414,450,266
1524,0.32,0.82,0.49,-1.53,-2.26,-1.59,420,476,413,440,265
1525,0.33,0.82,0.49,0.49,-2.32,-1.1,420,461,410,444,268
1526,0.31,0.82,0.48,1.65,-1.34,-5.62,427,458,410,423,257
1527,0.31,0.82,0.49,0.18,-2.26,-2.38,423,466,413,438,264
1528,0.31,0.82,0.48,1.53,-3.36,-2.08,425,461,412,441,287
1529,0.32,0.82,0.48,1.22,-2.69,-2.56,425,457,409,440,264
1530,0.3,0.83,0.49,-0.55,-1.95,-2.01,426,465,424,433,268
1531,0.3,0.8,0.48,-2.26,-2.87,-4.46,421,462,412,436,267
1532,0.25,0.95,0.6,1.59,-6.1,-6.9,424,465,408,450,268
1533,0.27,0.78,0.52,-0.24,-10.13,-4.46,426,461,410,432,270
1534,0.25,0.66,0.39,2.87,15.08,-2.01,423,464,410,438,270
1535,0.33,0.88,0.49,3.85,-5.0,-3.78,421,460,417,436,271
1536,0.27,0.85,0.48,-3.3,-4.03,-4.94,429,462,412,433,271
1537,0.28,0.88,0.5,3.42,-18.43,12.02,425,459,416,439,271
1538,0.24,0.77,0.5,2.99,-6.71,-11.05,424,463,414,438,274
1539,0.26,0.88,0.51,5.31,-5.19,3.78,422,461,408,438,271
1540,0.26,0.81,0.48,2.01,-0.43,-3.42,426,462,411,435,268
1541,0.24,0.86,0.48,3.6,-1.95,-6.35,423,463,414,433,276
1542,0.24,0.87,0.47,6.53,-1.59,-2.62,423,465,412,439,270
1543,0.22,0.84,0.43,0.61,-3.97,-0.31,424,462,411,430,269
1544,0.23,0.9,0.45,-0.61,1.28,-1.89,430,454,414,430,269
1545,0.23,0.84,0.47,-0.67,-4.33,-5.8,426,461,412,436,273
1546,0.23,0.86,0.43,0.61,-1.59,1.83,422,464,409,439,274
1547,0.24,0.85,0.45,-2.14,-1.65,-5.62,427,461,409,427,297
1548,0.21,0.86,0.48,-9.83,0.98,-8.85,424,466,409,428,272
1549,0.22,0.87,0.49,-2.44,-1.65,-2.81,433,459,413,428,268
1550,0.23,0.83,0.5,1.46,-5.86,-2.69,427,464,411,426,270
1551,0.21,0.84,0.48,0.31,-2.87,0.0,422,467,411,425,263
1552,0.22,0.85,0.48,-1.65,-2.56,-4.33,426,464,410,424,294
1553,0.25,0.88,0.47,4.94,-3.3,-7.51,427,467,409,420,266
1554,0.23,0.8,0.49,-5.68,-5.31,-0.61,421,458,413,424,265
1555,0.22,0.85,0.46,-2.62,-2.5,-2.38,424,466,408,427,267
1556,0.21,0.83,0.49,-2.87,-4.03,-4.64,428,457,412,425,272
1557,0.2,0.82,0.5,-4.94,-1.95,-9.28,424,467,408,424,270
1558,0.23,0.84,0.51,-1.04,-1.28,-5.43,426,459,410,427,274
1559,0.16,0.85,0.53,0.24,-3.17,-5.25,431,461,405,428,273
1560,0.18,0.82,0.51,0.85,-1.04,-4.09,425,463,405,423,274
1561,0.2,0.86,0.49,2.56,-2.26,-2.32,426,459,406,424,262
1562,0.23,0.84,0.47,2.38,-8.3,5.25,428,461,409,426,270
1563,0.2,0.86,0.48,-0.79,-3.85,-3.23,427,460,411,423,276
1564,0.19,0.85,0.48,3.85,-2.99,-3.48,427,464,409,420,256
1565,0.18,0.86,0.48,-1.89,-2.99,-2.14,428,460,407,418,265
1566,0.19,0.79,0.48,3.48,0.06,13.55,428,460,412,415,264
1567,0.2,0.84,0.58,1.1,-10.68,5.43,427,458,409,416,265
1568,0.29,0.82,0.46,20.32,-1.71,2.99,426,464,411,417,270
1569,0.32,0.89,0.38,9.22,0.06,-6.47,426,464,409,418,268
1570,0.14,0.91,0.39,-7.2,-9.4,-7.2,427,463,405,419,265
1571,0.22,0.91,0.41,2.38,-4.33,-6.65,426,459,407,420,266
1572,0.2,0.92,0.37,13.24,-3.05,-3.17,423,461,409,416,261
1573,0.2,0.89,0.39,-2.2,-2.44,-0.55,425,460,407,417,266
1574,0.18,0.9,0.41,-4.46,-3.05,-4.03,430,457,407,416,265
1575,0.19,0.88,0.42,-1.16,-3.54,-0.12,424,462,414,412,257
1576,0.17,0.88,0.43,-2.93,-0.73,-10.07,430,463,410,414,265
1577,0.17,0.91,0.42,-0.18,-2.99,-0.37,429,461,418,413,263
1578,0.14,0.88,0.47,-3.54,0.43,-2.87,428,465,409,417,263
1579,0.13,0.86,0.48,8.12,4.09,-8.97,431,460,413,424,266
1580,0.2,0.89,0.42,2.5,-6.96,-4.21,430,465,412,407,263
1581,0.19,0.94,0.45,6.41,-1.89,-4.52,429,460,412,410,265
1582,0.21,0.83,0.4,0.31,-7.87,7.32,428,459,407,412,263
1583,0.18,0.83,0.46,-0.06,-2.81,10.38,430,460,414,418,268
1584,0.23,0.83,0.44,5.31,-6.41,-1.16,429,456,410,415,267
1585,0.21,0.88,0.46,-7.87,2.87,-3.23,427,460,410,416,270
1586,0.28,0.9,0.42,13.61,-16.54,3.97,428,459,410,422,270
1587,0.34,0.89,0.38,10.01,-4.94,-3.42,427,459,409,417,268
1588,0.31,0.83,0.33,-2.69,-9.89,3.17,425,456,411,384,247
1589,0.25,0.91,0.35,-0.85,-4.09,-5.98,424,463,407,397,265
1590,0.3,0.88,0.4,-11.35,-10.01,9.22,421,460,412,398,248
1591,0.23,0.86,0.48,3.91,4.39,-1.71,423,459,408,398,252
1592,0.34,0.87,0.39,3.3,-11.05,-1.28,430,458,406,398,255
1593,0.34,0.91,0.31,-1.83,-10.8,14.65,424,451,410,401,254
1594,0.35,0.98,0.45,1.89,-16.6,-1.46,428,461,406,398,257
1595,0.38,0.79,0.51,2.14,3.66,-5.43,427,456,408,401,273
1596,0.56,0.78,0.4,8.61,2.14,10.44,428,457,406,403,261
1597,0.46,0.76,0.43,-5.55,-3.11,-10.68,438,459,404,405,271
1598,0.25,0.69,0.57,-8.12,-8.79,-10.19,426,461,402,404,264
1599,0.28,0.69,0.55,7.14,-5.68,-2.62,427,454,408,405,263
1600,0.26,0.8,0.53,-6.29,-2.38,1.89,426,455,408,404,266
1601,0.26,0.82,0.55,11.6,-5.92,-5.8,428,461,406,405,265
1602,0.28,0.8,0.53,4.21,-2.08,-6.35,426,460,407,405,267
1603,0.3,0.79,0.55,-1.4,-1.53,1.53,428,463,404,402,274
1604,0.32,0.81,0.56,3.05,-1.59,-6.59,429,463,406,401,268
1605,0.34,0.81,0.53,5.43,-2.93,-2.93,425,462,407,403,272
1606,0.33,0.79,0.54,5.0,-1.95,-2.01,428,458,402,404,269
1607,0.31,0.77,0.53,5.13,-9.64,9.4,430,460,405,402,266
1608,0.34,0.79,0.54,-3.11,-0.37,-2.2,424,461,408,405,272
1609,0.35,0.78,0.54,-2.75,-4.88,0.73,425,460,407,398,269
1610,0.35,0.75,0.56,-8.48,-3.3,-3.17,429,460,402,406,269
1611,0.36,0.74,0.57,-2.62,-2.99,0.06,426,456,408,402,272
1612,0.37,0.75,0.57,-3.23,-5.92,-0.55,430,459,409,414,270
1613,0.37,0.74,0.59,-3.72,-3.85,-1.46,430,463,403,409,272
1614,0.38,0.75,0.58,-4.21,-2.75,-0.98,427,460,405,403,274
1615,0.39,0.67,0.57,-1.77,-1.89,-7.75,429,461,406,402,274
1616,0.38,0.71,0.55,2.14,-1.04,-8.3,425,461,408,401,275
1617,0.37,0.74,0.57,2.08,-3.11,-3.6,425,463,421,403,271
1618,0.37,0.76,0.58,0.37,-1.95,-2.93,427,457,407,402,276
1619,0.4,0.73,0.58,1.53,-5.19,0.06,427,460,405,402,273
1620,0.42,0.72,0.58,0.12,-5.37,-0.12,427,464,407,406,275
1621,0.45,0.71,0.58,-1.22,-2.26,-2.08,428,459,405,405,274
1622,0.43,0.69,0.58,0.12,-3.91,-2.2,427,463,411,404,276
1623,0.42,0.71,0.58,3.23,-2.14,-5.25,428,462,405,403,274
1624,0.41,0.73,0.56,-0.92,-0.06,-5.43,428,462,402,399,248
1625,0.41,0.74,0.55,-0.24,-2.56,-0.73,428,463,405,404,250
1626,0.41,0.73,0.56,-2.32,-6.29,0.85,428,462,403,412,262
1627,0.41,0.7,0.54,-2.08,-2.87,-2.5,428,455,402,404,264
1628,0.46,0.7,0.57,-1.1,-2.32,-1.34,427,461,405,403,274
1629,0.44,0.72,0.57,-0.06,-1.65,-2.5,428,456,411,404,268
1630,0.44,0.71,0.57,0.12,-2.75,-2.62,427,459,405,404,269
1631,0.44,0.7,0.58,-0.24,-2.87,-2.62,429,460,402,402,269
1632,0.45,0.69,0.59,2.26,-2.87,-2.32,428,456,405,404,269
1633,0.46,0.68,0.58,0.12,-4.39,-1.89,421,460,408,400,272
1634,0.45,0.69,0.58,0.37,-1.04,-3.6,425,460,404,406,273
1635,0.45,0.67,0.58,-0.92,-2.81,-2.2,425,456,405,405,272
1636,0.45,0.68,0.57,-1.1,-0.92,-2.2,426,459,405,404,274
1637,0.44,0.7,0.59,2.26,-2.32,-6.53,425,459,405,405,257
1638,0.42,0.73,0.56,3.72,-2.32,-1.1,424,455,408,403,257
1639,0.42,0.73,0.57,10.19,3.54,-13.67,429,464,405,402,258
1640,0.31,0.77,0.5,4.15,1.71,-8.85,426,460,405,412,265
1641,0.27,0.82,0.53,-0.31,0.61,-1.77,426,460,416,412,266
1642,0.31,0.74,0.55,0.37,-4.27,-0.55,427,463,405,413,271
1643,0.34,0.81,0.53,-1.16,-5.43,0.98,427,456,408,408,273
1644,0.35,0.78,0.5,1.65,-2.38,-4.27,428,462,406,408,300
1645,0.34,0.79,0.5,-4.88,-2.01,1.95,429,459,406,409,274
1646,0.36,0.81,0.53,-4.27,-2.01,-1.1,428,461,402,405,274
1647,0.35,0.74,0.53,1.04,-6.1,-0.06,429,461,408,406,276
1648,0.38,0.8,0.53,1.65,-4.82,1.59,430,461,402,408,276
1649,0.38,0.77,0.51,-1.28,-4.94,0.55,425,460,405,404,276
1650,0.36,0.76,0.52,-0.92,-2.69,-3.36,425,459,406,405,276
1651,0.33,0.76,0.51,2.32,2.75,-9.7,428,464,406,406,273
1652,0.34,0.79,0.53,1.77,-3.6,-4.03,428,456,404,404,265
1653,0.36,0.79,0.52,3.11,-0.98,-4.52,425,462,406,418,264
1654,0.35,0.79,0.5,-0.31,-4.39,-2.38,420,448,408,431,263
1655,0.36,0.8,0.5,3.6,-0.61,-2.5,422,453,416,432,267
1656,0.36,0.8,0.51,3.48,-4.21,-6.41,424,457,407,425,274
1657,0.36,0.78,0.48,4.46,-0.31,-4.21,424,454,404,428,273
1658,0.35,0.8,0.51,1.34,-3.36,-2.38,425,454,402,427,275
1659,0.35,0.79,0.5,-1.16,0.98,-1.22,424,458,406,422,280
1660,0.33,0.8,0.52,1.65,-2.26,-1.89,421,451,405,419,278
1661,0.34,0.79,0.51,-1.46,-3.48,-2.56,421,455,402,423,286
1662,0.3,0.78,0.52,-2.08,0.67,-2.5,420,459,405,420,278
1663,0.34,0.79,0.52,-0.98,-2.56,-3.6,426,455,406,422,277
1664,0.32,0.79,0.52,-0.79,-0.98,-3.11,425,460,405,424,277
1665,0.33,0.8,0.51,0.18,-0.98,-3.23,426,458,407,421,280
1666,0.33,0.8,0.51,0.24,-4.21,1.89,422,456,400,420,280
1667,0.34,0.8,0.5,-3.36,-2.38,-1.04,425,459,404,422,279
1668,0.34,0.8,0.51,-0.12,-3.17,-0.79,426,457,405,423,281
1669,0.35,0.77,0.49,1.16,-3.97,-2.99,427,457,402,424,278
1670,0.35,0.8,0.52,1.28,-2.69,-1.83,429,455,403,424,278
1671,0.35,0.8,0.52,0.85,-1.4,-4.58,427,454,406,421,278
1672,0.35,0.78,0.51,2.08,-2.44,-3.85,427,456,406,424,277
1673,0.36,0.78,0.5,0.06,-2.08,-2.14,428,458,401,424,278
1674,0.37,0.79,0.5,-2.56,-2.26,-3.97,426,457,407,420,277
1675,0.34,0.78,0.52,-0.31,-1.65,-2.01,426,452,406,422,278
1676,0.35,0.8,0.51,1.22,-3.78,-2.5,426,453,404,420,276
1677,0.37,0.8,0.51,-0.61,-3.36,-0.37,426,458,403,422,277
1678,0.36,0.79,0.51,-0.55,-4.46,-0.31,425,474,407,418,271
1679,0.36,0.8,0.49,1.46,-1.59,-2.62,423,462,404,421,271
1680,0.35,0.79,0.51,0.06,-3.05,-3.54,432,461,407,423,271
1681,0.37,0.79,0.5,0.49,-1.65,-4.46,426,458,404,420,272
1682,0.36,0.8,0.51,1.22,-2.62,-0.79,427,458,405,419,275
1683,0.36,0.77,0.5,0.0,-2.14,-2.69,427,458,404,419,274
1684,0.36,0.82,0.5,-3.54,-2.99,-1.95,425,460,407,420,275
1685,0.37,0.79,0.5,-7.14,-2.2,-5.8,432,462,403,420,268
1686,0.34,0.8,0.5,0.37,-3.72,-0.49,423,458,407,428,273
1687,0.33,0.8,0.51,0.92,-2.32,-2.93,425,455,405,428,262
1688,0.33,0.8,0.51,-0.49,-4.33,-1.59,427,458,404,434,264
1689,0.31,0.82,0.48,-4.46,-7.02,-4.03,431,459,405,428,265
1690,0.33,0.75,0.52,6.65,-6.1,-8.06,427,454,401,428,276
1691,0.32,0.78,0.44,0.06,-9.64,-20.32,427,455,403,426,276
1692,0.26,0.95,0.45,6.84,-16.05,-18.74,428,453,406,429,275
1693,0.25,0.9,0.41,-10.31,-11.47,-4.7,425,459,406,431,277
1694,0.28,0.82,0.33,-11.41,-18.07,-15.01,427,460,403,428,270
1695,0.17,0.88,0.43,5.74,0.73,1.95,426,461,404,425,265
1696,0.21,0.89,0.42,3.97,-1.34,-5.55,425,464,404,423,260
1697,0.16,0.89,0.43,3.36,-6.1,-2.01,426,459,406,421,254
1698,0.22,0.82,0.39,-0.06,-5.49,-4.09,434,454,407,423,258
1699,0.19,0.85,0.42,1.34,-2.87,-1.83,427,463,404,425,258
1700,0.18,0.89,0.43,5.86,-4.82,-8.79,422,459,405,415,271
1701,0.17,0.89,0.44,-1.46,-2.5,-1.59,424,463,405,418,269
1702,0.18,0.9,0.46,0.43,-2.44,-2.08,426,457,404,416,301
1703,0.16,0.87,0.45,-2.01,-2.62,-2.99,427,463,406,411,270
1704,0.17,0.89,0.45,-0.61,0.61,-2.44,423,463,402,416,271
1705,0.15,0.88,0.4,6.71,1.65,-1.83,422,465,407,417,268
1706,0.13,0.9,0.43,3.11,-4.46,-3.85,423,455,407,420,273
1707,0.12,0.88,0.42,-4.7,-3.17,1.04,429,464,406,419,278
1708,0.13,0.91,0.41,14.53,-1.28,-3.05,425,459,406,398,266
1709,0.13,0.88,0.42,3.23,-3.97,-2.32,430,460,405,412,270
1710,0.15,0.9,0.43,1.65,-1.1,-4.33,426,459,408,413,270
1711,0.14,0.89,0.43,0.55,-4.64,-2.99,423,453,399,421,269
1712,0.12,0.9,0.41,7.26,-2.69,-3.85,421,455,404,406,260
1713,0.11,0.9,0.42,1.1,-4.58,-2.69,424,451,404,416,259
1714,0.12,0.89,0.43,-0.55,-2.08,-2.5,424,458,405,417,268
1715,0.1,0.92,0.44,-2.44,-0.61,-5.98,424,459,404,421,263
1716,0.09,0.93,0.44,4.39,-6.47,-6.23,429,457,405,418,269
1717,0.09,0.89,0.46,-1.71,-1.59,-4.64,429,451,405,419,269
1718,0.01,0.87,0.47,1.16,-7.93,-1.83,426,457,405,419,268
1719,0.06,0.91,0.47,3.36,-0.24,-1.65,422,461,409,421,270
1720,0.06,0.88,0.47,5.13,-7.32,3.54,424,457,405,420,271
1721,0.08,0.88,0.46,-2.44,-2.5,-4.76,430,456,404,422,271
1722,0.06,0.89,0.46,-1.28,-3.11,-0.49,427,457,400,421,272
1723,0.07,0.88,0.45,-0.37,-4.46,-3.97,427,455,407,412,274
1724,0.07,0.89,0.48,-0.06,-3.97,-0.85,427,457,410,416,272
1725,0.05,0.89,0.46,-0.55,-3.11,-2.01,424,457,404,420,274
1726,0.1,0.87,0.45,9.89,-1.1,-11.72,427,457,407,422,274
1727,0.11,0.93,0.45,3.72,-3.42,-5.74,428,460,404,420,272
1728,0.1,0.9,0.44,4.58,-3.85,-7.32,429,458,405,419,276
1729,0.06,0.9,0.41,0.79,-3.11,-3.91,426,461,401,417,280
1730,0.08,0.89,0.43,2.01,-3.3,-2.81,425,454,400,422,277
1731,0.07,0.89,0.41,2.08,-0.98,-3.11,428,448,404,422,274
1732,0.08,0.92,0.4,-2.87,-6.1,-2.38,427,451,406,418,276
1733,0.09,0.9,0.39,-1.16,-4.39,-4.33,423,454,400,431,274
1734,0.05,0.91,0.38,1.65,-0.49,-2.01,425,453,403,432,277
1735,0.05,0.9,0.39,-0.18,-2.69,-3.97,428,446,404,435,275
1736,0.05,0.91,0.41,-0.67,-2.2,-3.48,426,450,405,435,277
1737,0.06,0.91,0.39,-1.22,-3.17,-2.14,425,451,404,430,281
1738,0.05,0.89,0.41,-3.91,-3.6,-4.94,425,456,404,436,281
1739,0.03,0.89,0.42,-5.37,-2.69,-3.36,428,451,404,432,271
1740,0.03,0.91,0.44,2.01,-1.34,-3.11,426,454,403,431,280
1741,0.03,0.92,0.43,-0.55,-1.28,-2.5,428,454,403,430,281
1742,0.03,0.91,0.43,0.85,-3.17,-2.62,427,451,406,421,279
1743,0.03,0.9,0.43,1.46,-2.08,-2.5,425,452,406,422,281
1744,0.01,0.88,0.4,-1.22,-2.93,-1.04,426,455,403,427,277
1745,0.05,0.91,0.44,-0.67,0.12,-4.21,426,451,401,430,285
1746,0.01,0.9,0.44,2.26,-3.97,-3.78,421,451,404,426,285
1747,0.02,0.9,0.43,2.81,-2.44,-3.23,425,452,402,422,286
1748,0.02,0.91,0.42,0.55,-3.05,-1.22,425,456,405,421,274
1749,0.02,0.9,0.43,-1.4,-3.42,-2.38,429,447,401,420,262
1750,0.02,0.91,0.42,-2.2,-2.81,-2.56,418,447,404,410,254
1751,0.02,0.9,0.43,-0.67,-2.62,-1.71,428,449,406,415,255
1752,0.01,0.9,0.43,1.1,-3.23,-3.23,426,454,404,414,263
1753,0.0,0.85,0.44,-3.6,-1.1,1.16,429,454,403,417,267
1754,0.06,0.87,0.47,-2.5,-6.23,-3.11,430,453,403,419,266
1755,0.09,0.88,0.49,-1.53,-4.7,-0.79,422,453,403,415,268
1756,0.1,0.83,0.5,1.34,-7.39,-0.18,424,459,404,414,273
1757,0.11,0.85,0.51,-0.98,-4.82,-3.11,427,448,405,413,273
1758,0.11,0.85,0.53,-0.73,-3.17,-2.01,426,453,401,414,271
1759,0.09,0.86,0.52,2.44,-3.23,-4.39,426,454,402,416,276
1760,0.07,0.85,0.54,-1.1,-3.36,-1.53,427,454,405,418,270
1761,0.1,0.84,0.52,1.53,-2.93,-0.61,424,457,405,416,278
1762,0.09,0.85,0.52,-2.75,-3.48,-3.48,429,455,403,417,277
1763,0.09,0.85,0.55,-0.06,-2.2,-2.56,430,456,403,414,273
1764,0.09,0.85,0.54,0.55,-3.85,-2.01,424,457,403,415,278
1765,0.09,0.85,0.54,0.67,-2.38,-3.42,427,452,406,416,278
1766,0.09,0.86,0.53,1.65,-3.85,-2.14,423,449,405,417,274
1767,0.09,0.85,0.53,0.24,-2.5,-3.91,427,453,403,416,283
1768,0.09,0.85,0.53,0.61,-2.99,-1.77,427,454,405,418,279
1769,0.08,0.84,0.53,0.55,-1.95,-2.26,423,452,405,418,277
1770,0.07,0.84,0.54,-0.55,-2.69,-2.32,423,452,406,426,278
1771,0.08,0.85,0.53,1.34,-2.08,-3.72,431,454,402,417,280
1772,0.07,0.85,0.55,0.49,-1.46,0.12,427,453,401,417,275
1773,0.11,0.84,0.55,-0.24,-1.16,-1.59,425,451,406,418,276
1774,0.07,0.86,0.52,0.61,-0.49,-9.89,425,456,402,418,277
1775,0.03,0.86,0.52,2.32,-1.71,-5.13,426,457,419,418,277
1776,0.02,0.85,0.5,-4.46,1.77,-8.36,427,452,402,418,276
1777,-0.0,0.85,0.53,5.43,0.24,-7.08,428,452,402,413,276
1778,-0.03,0.87,0.5,5.13,-1.53,5.07,424,451,403,419,262
1779,0.14,0.84,0.45,9.4,-19.04,18.31,417,454,405,428,263
1780,0.13,0.89,0.44,1.77,-0.37,1.65,419,453,404,424,265
1781,0.15,0.86,0.45,-2.01,-2.01,-3.11,424,459,404,430,275
1782,0.12,0.86,0.44,0.0,0.73,-3.17,423,457,400,430,303
1783,0.12,0.9,0.45,-0.85,-2.2,-1.28,423,458,402,438,269
1784,0.1,0.88,0.44,5.43,3.17,-16.11,421,453,402,424,285
1785,0.08,0.88,0.44,-1.59,-5.92,-1.46,423,447,403,419,271
1786,0.08,0.87,0.42,18.13,2.81,-19.1,424,452,404,413,264
1787,0.06,0.88,0.43,0.0,-7.63,-0.85,418,455,407,414,267
1788,0.09,0.88,0.44,-2.75,-2.87,-1.4,417,452,403,419,260
1789,0.09,0.88,0.45,-2.38,-1.77,-2.08,418,453,405,414,263
1790,0.07,0.87,0.46,-3.66,-2.5,-4.39,420,455,401,414,254
1791,0.08,0.88,0.44,-8.3,-4.03,-6.84,418,460,406,409,264
1792,0.06,0.88,0.45,-2.44,-1.77,-1.4,421,461,402,411,266
1793,0.07,0.88,0.48,0.37,-3.23,-2.01,422,457,400,408,264
1794,0.05,0.88,0.45,1.95,-3.66,-1.53,424,453,405,410,265
1795,0.07,0.87,0.43,2.87,-0.79,-0.31,425,457,406,405,267
1796,0.05,0.91,0.45,2.69,-2.32,1.04,421,461,405,405,266
1797,0.07,0.92,0.44,3.17,0.24,0.98,428,457,402,408,269
1798,0.06,0.87,0.41,2.32,-1.46,-2.26,424,460,403,408,268
1799,0.03,0.89,0.41,-5.19,5.86,-12.21,428,457,405,403,271
1800,0.1,0.92,0.41,-1.83,-1.77,-9.83,430,453,405,406,272
1801,0.1,0.92,0.41,0.98,-6.16,1.95,423,456,401,405,273
1802,0.12,0.92,0.41,0.12,-4.82,-7.81,419,457,400,397,261
1803,0.1,0.89,0.42,-4.82,-5.68,-5.19,423,457,411,405,265
1804,0.1,0.9,0.44,-5.62,-3.36,1.46,425,461,400,407,264
1805,0.11,0.87,0.44,-4.09,1.46,-13.73,423,459,401,404,269
1806,0.09,0.86,0.46,-0.61,-1.95,-6.23,422,454,403,409,269
1807,0.1,0.87,0.45,0.55,-4.39,-1.59,425,461,401,409,270
1808,0.08,0.91,0.48,2.2,-3.36,-2.26,421,458,401,412,268
1809,0.1,0.89,0.45,3.42,-2.32,-2.62,423,454,405,399,264
1810,0.09,0.92,0.46,0.49,-3.11,-3.6,424,455,400,392,261
1811,0.1,0.9,0.46,-0.55,-2.14,-0.61,424,460,401,399,260
1812,0.11,0.89,0.44,3.17,-1.83,-1.65,423,453,402,418,268
1813,0.09,0.89,0.44,-3.54,-2.14,-3.23,428,456,402,420,269
1814,0.09,0.9,0.45,1.4,-2.2,-4.09,423,454,403,423,269
1815,0.08,0.87,0.45,1.53,-1.71,-2.93,423,455,402,420,265
1816,0.05,0.89,0.46,-1.1,-3.17,-2.56,420,450,403,422,269
1817,0.04,0.88,0.48,0.67,-1.71,-2.38,425,451,403,430,277
1818,0.07,0.89,0.46,-0.55,-1.83,-1.71,423,456,403,431,278
1819,0.07,0.88,0.46,-1.4,-4.58,-1.59,428,457,403,441,279
1820,0.07,0.87,0.47,-0.49,-3.11,-4.09,425,450,405,443,286
1821,0.05,0.89,0.45,3.54,-0.92,-2.56,424,454,404,444,282
1822,0.06,0.88,0.46,-0.24,-3.23,-2.56,424,451,405,445,287
1823,0.05,0.88,0.46,-1.95,-2.62,-1.95,427,456,407,457,288
1824,0.05,0.89,0.47,-0.31,-2.81,-2.75,421,453,406,453,294
1825,0.06,0.89,0.48,-0.79,-3.42,-2.32,426,456,408,458,312
1826,0.06,0.89,0.47,-0.43,-2.81,-2.44,428,455,411,454,294
1827,0.04,0.89,0.47,1.1,-3.23,-1.53,426,458,411,457,290
1828,0.05,0.89,0.45,3.17,-2.81,-2.75,429,459,409,454,267
1829,0.05,0.9,0.45,-1.28,-1.59,-1.46,423,457,411,453,263
1830,0.05,0.9,0.44,3.3,-4.33,-2.38,426,451,412,447,267
1831,0.05,0.89,0.45,-0.73,-1.89,-2.5,435,460,416,449,268
1832,0.03,0.89,0.46,-0.55,-1.46,-2.26,423,460,415,451,271
1833,0.04,0.89,0.45,2.32,-3.85,-2.99,426,458,414,449,293
1834,0.02,0.89,0.46,-0.49,-2.2,-2.5,427,460,411,451,277
1835,0.04,0.88,0.46,0.24,-2.69,-2.14,430,455,416,451,279
1836,0.03,0.89,0.46,2.93,-2.62,-3.6,426,462,413,448,273
1837,0.03,0.89,0.46,1.4,-3.23,-3.48,428,462,413,451,278
1838,0.04,0.89,0.45,1.71,-1.4,-2.32,422,457,424,448,276
1839,0.03,0.89,0.45,-0.98,-2.38,-2.08,422,464,410,432,264
1840,0.02,0.88,0.46,-1.1,-5.25,-4.09,426,464,411,427,264
1841,0.27,1.01,0.29,7.08,-19.47,-13.92,422,459,413,428,265
1842,0.19,0.95,0.31,-0.49,-6.16,-1.83,427,459,408,431,272
1843,0.21,0.86,0.35,-5.13,-3.72,10.8,413,457,413,432,270
1844,0.23,0.87,0.41,-2.26,17.03,-10.38,417,459,413,430,271
1845,0.23,0.87,0.37,-2.69,-1.34,-0.98,420,461,410,419,268
1846,0.23,0.87,0.42,-2.81,-2.69,-5.68,420,465,413,425,263
1847,0.18,0.86,0.42,-2.87,-3.97,-2.32,423,463,412,417,267
1848,0.25,0.87,0.37,2.01,-6.71,-2.99,424,463,410,412,270
1849,0.27,0.92,0.37,0.43,-1.59,-8.12,422,457,412,408,270
1850,0.21,0.91,0.38,-0.49,-2.26,-2.44,422,460,410,414,274
1851,0.21,0.9,0.38,-0.37,-1.89,-5.37,421,463,411,418,271
1852,0.21,0.91,0.38,-2.14,-1.65,-1.71,426,457,412,417,275
1853,0.19,0.89,0.37,2.2,-2.62,-2.5,425,455,408,417,275
1854,0.2,0.89,0.37,-2.69,-2.44,-3.17,423,460,412,416,274
1855,0.19,0.89,0.38,0.0,-2.08,-3.85,422,465,410,416,278
1856,0.17,0.91,0.39,-1.46,-2.32,-2.26,423,457,410,420,277
1857,0.19,0.9,0.38,0.92,-2.56,-3.97,423,460,411,428,283
1858,0.17,0.89,0.39,-1.34,-4.27,-5.62,428,461,413,423,272
1859,0.16,0.9,0.41,-0.92,-1.89,-3.72,424,460,414,424,275
1860,0.17,0.9,0.41,-1.04,-4.88,-2.38,422,461,414,425,269
1861,0.17,0.89,0.42,-1.77,-2.87,-2.62,424,465,412,425,276
1862,0.16,0.89,0.42,1.71,-1.59,-3.42,426,461,413,425,281
1863,0.15,0.89,0.42,-1.28,-0.49,-3.3,426,466,408,429,281
1864,0.15,0.89,0.42,-0.49,-4.21,-1.65,427,461,409,436,278
1865,0.13,0.9,0.44,1.34,-0.37,-2.93,427,456,415,428,283
1866,0.17,0.9,0.42,-1.16,-4.09,-2.75,425,470,412,431,285
1867,0.14,0.89,0.42,1.1,-2.44,-1.4,422,461,411,429,281
1868,0.17,0.89,0.41,2.5,-3.05,-3.97,428,457,412,430,283
1869,0.15,0.9,0.43,1.65,-4.46,-2.62,425,456,412,428,284
1870,0.15,0.9,0.42,1.1,-3.85,-2.32,426,456,411,430,275
1871,0.18,0.89,0.41,2.08,-2.81,-1.59,421,465,412,420,303
1872,0.16,0.9,0.4,3.3,-4.88,-2.69,426,465,414,421,269
1873,0.17,0.91,0.4,3.66,-0.98,-6.53,426,463,411,416,270
1874,0.13,0.92,0.39,6.77,-2.56,-1.95,426,464,409,419,266
1875,0.14,0.91,0.36,1.4,-4.7,0.79,427,462,409,415,275
1876,0.15,0.9,0.39,0.49,1.1,-5.13,426,461,412,418,272
1877,0.16,0.91,0.4,0.18,-1.59,-2.75,423,463,412,420,282
1878,0.15,0.9,0.39,-3.17,-2.75,-2.87,427,467,410,419,277
1879,0.15,0.89,0.4,-3.72,0.0,-7.45,427,470,411,418,281
1880,0.16,0.88,0.41,-1.34,-5.62,-7.08,426,460,413,416,277
1881,0.11,0.9,0.41,1.65,-2.81,-3.17,423,463,408,410,277
1882,0.12,0.92,0.43,-1.46,-4.39,-2.32,426,463,409,420,279
1883,0.12,0.91,0.43,0.61,-2.93,-1.4,431,463,412,418,299
1884,0.15,0.89,0.41,-1.46,-6.1,-1.22,423,463,411,417,281
1885,0.13,0.9,0.42,0.92,-2.01,-3.36,425,462,406,418,285
1886,0.12,0.9,0.41,-0.06,-2.14,-3.48,422,459,408,432,296
1887,0.13,0.9,0.43,1.83,-3.91,-2.81,428,461,411,428,282
1888,0.11,0.91,0.42,1.22,-2.87,-2.99,425,467,412,420,272
1889,0.12,0.9,0.41,0.73,-2.62,-2.81,428,465,410,425,271
1890,0.12,0.9,0.39,-1.04,-3.3,-2.08,423,466,411,424,269
1891,0.13,0.9,0.4,-0.98,-1.77,-3.78,427,463,410,425,278
1892,0.14,0.9,0.4,-1.77,-2.62,-0.18,427,466,408,423,279
1893,0.13,0.9,0.42,1.65,-2.93,-2.69,424,468,410,422,279
1894,0.12,0.92,0.41,7.14,-3.23,-1.1,429,460,413,424,282
1895,0.14,0.91,0.41,0.31,-2.93,-1.59,428,463,413,423,283
1896,0.16,0.9,0.4,-1.89,-1.34,-3.48,429,463,414,424,287
1897,0.15,0.9,0.42,-2.14,-2.75,-0.61,426,464,411,430,292
1898,0.16,0.89,0.4,-1.4,-3.17,-2.93,426,464,407,431,294
1899,0.15,0.9,0.41,0.0,-2.99,-3.66,427,462,412,431,290
1900,0.16,0.89,0.41,2.38,-2.32,-3.54,429,463,411,429,298
1901,0.14,0.9,0.41,0.85,-4.46,-2.08,425,458,413,427,285
1902,0.14,0.91,0.4,0.18,-3.23,-2.81,424,467,410,429,288
1903,0.16,0.89,0.4,-0.24,-4.94,-4.09,427,463,407,434,298
1904,0.15,0.91,0.42,0.06,-4.03,-2.93,423,466,412,429,282
1905,0.14,0.91,0.41,1.16,-3.3,-0.61,423,464,409,435,280
1906,0.13,0.9,0.4,0.61,-3.48,-3.66,427,467,408,441,286
1907,0.14,0.89,0.41,-2.26,-3.72,-2.01,429,474,407,435,289
1908,0.15,0.91,0.42,3.36,-4.39,-1.46,428,458,411,440,291
1909,0.15,0.9,0.4,2.01,-5.07,-2.75,428,459,410,450,295
1910,0.15,0.9,0.41,1.16,-2.38,-3.17,426,463,409,452,301
1911,0.15,0.9,0.41,-0.12,-3.36,-1.77,429,464,413,465,302
1912,0.14,0.9,0.41,-0.06,-2.87,-2.14,428,463,413,453,302
1913,0.13,0.9,0.4,-1.04,-1.65,-2.01,425,456,413,457,297
1914,0.12,0.9,0.4,0.67,-1.1,-2.14,424,466,412,456,303
1915,0.12,0.89,0.41,-1.53,0.31,-3.72,424,463,412,454,305
1916,0.14,0.89,0.43,1.95,-4.03,-1.59,427,463,412,451,300
1917,0.15,0.86,0.41,-0.85,-4.15,-4.94,429,474,412,448,338
1918,0.14,0.89,0.41,-0.92,-2.75,-2.38,426,462,413,451,302
1919,0.14,0.88,0.42,1.04,-3.66,-1.77,428,468,414,452,298
1920,0.13,0.9,0.41,-1.83,-5.68,-5.68,426,459,413,452,301
1921,0.13,0.88,0.43,-2.26,-0.92,0.37,427,458,413,445,305
1922,0.1,0.9,0.44,-1.16,-2.08,-4.64,426,464,416,448,304
1923,0.11,0.89,0.43,3.3,-1.77,-2.93,428,463,410,451,300
1924,0.1,0.91,0.44,-0.06,-3.23,-2.08,430,461,413,453,290
1925,0.12,0.9,0.42,0.37,-2.56,-1.65,429,464,412,455,297
1926,0.09,0.92,0.45,1.83,-0.24,-1.16,426,468,409,448,316
1927,0.12,0.9,0.43,-1.34,-3.23,0.92,431,463,415,452,305
1928,0.13,0.89,0.43,-3.54,-2.14,-0.49,429,464,414,454,306
1929,0.13,0.9,0.46,-0.18,-1.16,-2.01,428,468,413,456,302
1930,0.1,0.88,0.43,-1.89,-1.83,-2.32,425,463,412,454,298
1931,0.1,0.89,0.44,-0.43,-2.14,-3.48,427,464,414,452,298
1932,0.14,0.9,0.45,2.32,-3.3,-0.06,431,463,412,452,304
1933,0.13,0.89,0.44,0.24,-4.15,-3.23,428,468,414,452,300
1934,0.12,0.89,0.45,0.24,-2.2,-3.6,430,460,414,448,299
1935,0.11,0.9,0.44,0.37,-3.66,-1.28,427,468,409,449,302
1936,0.12,0.89,0.44,-3.11,-5.43,-1.83,423,464,412,446,300
1937,0.15,0.87,0.44,1.34,-4.52,-5.07,425,464,415,451,303
1938,0.1,0.89,0.46,0.92,-0.31,-6.71,423,468,413,452,304
1939,0.11,0.88,0.45,-0.24,-2.2,-1.4,427,465,411,449,303
1940,0.09,0.89,0.48,-5.0,-2.44,-6.04,424,462,414,450,305
1941,0.12,0.89,0.47,0.73,-4.27,-2.14,427,461,412,450,303
1942,0.1,0.87,0.45,-2.01,-3.48,0.31,427,468,411,451,302
1943,0.1,0.88,0.45,-1.83,-3.97,-1.77,430,465,414,445,304
1944,0.11,0.89,0.46,0.43,-4.21,-1.89,428,464,411,446,306
1945,0.12,0.89,0.43,3.66,-4.94,-2.44,424,466,411,451,301
1946,0.11,0.9,0.43,-2.2,-2.81,-0.67,428,459,413,445,272
1947,0.13,0.88,0.4,2.14,-1.04,-1.34,431,464,411,442,272
1948,0.14,0.87,0.4,-1.65,-3.3,-1.95,428,466,413,446,279
1949,0.15,0.88,0.4,0.49,-2.99,-1.46,429,466,415,457,282
1950,0.17,0.9,0.41,0.98,-1.77,-2.26,424,459,415,442,285
1951,0.15,0.9,0.41,-1.1,-2.62,-1.4,428,459,412,444,290
1952,0.15,0.9,0.43,-2.5,-1.46,-5.43,423,466,412,453,290
1953,0.11,0.9,0.38,-13.31,-7.2,-0.24,426,463,413,442,292
1954,0.12,0.87,0.44,-18.19,-7.02,3.48,424,464,413,445,289
1955,0.22,0.78,0.58,-12.94,-1.59,17.82,427,458,413,447,292
1956,0.27,0.8,0.62,-3.3,9.34,15.26,428,465,414,443,294
1957,0.25,0.69,0.64,0.98,0.31,5.13,428,458,417,446,291
1958,0.29,0.69,0.63,-0.31,3.85,7.69,431,458,413,440,292
1959,0.29,0.71,0.64,-4.27,-3.66,3.78,427,468,410,440,296
1960,0.34,0.66,0.66,-5.19,-7.2,-0.31,429,460,414,441,315
1961,0.31,0.69,0.66,2.99,0.24,-13.61,426,465,414,439,294
1962,0.31,0.72,0.66,3.17,-3.72,-3.72,427,463,427,441,291
1963,0.31,0.72,0.64,0.37,-1.71,-1.34,429,465,410,443,294
1964,0.35,0.73,0.67,-0.37,-4.03,-4.58,429,460,414,440,296
1965,0.31,0.68,0.65,0.98,-0.31,-0.24,429,468,417,441,293
1966,0.4,0.66,0.63,4.88,-3.05,-9.77,430,463,413,437,297
1967,0.37,0.7,0.64,0.31,-3.91,-3.23,427,467,419,441,296
1968,0.32,0.69,0.65,-0.73,-2.87,-2.2,428,464,412,443,296
1969,0.32,0.7,0.64,-3.11,-3.72,1.4,430,463,414,442,299
1970,0.37,0.68,0.67,-1.71,-5.25,-5.19,430,464,414,444,296
1971,0.33,0.7,0.68,-2.32,0.85,1.89,424,464,412,439,300
1972,0.34,0.67,0.69,0.12,-2.08,-4.7,425,468,411,440,299
1973,0.35,0.67,0.67,-1.22,-3.85,-2.26,427,463,412,444,318
1974,0.35,0.66,0.66,1.04,-4.76,0.55,424,463,412,449,296
1975,0.35,0.66,0.69,0.67,-1.53,-2.62,427,466,415,441,300
1976,0.37,0.64,0.68,-3.48,-3.97,-4.46,425,465,411,441,299
1977,0.35,0.67,0.67,3.42,-2.81,-4.94,426,468,414,438,307
1978,0.35,0.69,0.64,1.4,-4.27,-2.14,428,464,415,447,277
1979,0.35,0.69,0.65,-2.5,-2.81,-1.83,424,464,410,448,286
1980,0.31,0.66,0.65,-6.59,-16.3,-5.13,425,461,411,448,290
1981,0.33,0.7,0.68,2.14,-2.99,-12.33,413,435,412,449,293
1982,0.27,0.72,0.63,13.79,-8.42,-4.52,413,431,413,448,290
1983,0.29,0.77,0.55,4.88,-4.15,-1.65,414,437,414,446,294
1984,0.27,0.8,0.56,4.58,-1.04,-2.87,409,439,416,446,290
1985,0.31,0.79,0.56,-1.89,-4.33,-0.73,414,440,415,443,279
1986,0.31,0.77,0.56,3.11,-3.72,-0.55,414,441,413,450,264
1987,0.31,0.77,0.56,0.61,-4.03,2.81,417,440,413,445,270
1988,0.31,0.77,0.57,-1.71,-2.56,-1.59,420,444,414,445,276
1989,0.32,0.77,0.58,-2.2,-2.01,0.67,417,448,417,442,278
1990,0.33,0.77,0.59,-3.17,-1.4,-0.61,418,445,413,461,281
1991,0.34,0.73,0.59,-3.17,-0.49,-5.8,418,450,413,450,284
1992,0.32,0.73,0.58,6.04,-4.7,-5.49,420,446,410,448,277
1993,0.35,0.76,0.58,-0.79,-2.81,-2.32,421,449,412,445,278
1994,0.35,0.76,0.57,-0.24,-2.26,-2.01,418,453,413,443,270
1995,0.36,0.76,0.56,2.32,-4.7,-1.83,421,449,412,443,266
1996,0.34,0.75,0.57,-1.46,-1.53,-2.93,418,449,413,441,272
1997,0.34,0.76,0.57,-1.95,3.48,-10.13,416,446,416,442,279
1998,0.32,0.75,0.59,1.71,-1.65,-1.89,419,447,413,435,277
1999,0.32,0.76,0.57,-1.4,-2.99,-2.14,421,445,409,439,287
2000,0.32,0.76,0.59,-0.55,-2.62,-2.38,421,448,415,435,282
2001,0.32,0.76,0.59,-2.2,-3.48,-3.54,424,450,414,434,283
2002,0.31,0.76,0.59,0.79,-2.69,-2.08,421,446,416,430,282
2003,0.31,0.75,0.59,-0.55,-3.11,-1.71,420,448,413,433,284
2004,0.31,0.76,0.59,0.31,-2.38,-2.44,423,448,416,434,282
2005,0.31,0.74,0.59,-0.06,-3.05,-2.32,421,445,415,433,279
2006,0.32,0.75,0.59,0.24,-3.42,-1.4,418,452,414,434,283
2007,0.32,0.76,0.6,0.0,-3.11,-3.3,422,448,418,432,285
2008,0.32,0.76,0.6,0.67,-3.42,-4.21,423,451,412,433,285
2009,0.3,0.75,0.6,-0.12,-4.39,-2.69,418,449,413,433,287
2010,0.31,0.76,0.59,-0.92,-3.78,-2.56,422,446,412,437,278
2011,0.31,0.75,0.58,0.43,-2.38,-2.38,423,450,410,433,275
2012,0.32,0.75,0.58,1.71,-4.64,-2.75,420,452,412,437,269
2013,0.32,0.76,0.59,0.24,-3.72,-2.32,424,447,409,437,271
2014,0.32,0.75,0.59,-1.46,-2.81,-2.81,419,453,409,438,271
2015,0.33,0.75,0.59,-0.06,-3.11,-3.05,422,451,410,439,276
