,aX,aY,aZ,gX,gY,gZ,little,ring,middle,index,thumb
0,0.65,0.56,0.47,-12.39,-12.21,5.98,415,298,396,329,251
1,0.54,0.64,0.59,6.65,-13.98,9.09,420,303,401,337,253
2,0.55,0.6,0.55,-0.12,3.11,-0.92,418,303,401,339,253
3,0.54,0.65,0.52,19.04,7.87,-12.76,414,307,402,334,250
4,0.59,0.67,0.52,8.0,-11.66,-1.53,415,309,407,324,249
5,0.56,0.75,0.49,24.54,-8.91,5.86,414,307,402,320,247
6,0.43,0.76,0.41,1.46,-12.02,5.19,417,313,405,321,249
7,0.53,0.7,0.47,-12.94,-6.84,1.04,417,315,402,323,249
8,0.5,0.7,0.49,-1.71,-6.47,-3.3,413,313,403,324,250
9,0.54,0.67,0.47,-6.41,-1.95,2.62,418,316,405,327,248
10,0.61,0.68,0.44,5.43,4.88,-3.48,413,312,402,326,248
11,0.62,0.68,0.46,3.17,-1.77,-3.85,415,313,401,323,248
12,0.56,0.67,0.49,-2.56,-0.98,-0.12,411,317,408,329,250
13,0.56,0.65,0.47,-3.17,-0.79,-1.04,416,321,401,330,247
14,0.6,0.65,0.51,-3.05,-4.64,-0.49,413,314,402,329,247
15,0.57,0.65,0.52,-2.56,-5.0,2.14,416,321,406,331,251
16,0.57,0.63,0.49,-0.37,-2.62,-3.17,415,320,403,328,249
17,0.6,0.66,0.5,1.16,-3.42,-3.97,418,323,401,328,252
18,0.58,0.65,0.5,2.2,-2.81,-6.23,417,329,403,330,251
19,0.55,0.68,0.51,1.1,-1.28,-4.09,415,317,403,328,246
20,0.55,0.67,0.51,2.56,-4.46,1.1,417,315,406,328,249
21,0.56,0.65,0.51,-1.59,-4.15,-0.43,415,322,416,330,249
22,0.57,0.66,0.52,0.55,-0.73,-0.98,416,321,405,338,239
23,0.57,0.65,0.51,1.95,-4.03,-5.19,418,320,403,336,252
24,0.58,0.64,0.5,4.33,-2.62,0.73,413,320,401,329,249
25,0.57,0.65,0.51,-0.61,1.04,-1.53,417,324,404,336,251
26,0.6,0.64,0.52,-1.34,-0.12,-3.78,418,315,404,329,248
27,0.59,0.63,0.53,0.12,-3.54,1.59,420,321,403,329,248
28,0.57,0.61,0.54,3.97,-3.97,-4.82,415,319,401,329,246
29,0.56,0.64,0.54,-1.89,-2.08,-3.6,418,318,404,331,251
30,0.56,0.62,0.54,-0.79,-4.52,-4.15,415,320,405,329,250
31,0.58,0.62,0.54,-0.24,-5.31,0.06,415,323,405,330,250
32,0.58,0.62,0.54,-0.67,-0.79,-0.43,417,316,403,340,252
33,0.57,0.62,0.55,4.09,-2.26,-3.36,420,321,403,339,251
34,0.6,0.63,0.54,-2.56,0.31,-0.85,418,315,406,333,251
35,0.61,0.58,0.54,1.1,-9.52,0.0,418,316,402,328,250
36,0.61,0.7,0.6,-5.13,17.64,-15.2,415,322,407,331,252
37,0.64,0.61,0.57,-0.67,-5.49,-0.18,419,321,403,336,246
38,0.6,0.58,0.58,2.62,-6.53,-4.52,419,327,407,336,249
39,0.64,0.59,0.59,8.42,-0.06,-6.04,419,314,403,334,249
40,0.59,0.62,0.51,1.89,-0.98,-5.19,421,321,402,336,247
41,0.6,0.63,0.53,4.03,-0.43,-4.52,416,323,402,335,250
42,0.59,0.65,0.55,0.43,-1.71,-0.43,421,323,400,333,278
43,0.64,0.67,0.53,4.58,-3.3,-1.83,420,324,402,336,253
44,0.55,0.62,0.52,18.8,-2.99,-18.86,417,321,402,332,253
45,0.6,0.69,0.46,4.09,-6.23,-1.22,417,322,404,337,250
46,0.54,0.65,0.45,11.47,-15.44,1.71,415,324,402,338,250
47,0.58,0.75,0.42,-1.59,-7.75,-5.74,414,326,406,337,278
48,0.59,0.74,0.4,5.62,0.06,-5.07,419,323,405,339,251
49,0.62,0.71,0.36,6.23,-0.92,-1.22,421,321,406,336,250
50,0.61,0.71,0.35,3.78,-1.77,-3.72,420,319,411,338,250
51,0.62,0.71,0.35,-2.93,-1.83,-2.56,415,324,404,343,251
52,0.62,0.71,0.38,1.46,-0.79,-3.78,420,328,406,342,251
53,0.57,0.68,0.4,5.0,-2.81,2.75,426,320,403,337,251
54,0.61,0.68,0.39,5.25,0.24,-5.13,421,327,403,337,250
55,0.58,0.72,0.33,-6.53,-4.15,5.62,415,328,399,339,254
56,0.6,0.7,0.36,3.17,-3.11,0.98,420,324,403,337,264
57,0.59,0.71,0.36,1.53,-2.62,-0.24,420,331,400,340,254
58,0.65,0.68,0.35,-0.98,-5.92,0.0,414,325,401,340,252
59,0.63,0.7,0.36,3.85,-2.38,-2.32,420,327,407,337,252
60,0.64,0.67,0.35,5.62,-5.19,-0.98,418,325,404,341,255
61,0.6,0.69,0.32,17.7,-11.35,9.03,420,325,401,341,255
62,0.65,0.69,0.31,3.85,-2.81,-9.34,417,324,402,342,251
63,0.61,0.66,0.32,-4.76,-2.87,-2.01,419,334,403,339,253
64,0.61,0.72,0.33,1.4,-2.5,-6.59,418,326,399,345,254
65,0.61,0.73,0.31,-0.31,-0.79,-4.27,419,332,403,342,249
66,0.6,0.82,0.39,-13.37,-1.71,-4.15,417,331,402,344,254
67,0.59,0.78,0.37,2.69,-2.26,-6.77,416,329,406,345,252
68,0.6,0.75,0.34,0.0,-4.52,-5.43,421,322,405,341,254
69,0.57,0.73,0.34,-1.34,-4.33,-2.08,420,330,403,343,252
70,0.58,0.73,0.33,1.53,-3.97,-0.98,418,330,403,340,255
71,0.59,0.74,0.32,3.97,-4.64,-2.93,419,336,407,332,253
72,0.59,0.75,0.31,1.34,-2.87,-2.01,419,328,400,334,251
73,0.58,0.76,0.32,2.14,-1.95,-3.36,419,332,404,331,254
74,0.58,0.73,0.3,-2.93,-5.0,0.18,421,329,402,338,252
75,0.61,0.74,0.31,2.5,-1.77,0.49,418,329,404,333,252
76,0.6,0.71,0.3,-1.04,-5.86,-0.37,420,327,402,338,255
77,0.61,0.73,0.31,0.43,-2.93,-2.38,419,329,414,332,254
78,0.61,0.73,0.32,-0.98,-3.78,-1.83,421,329,401,336,260
79,0.63,0.73,0.3,1.22,-2.01,-1.83,415,336,399,339,252
80,0.62,0.72,0.3,0.73,-4.15,-4.76,420,329,399,337,253
81,0.62,0.75,0.28,0.37,-5.07,-4.76,419,332,400,339,256
82,0.6,0.76,0.27,2.56,-2.44,-1.04,420,329,402,337,256
83,0.62,0.74,0.25,-2.26,-4.09,-1.59,421,329,403,335,253
84,0.61,0.75,0.26,2.87,-3.17,-5.74,416,330,403,338,257
85,0.6,0.75,0.26,0.92,-3.66,-3.85,420,328,401,348,254
86,0.62,0.75,0.27,2.14,-0.24,-1.95,416,333,402,339,253
87,0.55,0.74,0.28,-9.28,-0.98,-0.85,420,329,403,340,254
88,0.6,0.77,0.3,-0.37,-3.85,0.31,420,325,402,338,252
89,0.6,0.76,0.25,4.58,-3.72,2.75,421,326,403,340,254
90,0.57,0.77,0.32,0.55,-0.98,0.31,419,330,401,341,254
91,0.61,0.77,0.31,6.29,3.91,-6.35,421,335,403,336,254
92,0.59,0.73,0.31,-0.92,-2.2,-7.08,417,336,403,341,252
93,0.54,0.73,0.33,-2.93,-7.75,0.0,416,332,404,342,256
94,0.62,0.75,0.32,-2.44,-9.64,-1.1,415,332,406,344,256
95,0.6,0.7,0.31,1.53,-4.94,-0.18,417,327,405,345,249
96,0.61,0.71,0.29,-0.61,-4.7,-1.59,423,327,406,346,250
97,0.63,0.69,0.3,-5.25,-4.58,-1.1,422,332,402,345,263
98,0.62,0.7,0.34,-0.92,-3.05,-1.71,419,336,404,348,255
99,0.66,0.75,0.34,3.6,3.6,-2.99,420,337,406,348,259
100,0.57,0.75,0.31,4.21,-2.38,-10.62,422,337,404,353,256
101,0.67,0.71,0.32,-1.59,6.35,-4.64,421,332,402,347,256
102,0.62,0.71,0.27,-2.62,-1.83,-8.0,416,329,403,343,253
103,0.6,0.76,0.32,-9.4,-9.58,1.59,415,337,406,345,255
104,0.6,0.74,0.35,13.98,-2.14,-8.42,414,335,402,342,257
105,0.58,0.73,0.3,-1.4,-2.26,-6.71,412,335,403,339,254
106,0.61,0.77,0.28,16.05,-3.17,-0.06,414,339,402,343,255
107,0.55,0.78,0.27,-0.43,-4.33,-7.75,415,335,401,340,254
108,0.52,0.8,0.27,1.77,0.06,-5.98,420,331,405,340,256
109,0.55,0.82,0.27,-5.55,-3.66,4.03,422,337,401,344,256
110,0.56,0.79,0.28,-2.14,-5.49,1.65,421,337,406,344,256
111,0.57,0.76,0.3,0.49,-4.03,0.0,422,334,406,339,256
112,0.58,0.75,0.29,0.92,-1.95,-1.77,422,334,408,342,255
113,0.58,0.76,0.32,1.22,-0.49,-4.64,423,339,405,344,256
114,0.57,0.76,0.31,4.27,-6.59,0.85,420,345,405,345,257
115,0.58,0.75,0.3,1.77,-2.93,-3.48,423,335,405,346,262
116,0.58,0.77,0.31,1.04,-2.75,-0.73,420,336,404,346,255
117,0.6,0.75,0.3,-3.97,-6.71,0.06,418,342,405,343,258
118,0.59,0.76,0.29,2.75,-2.99,-2.01,419,343,408,345,257
119,0.58,0.75,0.29,-1.71,-3.54,-3.42,419,339,403,346,257
120,0.59,0.76,0.3,2.75,-1.77,-5.19,419,344,404,345,255
121,0.59,0.75,0.3,-2.44,-2.56,-5.43,421,338,404,346,258
122,0.58,0.76,0.32,2.44,-2.56,-3.72,420,340,408,347,258
123,0.57,0.76,0.3,2.38,-4.21,-3.48,416,344,404,345,257
124,0.58,0.77,0.31,-0.49,-3.6,-2.26,417,339,404,346,255
125,0.57,0.76,0.31,-0.24,-2.69,-2.56,420,340,403,347,257
126,0.57,0.78,0.31,0.85,-3.05,-3.42,416,336,402,349,259
127,0.57,0.75,0.32,-0.73,-2.2,-1.4,418,335,402,346,257
128,0.53,0.77,0.33,-1.65,-0.43,-5.0,423,333,404,343,254
129,0.57,0.76,0.31,-0.67,-3.48,-2.01,421,339,407,351,256
130,0.57,0.77,0.32,-1.65,-4.94,-4.27,420,340,405,346,255
131,0.59,0.76,0.32,0.37,-3.72,-1.46,417,333,407,345,257
132,0.56,0.77,0.33,-1.1,-2.56,2.32,420,338,407,339,257
133,0.56,0.76,0.31,0.98,-3.54,-2.5,420,329,407,336,257
134,0.57,0.76,0.31,-0.55,-1.4,-1.59,421,335,406,343,257
135,0.59,0.74,0.31,-4.15,-2.69,4.88,420,336,407,345,256
136,0.58,0.76,0.31,3.97,-6.65,5.92,421,343,404,342,258
137,0.58,0.75,0.31,-3.05,-2.62,-4.09,421,341,404,350,256
138,0.58,0.75,0.29,-3.05,-5.19,0.31,419,337,402,344,255
139,0.55,0.75,0.32,3.54,-7.32,4.15,422,333,405,342,257
140,0.6,0.74,0.26,0.61,-2.5,-4.33,420,338,405,344,256
141,0.6,0.76,0.28,0.85,-1.71,-3.36,421,344,405,340,257
142,0.59,0.75,0.29,-1.89,-3.17,-0.92,416,339,405,341,256
143,0.6,0.75,0.3,0.18,-4.15,0.43,421,356,407,340,256
144,0.59,0.76,0.29,4.46,0.06,-6.04,420,344,407,347,255
145,0.6,0.75,0.26,1.77,-1.71,-5.98,421,341,406,343,273
146,0.58,0.75,0.3,-0.92,-2.01,-5.37,418,337,408,344,255
147,0.58,0.76,0.3,0.18,-2.01,-2.56,419,339,406,344,257
148,0.58,0.77,0.3,-0.73,-2.75,-2.87,418,347,407,347,258
149,0.57,0.78,0.3,2.62,-1.28,-2.32,422,330,407,346,258
150,0.56,0.75,0.31,1.77,-4.76,-3.05,420,326,408,343,257
151,0.59,0.77,0.31,3.48,-2.75,-1.53,420,322,404,342,257
152,0.58,0.76,0.31,1.22,-3.17,-3.05,420,330,404,341,258
153,0.58,0.76,0.31,0.79,-2.62,-2.44,419,325,413,343,257
154,0.59,0.77,0.3,1.22,-3.17,-1.16,420,325,405,346,256
155,0.59,0.75,0.3,0.73,-4.88,-2.62,417,330,404,344,254
156,0.58,0.75,0.28,0.79,-3.11,-2.81,419,331,405,344,258
157,0.6,0.76,0.3,2.62,-3.11,-1.28,421,332,409,346,255
158,0.59,0.74,0.3,-0.31,-5.07,-0.55,422,332,407,346,254
159,0.61,0.74,0.3,0.67,-1.16,-2.44,424,324,405,350,256
160,0.61,0.72,0.31,-1.77,-3.48,0.67,420,327,407,345,255
161,0.63,0.75,0.3,3.42,-2.2,-4.58,421,328,407,346,255
162,0.63,0.75,0.3,3.36,0.18,-5.55,418,330,402,348,258
163,0.62,0.74,0.33,1.53,-4.88,0.18,420,333,401,345,258
164,0.62,0.75,0.3,1.77,-1.77,-3.66,416,334,405,346,259
165,0.64,0.74,0.29,1.4,-2.56,-2.01,420,333,402,348,258
166,0.61,0.74,0.31,-2.62,-2.2,-3.36,420,333,401,347,255
167,0.62,0.74,0.31,0.55,-3.23,-3.48,416,328,404,347,256
168,0.62,0.73,0.3,4.88,-4.21,-1.65,420,336,405,346,262
169,0.63,0.71,0.31,-0.18,-1.95,-5.92,420,336,402,349,257
170,0.58,0.76,0.31,6.35,-3.54,-9.95,419,337,404,346,255
171,0.52,0.8,0.33,13.06,2.62,-19.71,419,328,406,349,261
172,0.25,0.92,0.21,-18.01,10.93,-34.85,417,333,412,345,255
173,0.35,0.91,0.39,8.42,-17.33,14.53,417,330,404,345,253
174,0.51,0.76,0.26,-4.39,0.92,-6.77,418,325,403,343,256
175,0.44,0.91,0.37,-4.46,-1.53,4.82,419,327,404,343,254
176,0.42,0.75,0.34,-0.61,1.16,-1.83,415,332,403,346,258
177,0.43,0.8,0.35,-4.58,0.79,-4.76,419,346,404,347,256
178,0.39,0.85,0.39,2.38,-1.22,-4.21,416,333,405,346,268
179,0.41,0.82,0.38,-1.59,-2.5,0.79,418,337,402,350,256
180,0.36,0.78,0.34,-4.52,0.79,-2.38,421,329,401,346,255
181,0.43,0.85,0.38,1.4,-4.46,-2.81,421,334,403,346,257
182,0.4,0.83,0.38,-0.61,-3.66,-0.85,418,332,403,344,255
183,0.38,0.8,0.38,-0.12,-2.75,-2.81,418,335,401,347,254
184,0.38,0.82,0.37,11.05,-5.49,4.82,421,330,404,350,255
185,0.39,0.83,0.37,0.24,-3.54,-2.38,418,336,403,349,259
186,0.44,0.82,0.35,0.73,-2.99,-0.73,409,333,407,349,258
187,0.45,0.83,0.35,-1.83,-4.33,-2.93,419,335,406,354,256
188,0.44,0.83,0.36,1.22,-4.88,-4.21,416,341,400,351,256
189,0.41,0.84,0.4,-0.67,-0.67,-5.13,416,333,403,349,259
190,0.39,0.82,0.41,2.44,-6.1,1.28,418,343,404,343,258
191,0.38,0.78,0.44,-6.59,-6.59,5.8,418,340,406,351,266
192,0.4,0.84,0.41,-6.23,-6.77,2.01,414,338,404,348,256
193,0.38,0.82,0.42,-3.72,-2.01,-0.37,417,336,406,344,254
194,0.37,0.82,0.44,-1.65,-2.38,-5.49,419,337,407,350,256
195,0.38,0.82,0.43,-2.75,-5.55,-0.92,413,336,403,349,259
196,0.38,0.81,0.43,-1.16,-4.82,-1.1,417,340,400,352,267
197,0.39,0.81,0.42,0.55,-3.48,-0.98,414,346,404,350,254
198,0.38,0.82,0.42,-2.14,-3.23,-4.03,414,338,407,351,257
199,0.39,0.83,0.44,3.05,-7.75,-2.26,420,346,402,349,249
200,0.37,0.84,0.44,-1.65,-3.11,0.24,416,342,417,347,257
201,0.41,0.81,0.41,1.04,-5.31,-3.6,418,338,403,349,255
202,0.39,0.81,0.41,4.03,-0.06,-2.99,417,342,404,350,259
203,0.37,0.82,0.4,0.18,-2.93,-1.34,413,344,401,349,253
204,0.37,0.86,0.42,-6.9,6.04,-11.47,419,348,398,356,251
205,0.37,0.82,0.4,-1.22,2.08,-4.94,412,350,401,352,256
206,0.39,0.83,0.41,-0.67,-5.62,-2.26,415,350,400,350,255
207,0.38,0.83,0.4,1.4,-2.26,-8.06,416,345,402,350,255
208,0.38,0.81,0.4,0.79,-1.89,-5.55,413,352,399,349,258
209,0.39,0.83,0.42,1.4,-3.91,-3.97,419,345,402,352,257
210,0.5,0.85,0.53,-27.53,18.68,-5.68,418,341,398,353,258
211,0.43,0.6,0.51,-2.26,0.31,-5.37,417,349,402,352,255
212,0.45,0.69,0.52,13.06,-13.73,3.66,415,342,402,350,256
213,0.55,0.82,0.49,7.32,-7.2,-0.61,417,336,400,349,258
214,0.44,0.74,0.47,5.74,-1.89,-5.43,422,334,401,350,256
215,0.44,0.78,0.45,0.92,-3.97,-1.71,416,341,400,353,258
216,0.43,0.79,0.46,10.8,-1.71,1.95,415,343,405,348,254
217,0.43,0.79,0.44,-0.18,0.12,-0.18,418,340,402,348,258
218,0.45,0.78,0.45,-0.49,-3.54,-1.28,416,344,398,352,255
219,0.43,0.76,0.47,1.95,-6.35,-4.33,415,345,401,349,260
220,0.42,0.78,0.48,2.56,-3.3,-2.2,413,342,400,356,256
221,0.46,0.79,0.47,0.18,-4.82,-0.98,414,348,402,351,256
222,0.46,0.77,0.44,1.22,-3.42,-4.88,413,345,404,352,267
223,0.45,0.78,0.44,0.73,-2.62,-3.11,418,345,404,350,271
224,0.44,0.79,0.44,4.15,-1.95,-4.64,413,349,403,352,255
225,0.43,0.78,0.44,-1.4,-2.56,-2.81,420,346,404,344,257
226,0.41,0.77,0.46,-2.2,-2.32,-3.6,417,341,402,356,257
227,0.43,0.81,0.45,-1.1,-2.75,-1.59,417,325,401,350,260
228,0.43,0.8,0.46,3.54,-3.23,-5.0,416,321,397,350,257
229,0.42,0.8,0.44,2.2,-1.89,-4.52,416,317,397,343,254
230,0.41,0.79,0.44,4.39,-3.42,-4.64,419,317,395,346,255
231,0.4,0.8,0.44,1.53,-2.62,-3.42,410,323,399,343,256
232,0.4,0.81,0.46,0.49,-4.15,-2.75,411,326,398,350,257
233,0.4,0.81,0.46,-0.37,-1.28,-4.15,409,329,398,347,253
234,0.41,0.81,0.44,0.49,-1.65,-4.33,412,330,396,346,253
235,0.39,0.81,0.45,-4.7,-0.49,-2.2,411,324,387,346,252
236,0.4,0.8,0.46,2.2,-2.93,-2.93,409,317,389,342,252
237,0.39,0.81,0.46,2.5,-2.14,-2.32,410,325,391,346,253
238,0.4,0.82,0.45,1.04,-3.36,-2.75,410,322,391,349,263
239,0.41,0.82,0.45,1.1,-2.69,-2.56,409,322,396,345,255
240,0.4,0.82,0.45,1.53,-2.81,-3.6,408,324,398,347,261
241,0.39,0.82,0.45,-4.15,-3.23,-2.44,407,324,394,349,253
242,0.39,0.81,0.44,-0.18,-2.69,-2.26,406,331,397,350,254
243,0.39,0.8,0.44,-0.43,-2.56,-1.89,406,333,395,347,254
244,0.39,0.8,0.45,-1.28,-2.44,-2.26,406,329,396,350,255
245,0.42,0.82,0.43,4.21,-1.04,-4.15,407,324,398,350,253
246,0.41,0.82,0.45,0.31,-3.48,-2.32,404,331,396,349,253
247,0.39,0.82,0.45,-0.43,-1.46,-4.7,409,324,398,349,257
248,0.4,0.8,0.44,-1.83,-3.66,-0.73,408,333,394,350,254
249,0.41,0.8,0.45,-0.24,-2.08,-1.22,406,324,399,348,254
250,0.4,0.8,0.43,1.04,-1.22,-4.09,404,330,398,351,257
251,0.41,0.82,0.45,-3.11,-3.3,-1.59,406,329,395,346,256
252,0.41,0.81,0.44,-1.95,-3.11,-1.89,406,332,396,352,266
253,0.41,0.82,0.44,0.12,-3.23,-3.11,408,333,396,345,255
254,0.4,0.81,0.44,0.49,-2.62,-2.69,406,330,399,347,253
255,0.4,0.81,0.44,0.24,-3.66,-3.3,406,326,399,349,254
256,0.4,0.81,0.44,2.32,-3.23,-3.11,403,327,395,352,255
257,0.4,0.81,0.44,-1.04,-3.11,-2.2,401,337,400,348,258
258,0.41,0.81,0.44,0.85,-5.19,-2.01,405,334,401,360,252
259,0.41,0.8,0.43,1.34,-2.08,-3.17,405,335,394,351,275
260,0.39,0.8,0.44,-0.98,-3.36,-2.14,405,332,396,351,254
261,0.39,0.8,0.44,0.49,-2.62,-2.75,405,337,401,349,256
262,0.39,0.81,0.45,-0.43,-5.07,-1.46,404,335,398,351,256
263,0.4,0.8,0.45,-1.65,-2.56,-2.14,405,335,399,350,254
264,0.39,0.79,0.46,1.28,-2.62,-2.75,406,336,396,349,257
265,0.4,0.81,0.45,-0.73,-2.93,-2.38,406,337,401,351,252
266,0.39,0.8,0.46,-2.26,-2.99,-1.22,401,341,395,349,254
267,0.41,0.81,0.45,0.98,-4.27,-2.26,404,340,397,352,256
268,0.39,0.8,0.45,-2.32,-1.89,-1.4,402,338,401,350,255
269,0.4,0.79,0.45,1.65,-3.85,-2.81,401,344,400,351,255
270,0.41,0.8,0.45,3.42,-3.36,-3.42,403,343,398,353,254
271,0.4,0.8,0.46,-0.61,-4.09,-1.95,406,341,399,346,252
272,0.4,0.8,0.45,1.59,-3.42,-2.5,403,339,398,347,257
273,0.39,0.81,0.43,-1.34,-2.87,-2.14,399,341,401,351,256
274,0.45,0.82,0.42,8.54,-1.65,-8.48,393,340,396,356,255
275,0.41,0.84,0.44,3.11,-2.75,-2.75,402,337,396,349,257
276,0.41,0.82,0.43,2.44,-1.83,-3.05,401,338,395,350,257
277,0.4,0.81,0.44,0.24,-3.42,-4.33,400,339,397,353,255
278,0.4,0.79,0.43,-2.01,-3.54,-1.34,401,342,393,356,258
279,0.41,0.81,0.44,-0.73,-3.23,-1.53,399,341,396,351,258
280,0.41,0.8,0.43,-3.66,-2.56,-1.89,400,346,396,352,259
281,0.4,0.81,0.43,-0.85,-1.53,-2.5,404,342,396,352,256
282,0.41,0.81,0.44,-1.28,-2.2,-1.65,400,346,397,354,256
283,0.41,0.81,0.44,0.61,-3.42,-2.44,399,342,399,351,256
284,0.41,0.81,0.44,1.95,-3.66,-3.54,400,344,397,358,254
285,0.4,0.8,0.44,-0.43,-3.6,-1.77,396,342,394,352,256
286,0.4,0.81,0.44,1.46,-1.89,-4.33,396,341,396,352,260
287,0.4,0.81,0.44,1.04,-2.99,-2.01,401,341,397,349,259
288,0.4,0.8,0.44,-3.66,-2.87,-2.01,404,341,400,352,256
289,0.4,0.81,0.43,4.33,-1.77,-5.43,401,338,398,353,260
290,0.41,0.82,0.43,4.15,-0.98,-5.74,399,341,402,352,255
291,0.41,0.82,0.45,-3.3,-2.38,-1.65,397,344,395,355,257
292,0.4,0.82,0.44,-3.97,-3.78,-1.04,398,343,411,354,257
293,0.42,0.81,0.46,-0.79,-2.99,-1.22,396,343,398,351,257
294,0.4,0.81,0.45,-0.79,-3.85,-2.69,400,337,398,350,255
295,0.41,0.81,0.45,2.87,-2.62,-1.46,399,342,395,352,256
296,0.43,0.81,0.43,1.95,-2.75,-3.97,394,345,398,351,259
297,0.43,0.79,0.44,3.97,-6.71,-2.81,399,343,403,352,288
298,0.43,0.83,0.46,1.71,-1.83,-2.93,397,346,401,354,258
299,0.43,0.82,0.43,3.72,-3.48,-2.56,395,341,397,352,257
300,0.44,0.8,0.44,-1.59,-4.33,-2.14,396,344,399,356,258
301,0.43,0.79,0.44,-1.22,-2.56,-3.23,397,344,398,356,260
302,0.45,0.81,0.43,5.74,-2.44,-5.62,399,340,400,354,256
303,0.43,0.8,0.42,2.62,-4.09,-4.09,399,341,397,357,259
304,0.4,0.82,0.43,0.73,-2.62,-3.17,396,339,400,356,258
305,0.42,0.82,0.42,0.55,-1.89,-3.17,392,340,402,353,259
306,0.42,0.82,0.42,-0.18,-3.54,-2.69,394,345,399,355,258
307,0.42,0.8,0.42,0.73,-3.85,-2.44,393,342,397,359,257
308,0.4,0.82,0.42,0.18,-2.5,-3.6,396,344,400,355,256
309,0.41,0.83,0.43,0.37,-1.89,-2.26,394,344,399,357,259
310,0.39,0.82,0.44,-1.71,-3.36,0.12,398,342,399,355,257
311,0.41,0.82,0.43,-0.92,-3.36,-1.53,393,346,396,356,260
312,0.42,0.81,0.41,2.99,-3.36,-3.3,395,351,401,354,260
313,0.42,0.81,0.41,0.43,-5.31,-2.01,395,354,406,357,257
314,0.4,0.82,0.4,0.06,-3.17,-2.01,391,345,398,354,260
315,0.4,0.83,0.41,3.11,-3.78,-3.54,386,343,399,355,259
316,0.4,0.83,0.41,0.85,-1.4,-3.05,389,345,398,354,262
317,0.38,0.84,0.41,-1.1,-2.87,-3.91,386,330,392,347,256
318,0.39,0.84,0.4,1.28,-2.93,-2.44,384,335,394,350,261
319,0.44,0.82,0.4,0.0,-3.91,-1.16,388,330,395,345,257
320,0.37,0.84,0.42,-1.53,-2.26,-2.56,388,343,397,350,256
321,0.38,0.86,0.42,1.4,-3.66,-3.72,382,337,395,350,257
322,0.4,0.84,0.41,1.1,-3.3,-3.78,383,339,396,352,258
323,0.39,0.83,0.42,-1.95,-2.2,-1.95,384,336,400,351,257
324,0.38,0.83,0.41,-0.18,-1.59,-3.05,387,339,398,369,258
325,0.37,0.84,0.42,3.48,-2.08,-5.0,385,336,396,352,258
326,0.38,0.84,0.4,-1.77,-2.26,-0.67,387,341,398,356,256
327,0.37,0.83,0.4,0.18,-4.21,-2.08,385,340,397,352,256
328,0.39,0.85,0.41,-1.22,-2.93,-1.22,383,335,399,353,265
329,0.41,0.85,0.42,-2.87,-3.05,1.83,390,339,397,355,259
330,0.39,0.83,0.42,-1.34,-3.78,-2.62,389,342,395,352,258
331,0.38,0.83,0.41,-0.06,-3.23,-4.88,389,337,398,355,253
332,0.39,0.83,0.4,6.29,-1.65,-3.97,388,347,398,352,253
333,0.39,0.83,0.4,-2.38,-4.7,-1.1,386,339,398,352,258
334,0.39,0.82,0.41,0.49,-2.01,-1.71,391,346,399,351,260
335,0.4,0.82,0.4,4.46,-3.23,-3.36,391,353,397,354,257
336,0.39,0.85,0.41,-0.98,-3.48,-1.65,389,343,396,356,258
337,0.39,0.83,0.41,0.98,-0.98,-2.69,390,343,399,354,258
338,0.39,0.83,0.41,2.44,-1.28,-3.97,395,345,397,354,260
339,0.4,0.83,0.41,0.37,-4.64,-2.99,395,343,408,351,260
340,0.38,0.81,0.41,1.77,-3.05,-1.28,391,347,399,355,258
341,0.39,0.84,0.41,1.59,-3.23,-4.03,395,342,397,355,258
342,0.37,0.83,0.42,0.31,-4.46,-3.85,391,343,396,359,260
343,0.39,0.84,0.41,-1.53,-3.05,-3.05,391,345,398,358,259
344,0.39,0.83,0.42,-0.55,-3.78,-1.71,386,345,396,358,258
345,0.39,0.83,0.41,-3.36,-4.15,-2.26,393,344,398,357,257
346,0.37,0.83,0.41,0.12,-2.14,-2.08,387,347,399,357,261
347,0.38,0.83,0.42,0.73,-3.6,-2.5,392,346,395,358,261
348,0.42,0.84,0.39,10.44,-11.35,12.08,397,348,397,355,257
349,0.44,0.82,0.4,-2.81,-4.88,-0.55,398,353,398,358,258
350,0.41,0.8,0.4,-1.77,4.15,-4.7,404,354,397,357,251
351,0.42,0.81,0.4,-3.97,-4.88,-3.6,402,353,400,360,253
352,0.43,0.8,0.39,0.12,-4.33,-3.23,405,352,393,358,256
353,0.43,0.8,0.39,-1.95,-2.56,-3.23,399,354,392,357,256
354,0.43,0.81,0.4,0.79,-1.22,-3.11,405,356,393,358,259
355,0.44,0.8,0.4,-1.34,-3.42,-1.65,405,358,394,354,260
356,0.45,0.8,0.4,-0.18,-2.69,-2.2,403,351,394,358,256
357,0.42,0.81,0.4,2.69,-2.99,-3.05,402,359,394,358,260
358,0.44,0.8,0.41,3.6,-3.85,-1.65,405,356,393,359,272
359,0.45,0.79,0.39,1.89,-2.69,-2.81,400,355,391,356,253
360,0.43,0.8,0.4,1.28,-3.91,-3.11,402,360,394,358,279
361,0.42,0.8,0.41,0.0,-2.08,-3.66,404,359,396,362,257
362,0.41,0.82,0.4,4.03,-0.18,-6.29,403,327,398,358,261
363,0.42,0.82,0.4,-1.71,-4.03,-2.32,405,329,396,356,259
364,0.42,0.84,0.4,1.4,-3.54,-5.13,403,324,394,352,260
365,0.42,0.83,0.42,2.38,-3.23,-3.6,399,325,404,353,254
366,0.41,0.81,0.42,-0.79,-2.81,-2.14,400,332,398,347,254
367,0.41,0.81,0.42,0.85,-2.38,-3.36,395,326,393,354,255
368,0.41,0.81,0.44,0.31,-2.26,-3.54,397,323,397,356,255
369,0.4,0.81,0.43,1.28,-2.14,-3.42,397,323,399,353,254
370,0.41,0.82,0.42,0.67,-3.05,-2.26,399,327,397,351,272
371,0.4,0.82,0.43,0.06,-3.48,-2.5,396,327,396,355,259
372,0.39,0.82,0.42,-1.1,-2.81,-2.26,398,328,399,354,258
373,0.38,0.81,0.42,-1.16,-2.99,-1.1,397,329,396,355,259
374,0.4,0.81,0.42,-0.79,-2.81,-2.56,397,328,397,351,254
375,0.39,0.83,0.43,-15.26,-2.99,-3.72,397,333,396,365,258
376,0.34,0.8,0.46,5.37,-2.81,0.92,393,331,398,357,256
377,0.35,0.81,0.41,5.25,-5.92,-1.4,394,331,398,355,258
378,0.36,0.84,0.43,-2.38,-1.46,-1.77,396,347,395,355,258
379,0.33,0.83,0.43,-0.31,-3.72,-1.1,399,333,398,355,269
380,0.35,0.84,0.42,-1.16,-2.2,-1.89,395,336,399,357,258
381,0.35,0.84,0.43,-0.79,-2.5,-1.71,400,333,398,353,255
382,0.35,0.84,0.42,-0.43,-2.75,-1.71,399,334,401,357,259
383,0.36,0.84,0.41,2.32,-2.56,-4.03,399,334,400,356,256
384,0.35,0.83,0.4,2.01,-2.38,-3.72,394,334,402,354,256
385,0.36,0.84,0.42,-0.55,-2.32,-2.87,397,334,400,355,254
386,0.35,0.84,0.43,-0.37,-1.28,-3.05,399,334,400,356,258
387,0.36,0.84,0.43,0.12,-2.93,-2.44,400,338,410,356,257
388,0.36,0.85,0.44,-1.71,-5.8,-0.92,401,334,400,357,256
389,0.37,0.84,0.43,0.18,-4.64,-1.34,396,338,396,356,260
390,0.36,0.84,0.42,0.85,-4.15,-2.44,398,334,400,355,257
391,0.36,0.83,0.42,-0.61,-3.97,-1.71,398,330,400,357,257
392,0.35,0.83,0.43,-1.16,-3.48,-1.4,399,337,398,359,259
393,0.37,0.83,0.42,3.23,-3.36,-0.92,398,331,405,356,256
394,0.37,0.84,0.43,0.92,-3.23,-2.32,399,337,401,358,258
395,0.37,0.84,0.43,1.95,-1.77,-4.21,399,328,399,358,254
396,0.37,0.84,0.43,-0.31,-2.81,-2.26,399,332,400,358,256
397,0.36,0.82,0.42,-0.18,-2.2,-2.08,398,332,399,357,257
398,0.37,0.83,0.42,2.14,-3.11,-3.23,398,337,400,359,259
399,0.36,0.83,0.43,-0.73,-4.33,-2.69,396,336,404,356,260
400,0.36,0.84,0.42,-1.22,-3.6,-1.77,401,348,401,362,266
401,0.36,0.82,0.41,1.04,-3.66,-1.77,399,333,400,357,284
402,0.37,0.84,0.42,1.1,-3.97,-2.75,395,338,399,355,258
403,0.36,0.84,0.43,-0.43,-3.3,-1.77,398,339,401,356,257
404,0.36,0.83,0.42,-0.55,-3.6,-1.83,399,350,398,361,261
405,0.37,0.83,0.42,1.34,-2.75,-2.99,395,341,403,356,260
406,0.36,0.84,0.42,1.53,-2.99,-2.62,397,335,403,356,258
407,0.35,0.83,0.42,0.24,-2.87,-2.44,395,341,397,356,260
408,0.34,0.85,0.41,0.31,-2.5,-3.3,399,338,399,356,255
409,0.36,0.85,0.42,0.0,-3.11,-2.44,399,340,396,356,260
410,0.37,0.85,0.42,-0.67,-2.56,-1.95,399,342,401,355,259
411,0.36,0.84,0.42,-0.24,-2.81,-2.44,398,337,398,359,260
412,0.37,0.84,0.42,0.06,-4.09,-2.01,399,341,396,357,259
413,0.36,0.84,0.41,2.26,-3.72,-2.87,398,340,395,354,260
414,0.36,0.84,0.42,-0.06,-2.38,-2.32,394,343,401,353,259
415,0.36,0.84,0.42,0.55,-2.32,-2.75,398,343,398,355,258
416,0.35,0.83,0.41,2.32,-1.77,-4.03,398,338,403,356,259
417,0.35,0.83,0.41,-1.22,-3.54,-2.26,399,338,401,357,260
418,0.36,0.84,0.42,-0.06,-2.99,-1.77,400,335,400,358,257
419,0.36,0.85,0.42,0.73,-1.77,-3.42,400,341,402,357,258
420,0.36,0.84,0.41,1.53,-3.3,-2.99,396,334,400,359,257
421,0.36,0.84,0.42,-0.85,-2.99,-1.83,397,342,398,357,260
422,0.37,0.84,0.42,0.24,-4.64,-2.01,392,339,402,355,259
423,0.36,0.84,0.42,-0.37,-2.14,-2.14,396,338,400,356,266
424,0.35,0.84,0.42,-1.16,-3.48,-1.46,398,339,400,358,260
425,0.35,0.84,0.41,0.12,-3.66,-2.38,395,343,399,359,260
426,0.35,0.85,0.43,-0.85,-5.31,-0.12,393,336,401,359,258
427,0.37,0.85,0.42,1.4,-2.44,-2.62,399,343,398,359,263
428,0.37,0.84,0.41,-0.18,-4.27,-1.65,393,339,399,359,255
429,0.36,0.84,0.39,4.7,-2.44,-3.3,400,342,402,356,259
430,0.35,0.83,0.4,-0.12,-2.81,-3.78,400,346,401,353,260
431,0.35,0.82,0.4,0.55,-2.62,-3.42,395,341,401,368,259
432,0.34,0.84,0.41,-2.38,-1.53,-2.32,397,345,399,356,260
433,0.34,0.85,0.42,0.43,-3.11,-1.83,399,346,402,357,257
434,0.34,0.85,0.41,-1.46,-3.05,-1.71,399,341,401,361,253
435,0.35,0.83,0.4,0.24,-2.26,-3.11,397,341,399,360,258
436,0.35,0.85,0.42,-1.53,-2.62,-1.95,399,342,400,357,260
437,0.34,0.85,0.42,-1.16,-2.62,-2.81,394,343,398,355,258
438,0.36,0.85,0.42,0.43,-2.56,-0.67,395,344,417,357,256
439,0.34,0.85,0.41,0.61,-2.99,-2.38,399,340,403,357,257
440,0.34,0.84,0.41,0.79,-2.44,-2.5,393,347,400,355,260
441,0.35,0.84,0.41,2.87,-3.42,-2.93,398,346,397,356,260
442,0.34,0.84,0.41,-4.94,-4.33,-0.24,397,337,400,358,260
443,0.34,0.84,0.42,-1.77,-3.66,-1.04,396,338,402,354,260
444,0.36,0.85,0.41,2.5,-4.03,-3.11,398,341,402,361,258
445,0.34,0.83,0.4,-0.37,-1.77,-3.23,393,345,401,357,257
446,0.35,0.86,0.41,0.37,-3.3,-2.44,398,342,400,359,261
447,0.34,0.84,0.4,-0.85,-3.17,-3.23,398,342,401,357,261
448,0.35,0.85,0.4,-0.37,-3.42,-5.13,397,346,398,358,256
449,0.35,0.85,0.41,1.34,-3.17,-2.38,396,348,399,361,255
450,0.34,0.84,0.41,-0.43,-3.78,-0.98,398,342,413,358,261
451,0.36,0.84,0.4,-0.43,-3.78,-0.98,398,339,398,356,257
452,0.36,0.84,0.4,1.04,-4.27,-1.83,397,348,402,357,260
453,0.36,0.84,0.4,4.76,-4.39,-3.36,398,343,398,356,299
454,0.35,0.85,0.41,-0.49,-2.32,-2.99,397,345,395,356,256
455,0.35,0.84,0.41,-1.1,-3.66,-2.2,396,345,399,357,259
456,0.36,0.84,0.4,1.65,-2.01,-3.54,397,344,401,371,255
457,0.36,0.84,0.4,1.53,-2.14,-3.05,399,346,402,357,261
458,0.36,0.84,0.42,1.1,-2.5,-2.62,400,343,400,356,255
459,0.37,0.84,0.41,1.34,-4.15,-2.32,395,347,399,357,258
460,0.37,0.84,0.41,2.14,-3.42,-3.36,394,349,396,359,258
461,0.35,0.84,0.44,-1.04,-3.48,-2.69,399,346,399,356,259
462,0.36,0.83,0.41,-1.04,-2.69,-2.62,397,344,397,354,260
463,0.36,0.83,0.41,2.62,-2.56,-4.09,397,340,399,360,261
464,0.34,0.82,0.41,1.04,-1.65,-1.71,398,345,397,359,260
465,0.36,0.83,0.43,-0.55,-0.49,-2.87,397,344,400,355,270
466,0.35,0.83,0.43,-0.31,-1.46,-2.99,394,349,397,359,261
467,0.37,0.83,0.43,1.65,-3.05,-2.62,398,356,394,356,256
468,0.37,0.83,0.43,-0.98,-2.38,-2.14,392,345,398,357,262
469,0.36,0.83,0.43,2.99,-1.95,-4.76,397,343,398,356,261
470,0.36,0.84,0.43,-0.31,-2.26,-3.3,397,344,398,358,258
471,0.36,0.84,0.44,-0.43,-1.77,-2.44,397,339,400,358,259
472,0.36,0.83,0.43,1.16,-2.93,-2.75,396,346,398,361,258
473,0.36,0.84,0.43,1.53,-2.81,-2.99,397,346,395,357,261
474,0.36,0.83,0.43,0.31,-2.32,-2.38,397,340,399,354,259
475,0.36,0.84,0.44,-0.85,-2.32,-2.14,398,348,399,359,258
476,0.37,0.84,0.43,-0.79,-1.89,-2.5,393,345,394,359,259
477,0.37,0.83,0.43,1.34,-3.23,-2.5,395,340,398,355,260
478,0.38,0.83,0.42,0.31,-2.38,-2.87,399,342,402,359,259
479,0.37,0.83,0.43,0.49,-2.99,-3.42,392,344,396,361,259
480,0.36,0.83,0.42,0.37,-4.15,-1.16,397,342,399,357,259
481,0.35,0.82,0.42,1.04,-3.42,-2.44,395,345,401,357,261
482,0.36,0.84,0.42,0.92,-3.42,-2.14,398,340,398,359,262
483,0.36,0.84,0.43,1.34,-3.17,-2.32,394,342,398,357,253
484,0.37,0.86,0.43,-0.49,-4.27,-1.4,394,345,400,354,258
485,0.37,0.86,0.48,-0.18,2.14,1.16,400,341,400,359,257
486,0.43,0.81,0.49,-13.61,4.46,5.62,401,345,398,358,259
487,0.37,0.71,0.59,-0.55,5.43,0.18,395,345,398,352,257
488,0.54,0.62,0.57,-4.94,-12.08,3.85,401,343,401,352,256
489,0.64,0.6,0.48,0.37,1.59,35.16,399,337,404,356,253
490,0.52,0.56,0.54,7.45,-5.62,-7.93,397,342,399,357,269
491,0.66,0.62,0.54,4.33,-7.39,7.93,396,339,399,357,259
492,0.61,0.61,0.5,0.49,-5.55,-11.78,399,345,415,356,256
493,0.66,0.64,0.51,1.04,-3.66,2.26,400,338,400,353,257
494,0.63,0.54,0.48,4.39,-7.26,-3.54,400,342,400,352,257
495,0.63,0.61,0.52,10.86,-1.46,-12.51,398,343,401,355,286
496,0.66,0.61,0.46,-2.62,-3.17,3.05,397,343,401,355,258
497,0.67,0.61,0.47,-3.91,-1.34,-4.58,400,344,401,360,255
498,0.64,0.59,0.46,-0.61,-8.36,-3.97,397,347,400,361,260
499,0.67,0.59,0.47,-1.71,-4.21,-0.67,398,347,399,357,260
500,0.66,0.59,0.48,1.95,-3.05,-1.83,400,344,400,359,258
501,0.66,0.59,0.49,0.73,-3.05,-2.44,399,339,399,358,260
502,0.65,0.56,0.47,-12.39,-12.21,5.98,415,298,396,329,251
503,0.54,0.64,0.59,6.65,-13.98,9.09,420,303,401,337,253
504,0.55,0.6,0.55,-0.12,3.11,-0.92,418,303,401,339,253
505,0.54,0.65,0.52,19.04,7.87,-12.76,414,307,402,334,250
506,0.59,0.67,0.52,8.0,-11.66,-1.53,415,309,407,324,249
507,0.56,0.75,0.49,24.54,-8.91,5.86,414,307,402,320,247
508,0.43,0.76,0.41,1.46,-12.02,5.19,417,313,405,321,249
509,0.53,0.7,0.47,-12.94,-6.84,1.04,417,315,402,323,249
510,0.5,0.7,0.49,-1.71,-6.47,-3.3,413,313,403,324,250
511,0.54,0.67,0.47,-6.41,-1.95,2.62,418,316,405,327,248
512,0.61,0.68,0.44,5.43,4.88,-3.48,413,312,402,326,248
513,0.62,0.68,0.46,3.17,-1.77,-3.85,415,313,401,323,248
514,0.56,0.67,0.49,-2.56,-0.98,-0.12,411,317,408,329,250
515,0.56,0.65,0.47,-3.17,-0.79,-1.04,416,321,401,330,247
516,0.6,0.65,0.51,-3.05,-4.64,-0.49,413,314,402,329,247
517,0.57,0.65,0.52,-2.56,-5.0,2.14,416,321,406,331,251
518,0.57,0.63,0.49,-0.37,-2.62,-3.17,415,320,403,328,249
519,0.6,0.66,0.5,1.16,-3.42,-3.97,418,323,401,328,252
520,0.58,0.65,0.5,2.2,-2.81,-6.23,417,329,403,330,251
521,0.55,0.68,0.51,1.1,-1.28,-4.09,415,317,403,328,246
522,0.55,0.67,0.51,2.56,-4.46,1.1,417,315,406,328,249
523,0.56,0.65,0.51,-1.59,-4.15,-0.43,415,322,416,330,249
524,0.57,0.66,0.52,0.55,-0.73,-0.98,416,321,405,338,239
525,0.57,0.65,0.51,1.95,-4.03,-5.19,418,320,403,336,252
526,0.58,0.64,0.5,4.33,-2.62,0.73,413,320,401,329,249
527,0.57,0.65,0.51,-0.61,1.04,-1.53,417,324,404,336,251
528,0.6,0.64,0.52,-1.34,-0.12,-3.78,418,315,404,329,248
529,0.59,0.63,0.53,0.12,-3.54,1.59,420,321,403,329,248
530,0.57,0.61,0.54,3.97,-3.97,-4.82,415,319,401,329,246
531,0.56,0.64,0.54,-1.89,-2.08,-3.6,418,318,404,331,251
532,0.56,0.62,0.54,-0.79,-4.52,-4.15,415,320,405,329,250
533,0.58,0.62,0.54,-0.24,-5.31,0.06,415,323,405,330,250
534,0.58,0.62,0.54,-0.67,-0.79,-0.43,417,316,403,340,252
535,0.57,0.62,0.55,4.09,-2.26,-3.36,420,321,403,339,251
536,0.6,0.63,0.54,-2.56,0.31,-0.85,418,315,406,333,251
537,0.61,0.58,0.54,1.1,-9.52,0.0,418,316,402,328,250
538,0.61,0.7,0.6,-5.13,17.64,-15.2,415,322,407,331,252
539,0.64,0.61,0.57,-0.67,-5.49,-0.18,419,321,403,336,246
540,0.6,0.58,0.58,2.62,-6.53,-4.52,419,327,407,336,249
541,0.64,0.59,0.59,8.42,-0.06,-6.04,419,314,403,334,249
542,0.59,0.62,0.51,1.89,-0.98,-5.19,421,321,402,336,247
543,0.6,0.63,0.53,4.03,-0.43,-4.52,416,323,402,335,250
544,0.59,0.65,0.55,0.43,-1.71,-0.43,421,323,400,333,278
545,0.64,0.67,0.53,4.58,-3.3,-1.83,420,324,402,336,253
546,0.55,0.62,0.52,18.8,-2.99,-18.86,417,321,402,332,253
547,0.6,0.69,0.46,4.09,-6.23,-1.22,417,322,404,337,250
548,0.54,0.65,0.45,11.47,-15.44,1.71,415,324,402,338,250
549,0.58,0.75,0.42,-1.59,-7.75,-5.74,414,326,406,337,278
550,0.59,0.74,0.4,5.62,0.06,-5.07,419,323,405,339,251
551,0.62,0.71,0.36,6.23,-0.92,-1.22,421,321,406,336,250
552,0.61,0.71,0.35,3.78,-1.77,-3.72,420,319,411,338,250
553,0.62,0.71,0.35,-2.93,-1.83,-2.56,415,324,404,343,251
554,0.62,0.71,0.38,1.46,-0.79,-3.78,420,328,406,342,251
555,0.57,0.68,0.4,5.0,-2.81,2.75,426,320,403,337,251
556,0.61,0.68,0.39,5.25,0.24,-5.13,421,327,403,337,250
557,0.58,0.72,0.33,-6.53,-4.15,5.62,415,328,399,339,254
558,0.6,0.7,0.36,3.17,-3.11,0.98,420,324,403,337,264
559,0.59,0.71,0.36,1.53,-2.62,-0.24,420,331,400,340,254
560,0.65,0.68,0.35,-0.98,-5.92,0.0,414,325,401,340,252
561,0.63,0.7,0.36,3.85,-2.38,-2.32,420,327,407,337,252
562,0.64,0.67,0.35,5.62,-5.19,-0.98,418,325,404,341,255
563,0.6,0.69,0.32,17.7,-11.35,9.03,420,325,401,341,255
564,0.65,0.69,0.31,3.85,-2.81,-9.34,417,324,402,342,251
565,0.61,0.66,0.32,-4.76,-2.87,-2.01,419,334,403,339,253
566,0.61,0.72,0.33,1.4,-2.5,-6.59,418,326,399,345,254
567,0.61,0.73,0.31,-0.31,-0.79,-4.27,419,332,403,342,249
568,0.6,0.82,0.39,-13.37,-1.71,-4.15,417,331,402,344,254
569,0.59,0.78,0.37,2.69,-2.26,-6.77,416,329,406,345,252
570,0.6,0.75,0.34,0.0,-4.52,-5.43,421,322,405,341,254
571,0.57,0.73,0.34,-1.34,-4.33,-2.08,420,330,403,343,252
572,0.58,0.73,0.33,1.53,-3.97,-0.98,418,330,403,340,255
573,0.59,0.74,0.32,3.97,-4.64,-2.93,419,336,407,332,253
574,0.59,0.75,0.31,1.34,-2.87,-2.01,419,328,400,334,251
575,0.58,0.76,0.32,2.14,-1.95,-3.36,419,332,404,331,254
576,0.58,0.73,0.3,-2.93,-5.0,0.18,421,329,402,338,252
577,0.61,0.74,0.31,2.5,-1.77,0.49,418,329,404,333,252
578,0.6,0.71,0.3,-1.04,-5.86,-0.37,420,327,402,338,255
579,0.61,0.73,0.31,0.43,-2.93,-2.38,419,329,414,332,254
580,0.61,0.73,0.32,-0.98,-3.78,-1.83,421,329,401,336,260
581,0.63,0.73,0.3,1.22,-2.01,-1.83,415,336,399,339,252
582,0.62,0.72,0.3,0.73,-4.15,-4.76,420,329,399,337,253
583,0.62,0.75,0.28,0.37,-5.07,-4.76,419,332,400,339,256
584,0.6,0.76,0.27,2.56,-2.44,-1.04,420,329,402,337,256
585,0.62,0.74,0.25,-2.26,-4.09,-1.59,421,329,403,335,253
586,0.61,0.75,0.26,2.87,-3.17,-5.74,416,330,403,338,257
587,0.6,0.75,0.26,0.92,-3.66,-3.85,420,328,401,348,254
588,0.62,0.75,0.27,2.14,-0.24,-1.95,416,333,402,339,253
589,0.55,0.74,0.28,-9.28,-0.98,-0.85,420,329,403,340,254
590,0.6,0.77,0.3,-0.37,-3.85,0.31,420,325,402,338,252
591,0.6,0.76,0.25,4.58,-3.72,2.75,421,326,403,340,254
592,0.57,0.77,0.32,0.55,-0.98,0.31,419,330,401,341,254
593,0.61,0.77,0.31,6.29,3.91,-6.35,421,335,403,336,254
594,0.59,0.73,0.31,-0.92,-2.2,-7.08,417,336,403,341,252
595,0.54,0.73,0.33,-2.93,-7.75,0.0,416,332,404,342,256
596,0.62,0.75,0.32,-2.44,-9.64,-1.1,415,332,406,344,256
597,0.6,0.7,0.31,1.53,-4.94,-0.18,417,327,405,345,249
598,0.61,0.71,0.29,-0.61,-4.7,-1.59,423,327,406,346,250
599,0.63,0.69,0.3,-5.25,-4.58,-1.1,422,332,402,345,263
600,0.62,0.7,0.34,-0.92,-3.05,-1.71,419,336,404,348,255
601,0.66,0.75,0.34,3.6,3.6,-2.99,420,337,406,348,259
602,0.57,0.75,0.31,4.21,-2.38,-10.62,422,337,404,353,256
603,0.67,0.71,0.32,-1.59,6.35,-4.64,421,332,402,347,256
604,0.62,0.71,0.27,-2.62,-1.83,-8.0,416,329,403,343,253
605,0.6,0.76,0.32,-9.4,-9.58,1.59,415,337,406,345,255
606,0.6,0.74,0.35,13.98,-2.14,-8.42,414,335,402,342,257
607,0.58,0.73,0.3,-1.4,-2.26,-6.71,412,335,403,339,254
608,0.61,0.77,0.28,16.05,-3.17,-0.06,414,339,402,343,255
609,0.55,0.78,0.27,-0.43,-4.33,-7.75,415,335,401,340,254
610,0.52,0.8,0.27,1.77,0.06,-5.98,420,331,405,340,256
611,0.55,0.82,0.27,-5.55,-3.66,4.03,422,337,401,344,256
612,0.56,0.79,0.28,-2.14,-5.49,1.65,421,337,406,344,256
613,0.57,0.76,0.3,0.49,-4.03,0.0,422,334,406,339,256
614,0.58,0.75,0.29,0.92,-1.95,-1.77,422,334,408,342,255
615,0.58,0.76,0.32,1.22,-0.49,-4.64,423,339,405,344,256
616,0.57,0.76,0.31,4.27,-6.59,0.85,420,345,405,345,257
617,0.58,0.75,0.3,1.77,-2.93,-3.48,423,335,405,346,262
618,0.58,0.77,0.31,1.04,-2.75,-0.73,420,336,404,346,255
619,0.6,0.75,0.3,-3.97,-6.71,0.06,418,342,405,343,258
620,0.59,0.76,0.29,2.75,-2.99,-2.01,419,343,408,345,257
621,0.58,0.75,0.29,-1.71,-3.54,-3.42,419,339,403,346,257
622,0.59,0.76,0.3,2.75,-1.77,-5.19,419,344,404,345,255
623,0.59,0.75,0.3,-2.44,-2.56,-5.43,421,338,404,346,258
624,0.58,0.76,0.32,2.44,-2.56,-3.72,420,340,408,347,258
625,0.57,0.76,0.3,2.38,-4.21,-3.48,416,344,404,345,257
626,0.58,0.77,0.31,-0.49,-3.6,-2.26,417,339,404,346,255
627,0.57,0.76,0.31,-0.24,-2.69,-2.56,420,340,403,347,257
628,0.57,0.78,0.31,0.85,-3.05,-3.42,416,336,402,349,259
629,0.57,0.75,0.32,-0.73,-2.2,-1.4,418,335,402,346,257
630,0.53,0.77,0.33,-1.65,-0.43,-5.0,423,333,404,343,254
631,0.57,0.76,0.31,-0.67,-3.48,-2.01,421,339,407,351,256
632,0.57,0.77,0.32,-1.65,-4.94,-4.27,420,340,405,346,255
633,0.59,0.76,0.32,0.37,-3.72,-1.46,417,333,407,345,257
634,0.56,0.77,0.33,-1.1,-2.56,2.32,420,338,407,339,257
635,0.56,0.76,0.31,0.98,-3.54,-2.5,420,329,407,336,257
636,0.57,0.76,0.31,-0.55,-1.4,-1.59,421,335,406,343,257
637,0.59,0.74,0.31,-4.15,-2.69,4.88,420,336,407,345,256
638,0.58,0.76,0.31,3.97,-6.65,5.92,421,343,404,342,258
639,0.58,0.75,0.31,-3.05,-2.62,-4.09,421,341,404,350,256
640,0.58,0.75,0.29,-3.05,-5.19,0.31,419,337,402,344,255
641,0.55,0.75,0.32,3.54,-7.32,4.15,422,333,405,342,257
642,0.6,0.74,0.26,0.61,-2.5,-4.33,420,338,405,344,256
643,0.6,0.76,0.28,0.85,-1.71,-3.36,421,344,405,340,257
644,0.59,0.75,0.29,-1.89,-3.17,-0.92,416,339,405,341,256
645,0.6,0.75,0.3,0.18,-4.15,0.43,421,356,407,340,256
646,0.59,0.76,0.29,4.46,0.06,-6.04,420,344,407,347,255
647,0.6,0.75,0.26,1.77,-1.71,-5.98,421,341,406,343,273
648,0.58,0.75,0.3,-0.92,-2.01,-5.37,418,337,408,344,255
649,0.58,0.76,0.3,0.18,-2.01,-2.56,419,339,406,344,257
650,0.58,0.77,0.3,-0.73,-2.75,-2.87,418,347,407,347,258
651,0.57,0.78,0.3,2.62,-1.28,-2.32,422,330,407,346,258
652,0.56,0.75,0.31,1.77,-4.76,-3.05,420,326,408,343,257
653,0.59,0.77,0.31,3.48,-2.75,-1.53,420,322,404,342,257
654,0.58,0.76,0.31,1.22,-3.17,-3.05,420,330,404,341,258
655,0.58,0.76,0.31,0.79,-2.62,-2.44,419,325,413,343,257
656,0.59,0.77,0.3,1.22,-3.17,-1.16,420,325,405,346,256
657,0.59,0.75,0.3,0.73,-4.88,-2.62,417,330,404,344,254
658,0.58,0.75,0.28,0.79,-3.11,-2.81,419,331,405,344,258
659,0.6,0.76,0.3,2.62,-3.11,-1.28,421,332,409,346,255
660,0.59,0.74,0.3,-0.31,-5.07,-0.55,422,332,407,346,254
661,0.61,0.74,0.3,0.67,-1.16,-2.44,424,324,405,350,256
662,0.61,0.72,0.31,-1.77,-3.48,0.67,420,327,407,345,255
663,0.63,0.75,0.3,3.42,-2.2,-4.58,421,328,407,346,255
664,0.63,0.75,0.3,3.36,0.18,-5.55,418,330,402,348,258
665,0.62,0.74,0.33,1.53,-4.88,0.18,420,333,401,345,258
666,0.62,0.75,0.3,1.77,-1.77,-3.66,416,334,405,346,259
667,0.64,0.74,0.29,1.4,-2.56,-2.01,420,333,402,348,258
668,0.61,0.74,0.31,-2.62,-2.2,-3.36,420,333,401,347,255
669,0.62,0.74,0.31,0.55,-3.23,-3.48,416,328,404,347,256
670,0.62,0.73,0.3,4.88,-4.21,-1.65,420,336,405,346,262
671,0.63,0.71,0.31,-0.18,-1.95,-5.92,420,336,402,349,257
672,0.58,0.76,0.31,6.35,-3.54,-9.95,419,337,404,346,255
673,0.52,0.8,0.33,13.06,2.62,-19.71,419,328,406,349,261
674,0.25,0.92,0.21,-18.01,10.93,-34.85,417,333,412,345,255
675,0.35,0.91,0.39,8.42,-17.33,14.53,417,330,404,345,253
676,0.51,0.76,0.26,-4.39,0.92,-6.77,418,325,403,343,256
677,0.44,0.91,0.37,-4.46,-1.53,4.82,419,327,404,343,254
678,0.42,0.75,0.34,-0.61,1.16,-1.83,415,332,403,346,258
679,0.43,0.8,0.35,-4.58,0.79,-4.76,419,346,404,347,256
680,0.39,0.85,0.39,2.38,-1.22,-4.21,416,333,405,346,268
681,0.41,0.82,0.38,-1.59,-2.5,0.79,418,337,402,350,256
682,0.36,0.78,0.34,-4.52,0.79,-2.38,421,329,401,346,255
683,0.43,0.85,0.38,1.4,-4.46,-2.81,421,334,403,346,257
684,0.4,0.83,0.38,-0.61,-3.66,-0.85,418,332,403,344,255
685,0.38,0.8,0.38,-0.12,-2.75,-2.81,418,335,401,347,254
686,0.38,0.82,0.37,11.05,-5.49,4.82,421,330,404,350,255
687,0.39,0.83,0.37,0.24,-3.54,-2.38,418,336,403,349,259
688,0.44,0.82,0.35,0.73,-2.99,-0.73,409,333,407,349,258
689,0.45,0.83,0.35,-1.83,-4.33,-2.93,419,335,406,354,256
690,0.44,0.83,0.36,1.22,-4.88,-4.21,416,341,400,351,256
691,0.41,0.84,0.4,-0.67,-0.67,-5.13,416,333,403,349,259
692,0.39,0.82,0.41,2.44,-6.1,1.28,418,343,404,343,258
693,0.38,0.78,0.44,-6.59,-6.59,5.8,418,340,406,351,266
694,0.4,0.84,0.41,-6.23,-6.77,2.01,414,338,404,348,256
695,0.38,0.82,0.42,-3.72,-2.01,-0.37,417,336,406,344,254
696,0.37,0.82,0.44,-1.65,-2.38,-5.49,419,337,407,350,256
697,0.38,0.82,0.43,-2.75,-5.55,-0.92,413,336,403,349,259
698,0.38,0.81,0.43,-1.16,-4.82,-1.1,417,340,400,352,267
699,0.39,0.81,0.42,0.55,-3.48,-0.98,414,346,404,350,254
700,0.38,0.82,0.42,-2.14,-3.23,-4.03,414,338,407,351,257
701,0.39,0.83,0.44,3.05,-7.75,-2.26,420,346,402,349,249
702,0.37,0.84,0.44,-1.65,-3.11,0.24,416,342,417,347,257
703,0.41,0.81,0.41,1.04,-5.31,-3.6,418,338,403,349,255
704,0.39,0.81,0.41,4.03,-0.06,-2.99,417,342,404,350,259
705,0.37,0.82,0.4,0.18,-2.93,-1.34,413,344,401,349,253
706,0.37,0.86,0.42,-6.9,6.04,-11.47,419,348,398,356,251
707,0.37,0.82,0.4,-1.22,2.08,-4.94,412,350,401,352,256
708,0.39,0.83,0.41,-0.67,-5.62,-2.26,415,350,400,350,255
709,0.38,0.83,0.4,1.4,-2.26,-8.06,416,345,402,350,255
710,0.38,0.81,0.4,0.79,-1.89,-5.55,413,352,399,349,258
711,0.39,0.83,0.42,1.4,-3.91,-3.97,419,345,402,352,257
712,0.5,0.85,0.53,-27.53,18.68,-5.68,418,341,398,353,258
713,0.43,0.6,0.51,-2.26,0.31,-5.37,417,349,402,352,255
714,0.45,0.69,0.52,13.06,-13.73,3.66,415,342,402,350,256
715,0.55,0.82,0.49,7.32,-7.2,-0.61,417,336,400,349,258
716,0.44,0.74,0.47,5.74,-1.89,-5.43,422,334,401,350,256
717,0.44,0.78,0.45,0.92,-3.97,-1.71,416,341,400,353,258
718,0.43,0.79,0.46,10.8,-1.71,1.95,415,343,405,348,254
719,0.43,0.79,0.44,-0.18,0.12,-0.18,418,340,402,348,258
720,0.45,0.78,0.45,-0.49,-3.54,-1.28,416,344,398,352,255
721,0.43,0.76,0.47,1.95,-6.35,-4.33,415,345,401,349,260
722,0.42,0.78,0.48,2.56,-3.3,-2.2,413,342,400,356,256
723,0.46,0.79,0.47,0.18,-4.82,-0.98,414,348,402,351,256
724,0.46,0.77,0.44,1.22,-3.42,-4.88,413,345,404,352,267
725,0.45,0.78,0.44,0.73,-2.62,-3.11,418,345,404,350,271
726,0.44,0.79,0.44,4.15,-1.95,-4.64,413,349,403,352,255
727,0.43,0.78,0.44,-1.4,-2.56,-2.81,420,346,404,344,257
728,0.41,0.77,0.46,-2.2,-2.32,-3.6,417,341,402,356,257
729,0.43,0.81,0.45,-1.1,-2.75,-1.59,417,325,401,350,260
730,0.43,0.8,0.46,3.54,-3.23,-5.0,416,321,397,350,257
731,0.42,0.8,0.44,2.2,-1.89,-4.52,416,317,397,343,254
732,0.41,0.79,0.44,4.39,-3.42,-4.64,419,317,395,346,255
733,0.4,0.8,0.44,1.53,-2.62,-3.42,410,323,399,343,256
734,0.4,0.81,0.46,0.49,-4.15,-2.75,411,326,398,350,257
735,0.4,0.81,0.46,-0.37,-1.28,-4.15,409,329,398,347,253
736,0.41,0.81,0.44,0.49,-1.65,-4.33,412,330,396,346,253
737,0.39,0.81,0.45,-4.7,-0.49,-2.2,411,324,387,346,252
738,0.4,0.8,0.46,2.2,-2.93,-2.93,409,317,389,342,252
739,0.39,0.81,0.46,2.5,-2.14,-2.32,410,325,391,346,253
740,0.4,0.82,0.45,1.04,-3.36,-2.75,410,322,391,349,263
741,0.41,0.82,0.45,1.1,-2.69,-2.56,409,322,396,345,255
742,0.4,0.82,0.45,1.53,-2.81,-3.6,408,324,398,347,261
743,0.39,0.82,0.45,-4.15,-3.23,-2.44,407,324,394,349,253
744,0.39,0.81,0.44,-0.18,-2.69,-2.26,406,331,397,350,254
745,0.39,0.8,0.44,-0.43,-2.56,-1.89,406,333,395,347,254
746,0.39,0.8,0.45,-1.28,-2.44,-2.26,406,329,396,350,255
747,0.42,0.82,0.43,4.21,-1.04,-4.15,407,324,398,350,253
748,0.41,0.82,0.45,0.31,-3.48,-2.32,404,331,396,349,253
749,0.39,0.82,0.45,-0.43,-1.46,-4.7,409,324,398,349,257
750,0.4,0.8,0.44,-1.83,-3.66,-0.73,408,333,394,350,254
751,0.41,0.8,0.45,-0.24,-2.08,-1.22,406,324,399,348,254
752,0.4,0.8,0.43,1.04,-1.22,-4.09,404,330,398,351,257
753,0.41,0.82,0.45,-3.11,-3.3,-1.59,406,329,395,346,256
754,0.41,0.81,0.44,-1.95,-3.11,-1.89,406,332,396,352,266
755,0.41,0.82,0.44,0.12,-3.23,-3.11,408,333,396,345,255
756,0.4,0.81,0.44,0.49,-2.62,-2.69,406,330,399,347,253
757,0.4,0.81,0.44,0.24,-3.66,-3.3,406,326,399,349,254
758,0.4,0.81,0.44,2.32,-3.23,-3.11,403,327,395,352,255
759,0.4,0.81,0.44,-1.04,-3.11,-2.2,401,337,400,348,258
760,0.41,0.81,0.44,0.85,-5.19,-2.01,405,334,401,360,252
761,0.41,0.8,0.43,1.34,-2.08,-3.17,405,335,394,351,275
762,0.39,0.8,0.44,-0.98,-3.36,-2.14,405,332,396,351,254
763,0.39,0.8,0.44,0.49,-2.62,-2.75,405,337,401,349,256
764,0.39,0.81,0.45,-0.43,-5.07,-1.46,404,335,398,351,256
765,0.4,0.8,0.45,-1.65,-2.56,-2.14,405,335,399,350,254
766,0.39,0.79,0.46,1.28,-2.62,-2.75,406,336,396,349,257
767,0.4,0.81,0.45,-0.73,-2.93,-2.38,406,337,401,351,252
768,0.39,0.8,0.46,-2.26,-2.99,-1.22,401,341,395,349,254
769,0.41,0.81,0.45,0.98,-4.27,-2.26,404,340,397,352,256
770,0.39,0.8,0.45,-2.32,-1.89,-1.4,402,338,401,350,255
771,0.4,0.79,0.45,1.65,-3.85,-2.81,401,344,400,351,255
772,0.41,0.8,0.45,3.42,-3.36,-3.42,403,343,398,353,254
773,0.4,0.8,0.46,-0.61,-4.09,-1.95,406,341,399,346,252
774,0.4,0.8,0.45,1.59,-3.42,-2.5,403,339,398,347,257
775,0.39,0.81,0.43,-1.34,-2.87,-2.14,399,341,401,351,256
776,0.45,0.82,0.42,8.54,-1.65,-8.48,393,340,396,356,255
777,0.41,0.84,0.44,3.11,-2.75,-2.75,402,337,396,349,257
778,0.41,0.82,0.43,2.44,-1.83,-3.05,401,338,395,350,257
779,0.4,0.81,0.44,0.24,-3.42,-4.33,400,339,397,353,255
780,0.4,0.79,0.43,-2.01,-3.54,-1.34,401,342,393,356,258
781,0.41,0.81,0.44,-0.73,-3.23,-1.53,399,341,396,351,258
782,0.41,0.8,0.43,-3.66,-2.56,-1.89,400,346,396,352,259
783,0.4,0.81,0.43,-0.85,-1.53,-2.5,404,342,396,352,256
784,0.41,0.81,0.44,-1.28,-2.2,-1.65,400,346,397,354,256
785,0.41,0.81,0.44,0.61,-3.42,-2.44,399,342,399,351,256
786,0.41,0.81,0.44,1.95,-3.66,-3.54,400,344,397,358,254
787,0.4,0.8,0.44,-0.43,-3.6,-1.77,396,342,394,352,256
788,0.4,0.81,0.44,1.46,-1.89,-4.33,396,341,396,352,260
789,0.4,0.81,0.44,1.04,-2.99,-2.01,401,341,397,349,259
790,0.4,0.8,0.44,-3.66,-2.87,-2.01,404,341,400,352,256
791,0.4,0.81,0.43,4.33,-1.77,-5.43,401,338,398,353,260
792,0.41,0.82,0.43,4.15,-0.98,-5.74,399,341,402,352,255
793,0.41,0.82,0.45,-3.3,-2.38,-1.65,397,344,395,355,257
794,0.4,0.82,0.44,-3.97,-3.78,-1.04,398,343,411,354,257
795,0.42,0.81,0.46,-0.79,-2.99,-1.22,396,343,398,351,257
796,0.4,0.81,0.45,-0.79,-3.85,-2.69,400,337,398,350,255
797,0.41,0.81,0.45,2.87,-2.62,-1.46,399,342,395,352,256
798,0.43,0.81,0.43,1.95,-2.75,-3.97,394,345,398,351,259
799,0.43,0.79,0.44,3.97,-6.71,-2.81,399,343,403,352,288
800,0.43,0.83,0.46,1.71,-1.83,-2.93,397,346,401,354,258
801,0.43,0.82,0.43,3.72,-3.48,-2.56,395,341,397,352,257
802,0.44,0.8,0.44,-1.59,-4.33,-2.14,396,344,399,356,258
803,0.43,0.79,0.44,-1.22,-2.56,-3.23,397,344,398,356,260
804,0.45,0.81,0.43,5.74,-2.44,-5.62,399,340,400,354,256
805,0.43,0.8,0.42,2.62,-4.09,-4.09,399,341,397,357,259
806,0.4,0.82,0.43,0.73,-2.62,-3.17,396,339,400,356,258
807,0.42,0.82,0.42,0.55,-1.89,-3.17,392,340,402,353,259
808,0.42,0.82,0.42,-0.18,-3.54,-2.69,394,345,399,355,258
809,0.42,0.8,0.42,0.73,-3.85,-2.44,393,342,397,359,257
810,0.4,0.82,0.42,0.18,-2.5,-3.6,396,344,400,355,256
811,0.41,0.83,0.43,0.37,-1.89,-2.26,394,344,399,357,259
812,0.39,0.82,0.44,-1.71,-3.36,0.12,398,342,399,355,257
813,0.41,0.82,0.43,-0.92,-3.36,-1.53,393,346,396,356,260
814,0.42,0.81,0.41,2.99,-3.36,-3.3,395,351,401,354,260
815,0.42,0.81,0.41,0.43,-5.31,-2.01,395,354,406,357,257
816,0.4,0.82,0.4,0.06,-3.17,-2.01,391,345,398,354,260
817,0.4,0.83,0.41,3.11,-3.78,-3.54,386,343,399,355,259
818,0.4,0.83,0.41,0.85,-1.4,-3.05,389,345,398,354,262
819,0.38,0.84,0.41,-1.1,-2.87,-3.91,386,330,392,347,256
820,0.39,0.84,0.4,1.28,-2.93,-2.44,384,335,394,350,261
821,0.44,0.82,0.4,0.0,-3.91,-1.16,388,330,395,345,257
822,0.37,0.84,0.42,-1.53,-2.26,-2.56,388,343,397,350,256
823,0.38,0.86,0.42,1.4,-3.66,-3.72,382,337,395,350,257
824,0.4,0.84,0.41,1.1,-3.3,-3.78,383,339,396,352,258
825,0.39,0.83,0.42,-1.95,-2.2,-1.95,384,336,400,351,257
826,0.38,0.83,0.41,-0.18,-1.59,-3.05,387,339,398,369,258
827,0.37,0.84,0.42,3.48,-2.08,-5.0,385,336,396,352,258
828,0.38,0.84,0.4,-1.77,-2.26,-0.67,387,341,398,356,256
829,0.37,0.83,0.4,0.18,-4.21,-2.08,385,340,397,352,256
830,0.39,0.85,0.41,-1.22,-2.93,-1.22,383,335,399,353,265
831,0.41,0.85,0.42,-2.87,-3.05,1.83,390,339,397,355,259
832,0.39,0.83,0.42,-1.34,-3.78,-2.62,389,342,395,352,258
833,0.38,0.83,0.41,-0.06,-3.23,-4.88,389,337,398,355,253
834,0.39,0.83,0.4,6.29,-1.65,-3.97,388,347,398,352,253
835,0.39,0.83,0.4,-2.38,-4.7,-1.1,386,339,398,352,258
836,0.39,0.82,0.41,0.49,-2.01,-1.71,391,346,399,351,260
837,0.4,0.82,0.4,4.46,-3.23,-3.36,391,353,397,354,257
838,0.39,0.85,0.41,-0.98,-3.48,-1.65,389,343,396,356,258
839,0.39,0.83,0.41,0.98,-0.98,-2.69,390,343,399,354,258
840,0.39,0.83,0.41,2.44,-1.28,-3.97,395,345,397,354,260
841,0.4,0.83,0.41,0.37,-4.64,-2.99,395,343,408,351,260
842,0.38,0.81,0.41,1.77,-3.05,-1.28,391,347,399,355,258
843,0.39,0.84,0.41,1.59,-3.23,-4.03,395,342,397,355,258
844,0.37,0.83,0.42,0.31,-4.46,-3.85,391,343,396,359,260
845,0.39,0.84,0.41,-1.53,-3.05,-3.05,391,345,398,358,259
846,0.39,0.83,0.42,-0.55,-3.78,-1.71,386,345,396,358,258
847,0.39,0.83,0.41,-3.36,-4.15,-2.26,393,344,398,357,257
848,0.37,0.83,0.41,0.12,-2.14,-2.08,387,347,399,357,261
849,0.38,0.83,0.42,0.73,-3.6,-2.5,392,346,395,358,261
850,0.42,0.84,0.39,10.44,-11.35,12.08,397,348,397,355,257
851,0.44,0.82,0.4,-2.81,-4.88,-0.55,398,353,398,358,258
852,0.41,0.8,0.4,-1.77,4.15,-4.7,404,354,397,357,251
853,0.42,0.81,0.4,-3.97,-4.88,-3.6,402,353,400,360,253
854,0.43,0.8,0.39,0.12,-4.33,-3.23,405,352,393,358,256
855,0.43,0.8,0.39,-1.95,-2.56,-3.23,399,354,392,357,256
856,0.43,0.81,0.4,0.79,-1.22,-3.11,405,356,393,358,259
857,0.44,0.8,0.4,-1.34,-3.42,-1.65,405,358,394,354,260
858,0.45,0.8,0.4,-0.18,-2.69,-2.2,403,351,394,358,256
859,0.42,0.81,0.4,2.69,-2.99,-3.05,402,359,394,358,260
860,0.44,0.8,0.41,3.6,-3.85,-1.65,405,356,393,359,272
861,0.45,0.79,0.39,1.89,-2.69,-2.81,400,355,391,356,253
862,0.43,0.8,0.4,1.28,-3.91,-3.11,402,360,394,358,279
863,0.42,0.8,0.41,0.0,-2.08,-3.66,404,359,396,362,257
864,0.41,0.82,0.4,4.03,-0.18,-6.29,403,327,398,358,261
865,0.42,0.82,0.4,-1.71,-4.03,-2.32,405,329,396,356,259
866,0.42,0.84,0.4,1.4,-3.54,-5.13,403,324,394,352,260
867,0.42,0.83,0.42,2.38,-3.23,-3.6,399,325,404,353,254
868,0.41,0.81,0.42,-0.79,-2.81,-2.14,400,332,398,347,254
869,0.41,0.81,0.42,0.85,-2.38,-3.36,395,326,393,354,255
870,0.41,0.81,0.44,0.31,-2.26,-3.54,397,323,397,356,255
871,0.4,0.81,0.43,1.28,-2.14,-3.42,397,323,399,353,254
872,0.41,0.82,0.42,0.67,-3.05,-2.26,399,327,397,351,272
873,0.4,0.82,0.43,0.06,-3.48,-2.5,396,327,396,355,259
874,0.39,0.82,0.42,-1.1,-2.81,-2.26,398,328,399,354,258
875,0.38,0.81,0.42,-1.16,-2.99,-1.1,397,329,396,355,259
876,0.4,0.81,0.42,-0.79,-2.81,-2.56,397,328,397,351,254
877,0.39,0.83,0.43,-15.26,-2.99,-3.72,397,333,396,365,258
878,0.34,0.8,0.46,5.37,-2.81,0.92,393,331,398,357,256
879,0.35,0.81,0.41,5.25,-5.92,-1.4,394,331,398,355,258
880,0.36,0.84,0.43,-2.38,-1.46,-1.77,396,347,395,355,258
881,0.33,0.83,0.43,-0.31,-3.72,-1.1,399,333,398,355,269
882,0.35,0.84,0.42,-1.16,-2.2,-1.89,395,336,399,357,258
883,0.35,0.84,0.43,-0.79,-2.5,-1.71,400,333,398,353,255
884,0.35,0.84,0.42,-0.43,-2.75,-1.71,399,334,401,357,259
885,0.36,0.84,0.41,2.32,-2.56,-4.03,399,334,400,356,256
886,0.35,0.83,0.4,2.01,-2.38,-3.72,394,334,402,354,256
887,0.36,0.84,0.42,-0.55,-2.32,-2.87,397,334,400,355,254
888,0.35,0.84,0.43,-0.37,-1.28,-3.05,399,334,400,356,258
889,0.36,0.84,0.43,0.12,-2.93,-2.44,400,338,410,356,257
890,0.36,0.85,0.44,-1.71,-5.8,-0.92,401,334,400,357,256
891,0.37,0.84,0.43,0.18,-4.64,-1.34,396,338,396,356,260
892,0.36,0.84,0.42,0.85,-4.15,-2.44,398,334,400,355,257
893,0.36,0.83,0.42,-0.61,-3.97,-1.71,398,330,400,357,257
894,0.35,0.83,0.43,-1.16,-3.48,-1.4,399,337,398,359,259
895,0.37,0.83,0.42,3.23,-3.36,-0.92,398,331,405,356,256
896,0.37,0.84,0.43,0.92,-3.23,-2.32,399,337,401,358,258
897,0.37,0.84,0.43,1.95,-1.77,-4.21,399,328,399,358,254
898,0.37,0.84,0.43,-0.31,-2.81,-2.26,399,332,400,358,256
899,0.36,0.82,0.42,-0.18,-2.2,-2.08,398,332,399,357,257
900,0.37,0.83,0.42,2.14,-3.11,-3.23,398,337,400,359,259
901,0.36,0.83,0.43,-0.73,-4.33,-2.69,396,336,404,356,260
902,0.36,0.84,0.42,-1.22,-3.6,-1.77,401,348,401,362,266
903,0.36,0.82,0.41,1.04,-3.66,-1.77,399,333,400,357,284
904,0.37,0.84,0.42,1.1,-3.97,-2.75,395,338,399,355,258
905,0.36,0.84,0.43,-0.43,-3.3,-1.77,398,339,401,356,257
906,0.36,0.83,0.42,-0.55,-3.6,-1.83,399,350,398,361,261
907,0.37,0.83,0.42,1.34,-2.75,-2.99,395,341,403,356,260
908,0.36,0.84,0.42,1.53,-2.99,-2.62,397,335,403,356,258
909,0.35,0.83,0.42,0.24,-2.87,-2.44,395,341,397,356,260
910,0.34,0.85,0.41,0.31,-2.5,-3.3,399,338,399,356,255
911,0.36,0.85,0.42,0.0,-3.11,-2.44,399,340,396,356,260
912,0.37,0.85,0.42,-0.67,-2.56,-1.95,399,342,401,355,259
913,0.36,0.84,0.42,-0.24,-2.81,-2.44,398,337,398,359,260
914,0.37,0.84,0.42,0.06,-4.09,-2.01,399,341,396,357,259
915,0.36,0.84,0.41,2.26,-3.72,-2.87,398,340,395,354,260
916,0.36,0.84,0.42,-0.06,-2.38,-2.32,394,343,401,353,259
917,0.36,0.84,0.42,0.55,-2.32,-2.75,398,343,398,355,258
918,0.35,0.83,0.41,2.32,-1.77,-4.03,398,338,403,356,259
919,0.35,0.83,0.41,-1.22,-3.54,-2.26,399,338,401,357,260
920,0.36,0.84,0.42,-0.06,-2.99,-1.77,400,335,400,358,257
921,0.36,0.85,0.42,0.73,-1.77,-3.42,400,341,402,357,258
922,0.36,0.84,0.41,1.53,-3.3,-2.99,396,334,400,359,257
923,0.36,0.84,0.42,-0.85,-2.99,-1.83,397,342,398,357,260
924,0.37,0.84,0.42,0.24,-4.64,-2.01,392,339,402,355,259
925,0.36,0.84,0.42,-0.37,-2.14,-2.14,396,338,400,356,266
926,0.35,0.84,0.42,-1.16,-3.48,-1.46,398,339,400,358,260
927,0.35,0.84,0.41,0.12,-3.66,-2.38,395,343,399,359,260
928,0.35,0.85,0.43,-0.85,-5.31,-0.12,393,336,401,359,258
929,0.37,0.85,0.42,1.4,-2.44,-2.62,399,343,398,359,263
930,0.37,0.84,0.41,-0.18,-4.27,-1.65,393,339,399,359,255
931,0.36,0.84,0.39,4.7,-2.44,-3.3,400,342,402,356,259
932,0.35,0.83,0.4,-0.12,-2.81,-3.78,400,346,401,353,260
933,0.35,0.82,0.4,0.55,-2.62,-3.42,395,341,401,368,259
934,0.34,0.84,0.41,-2.38,-1.53,-2.32,397,345,399,356,260
935,0.34,0.85,0.42,0.43,-3.11,-1.83,399,346,402,357,257
936,0.34,0.85,0.41,-1.46,-3.05,-1.71,399,341,401,361,253
937,0.35,0.83,0.4,0.24,-2.26,-3.11,397,341,399,360,258
938,0.35,0.85,0.42,-1.53,-2.62,-1.95,399,342,400,357,260
939,0.34,0.85,0.42,-1.16,-2.62,-2.81,394,343,398,355,258
940,0.36,0.85,0.42,0.43,-2.56,-0.67,395,344,417,357,256
941,0.34,0.85,0.41,0.61,-2.99,-2.38,399,340,403,357,257
942,0.34,0.84,0.41,0.79,-2.44,-2.5,393,347,400,355,260
943,0.35,0.84,0.41,2.87,-3.42,-2.93,398,346,397,356,260
944,0.34,0.84,0.41,-4.94,-4.33,-0.24,397,337,400,358,260
945,0.34,0.84,0.42,-1.77,-3.66,-1.04,396,338,402,354,260
946,0.36,0.85,0.41,2.5,-4.03,-3.11,398,341,402,361,258
947,0.34,0.83,0.4,-0.37,-1.77,-3.23,393,345,401,357,257
948,0.35,0.86,0.41,0.37,-3.3,-2.44,398,342,400,359,261
949,0.34,0.84,0.4,-0.85,-3.17,-3.23,398,342,401,357,261
950,0.35,0.85,0.4,-0.37,-3.42,-5.13,397,346,398,358,256
951,0.35,0.85,0.41,1.34,-3.17,-2.38,396,348,399,361,255
952,0.34,0.84,0.41,-0.43,-3.78,-0.98,398,342,413,358,261
953,0.36,0.84,0.4,-0.43,-3.78,-0.98,398,339,398,356,257
954,0.36,0.84,0.4,1.04,-4.27,-1.83,397,348,402,357,260
955,0.36,0.84,0.4,4.76,-4.39,-3.36,398,343,398,356,299
956,0.35,0.85,0.41,-0.49,-2.32,-2.99,397,345,395,356,256
957,0.35,0.84,0.41,-1.1,-3.66,-2.2,396,345,399,357,259
958,0.36,0.84,0.4,1.65,-2.01,-3.54,397,344,401,371,255
959,0.36,0.84,0.4,1.53,-2.14,-3.05,399,346,402,357,261
960,0.36,0.84,0.42,1.1,-2.5,-2.62,400,343,400,356,255
961,0.37,0.84,0.41,1.34,-4.15,-2.32,395,347,399,357,258
962,0.37,0.84,0.41,2.14,-3.42,-3.36,394,349,396,359,258
963,0.35,0.84,0.44,-1.04,-3.48,-2.69,399,346,399,356,259
964,0.36,0.83,0.41,-1.04,-2.69,-2.62,397,344,397,354,260
965,0.36,0.83,0.41,2.62,-2.56,-4.09,397,340,399,360,261
966,0.34,0.82,0.41,1.04,-1.65,-1.71,398,345,397,359,260
967,0.36,0.83,0.43,-0.55,-0.49,-2.87,397,344,400,355,270
968,0.35,0.83,0.43,-0.31,-1.46,-2.99,394,349,397,359,261
969,0.37,0.83,0.43,1.65,-3.05,-2.62,398,356,394,356,256
970,0.37,0.83,0.43,-0.98,-2.38,-2.14,392,345,398,357,262
971,0.36,0.83,0.43,2.99,-1.95,-4.76,397,343,398,356,261
972,0.36,0.84,0.43,-0.31,-2.26,-3.3,397,344,398,358,258
973,0.36,0.84,0.44,-0.43,-1.77,-2.44,397,339,400,358,259
974,0.36,0.83,0.43,1.16,-2.93,-2.75,396,346,398,361,258
975,0.36,0.84,0.43,1.53,-2.81,-2.99,397,346,395,357,261
976,0.36,0.83,0.43,0.31,-2.32,-2.38,397,340,399,354,259
977,0.36,0.84,0.44,-0.85,-2.32,-2.14,398,348,399,359,258
978,0.37,0.84,0.43,-0.79,-1.89,-2.5,393,345,394,359,259
979,0.37,0.83,0.43,1.34,-3.23,-2.5,395,340,398,355,260
980,0.38,0.83,0.42,0.31,-2.38,-2.87,399,342,402,359,259
981,0.37,0.83,0.43,0.49,-2.99,-3.42,392,344,396,361,259
982,0.36,0.83,0.42,0.37,-4.15,-1.16,397,342,399,357,259
983,0.35,0.82,0.42,1.04,-3.42,-2.44,395,345,401,357,261
984,0.36,0.84,0.42,0.92,-3.42,-2.14,398,340,398,359,262
985,0.36,0.84,0.43,1.34,-3.17,-2.32,394,342,398,357,253
986,0.37,0.86,0.43,-0.49,-4.27,-1.4,394,345,400,354,258
987,0.37,0.86,0.48,-0.18,2.14,1.16,400,341,400,359,257
988,0.43,0.81,0.49,-13.61,4.46,5.62,401,345,398,358,259
989,0.37,0.71,0.59,-0.55,5.43,0.18,395,345,398,352,257
990,0.54,0.62,0.57,-4.94,-12.08,3.85,401,343,401,352,256
991,0.64,0.6,0.48,0.37,1.59,35.16,399,337,404,356,253
992,0.52,0.56,0.54,7.45,-5.62,-7.93,397,342,399,357,269
993,0.66,0.62,0.54,4.33,-7.39,7.93,396,339,399,357,259
994,0.61,0.61,0.5,0.49,-5.55,-11.78,399,345,415,356,256
995,0.66,0.64,0.51,1.04,-3.66,2.26,400,338,400,353,257
996,0.63,0.54,0.48,4.39,-7.26,-3.54,400,342,400,352,257
997,0.63,0.61,0.52,10.86,-1.46,-12.51,398,343,401,355,286
998,0.66,0.61,0.46,-2.62,-3.17,3.05,397,343,401,355,258
999,0.67,0.61,0.47,-3.91,-1.34,-4.58,400,344,401,360,255
1000,0.64,0.59,0.46,-0.61,-8.36,-3.97,397,347,400,361,260
1001,0.67,0.59,0.47,-1.71,-4.21,-0.67,398,347,399,357,260
1002,0.66,0.59,0.48,1.95,-3.05,-1.83,400,344,400,359,258
1003,0.66,0.59,0.49,0.73,-3.05,-2.44,399,339,399,358,260
1004,0.65,0.56,0.47,-12.39,-12.21,5.98,415,298,396,329,251
1005,0.54,0.64,0.59,6.65,-13.98,9.09,420,303,401,337,253
1006,0.55,0.6,0.55,-0.12,3.11,-0.92,418,303,401,339,253
1007,0.54,0.65,0.52,19.04,7.87,-12.76,414,307,402,334,250
1008,0.59,0.67,0.52,8.0,-11.66,-1.53,415,309,407,324,249
1009,0.56,0.75,0.49,24.54,-8.91,5.86,414,307,402,320,247
1010,0.43,0.76,0.41,1.46,-12.02,5.19,417,313,405,321,249
1011,0.53,0.7,0.47,-12.94,-6.84,1.04,417,315,402,323,249
1012,0.5,0.7,0.49,-1.71,-6.47,-3.3,413,313,403,324,250
1013,0.54,0.67,0.47,-6.41,-1.95,2.62,418,316,405,327,248
1014,0.61,0.68,0.44,5.43,4.88,-3.48,413,312,402,326,248
1015,0.62,0.68,0.46,3.17,-1.77,-3.85,415,313,401,323,248
1016,0.56,0.67,0.49,-2.56,-0.98,-0.12,411,317,408,329,250
1017,0.56,0.65,0.47,-3.17,-0.79,-1.04,416,321,401,330,247
1018,0.6,0.65,0.51,-3.05,-4.64,-0.49,413,314,402,329,247
1019,0.57,0.65,0.52,-2.56,-5.0,2.14,416,321,406,331,251
1020,0.57,0.63,0.49,-0.37,-2.62,-3.17,415,320,403,328,249
1021,0.6,0.66,0.5,1.16,-3.42,-3.97,418,323,401,328,252
1022,0.58,0.65,0.5,2.2,-2.81,-6.23,417,329,403,330,251
1023,0.55,0.68,0.51,1.1,-1.28,-4.09,415,317,403,328,246
1024,0.55,0.67,0.51,2.56,-4.46,1.1,417,315,406,328,249
1025,0.56,0.65,0.51,-1.59,-4.15,-0.43,415,322,416,330,249
1026,0.57,0.66,0.52,0.55,-0.73,-0.98,416,321,405,338,239
1027,0.57,0.65,0.51,1.95,-4.03,-5.19,418,320,403,336,252
1028,0.58,0.64,0.5,4.33,-2.62,0.73,413,320,401,329,249
1029,0.57,0.65,0.51,-0.61,1.04,-1.53,417,324,404,336,251
1030,0.6,0.64,0.52,-1.34,-0.12,-3.78,418,315,404,329,248
1031,0.59,0.63,0.53,0.12,-3.54,1.59,420,321,403,329,248
1032,0.57,0.61,0.54,3.97,-3.97,-4.82,415,319,401,329,246
1033,0.56,0.64,0.54,-1.89,-2.08,-3.6,418,318,404,331,251
1034,0.56,0.62,0.54,-0.79,-4.52,-4.15,415,320,405,329,250
1035,0.58,0.62,0.54,-0.24,-5.31,0.06,415,323,405,330,250
1036,0.58,0.62,0.54,-0.67,-0.79,-0.43,417,316,403,340,252
1037,0.57,0.62,0.55,4.09,-2.26,-3.36,420,321,403,339,251
1038,0.6,0.63,0.54,-2.56,0.31,-0.85,418,315,406,333,251
1039,0.61,0.58,0.54,1.1,-9.52,0.0,418,316,402,328,250
1040,0.61,0.7,0.6,-5.13,17.64,-15.2,415,322,407,331,252
1041,0.64,0.61,0.57,-0.67,-5.49,-0.18,419,321,403,336,246
1042,0.6,0.58,0.58,2.62,-6.53,-4.52,419,327,407,336,249
1043,0.64,0.59,0.59,8.42,-0.06,-6.04,419,314,403,334,249
1044,0.59,0.62,0.51,1.89,-0.98,-5.19,421,321,402,336,247
1045,0.6,0.63,0.53,4.03,-0.43,-4.52,416,323,402,335,250
1046,0.59,0.65,0.55,0.43,-1.71,-0.43,421,323,400,333,278
1047,0.64,0.67,0.53,4.58,-3.3,-1.83,420,324,402,336,253
1048,0.55,0.62,0.52,18.8,-2.99,-18.86,417,321,402,332,253
1049,0.6,0.69,0.46,4.09,-6.23,-1.22,417,322,404,337,250
1050,0.54,0.65,0.45,11.47,-15.44,1.71,415,324,402,338,250
1051,0.58,0.75,0.42,-1.59,-7.75,-5.74,414,326,406,337,278
1052,0.59,0.74,0.4,5.62,0.06,-5.07,419,323,405,339,251
1053,0.62,0.71,0.36,6.23,-0.92,-1.22,421,321,406,336,250
1054,0.61,0.71,0.35,3.78,-1.77,-3.72,420,319,411,338,250
1055,0.62,0.71,0.35,-2.93,-1.83,-2.56,415,324,404,343,251
1056,0.62,0.71,0.38,1.46,-0.79,-3.78,420,328,406,342,251
1057,0.57,0.68,0.4,5.0,-2.81,2.75,426,320,403,337,251
1058,0.61,0.68,0.39,5.25,0.24,-5.13,421,327,403,337,250
1059,0.58,0.72,0.33,-6.53,-4.15,5.62,415,328,399,339,254
1060,0.6,0.7,0.36,3.17,-3.11,0.98,420,324,403,337,264
1061,0.59,0.71,0.36,1.53,-2.62,-0.24,420,331,400,340,254
1062,0.65,0.68,0.35,-0.98,-5.92,0.0,414,325,401,340,252
1063,0.63,0.7,0.36,3.85,-2.38,-2.32,420,327,407,337,252
1064,0.64,0.67,0.35,5.62,-5.19,-0.98,418,325,404,341,255
1065,0.6,0.69,0.32,17.7,-11.35,9.03,420,325,401,341,255
1066,0.65,0.69,0.31,3.85,-2.81,-9.34,417,324,402,342,251
1067,0.61,0.66,0.32,-4.76,-2.87,-2.01,419,334,403,339,253
1068,0.61,0.72,0.33,1.4,-2.5,-6.59,418,326,399,345,254
1069,0.61,0.73,0.31,-0.31,-0.79,-4.27,419,332,403,342,249
1070,0.6,0.82,0.39,-13.37,-1.71,-4.15,417,331,402,344,254
1071,0.59,0.78,0.37,2.69,-2.26,-6.77,416,329,406,345,252
1072,0.6,0.75,0.34,0.0,-4.52,-5.43,421,322,405,341,254
1073,0.57,0.73,0.34,-1.34,-4.33,-2.08,420,330,403,343,252
1074,0.58,0.73,0.33,1.53,-3.97,-0.98,418,330,403,340,255
1075,0.59,0.74,0.32,3.97,-4.64,-2.93,419,336,407,332,253
1076,0.59,0.75,0.31,1.34,-2.87,-2.01,419,328,400,334,251
1077,0.58,0.76,0.32,2.14,-1.95,-3.36,419,332,404,331,254
1078,0.58,0.73,0.3,-2.93,-5.0,0.18,421,329,402,338,252
1079,0.61,0.74,0.31,2.5,-1.77,0.49,418,329,404,333,252
1080,0.6,0.71,0.3,-1.04,-5.86,-0.37,420,327,402,338,255
1081,0.61,0.73,0.31,0.43,-2.93,-2.38,419,329,414,332,254
1082,0.61,0.73,0.32,-0.98,-3.78,-1.83,421,329,401,336,260
1083,0.63,0.73,0.3,1.22,-2.01,-1.83,415,336,399,339,252
1084,0.62,0.72,0.3,0.73,-4.15,-4.76,420,329,399,337,253
1085,0.62,0.75,0.28,0.37,-5.07,-4.76,419,332,400,339,256
1086,0.6,0.76,0.27,2.56,-2.44,-1.04,420,329,402,337,256
1087,0.62,0.74,0.25,-2.26,-4.09,-1.59,421,329,403,335,253
1088,0.61,0.75,0.26,2.87,-3.17,-5.74,416,330,403,338,257
1089,0.6,0.75,0.26,0.92,-3.66,-3.85,420,328,401,348,254
1090,0.62,0.75,0.27,2.14,-0.24,-1.95,416,333,402,339,253
1091,0.55,0.74,0.28,-9.28,-0.98,-0.85,420,329,403,340,254
1092,0.6,0.77,0.3,-0.37,-3.85,0.31,420,325,402,338,252
1093,0.6,0.76,0.25,4.58,-3.72,2.75,421,326,403,340,254
1094,0.57,0.77,0.32,0.55,-0.98,0.31,419,330,401,341,254
1095,0.61,0.77,0.31,6.29,3.91,-6.35,421,335,403,336,254
1096,0.59,0.73,0.31,-0.92,-2.2,-7.08,417,336,403,341,252
1097,0.54,0.73,0.33,-2.93,-7.75,0.0,416,332,404,342,256
1098,0.62,0.75,0.32,-2.44,-9.64,-1.1,415,332,406,344,256
1099,0.6,0.7,0.31,1.53,-4.94,-0.18,417,327,405,345,249
1100,0.61,0.71,0.29,-0.61,-4.7,-1.59,423,327,406,346,250
1101,0.63,0.69,0.3,-5.25,-4.58,-1.1,422,332,402,345,263
1102,0.62,0.7,0.34,-0.92,-3.05,-1.71,419,336,404,348,255
1103,0.66,0.75,0.34,3.6,3.6,-2.99,420,337,406,348,259
1104,0.57,0.75,0.31,4.21,-2.38,-10.62,422,337,404,353,256
1105,0.67,0.71,0.32,-1.59,6.35,-4.64,421,332,402,347,256
1106,0.62,0.71,0.27,-2.62,-1.83,-8.0,416,329,403,343,253
1107,0.6,0.76,0.32,-9.4,-9.58,1.59,415,337,406,345,255
1108,0.6,0.74,0.35,13.98,-2.14,-8.42,414,335,402,342,257
1109,0.58,0.73,0.3,-1.4,-2.26,-6.71,412,335,403,339,254
1110,0.61,0.77,0.28,16.05,-3.17,-0.06,414,339,402,343,255
1111,0.55,0.78,0.27,-0.43,-4.33,-7.75,415,335,401,340,254
1112,0.52,0.8,0.27,1.77,0.06,-5.98,420,331,405,340,256
1113,0.55,0.82,0.27,-5.55,-3.66,4.03,422,337,401,344,256
1114,0.56,0.79,0.28,-2.14,-5.49,1.65,421,337,406,344,256
1115,0.57,0.76,0.3,0.49,-4.03,0.0,422,334,406,339,256
1116,0.58,0.75,0.29,0.92,-1.95,-1.77,422,334,408,342,255
1117,0.58,0.76,0.32,1.22,-0.49,-4.64,423,339,405,344,256
1118,0.57,0.76,0.31,4.27,-6.59,0.85,420,345,405,345,257
1119,0.58,0.75,0.3,1.77,-2.93,-3.48,423,335,405,346,262
1120,0.58,0.77,0.31,1.04,-2.75,-0.73,420,336,404,346,255
1121,0.6,0.75,0.3,-3.97,-6.71,0.06,418,342,405,343,258
1122,0.59,0.76,0.29,2.75,-2.99,-2.01,419,343,408,345,257
1123,0.58,0.75,0.29,-1.71,-3.54,-3.42,419,339,403,346,257
1124,0.59,0.76,0.3,2.75,-1.77,-5.19,419,344,404,345,255
1125,0.59,0.75,0.3,-2.44,-2.56,-5.43,421,338,404,346,258
1126,0.58,0.76,0.32,2.44,-2.56,-3.72,420,340,408,347,258
1127,0.57,0.76,0.3,2.38,-4.21,-3.48,416,344,404,345,257
1128,0.58,0.77,0.31,-0.49,-3.6,-2.26,417,339,404,346,255
1129,0.57,0.76,0.31,-0.24,-2.69,-2.56,420,340,403,347,257
1130,0.57,0.78,0.31,0.85,-3.05,-3.42,416,336,402,349,259
1131,0.57,0.75,0.32,-0.73,-2.2,-1.4,418,335,402,346,257
1132,0.53,0.77,0.33,-1.65,-0.43,-5.0,423,333,404,343,254
1133,0.57,0.76,0.31,-0.67,-3.48,-2.01,421,339,407,351,256
1134,0.57,0.77,0.32,-1.65,-4.94,-4.27,420,340,405,346,255
1135,0.59,0.76,0.32,0.37,-3.72,-1.46,417,333,407,345,257
1136,0.56,0.77,0.33,-1.1,-2.56,2.32,420,338,407,339,257
1137,0.56,0.76,0.31,0.98,-3.54,-2.5,420,329,407,336,257
1138,0.57,0.76,0.31,-0.55,-1.4,-1.59,421,335,406,343,257
1139,0.59,0.74,0.31,-4.15,-2.69,4.88,420,336,407,345,256
1140,0.58,0.76,0.31,3.97,-6.65,5.92,421,343,404,342,258
1141,0.58,0.75,0.31,-3.05,-2.62,-4.09,421,341,404,350,256
1142,0.58,0.75,0.29,-3.05,-5.19,0.31,419,337,402,344,255
1143,0.55,0.75,0.32,3.54,-7.32,4.15,422,333,405,342,257
1144,0.6,0.74,0.26,0.61,-2.5,-4.33,420,338,405,344,256
1145,0.6,0.76,0.28,0.85,-1.71,-3.36,421,344,405,340,257
1146,0.59,0.75,0.29,-1.89,-3.17,-0.92,416,339,405,341,256
1147,0.6,0.75,0.3,0.18,-4.15,0.43,421,356,407,340,256
1148,0.59,0.76,0.29,4.46,0.06,-6.04,420,344,407,347,255
1149,0.6,0.75,0.26,1.77,-1.71,-5.98,421,341,406,343,273
1150,0.58,0.75,0.3,-0.92,-2.01,-5.37,418,337,408,344,255
1151,0.58,0.76,0.3,0.18,-2.01,-2.56,419,339,406,344,257
1152,0.58,0.77,0.3,-0.73,-2.75,-2.87,418,347,407,347,258
1153,0.57,0.78,0.3,2.62,-1.28,-2.32,422,330,407,346,258
1154,0.56,0.75,0.31,1.77,-4.76,-3.05,420,326,408,343,257
1155,0.59,0.77,0.31,3.48,-2.75,-1.53,420,322,404,342,257
1156,0.58,0.76,0.31,1.22,-3.17,-3.05,420,330,404,341,258
1157,0.58,0.76,0.31,0.79,-2.62,-2.44,419,325,413,343,257
1158,0.59,0.77,0.3,1.22,-3.17,-1.16,420,325,405,346,256
1159,0.59,0.75,0.3,0.73,-4.88,-2.62,417,330,404,344,254
1160,0.58,0.75,0.28,0.79,-3.11,-2.81,419,331,405,344,258
1161,0.6,0.76,0.3,2.62,-3.11,-1.28,421,332,409,346,255
1162,0.59,0.74,0.3,-0.31,-5.07,-0.55,422,332,407,346,254
1163,0.61,0.74,0.3,0.67,-1.16,-2.44,424,324,405,350,256
1164,0.61,0.72,0.31,-1.77,-3.48,0.67,420,327,407,345,255
1165,0.63,0.75,0.3,3.42,-2.2,-4.58,421,328,407,346,255
1166,0.63,0.75,0.3,3.36,0.18,-5.55,418,330,402,348,258
1167,0.62,0.74,0.33,1.53,-4.88,0.18,420,333,401,345,258
1168,0.62,0.75,0.3,1.77,-1.77,-3.66,416,334,405,346,259
1169,0.64,0.74,0.29,1.4,-2.56,-2.01,420,333,402,348,258
1170,0.61,0.74,0.31,-2.62,-2.2,-3.36,420,333,401,347,255
1171,0.62,0.74,0.31,0.55,-3.23,-3.48,416,328,404,347,256
1172,0.62,0.73,0.3,4.88,-4.21,-1.65,420,336,405,346,262
1173,0.63,0.71,0.31,-0.18,-1.95,-5.92,420,336,402,349,257
1174,0.58,0.76,0.31,6.35,-3.54,-9.95,419,337,404,346,255
1175,0.52,0.8,0.33,13.06,2.62,-19.71,419,328,406,349,261
1176,0.25,0.92,0.21,-18.01,10.93,-34.85,417,333,412,345,255
1177,0.35,0.91,0.39,8.42,-17.33,14.53,417,330,404,345,253
1178,0.51,0.76,0.26,-4.39,0.92,-6.77,418,325,403,343,256
1179,0.44,0.91,0.37,-4.46,-1.53,4.82,419,327,404,343,254
1180,0.42,0.75,0.34,-0.61,1.16,-1.83,415,332,403,346,258
1181,0.43,0.8,0.35,-4.58,0.79,-4.76,419,346,404,347,256
1182,0.39,0.85,0.39,2.38,-1.22,-4.21,416,333,405,346,268
1183,0.41,0.82,0.38,-1.59,-2.5,0.79,418,337,402,350,256
1184,0.36,0.78,0.34,-4.52,0.79,-2.38,421,329,401,346,255
1185,0.43,0.85,0.38,1.4,-4.46,-2.81,421,334,403,346,257
1186,0.4,0.83,0.38,-0.61,-3.66,-0.85,418,332,403,344,255
1187,0.38,0.8,0.38,-0.12,-2.75,-2.81,418,335,401,347,254
1188,0.38,0.82,0.37,11.05,-5.49,4.82,421,330,404,350,255
1189,0.39,0.83,0.37,0.24,-3.54,-2.38,418,336,403,349,259
1190,0.44,0.82,0.35,0.73,-2.99,-0.73,409,333,407,349,258
1191,0.45,0.83,0.35,-1.83,-4.33,-2.93,419,335,406,354,256
1192,0.44,0.83,0.36,1.22,-4.88,-4.21,416,341,400,351,256
1193,0.41,0.84,0.4,-0.67,-0.67,-5.13,416,333,403,349,259
1194,0.39,0.82,0.41,2.44,-6.1,1.28,418,343,404,343,258
1195,0.38,0.78,0.44,-6.59,-6.59,5.8,418,340,406,351,266
1196,0.4,0.84,0.41,-6.23,-6.77,2.01,414,338,404,348,256
1197,0.38,0.82,0.42,-3.72,-2.01,-0.37,417,336,406,344,254
1198,0.37,0.82,0.44,-1.65,-2.38,-5.49,419,337,407,350,256
1199,0.38,0.82,0.43,-2.75,-5.55,-0.92,413,336,403,349,259
1200,0.38,0.81,0.43,-1.16,-4.82,-1.1,417,340,400,352,267
1201,0.39,0.81,0.42,0.55,-3.48,-0.98,414,346,404,350,254
1202,0.38,0.82,0.42,-2.14,-3.23,-4.03,414,338,407,351,257
1203,0.39,0.83,0.44,3.05,-7.75,-2.26,420,346,402,349,249
1204,0.37,0.84,0.44,-1.65,-3.11,0.24,416,342,417,347,257
1205,0.41,0.81,0.41,1.04,-5.31,-3.6,418,338,403,349,255
1206,0.39,0.81,0.41,4.03,-0.06,-2.99,417,342,404,350,259
1207,0.37,0.82,0.4,0.18,-2.93,-1.34,413,344,401,349,253
1208,0.37,0.86,0.42,-6.9,6.04,-11.47,419,348,398,356,251
1209,0.37,0.82,0.4,-1.22,2.08,-4.94,412,350,401,352,256
1210,0.39,0.83,0.41,-0.67,-5.62,-2.26,415,350,400,350,255
1211,0.38,0.83,0.4,1.4,-2.26,-8.06,416,345,402,350,255
1212,0.38,0.81,0.4,0.79,-1.89,-5.55,413,352,399,349,258
1213,0.39,0.83,0.42,1.4,-3.91,-3.97,419,345,402,352,257
1214,0.5,0.85,0.53,-27.53,18.68,-5.68,418,341,398,353,258
1215,0.43,0.6,0.51,-2.26,0.31,-5.37,417,349,402,352,255
1216,0.45,0.69,0.52,13.06,-13.73,3.66,415,342,402,350,256
1217,0.55,0.82,0.49,7.32,-7.2,-0.61,417,336,400,349,258
1218,0.44,0.74,0.47,5.74,-1.89,-5.43,422,334,401,350,256
1219,0.44,0.78,0.45,0.92,-3.97,-1.71,416,341,400,353,258
1220,0.43,0.79,0.46,10.8,-1.71,1.95,415,343,405,348,254
1221,0.43,0.79,0.44,-0.18,0.12,-0.18,418,340,402,348,258
1222,0.45,0.78,0.45,-0.49,-3.54,-1.28,416,344,398,352,255
1223,0.43,0.76,0.47,1.95,-6.35,-4.33,415,345,401,349,260
1224,0.42,0.78,0.48,2.56,-3.3,-2.2,413,342,400,356,256
1225,0.46,0.79,0.47,0.18,-4.82,-0.98,414,348,402,351,256
1226,0.46,0.77,0.44,1.22,-3.42,-4.88,413,345,404,352,267
1227,0.45,0.78,0.44,0.73,-2.62,-3.11,418,345,404,350,271
1228,0.44,0.79,0.44,4.15,-1.95,-4.64,413,349,403,352,255
1229,0.43,0.78,0.44,-1.4,-2.56,-2.81,420,346,404,344,257
1230,0.41,0.77,0.46,-2.2,-2.32,-3.6,417,341,402,356,257
1231,0.43,0.81,0.45,-1.1,-2.75,-1.59,417,325,401,350,260
1232,0.43,0.8,0.46,3.54,-3.23,-5.0,416,321,397,350,257
1233,0.42,0.8,0.44,2.2,-1.89,-4.52,416,317,397,343,254
1234,0.41,0.79,0.44,4.39,-3.42,-4.64,419,317,395,346,255
1235,0.4,0.8,0.44,1.53,-2.62,-3.42,410,323,399,343,256
1236,0.4,0.81,0.46,0.49,-4.15,-2.75,411,326,398,350,257
1237,0.4,0.81,0.46,-0.37,-1.28,-4.15,409,329,398,347,253
1238,0.41,0.81,0.44,0.49,-1.65,-4.33,412,330,396,346,253
1239,0.39,0.81,0.45,-4.7,-0.49,-2.2,411,324,387,346,252
1240,0.4,0.8,0.46,2.2,-2.93,-2.93,409,317,389,342,252
1241,0.39,0.81,0.46,2.5,-2.14,-2.32,410,325,391,346,253
1242,0.4,0.82,0.45,1.04,-3.36,-2.75,410,322,391,349,263
1243,0.41,0.82,0.45,1.1,-2.69,-2.56,409,322,396,345,255
1244,0.4,0.82,0.45,1.53,-2.81,-3.6,408,324,398,347,261
1245,0.39,0.82,0.45,-4.15,-3.23,-2.44,407,324,394,349,253
1246,0.39,0.81,0.44,-0.18,-2.69,-2.26,406,331,397,350,254
1247,0.39,0.8,0.44,-0.43,-2.56,-1.89,406,333,395,347,254
1248,0.39,0.8,0.45,-1.28,-2.44,-2.26,406,329,396,350,255
1249,0.42,0.82,0.43,4.21,-1.04,-4.15,407,324,398,350,253
1250,0.41,0.82,0.45,0.31,-3.48,-2.32,404,331,396,349,253
1251,0.39,0.82,0.45,-0.43,-1.46,-4.7,409,324,398,349,257
1252,0.4,0.8,0.44,-1.83,-3.66,-0.73,408,333,394,350,254
1253,0.41,0.8,0.45,-0.24,-2.08,-1.22,406,324,399,348,254
1254,0.4,0.8,0.43,1.04,-1.22,-4.09,404,330,398,351,257
1255,0.41,0.82,0.45,-3.11,-3.3,-1.59,406,329,395,346,256
1256,0.41,0.81,0.44,-1.95,-3.11,-1.89,406,332,396,352,266
1257,0.41,0.82,0.44,0.12,-3.23,-3.11,408,333,396,345,255
1258,0.4,0.81,0.44,0.49,-2.62,-2.69,406,330,399,347,253
1259,0.4,0.81,0.44,0.24,-3.66,-3.3,406,326,399,349,254
1260,0.4,0.81,0.44,2.32,-3.23,-3.11,403,327,395,352,255
1261,0.4,0.81,0.44,-1.04,-3.11,-2.2,401,337,400,348,258
1262,0.41,0.81,0.44,0.85,-5.19,-2.01,405,334,401,360,252
1263,0.41,0.8,0.43,1.34,-2.08,-3.17,405,335,394,351,275
1264,0.39,0.8,0.44,-0.98,-3.36,-2.14,405,332,396,351,254
1265,0.39,0.8,0.44,0.49,-2.62,-2.75,405,337,401,349,256
1266,0.39,0.81,0.45,-0.43,-5.07,-1.46,404,335,398,351,256
1267,0.4,0.8,0.45,-1.65,-2.56,-2.14,405,335,399,350,254
1268,0.39,0.79,0.46,1.28,-2.62,-2.75,406,336,396,349,257
1269,0.4,0.81,0.45,-0.73,-2.93,-2.38,406,337,401,351,252
1270,0.39,0.8,0.46,-2.26,-2.99,-1.22,401,341,395,349,254
1271,0.41,0.81,0.45,0.98,-4.27,-2.26,404,340,397,352,256
1272,0.39,0.8,0.45,-2.32,-1.89,-1.4,402,338,401,350,255
1273,0.4,0.79,0.45,1.65,-3.85,-2.81,401,344,400,351,255
1274,0.41,0.8,0.45,3.42,-3.36,-3.42,403,343,398,353,254
1275,0.4,0.8,0.46,-0.61,-4.09,-1.95,406,341,399,346,252
1276,0.4,0.8,0.45,1.59,-3.42,-2.5,403,339,398,347,257
1277,0.39,0.81,0.43,-1.34,-2.87,-2.14,399,341,401,351,256
1278,0.45,0.82,0.42,8.54,-1.65,-8.48,393,340,396,356,255
1279,0.41,0.84,0.44,3.11,-2.75,-2.75,402,337,396,349,257
1280,0.41,0.82,0.43,2.44,-1.83,-3.05,401,338,395,350,257
1281,0.4,0.81,0.44,0.24,-3.42,-4.33,400,339,397,353,255
1282,0.4,0.79,0.43,-2.01,-3.54,-1.34,401,342,393,356,258
1283,0.41,0.81,0.44,-0.73,-3.23,-1.53,399,341,396,351,258
1284,0.41,0.8,0.43,-3.66,-2.56,-1.89,400,346,396,352,259
1285,0.4,0.81,0.43,-0.85,-1.53,-2.5,404,342,396,352,256
1286,0.41,0.81,0.44,-1.28,-2.2,-1.65,400,346,397,354,256
1287,0.41,0.81,0.44,0.61,-3.42,-2.44,399,342,399,351,256
1288,0.41,0.81,0.44,1.95,-3.66,-3.54,400,344,397,358,254
1289,0.4,0.8,0.44,-0.43,-3.6,-1.77,396,342,394,352,256
1290,0.4,0.81,0.44,1.46,-1.89,-4.33,396,341,396,352,260
1291,0.4,0.81,0.44,1.04,-2.99,-2.01,401,341,397,349,259
1292,0.4,0.8,0.44,-3.66,-2.87,-2.01,404,341,400,352,256
1293,0.4,0.81,0.43,4.33,-1.77,-5.43,401,338,398,353,260
1294,0.41,0.82,0.43,4.15,-0.98,-5.74,399,341,402,352,255
1295,0.41,0.82,0.45,-3.3,-2.38,-1.65,397,344,395,355,257
1296,0.4,0.82,0.44,-3.97,-3.78,-1.04,398,343,411,354,257
1297,0.42,0.81,0.46,-0.79,-2.99,-1.22,396,343,398,351,257
1298,0.4,0.81,0.45,-0.79,-3.85,-2.69,400,337,398,350,255
1299,0.41,0.81,0.45,2.87,-2.62,-1.46,399,342,395,352,256
1300,0.43,0.81,0.43,1.95,-2.75,-3.97,394,345,398,351,259
1301,0.43,0.79,0.44,3.97,-6.71,-2.81,399,343,403,352,288
1302,0.43,0.83,0.46,1.71,-1.83,-2.93,397,346,401,354,258
1303,0.43,0.82,0.43,3.72,-3.48,-2.56,395,341,397,352,257
1304,0.44,0.8,0.44,-1.59,-4.33,-2.14,396,344,399,356,258
1305,0.43,0.79,0.44,-1.22,-2.56,-3.23,397,344,398,356,260
1306,0.45,0.81,0.43,5.74,-2.44,-5.62,399,340,400,354,256
1307,0.43,0.8,0.42,2.62,-4.09,-4.09,399,341,397,357,259
1308,0.4,0.82,0.43,0.73,-2.62,-3.17,396,339,400,356,258
1309,0.42,0.82,0.42,0.55,-1.89,-3.17,392,340,402,353,259
1310,0.42,0.82,0.42,-0.18,-3.54,-2.69,394,345,399,355,258
1311,0.42,0.8,0.42,0.73,-3.85,-2.44,393,342,397,359,257
1312,0.4,0.82,0.42,0.18,-2.5,-3.6,396,344,400,355,256
1313,0.41,0.83,0.43,0.37,-1.89,-2.26,394,344,399,357,259
1314,0.39,0.82,0.44,-1.71,-3.36,0.12,398,342,399,355,257
1315,0.41,0.82,0.43,-0.92,-3.36,-1.53,393,346,396,356,260
1316,0.42,0.81,0.41,2.99,-3.36,-3.3,395,351,401,354,260
1317,0.42,0.81,0.41,0.43,-5.31,-2.01,395,354,406,357,257
1318,0.4,0.82,0.4,0.06,-3.17,-2.01,391,345,398,354,260
1319,0.4,0.83,0.41,3.11,-3.78,-3.54,386,343,399,355,259
1320,0.4,0.83,0.41,0.85,-1.4,-3.05,389,345,398,354,262
1321,0.38,0.84,0.41,-1.1,-2.87,-3.91,386,330,392,347,256
1322,0.39,0.84,0.4,1.28,-2.93,-2.44,384,335,394,350,261
1323,0.44,0.82,0.4,0.0,-3.91,-1.16,388,330,395,345,257
1324,0.37,0.84,0.42,-1.53,-2.26,-2.56,388,343,397,350,256
1325,0.38,0.86,0.42,1.4,-3.66,-3.72,382,337,395,350,257
1326,0.4,0.84,0.41,1.1,-3.3,-3.78,383,339,396,352,258
1327,0.39,0.83,0.42,-1.95,-2.2,-1.95,384,336,400,351,257
1328,0.38,0.83,0.41,-0.18,-1.59,-3.05,387,339,398,369,258
1329,0.37,0.84,0.42,3.48,-2.08,-5.0,385,336,396,352,258
1330,0.38,0.84,0.4,-1.77,-2.26,-0.67,387,341,398,356,256
1331,0.37,0.83,0.4,0.18,-4.21,-2.08,385,340,397,352,256
1332,0.39,0.85,0.41,-1.22,-2.93,-1.22,383,335,399,353,265
1333,0.41,0.85,0.42,-2.87,-3.05,1.83,390,339,397,355,259
1334,0.39,0.83,0.42,-1.34,-3.78,-2.62,389,342,395,352,258
1335,0.38,0.83,0.41,-0.06,-3.23,-4.88,389,337,398,355,253
1336,0.39,0.83,0.4,6.29,-1.65,-3.97,388,347,398,352,253
1337,0.39,0.83,0.4,-2.38,-4.7,-1.1,386,339,398,352,258
1338,0.39,0.82,0.41,0.49,-2.01,-1.71,391,346,399,351,260
1339,0.4,0.82,0.4,4.46,-3.23,-3.36,391,353,397,354,257
1340,0.39,0.85,0.41,-0.98,-3.48,-1.65,389,343,396,356,258
1341,0.39,0.83,0.41,0.98,-0.98,-2.69,390,343,399,354,258
1342,0.39,0.83,0.41,2.44,-1.28,-3.97,395,345,397,354,260
1343,0.4,0.83,0.41,0.37,-4.64,-2.99,395,343,408,351,260
1344,0.38,0.81,0.41,1.77,-3.05,-1.28,391,347,399,355,258
1345,0.39,0.84,0.41,1.59,-3.23,-4.03,395,342,397,355,258
1346,0.37,0.83,0.42,0.31,-4.46,-3.85,391,343,396,359,260
1347,0.39,0.84,0.41,-1.53,-3.05,-3.05,391,345,398,358,259
1348,0.39,0.83,0.42,-0.55,-3.78,-1.71,386,345,396,358,258
1349,0.39,0.83,0.41,-3.36,-4.15,-2.26,393,344,398,357,257
1350,0.37,0.83,0.41,0.12,-2.14,-2.08,387,347,399,357,261
1351,0.38,0.83,0.42,0.73,-3.6,-2.5,392,346,395,358,261
1352,0.42,0.84,0.39,10.44,-11.35,12.08,397,348,397,355,257
1353,0.44,0.82,0.4,-2.81,-4.88,-0.55,398,353,398,358,258
1354,0.41,0.8,0.4,-1.77,4.15,-4.7,404,354,397,357,251
1355,0.42,0.81,0.4,-3.97,-4.88,-3.6,402,353,400,360,253
1356,0.43,0.8,0.39,0.12,-4.33,-3.23,405,352,393,358,256
1357,0.43,0.8,0.39,-1.95,-2.56,-3.23,399,354,392,357,256
1358,0.43,0.81,0.4,0.79,-1.22,-3.11,405,356,393,358,259
1359,0.44,0.8,0.4,-1.34,-3.42,-1.65,405,358,394,354,260
1360,0.45,0.8,0.4,-0.18,-2.69,-2.2,403,351,394,358,256
1361,0.42,0.81,0.4,2.69,-2.99,-3.05,402,359,394,358,260
1362,0.44,0.8,0.41,3.6,-3.85,-1.65,405,356,393,359,272
1363,0.45,0.79,0.39,1.89,-2.69,-2.81,400,355,391,356,253
1364,0.43,0.8,0.4,1.28,-3.91,-3.11,402,360,394,358,279
1365,0.42,0.8,0.41,0.0,-2.08,-3.66,404,359,396,362,257
1366,0.41,0.82,0.4,4.03,-0.18,-6.29,403,327,398,358,261
1367,0.42,0.82,0.4,-1.71,-4.03,-2.32,405,329,396,356,259
1368,0.42,0.84,0.4,1.4,-3.54,-5.13,403,324,394,352,260
1369,0.42,0.83,0.42,2.38,-3.23,-3.6,399,325,404,353,254
1370,0.41,0.81,0.42,-0.79,-2.81,-2.14,400,332,398,347,254
1371,0.41,0.81,0.42,0.85,-2.38,-3.36,395,326,393,354,255
1372,0.41,0.81,0.44,0.31,-2.26,-3.54,397,323,397,356,255
1373,0.4,0.81,0.43,1.28,-2.14,-3.42,397,323,399,353,254
1374,0.41,0.82,0.42,0.67,-3.05,-2.26,399,327,397,351,272
1375,0.4,0.82,0.43,0.06,-3.48,-2.5,396,327,396,355,259
1376,0.39,0.82,0.42,-1.1,-2.81,-2.26,398,328,399,354,258
1377,0.38,0.81,0.42,-1.16,-2.99,-1.1,397,329,396,355,259
1378,0.4,0.81,0.42,-0.79,-2.81,-2.56,397,328,397,351,254
1379,0.39,0.83,0.43,-15.26,-2.99,-3.72,397,333,396,365,258
1380,0.34,0.8,0.46,5.37,-2.81,0.92,393,331,398,357,256
1381,0.35,0.81,0.41,5.25,-5.92,-1.4,394,331,398,355,258
1382,0.36,0.84,0.43,-2.38,-1.46,-1.77,396,347,395,355,258
1383,0.33,0.83,0.43,-0.31,-3.72,-1.1,399,333,398,355,269
1384,0.35,0.84,0.42,-1.16,-2.2,-1.89,395,336,399,357,258
1385,0.35,0.84,0.43,-0.79,-2.5,-1.71,400,333,398,353,255
1386,0.35,0.84,0.42,-0.43,-2.75,-1.71,399,334,401,357,259
1387,0.36,0.84,0.41,2.32,-2.56,-4.03,399,334,400,356,256
1388,0.35,0.83,0.4,2.01,-2.38,-3.72,394,334,402,354,256
1389,0.36,0.84,0.42,-0.55,-2.32,-2.87,397,334,400,355,254
1390,0.35,0.84,0.43,-0.37,-1.28,-3.05,399,334,400,356,258
1391,0.36,0.84,0.43,0.12,-2.93,-2.44,400,338,410,356,257
1392,0.36,0.85,0.44,-1.71,-5.8,-0.92,401,334,400,357,256
1393,0.37,0.84,0.43,0.18,-4.64,-1.34,396,338,396,356,260
1394,0.36,0.84,0.42,0.85,-4.15,-2.44,398,334,400,355,257
1395,0.36,0.83,0.42,-0.61,-3.97,-1.71,398,330,400,357,257
1396,0.35,0.83,0.43,-1.16,-3.48,-1.4,399,337,398,359,259
1397,0.37,0.83,0.42,3.23,-3.36,-0.92,398,331,405,356,256
1398,0.37,0.84,0.43,0.92,-3.23,-2.32,399,337,401,358,258
1399,0.37,0.84,0.43,1.95,-1.77,-4.21,399,328,399,358,254
1400,0.37,0.84,0.43,-0.31,-2.81,-2.26,399,332,400,358,256
1401,0.36,0.82,0.42,-0.18,-2.2,-2.08,398,332,399,357,257
1402,0.37,0.83,0.42,2.14,-3.11,-3.23,398,337,400,359,259
1403,0.36,0.83,0.43,-0.73,-4.33,-2.69,396,336,404,356,260
1404,0.36,0.84,0.42,-1.22,-3.6,-1.77,401,348,401,362,266
1405,0.36,0.82,0.41,1.04,-3.66,-1.77,399,333,400,357,284
1406,0.37,0.84,0.42,1.1,-3.97,-2.75,395,338,399,355,258
1407,0.36,0.84,0.43,-0.43,-3.3,-1.77,398,339,401,356,257
1408,0.36,0.83,0.42,-0.55,-3.6,-1.83,399,350,398,361,261
1409,0.37,0.83,0.42,1.34,-2.75,-2.99,395,341,403,356,260
1410,0.36,0.84,0.42,1.53,-2.99,-2.62,397,335,403,356,258
1411,0.35,0.83,0.42,0.24,-2.87,-2.44,395,341,397,356,260
1412,0.34,0.85,0.41,0.31,-2.5,-3.3,399,338,399,356,255
1413,0.36,0.85,0.42,0.0,-3.11,-2.44,399,340,396,356,260
1414,0.37,0.85,0.42,-0.67,-2.56,-1.95,399,342,401,355,259
1415,0.36,0.84,0.42,-0.24,-2.81,-2.44,398,337,398,359,260
1416,0.37,0.84,0.42,0.06,-4.09,-2.01,399,341,396,357,259
1417,0.36,0.84,0.41,2.26,-3.72,-2.87,398,340,395,354,260
1418,0.36,0.84,0.42,-0.06,-2.38,-2.32,394,343,401,353,259
1419,0.36,0.84,0.42,0.55,-2.32,-2.75,398,343,398,355,258
1420,0.35,0.83,0.41,2.32,-1.77,-4.03,398,338,403,356,259
1421,0.35,0.83,0.41,-1.22,-3.54,-2.26,399,338,401,357,260
1422,0.36,0.84,0.42,-0.06,-2.99,-1.77,400,335,400,358,257
1423,0.36,0.85,0.42,0.73,-1.77,-3.42,400,341,402,357,258
1424,0.36,0.84,0.41,1.53,-3.3,-2.99,396,334,400,359,257
1425,0.36,0.84,0.42,-0.85,-2.99,-1.83,397,342,398,357,260
1426,0.37,0.84,0.42,0.24,-4.64,-2.01,392,339,402,355,259
1427,0.36,0.84,0.42,-0.37,-2.14,-2.14,396,338,400,356,266
1428,0.35,0.84,0.42,-1.16,-3.48,-1.46,398,339,400,358,260
1429,0.35,0.84,0.41,0.12,-3.66,-2.38,395,343,399,359,260
1430,0.35,0.85,0.43,-0.85,-5.31,-0.12,393,336,401,359,258
1431,0.37,0.85,0.42,1.4,-2.44,-2.62,399,343,398,359,263
1432,0.37,0.84,0.41,-0.18,-4.27,-1.65,393,339,399,359,255
1433,0.36,0.84,0.39,4.7,-2.44,-3.3,400,342,402,356,259
1434,0.35,0.83,0.4,-0.12,-2.81,-3.78,400,346,401,353,260
1435,0.35,0.82,0.4,0.55,-2.62,-3.42,395,341,401,368,259
1436,0.34,0.84,0.41,-2.38,-1.53,-2.32,397,345,399,356,260
1437,0.34,0.85,0.42,0.43,-3.11,-1.83,399,346,402,357,257
1438,0.34,0.85,0.41,-1.46,-3.05,-1.71,399,341,401,361,253
1439,0.35,0.83,0.4,0.24,-2.26,-3.11,397,341,399,360,258
1440,0.35,0.85,0.42,-1.53,-2.62,-1.95,399,342,400,357,260
1441,0.34,0.85,0.42,-1.16,-2.62,-2.81,394,343,398,355,258
1442,0.36,0.85,0.42,0.43,-2.56,-0.67,395,344,417,357,256
1443,0.34,0.85,0.41,0.61,-2.99,-2.38,399,340,403,357,257
1444,0.34,0.84,0.41,0.79,-2.44,-2.5,393,347,400,355,260
1445,0.35,0.84,0.41,2.87,-3.42,-2.93,398,346,397,356,260
1446,0.34,0.84,0.41,-4.94,-4.33,-0.24,397,337,400,358,260
1447,0.34,0.84,0.42,-1.77,-3.66,-1.04,396,338,402,354,260
1448,0.36,0.85,0.41,2.5,-4.03,-3.11,398,341,402,361,258
1449,0.34,0.83,0.4,-0.37,-1.77,-3.23,393,345,401,357,257
1450,0.35,0.86,0.41,0.37,-3.3,-2.44,398,342,400,359,261
1451,0.34,0.84,0.4,-0.85,-3.17,-3.23,398,342,401,357,261
1452,0.35,0.85,0.4,-0.37,-3.42,-5.13,397,346,398,358,256
1453,0.35,0.85,0.41,1.34,-3.17,-2.38,396,348,399,361,255
1454,0.34,0.84,0.41,-0.43,-3.78,-0.98,398,342,413,358,261
1455,0.36,0.84,0.4,-0.43,-3.78,-0.98,398,339,398,356,257
1456,0.36,0.84,0.4,1.04,-4.27,-1.83,397,348,402,357,260
1457,0.36,0.84,0.4,4.76,-4.39,-3.36,398,343,398,356,299
1458,0.35,0.85,0.41,-0.49,-2.32,-2.99,397,345,395,356,256
1459,0.35,0.84,0.41,-1.1,-3.66,-2.2,396,345,399,357,259
1460,0.36,0.84,0.4,1.65,-2.01,-3.54,397,344,401,371,255
1461,0.36,0.84,0.4,1.53,-2.14,-3.05,399,346,402,357,261
1462,0.36,0.84,0.42,1.1,-2.5,-2.62,400,343,400,356,255
1463,0.37,0.84,0.41,1.34,-4.15,-2.32,395,347,399,357,258
1464,0.37,0.84,0.41,2.14,-3.42,-3.36,394,349,396,359,258
1465,0.35,0.84,0.44,-1.04,-3.48,-2.69,399,346,399,356,259
1466,0.36,0.83,0.41,-1.04,-2.69,-2.62,397,344,397,354,260
1467,0.36,0.83,0.41,2.62,-2.56,-4.09,397,340,399,360,261
1468,0.34,0.82,0.41,1.04,-1.65,-1.71,398,345,397,359,260
1469,0.36,0.83,0.43,-0.55,-0.49,-2.87,397,344,400,355,270
1470,0.35,0.83,0.43,-0.31,-1.46,-2.99,394,349,397,359,261
1471,0.37,0.83,0.43,1.65,-3.05,-2.62,398,356,394,356,256
1472,0.37,0.83,0.43,-0.98,-2.38,-2.14,392,345,398,357,262
1473,0.36,0.83,0.43,2.99,-1.95,-4.76,397,343,398,356,261
1474,0.36,0.84,0.43,-0.31,-2.26,-3.3,397,344,398,358,258
1475,0.36,0.84,0.44,-0.43,-1.77,-2.44,397,339,400,358,259
1476,0.36,0.83,0.43,1.16,-2.93,-2.75,396,346,398,361,258
1477,0.36,0.84,0.43,1.53,-2.81,-2.99,397,346,395,357,261
1478,0.36,0.83,0.43,0.31,-2.32,-2.38,397,340,399,354,259
1479,0.36,0.84,0.44,-0.85,-2.32,-2.14,398,348,399,359,258
1480,0.37,0.84,0.43,-0.79,-1.89,-2.5,393,345,394,359,259
1481,0.37,0.83,0.43,1.34,-3.23,-2.5,395,340,398,355,260
1482,0.38,0.83,0.42,0.31,-2.38,-2.87,399,342,402,359,259
1483,0.37,0.83,0.43,0.49,-2.99,-3.42,392,344,396,361,259
1484,0.36,0.83,0.42,0.37,-4.15,-1.16,397,342,399,357,259
1485,0.35,0.82,0.42,1.04,-3.42,-2.44,395,345,401,357,261
1486,0.36,0.84,0.42,0.92,-3.42,-2.14,398,340,398,359,262
1487,0.36,0.84,0.43,1.34,-3.17,-2.32,394,342,398,357,253
1488,0.37,0.86,0.43,-0.49,-4.27,-1.4,394,345,400,354,258
1489,0.37,0.86,0.48,-0.18,2.14,1.16,400,341,400,359,257
1490,0.43,0.81,0.49,-13.61,4.46,5.62,401,345,398,358,259
1491,0.37,0.71,0.59,-0.55,5.43,0.18,395,345,398,352,257
1492,0.54,0.62,0.57,-4.94,-12.08,3.85,401,343,401,352,256
1493,0.64,0.6,0.48,0.37,1.59,35.16,399,337,404,356,253
1494,0.52,0.56,0.54,7.45,-5.62,-7.93,397,342,399,357,269
1495,0.66,0.62,0.54,4.33,-7.39,7.93,396,339,399,357,259
1496,0.61,0.61,0.5,0.49,-5.55,-11.78,399,345,415,356,256
1497,0.66,0.64,0.51,1.04,-3.66,2.26,400,338,400,353,257
1498,0.63,0.54,0.48,4.39,-7.26,-3.54,400,342,400,352,257
1499,0.63,0.61,0.52,10.86,-1.46,-12.51,398,343,401,355,286
1500,0.66,0.61,0.46,-2.62,-3.17,3.05,397,343,401,355,258
1501,0.67,0.61,0.47,-3.91,-1.34,-4.58,400,344,401,360,255
1502,0.64,0.59,0.46,-0.61,-8.36,-3.97,397,347,400,361,260
1503,0.67,0.59,0.47,-1.71,-4.21,-0.67,398,347,399,357,260
1504,0.66,0.59,0.48,1.95,-3.05,-1.83,400,344,400,359,258
1505,0.66,0.59,0.49,0.73,-3.05,-2.44,399,339,399,358,260
1506,0.65,0.56,0.47,-12.39,-12.21,5.98,415,298,396,329,251
1507,0.54,0.64,0.59,6.65,-13.98,9.09,420,303,401,337,253
1508,0.55,0.6,0.55,-0.12,3.11,-0.92,418,303,401,339,253
1509,0.54,0.65,0.52,19.04,7.87,-12.76,414,307,402,334,250
1510,0.59,0.67,0.52,8.0,-11.66,-1.53,415,309,407,324,249
1511,0.56,0.75,0.49,24.54,-8.91,5.86,414,307,402,320,247
1512,0.43,0.76,0.41,1.46,-12.02,5.19,417,313,405,321,249
1513,0.53,0.7,0.47,-12.94,-6.84,1.04,417,315,402,323,249
1514,0.5,0.7,0.49,-1.71,-6.47,-3.3,413,313,403,324,250
1515,0.54,0.67,0.47,-6.41,-1.95,2.62,418,316,405,327,248
1516,0.61,0.68,0.44,5.43,4.88,-3.48,413,312,402,326,248
1517,0.62,0.68,0.46,3.17,-1.77,-3.85,415,313,401,323,248
1518,0.56,0.67,0.49,-2.56,-0.98,-0.12,411,317,408,329,250
1519,0.56,0.65,0.47,-3.17,-0.79,-1.04,416,321,401,330,247
1520,0.6,0.65,0.51,-3.05,-4.64,-0.49,413,314,402,329,247
1521,0.57,0.65,0.52,-2.56,-5.0,2.14,416,321,406,331,251
1522,0.57,0.63,0.49,-0.37,-2.62,-3.17,415,320,403,328,249
1523,0.6,0.66,0.5,1.16,-3.42,-3.97,418,323,401,328,252
1524,0.58,0.65,0.5,2.2,-2.81,-6.23,417,329,403,330,251
1525,0.55,0.68,0.51,1.1,-1.28,-4.09,415,317,403,328,246
1526,0.55,0.67,0.51,2.56,-4.46,1.1,417,315,406,328,249
1527,0.56,0.65,0.51,-1.59,-4.15,-0.43,415,322,416,330,249
1528,0.57,0.66,0.52,0.55,-0.73,-0.98,416,321,405,338,239
1529,0.57,0.65,0.51,1.95,-4.03,-5.19,418,320,403,336,252
1530,0.58,0.64,0.5,4.33,-2.62,0.73,413,320,401,329,249
1531,0.57,0.65,0.51,-0.61,1.04,-1.53,417,324,404,336,251
1532,0.6,0.64,0.52,-1.34,-0.12,-3.78,418,315,404,329,248
1533,0.59,0.63,0.53,0.12,-3.54,1.59,420,321,403,329,248
1534,0.57,0.61,0.54,3.97,-3.97,-4.82,415,319,401,329,246
1535,0.56,0.64,0.54,-1.89,-2.08,-3.6,418,318,404,331,251
1536,0.56,0.62,0.54,-0.79,-4.52,-4.15,415,320,405,329,250
1537,0.58,0.62,0.54,-0.24,-5.31,0.06,415,323,405,330,250
1538,0.58,0.62,0.54,-0.67,-0.79,-0.43,417,316,403,340,252
1539,0.57,0.62,0.55,4.09,-2.26,-3.36,420,321,403,339,251
1540,0.6,0.63,0.54,-2.56,0.31,-0.85,418,315,406,333,251
1541,0.61,0.58,0.54,1.1,-9.52,0.0,418,316,402,328,250
1542,0.61,0.7,0.6,-5.13,17.64,-15.2,415,322,407,331,252
1543,0.64,0.61,0.57,-0.67,-5.49,-0.18,419,321,403,336,246
1544,0.6,0.58,0.58,2.62,-6.53,-4.52,419,327,407,336,249
1545,0.64,0.59,0.59,8.42,-0.06,-6.04,419,314,403,334,249
1546,0.59,0.62,0.51,1.89,-0.98,-5.19,421,321,402,336,247
1547,0.6,0.63,0.53,4.03,-0.43,-4.52,416,323,402,335,250
1548,0.59,0.65,0.55,0.43,-1.71,-0.43,421,323,400,333,278
1549,0.64,0.67,0.53,4.58,-3.3,-1.83,420,324,402,336,253
1550,0.55,0.62,0.52,18.8,-2.99,-18.86,417,321,402,332,253
1551,0.6,0.69,0.46,4.09,-6.23,-1.22,417,322,404,337,250
1552,0.54,0.65,0.45,11.47,-15.44,1.71,415,324,402,338,250
1553,0.58,0.75,0.42,-1.59,-7.75,-5.74,414,326,406,337,278
1554,0.59,0.74,0.4,5.62,0.06,-5.07,419,323,405,339,251
1555,0.62,0.71,0.36,6.23,-0.92,-1.22,421,321,406,336,250
1556,0.61,0.71,0.35,3.78,-1.77,-3.72,420,319,411,338,250
1557,0.62,0.71,0.35,-2.93,-1.83,-2.56,415,324,404,343,251
1558,0.62,0.71,0.38,1.46,-0.79,-3.78,420,328,406,342,251
1559,0.57,0.68,0.4,5.0,-2.81,2.75,426,320,403,337,251
1560,0.61,0.68,0.39,5.25,0.24,-5.13,421,327,403,337,250
1561,0.58,0.72,0.33,-6.53,-4.15,5.62,415,328,399,339,254
1562,0.6,0.7,0.36,3.17,-3.11,0.98,420,324,403,337,264
1563,0.59,0.71,0.36,1.53,-2.62,-0.24,420,331,400,340,254
1564,0.65,0.68,0.35,-0.98,-5.92,0.0,414,325,401,340,252
1565,0.63,0.7,0.36,3.85,-2.38,-2.32,420,327,407,337,252
1566,0.64,0.67,0.35,5.62,-5.19,-0.98,418,325,404,341,255
1567,0.6,0.69,0.32,17.7,-11.35,9.03,420,325,401,341,255
1568,0.65,0.69,0.31,3.85,-2.81,-9.34,417,324,402,342,251
1569,0.61,0.66,0.32,-4.76,-2.87,-2.01,419,334,403,339,253
1570,0.61,0.72,0.33,1.4,-2.5,-6.59,418,326,399,345,254
1571,0.61,0.73,0.31,-0.31,-0.79,-4.27,419,332,403,342,249
1572,0.6,0.82,0.39,-13.37,-1.71,-4.15,417,331,402,344,254
1573,0.59,0.78,0.37,2.69,-2.26,-6.77,416,329,406,345,252
1574,0.6,0.75,0.34,0.0,-4.52,-5.43,421,322,405,341,254
1575,0.57,0.73,0.34,-1.34,-4.33,-2.08,420,330,403,343,252
1576,0.58,0.73,0.33,1.53,-3.97,-0.98,418,330,403,340,255
1577,0.59,0.74,0.32,3.97,-4.64,-2.93,419,336,407,332,253
1578,0.59,0.75,0.31,1.34,-2.87,-2.01,419,328,400,334,251
1579,0.58,0.76,0.32,2.14,-1.95,-3.36,419,332,404,331,254
1580,0.58,0.73,0.3,-2.93,-5.0,0.18,421,329,402,338,252
1581,0.61,0.74,0.31,2.5,-1.77,0.49,418,329,404,333,252
1582,0.6,0.71,0.3,-1.04,-5.86,-0.37,420,327,402,338,255
1583,0.61,0.73,0.31,0.43,-2.93,-2.38,419,329,414,332,254
1584,0.61,0.73,0.32,-0.98,-3.78,-1.83,421,329,401,336,260
1585,0.63,0.73,0.3,1.22,-2.01,-1.83,415,336,399,339,252
1586,0.62,0.72,0.3,0.73,-4.15,-4.76,420,329,399,337,253
1587,0.62,0.75,0.28,0.37,-5.07,-4.76,419,332,400,339,256
1588,0.6,0.76,0.27,2.56,-2.44,-1.04,420,329,402,337,256
1589,0.62,0.74,0.25,-2.26,-4.09,-1.59,421,329,403,335,253
1590,0.61,0.75,0.26,2.87,-3.17,-5.74,416,330,403,338,257
1591,0.6,0.75,0.26,0.92,-3.66,-3.85,420,328,401,348,254
1592,0.62,0.75,0.27,2.14,-0.24,-1.95,416,333,402,339,253
1593,0.55,0.74,0.28,-9.28,-0.98,-0.85,420,329,403,340,254
1594,0.6,0.77,0.3,-0.37,-3.85,0.31,420,325,402,338,252
1595,0.6,0.76,0.25,4.58,-3.72,2.75,421,326,403,340,254
1596,0.57,0.77,0.32,0.55,-0.98,0.31,419,330,401,341,254
1597,0.61,0.77,0.31,6.29,3.91,-6.35,421,335,403,336,254
1598,0.59,0.73,0.31,-0.92,-2.2,-7.08,417,336,403,341,252
1599,0.54,0.73,0.33,-2.93,-7.75,0.0,416,332,404,342,256
1600,0.62,0.75,0.32,-2.44,-9.64,-1.1,415,332,406,344,256
1601,0.6,0.7,0.31,1.53,-4.94,-0.18,417,327,405,345,249
1602,0.61,0.71,0.29,-0.61,-4.7,-1.59,423,327,406,346,250
1603,0.63,0.69,0.3,-5.25,-4.58,-1.1,422,332,402,345,263
1604,0.62,0.7,0.34,-0.92,-3.05,-1.71,419,336,404,348,255
1605,0.66,0.75,0.34,3.6,3.6,-2.99,420,337,406,348,259
1606,0.57,0.75,0.31,4.21,-2.38,-10.62,422,337,404,353,256
1607,0.67,0.71,0.32,-1.59,6.35,-4.64,421,332,402,347,256
1608,0.62,0.71,0.27,-2.62,-1.83,-8.0,416,329,403,343,253
1609,0.6,0.76,0.32,-9.4,-9.58,1.59,415,337,406,345,255
1610,0.6,0.74,0.35,13.98,-2.14,-8.42,414,335,402,342,257
1611,0.58,0.73,0.3,-1.4,-2.26,-6.71,412,335,403,339,254
1612,0.61,0.77,0.28,16.05,-3.17,-0.06,414,339,402,343,255
1613,0.55,0.78,0.27,-0.43,-4.33,-7.75,415,335,401,340,254
1614,0.52,0.8,0.27,1.77,0.06,-5.98,420,331,405,340,256
1615,0.55,0.82,0.27,-5.55,-3.66,4.03,422,337,401,344,256
1616,0.56,0.79,0.28,-2.14,-5.49,1.65,421,337,406,344,256
1617,0.57,0.76,0.3,0.49,-4.03,0.0,422,334,406,339,256
1618,0.58,0.75,0.29,0.92,-1.95,-1.77,422,334,408,342,255
1619,0.58,0.76,0.32,1.22,-0.49,-4.64,423,339,405,344,256
1620,0.57,0.76,0.31,4.27,-6.59,0.85,420,345,405,345,257
1621,0.58,0.75,0.3,1.77,-2.93,-3.48,423,335,405,346,262
1622,0.58,0.77,0.31,1.04,-2.75,-0.73,420,336,404,346,255
1623,0.6,0.75,0.3,-3.97,-6.71,0.06,418,342,405,343,258
1624,0.59,0.76,0.29,2.75,-2.99,-2.01,419,343,408,345,257
1625,0.58,0.75,0.29,-1.71,-3.54,-3.42,419,339,403,346,257
1626,0.59,0.76,0.3,2.75,-1.77,-5.19,419,344,404,345,255
1627,0.59,0.75,0.3,-2.44,-2.56,-5.43,421,338,404,346,258
1628,0.58,0.76,0.32,2.44,-2.56,-3.72,420,340,408,347,258
1629,0.57,0.76,0.3,2.38,-4.21,-3.48,416,344,404,345,257
1630,0.58,0.77,0.31,-0.49,-3.6,-2.26,417,339,404,346,255
1631,0.57,0.76,0.31,-0.24,-2.69,-2.56,420,340,403,347,257
1632,0.57,0.78,0.31,0.85,-3.05,-3.42,416,336,402,349,259
1633,0.57,0.75,0.32,-0.73,-2.2,-1.4,418,335,402,346,257
1634,0.53,0.77,0.33,-1.65,-0.43,-5.0,423,333,404,343,254
1635,0.57,0.76,0.31,-0.67,-3.48,-2.01,421,339,407,351,256
1636,0.57,0.77,0.32,-1.65,-4.94,-4.27,420,340,405,346,255
1637,0.59,0.76,0.32,0.37,-3.72,-1.46,417,333,407,345,257
1638,0.56,0.77,0.33,-1.1,-2.56,2.32,420,338,407,339,257
1639,0.56,0.76,0.31,0.98,-3.54,-2.5,420,329,407,336,257
1640,0.57,0.76,0.31,-0.55,-1.4,-1.59,421,335,406,343,257
1641,0.59,0.74,0.31,-4.15,-2.69,4.88,420,336,407,345,256
1642,0.58,0.76,0.31,3.97,-6.65,5.92,421,343,404,342,258
1643,0.58,0.75,0.31,-3.05,-2.62,-4.09,421,341,404,350,256
1644,0.58,0.75,0.29,-3.05,-5.19,0.31,419,337,402,344,255
1645,0.55,0.75,0.32,3.54,-7.32,4.15,422,333,405,342,257
1646,0.6,0.74,0.26,0.61,-2.5,-4.33,420,338,405,344,256
1647,0.6,0.76,0.28,0.85,-1.71,-3.36,421,344,405,340,257
1648,0.59,0.75,0.29,-1.89,-3.17,-0.92,416,339,405,341,256
1649,0.6,0.75,0.3,0.18,-4.15,0.43,421,356,407,340,256
1650,0.59,0.76,0.29,4.46,0.06,-6.04,420,344,407,347,255
1651,0.6,0.75,0.26,1.77,-1.71,-5.98,421,341,406,343,273
1652,0.58,0.75,0.3,-0.92,-2.01,-5.37,418,337,408,344,255
1653,0.58,0.76,0.3,0.18,-2.01,-2.56,419,339,406,344,257
1654,0.58,0.77,0.3,-0.73,-2.75,-2.87,418,347,407,347,258
1655,0.57,0.78,0.3,2.62,-1.28,-2.32,422,330,407,346,258
1656,0.56,0.75,0.31,1.77,-4.76,-3.05,420,326,408,343,257
1657,0.59,0.77,0.31,3.48,-2.75,-1.53,420,322,404,342,257
1658,0.58,0.76,0.31,1.22,-3.17,-3.05,420,330,404,341,258
1659,0.58,0.76,0.31,0.79,-2.62,-2.44,419,325,413,343,257
1660,0.59,0.77,0.3,1.22,-3.17,-1.16,420,325,405,346,256
1661,0.59,0.75,0.3,0.73,-4.88,-2.62,417,330,404,344,254
1662,0.58,0.75,0.28,0.79,-3.11,-2.81,419,331,405,344,258
1663,0.6,0.76,0.3,2.62,-3.11,-1.28,421,332,409,346,255
1664,0.59,0.74,0.3,-0.31,-5.07,-0.55,422,332,407,346,254
1665,0.61,0.74,0.3,0.67,-1.16,-2.44,424,324,405,350,256
1666,0.61,0.72,0.31,-1.77,-3.48,0.67,420,327,407,345,255
1667,0.63,0.75,0.3,3.42,-2.2,-4.58,421,328,407,346,255
1668,0.63,0.75,0.3,3.36,0.18,-5.55,418,330,402,348,258
1669,0.62,0.74,0.33,1.53,-4.88,0.18,420,333,401,345,258
1670,0.62,0.75,0.3,1.77,-1.77,-3.66,416,334,405,346,259
1671,0.64,0.74,0.29,1.4,-2.56,-2.01,420,333,402,348,258
1672,0.61,0.74,0.31,-2.62,-2.2,-3.36,420,333,401,347,255
1673,0.62,0.74,0.31,0.55,-3.23,-3.48,416,328,404,347,256
1674,0.62,0.73,0.3,4.88,-4.21,-1.65,420,336,405,346,262
1675,0.63,0.71,0.31,-0.18,-1.95,-5.92,420,336,402,349,257
1676,0.58,0.76,0.31,6.35,-3.54,-9.95,419,337,404,346,255
1677,0.52,0.8,0.33,13.06,2.62,-19.71,419,328,406,349,261
1678,0.25,0.92,0.21,-18.01,10.93,-34.85,417,333,412,345,255
1679,0.35,0.91,0.39,8.42,-17.33,14.53,417,330,404,345,253
1680,0.51,0.76,0.26,-4.39,0.92,-6.77,418,325,403,343,256
1681,0.44,0.91,0.37,-4.46,-1.53,4.82,419,327,404,343,254
1682,0.42,0.75,0.34,-0.61,1.16,-1.83,415,332,403,346,258
1683,0.43,0.8,0.35,-4.58,0.79,-4.76,419,346,404,347,256
1684,0.39,0.85,0.39,2.38,-1.22,-4.21,416,333,405,346,268
1685,0.41,0.82,0.38,-1.59,-2.5,0.79,418,337,402,350,256
1686,0.36,0.78,0.34,-4.52,0.79,-2.38,421,329,401,346,255
1687,0.43,0.85,0.38,1.4,-4.46,-2.81,421,334,403,346,257
1688,0.4,0.83,0.38,-0.61,-3.66,-0.85,418,332,403,344,255
1689,0.38,0.8,0.38,-0.12,-2.75,-2.81,418,335,401,347,254
1690,0.38,0.82,0.37,11.05,-5.49,4.82,421,330,404,350,255
1691,0.39,0.83,0.37,0.24,-3.54,-2.38,418,336,403,349,259
1692,0.44,0.82,0.35,0.73,-2.99,-0.73,409,333,407,349,258
1693,0.45,0.83,0.35,-1.83,-4.33,-2.93,419,335,406,354,256
1694,0.44,0.83,0.36,1.22,-4.88,-4.21,416,341,400,351,256
1695,0.41,0.84,0.4,-0.67,-0.67,-5.13,416,333,403,349,259
1696,0.39,0.82,0.41,2.44,-6.1,1.28,418,343,404,343,258
1697,0.38,0.78,0.44,-6.59,-6.59,5.8,418,340,406,351,266
1698,0.4,0.84,0.41,-6.23,-6.77,2.01,414,338,404,348,256
1699,0.38,0.82,0.42,-3.72,-2.01,-0.37,417,336,406,344,254
1700,0.37,0.82,0.44,-1.65,-2.38,-5.49,419,337,407,350,256
1701,0.38,0.82,0.43,-2.75,-5.55,-0.92,413,336,403,349,259
1702,0.38,0.81,0.43,-1.16,-4.82,-1.1,417,340,400,352,267
1703,0.39,0.81,0.42,0.55,-3.48,-0.98,414,346,404,350,254
1704,0.38,0.82,0.42,-2.14,-3.23,-4.03,414,338,407,351,257
1705,0.39,0.83,0.44,3.05,-7.75,-2.26,420,346,402,349,249
1706,0.37,0.84,0.44,-1.65,-3.11,0.24,416,342,417,347,257
1707,0.41,0.81,0.41,1.04,-5.31,-3.6,418,338,403,349,255
1708,0.39,0.81,0.41,4.03,-0.06,-2.99,417,342,404,350,259
1709,0.37,0.82,0.4,0.18,-2.93,-1.34,413,344,401,349,253
1710,0.37,0.86,0.42,-6.9,6.04,-11.47,419,348,398,356,251
1711,0.37,0.82,0.4,-1.22,2.08,-4.94,412,350,401,352,256
1712,0.39,0.83,0.41,-0.67,-5.62,-2.26,415,350,400,350,255
1713,0.38,0.83,0.4,1.4,-2.26,-8.06,416,345,402,350,255
1714,0.38,0.81,0.4,0.79,-1.89,-5.55,413,352,399,349,258
1715,0.39,0.83,0.42,1.4,-3.91,-3.97,419,345,402,352,257
1716,0.5,0.85,0.53,-27.53,18.68,-5.68,418,341,398,353,258
1717,0.43,0.6,0.51,-2.26,0.31,-5.37,417,349,402,352,255
1718,0.45,0.69,0.52,13.06,-13.73,3.66,415,342,402,350,256
1719,0.55,0.82,0.49,7.32,-7.2,-0.61,417,336,400,349,258
1720,0.44,0.74,0.47,5.74,-1.89,-5.43,422,334,401,350,256
1721,0.44,0.78,0.45,0.92,-3.97,-1.71,416,341,400,353,258
1722,0.43,0.79,0.46,10.8,-1.71,1.95,415,343,405,348,254
1723,0.43,0.79,0.44,-0.18,0.12,-0.18,418,340,402,348,258
1724,0.45,0.78,0.45,-0.49,-3.54,-1.28,416,344,398,352,255
1725,0.43,0.76,0.47,1.95,-6.35,-4.33,415,345,401,349,260
1726,0.42,0.78,0.48,2.56,-3.3,-2.2,413,342,400,356,256
1727,0.46,0.79,0.47,0.18,-4.82,-0.98,414,348,402,351,256
1728,0.46,0.77,0.44,1.22,-3.42,-4.88,413,345,404,352,267
1729,0.45,0.78,0.44,0.73,-2.62,-3.11,418,345,404,350,271
1730,0.44,0.79,0.44,4.15,-1.95,-4.64,413,349,403,352,255
1731,0.43,0.78,0.44,-1.4,-2.56,-2.81,420,346,404,344,257
1732,0.41,0.77,0.46,-2.2,-2.32,-3.6,417,341,402,356,257
1733,0.43,0.81,0.45,-1.1,-2.75,-1.59,417,325,401,350,260
1734,0.43,0.8,0.46,3.54,-3.23,-5.0,416,321,397,350,257
1735,0.42,0.8,0.44,2.2,-1.89,-4.52,416,317,397,343,254
1736,0.41,0.79,0.44,4.39,-3.42,-4.64,419,317,395,346,255
1737,0.4,0.8,0.44,1.53,-2.62,-3.42,410,323,399,343,256
1738,0.4,0.81,0.46,0.49,-4.15,-2.75,411,326,398,350,257
1739,0.4,0.81,0.46,-0.37,-1.28,-4.15,409,329,398,347,253
1740,0.41,0.81,0.44,0.49,-1.65,-4.33,412,330,396,346,253
1741,0.39,0.81,0.45,-4.7,-0.49,-2.2,411,324,387,346,252
1742,0.4,0.8,0.46,2.2,-2.93,-2.93,409,317,389,342,252
1743,0.39,0.81,0.46,2.5,-2.14,-2.32,410,325,391,346,253
1744,0.4,0.82,0.45,1.04,-3.36,-2.75,410,322,391,349,263
1745,0.41,0.82,0.45,1.1,-2.69,-2.56,409,322,396,345,255
1746,0.4,0.82,0.45,1.53,-2.81,-3.6,408,324,398,347,261
1747,0.39,0.82,0.45,-4.15,-3.23,-2.44,407,324,394,349,253
1748,0.39,0.81,0.44,-0.18,-2.69,-2.26,406,331,397,350,254
1749,0.39,0.8,0.44,-0.43,-2.56,-1.89,406,333,395,347,254
1750,0.39,0.8,0.45,-1.28,-2.44,-2.26,406,329,396,350,255
1751,0.42,0.82,0.43,4.21,-1.04,-4.15,407,324,398,350,253
1752,0.41,0.82,0.45,0.31,-3.48,-2.32,404,331,396,349,253
1753,0.39,0.82,0.45,-0.43,-1.46,-4.7,409,324,398,349,257
1754,0.4,0.8,0.44,-1.83,-3.66,-0.73,408,333,394,350,254
1755,0.41,0.8,0.45,-0.24,-2.08,-1.22,406,324,399,348,254
1756,0.4,0.8,0.43,1.04,-1.22,-4.09,404,330,398,351,257
1757,0.41,0.82,0.45,-3.11,-3.3,-1.59,406,329,395,346,256
1758,0.41,0.81,0.44,-1.95,-3.11,-1.89,406,332,396,352,266
1759,0.41,0.82,0.44,0.12,-3.23,-3.11,408,333,396,345,255
1760,0.4,0.81,0.44,0.49,-2.62,-2.69,406,330,399,347,253
1761,0.4,0.81,0.44,0.24,-3.66,-3.3,406,326,399,349,254
1762,0.4,0.81,0.44,2.32,-3.23,-3.11,403,327,395,352,255
1763,0.4,0.81,0.44,-1.04,-3.11,-2.2,401,337,400,348,258
1764,0.41,0.81,0.44,0.85,-5.19,-2.01,405,334,401,360,252
1765,0.41,0.8,0.43,1.34,-2.08,-3.17,405,335,394,351,275
1766,0.39,0.8,0.44,-0.98,-3.36,-2.14,405,332,396,351,254
1767,0.39,0.8,0.44,0.49,-2.62,-2.75,405,337,401,349,256
1768,0.39,0.81,0.45,-0.43,-5.07,-1.46,404,335,398,351,256
1769,0.4,0.8,0.45,-1.65,-2.56,-2.14,405,335,399,350,254
1770,0.39,0.79,0.46,1.28,-2.62,-2.75,406,336,396,349,257
1771,0.4,0.81,0.45,-0.73,-2.93,-2.38,406,337,401,351,252
1772,0.39,0.8,0.46,-2.26,-2.99,-1.22,401,341,395,349,254
1773,0.41,0.81,0.45,0.98,-4.27,-2.26,404,340,397,352,256
1774,0.39,0.8,0.45,-2.32,-1.89,-1.4,402,338,401,350,255
1775,0.4,0.79,0.45,1.65,-3.85,-2.81,401,344,400,351,255
1776,0.41,0.8,0.45,3.42,-3.36,-3.42,403,343,398,353,254
1777,0.4,0.8,0.46,-0.61,-4.09,-1.95,406,341,399,346,252
1778,0.4,0.8,0.45,1.59,-3.42,-2.5,403,339,398,347,257
1779,0.39,0.81,0.43,-1.34,-2.87,-2.14,399,341,401,351,256
1780,0.45,0.82,0.42,8.54,-1.65,-8.48,393,340,396,356,255
1781,0.41,0.84,0.44,3.11,-2.75,-2.75,402,337,396,349,257
1782,0.41,0.82,0.43,2.44,-1.83,-3.05,401,338,395,350,257
1783,0.4,0.81,0.44,0.24,-3.42,-4.33,400,339,397,353,255
1784,0.4,0.79,0.43,-2.01,-3.54,-1.34,401,342,393,356,258
1785,0.41,0.81,0.44,-0.73,-3.23,-1.53,399,341,396,351,258
1786,0.41,0.8,0.43,-3.66,-2.56,-1.89,400,346,396,352,259
1787,0.4,0.81,0.43,-0.85,-1.53,-2.5,404,342,396,352,256
1788,0.41,0.81,0.44,-1.28,-2.2,-1.65,400,346,397,354,256
1789,0.41,0.81,0.44,0.61,-3.42,-2.44,399,342,399,351,256
1790,0.41,0.81,0.44,1.95,-3.66,-3.54,400,344,397,358,254
1791,0.4,0.8,0.44,-0.43,-3.6,-1.77,396,342,394,352,256
1792,0.4,0.81,0.44,1.46,-1.89,-4.33,396,341,396,352,260
1793,0.4,0.81,0.44,1.04,-2.99,-2.01,401,341,397,349,259
1794,0.4,0.8,0.44,-3.66,-2.87,-2.01,404,341,400,352,256
1795,0.4,0.81,0.43,4.33,-1.77,-5.43,401,338,398,353,260
1796,0.41,0.82,0.43,4.15,-0.98,-5.74,399,341,402,352,255
1797,0.41,0.82,0.45,-3.3,-2.38,-1.65,397,344,395,355,257
1798,0.4,0.82,0.44,-3.97,-3.78,-1.04,398,343,411,354,257
1799,0.42,0.81,0.46,-0.79,-2.99,-1.22,396,343,398,351,257
1800,0.4,0.81,0.45,-0.79,-3.85,-2.69,400,337,398,350,255
1801,0.41,0.81,0.45,2.87,-2.62,-1.46,399,342,395,352,256
1802,0.43,0.81,0.43,1.95,-2.75,-3.97,394,345,398,351,259
1803,0.43,0.79,0.44,3.97,-6.71,-2.81,399,343,403,352,288
1804,0.43,0.83,0.46,1.71,-1.83,-2.93,397,346,401,354,258
1805,0.43,0.82,0.43,3.72,-3.48,-2.56,395,341,397,352,257
1806,0.44,0.8,0.44,-1.59,-4.33,-2.14,396,344,399,356,258
1807,0.43,0.79,0.44,-1.22,-2.56,-3.23,397,344,398,356,260
1808,0.45,0.81,0.43,5.74,-2.44,-5.62,399,340,400,354,256
1809,0.43,0.8,0.42,2.62,-4.09,-4.09,399,341,397,357,259
1810,0.4,0.82,0.43,0.73,-2.62,-3.17,396,339,400,356,258
1811,0.42,0.82,0.42,0.55,-1.89,-3.17,392,340,402,353,259
1812,0.42,0.82,0.42,-0.18,-3.54,-2.69,394,345,399,355,258
1813,0.42,0.8,0.42,0.73,-3.85,-2.44,393,342,397,359,257
1814,0.4,0.82,0.42,0.18,-2.5,-3.6,396,344,400,355,256
1815,0.41,0.83,0.43,0.37,-1.89,-2.26,394,344,399,357,259
1816,0.39,0.82,0.44,-1.71,-3.36,0.12,398,342,399,355,257
1817,0.41,0.82,0.43,-0.92,-3.36,-1.53,393,346,396,356,260
1818,0.42,0.81,0.41,2.99,-3.36,-3.3,395,351,401,354,260
1819,0.42,0.81,0.41,0.43,-5.31,-2.01,395,354,406,357,257
1820,0.4,0.82,0.4,0.06,-3.17,-2.01,391,345,398,354,260
1821,0.4,0.83,0.41,3.11,-3.78,-3.54,386,343,399,355,259
1822,0.4,0.83,0.41,0.85,-1.4,-3.05,389,345,398,354,262
1823,0.38,0.84,0.41,-1.1,-2.87,-3.91,386,330,392,347,256
1824,0.39,0.84,0.4,1.28,-2.93,-2.44,384,335,394,350,261
1825,0.44,0.82,0.4,0.0,-3.91,-1.16,388,330,395,345,257
1826,0.37,0.84,0.42,-1.53,-2.26,-2.56,388,343,397,350,256
1827,0.38,0.86,0.42,1.4,-3.66,-3.72,382,337,395,350,257
1828,0.4,0.84,0.41,1.1,-3.3,-3.78,383,339,396,352,258
1829,0.39,0.83,0.42,-1.95,-2.2,-1.95,384,336,400,351,257
1830,0.38,0.83,0.41,-0.18,-1.59,-3.05,387,339,398,369,258
1831,0.37,0.84,0.42,3.48,-2.08,-5.0,385,336,396,352,258
1832,0.38,0.84,0.4,-1.77,-2.26,-0.67,387,341,398,356,256
1833,0.37,0.83,0.4,0.18,-4.21,-2.08,385,340,397,352,256
1834,0.39,0.85,0.41,-1.22,-2.93,-1.22,383,335,399,353,265
1835,0.41,0.85,0.42,-2.87,-3.05,1.83,390,339,397,355,259
1836,0.39,0.83,0.42,-1.34,-3.78,-2.62,389,342,395,352,258
1837,0.38,0.83,0.41,-0.06,-3.23,-4.88,389,337,398,355,253
1838,0.39,0.83,0.4,6.29,-1.65,-3.97,388,347,398,352,253
1839,0.39,0.83,0.4,-2.38,-4.7,-1.1,386,339,398,352,258
1840,0.39,0.82,0.41,0.49,-2.01,-1.71,391,346,399,351,260
1841,0.4,0.82,0.4,4.46,-3.23,-3.36,391,353,397,354,257
1842,0.39,0.85,0.41,-0.98,-3.48,-1.65,389,343,396,356,258
1843,0.39,0.83,0.41,0.98,-0.98,-2.69,390,343,399,354,258
1844,0.39,0.83,0.41,2.44,-1.28,-3.97,395,345,397,354,260
1845,0.4,0.83,0.41,0.37,-4.64,-2.99,395,343,408,351,260
1846,0.38,0.81,0.41,1.77,-3.05,-1.28,391,347,399,355,258
1847,0.39,0.84,0.41,1.59,-3.23,-4.03,395,342,397,355,258
1848,0.37,0.83,0.42,0.31,-4.46,-3.85,391,343,396,359,260
1849,0.39,0.84,0.41,-1.53,-3.05,-3.05,391,345,398,358,259
1850,0.39,0.83,0.42,-0.55,-3.78,-1.71,386,345,396,358,258
1851,0.39,0.83,0.41,-3.36,-4.15,-2.26,393,344,398,357,257
1852,0.37,0.83,0.41,0.12,-2.14,-2.08,387,347,399,357,261
1853,0.38,0.83,0.42,0.73,-3.6,-2.5,392,346,395,358,261
1854,0.42,0.84,0.39,10.44,-11.35,12.08,397,348,397,355,257
1855,0.44,0.82,0.4,-2.81,-4.88,-0.55,398,353,398,358,258
1856,0.41,0.8,0.4,-1.77,4.15,-4.7,404,354,397,357,251
1857,0.42,0.81,0.4,-3.97,-4.88,-3.6,402,353,400,360,253
1858,0.43,0.8,0.39,0.12,-4.33,-3.23,405,352,393,358,256
1859,0.43,0.8,0.39,-1.95,-2.56,-3.23,399,354,392,357,256
1860,0.43,0.81,0.4,0.79,-1.22,-3.11,405,356,393,358,259
1861,0.44,0.8,0.4,-1.34,-3.42,-1.65,405,358,394,354,260
1862,0.45,0.8,0.4,-0.18,-2.69,-2.2,403,351,394,358,256
1863,0.42,0.81,0.4,2.69,-2.99,-3.05,402,359,394,358,260
1864,0.44,0.8,0.41,3.6,-3.85,-1.65,405,356,393,359,272
1865,0.45,0.79,0.39,1.89,-2.69,-2.81,400,355,391,356,253
1866,0.43,0.8,0.4,1.28,-3.91,-3.11,402,360,394,358,279
1867,0.42,0.8,0.41,0.0,-2.08,-3.66,404,359,396,362,257
1868,0.41,0.82,0.4,4.03,-0.18,-6.29,403,327,398,358,261
1869,0.42,0.82,0.4,-1.71,-4.03,-2.32,405,329,396,356,259
1870,0.42,0.84,0.4,1.4,-3.54,-5.13,403,324,394,352,260
1871,0.42,0.83,0.42,2.38,-3.23,-3.6,399,325,404,353,254
1872,0.41,0.81,0.42,-0.79,-2.81,-2.14,400,332,398,347,254
1873,0.41,0.81,0.42,0.85,-2.38,-3.36,395,326,393,354,255
1874,0.41,0.81,0.44,0.31,-2.26,-3.54,397,323,397,356,255
1875,0.4,0.81,0.43,1.28,-2.14,-3.42,397,323,399,353,254
1876,0.41,0.82,0.42,0.67,-3.05,-2.26,399,327,397,351,272
1877,0.4,0.82,0.43,0.06,-3.48,-2.5,396,327,396,355,259
1878,0.39,0.82,0.42,-1.1,-2.81,-2.26,398,328,399,354,258
1879,0.38,0.81,0.42,-1.16,-2.99,-1.1,397,329,396,355,259
1880,0.4,0.81,0.42,-0.79,-2.81,-2.56,397,328,397,351,254
1881,0.39,0.83,0.43,-15.26,-2.99,-3.72,397,333,396,365,258
1882,0.34,0.8,0.46,5.37,-2.81,0.92,393,331,398,357,256
1883,0.35,0.81,0.41,5.25,-5.92,-1.4,394,331,398,355,258
1884,0.36,0.84,0.43,-2.38,-1.46,-1.77,396,347,395,355,258
1885,0.33,0.83,0.43,-0.31,-3.72,-1.1,399,333,398,355,269
1886,0.35,0.84,0.42,-1.16,-2.2,-1.89,395,336,399,357,258
1887,0.35,0.84,0.43,-0.79,-2.5,-1.71,400,333,398,353,255
1888,0.35,0.84,0.42,-0.43,-2.75,-1.71,399,334,401,357,259
1889,0.36,0.84,0.41,2.32,-2.56,-4.03,399,334,400,356,256
1890,0.35,0.83,0.4,2.01,-2.38,-3.72,394,334,402,354,256
1891,0.36,0.84,0.42,-0.55,-2.32,-2.87,397,334,400,355,254
1892,0.35,0.84,0.43,-0.37,-1.28,-3.05,399,334,400,356,258
1893,0.36,0.84,0.43,0.12,-2.93,-2.44,400,338,410,356,257
1894,0.36,0.85,0.44,-1.71,-5.8,-0.92,401,334,400,357,256
1895,0.37,0.84,0.43,0.18,-4.64,-1.34,396,338,396,356,260
1896,0.36,0.84,0.42,0.85,-4.15,-2.44,398,334,400,355,257
1897,0.36,0.83,0.42,-0.61,-3.97,-1.71,398,330,400,357,257
1898,0.35,0.83,0.43,-1.16,-3.48,-1.4,399,337,398,359,259
1899,0.37,0.83,0.42,3.23,-3.36,-0.92,398,331,405,356,256
1900,0.37,0.84,0.43,0.92,-3.23,-2.32,399,337,401,358,258
1901,0.37,0.84,0.43,1.95,-1.77,-4.21,399,328,399,358,254
1902,0.37,0.84,0.43,-0.31,-2.81,-2.26,399,332,400,358,256
1903,0.36,0.82,0.42,-0.18,-2.2,-2.08,398,332,399,357,257
1904,0.37,0.83,0.42,2.14,-3.11,-3.23,398,337,400,359,259
1905,0.36,0.83,0.43,-0.73,-4.33,-2.69,396,336,404,356,260
1906,0.36,0.84,0.42,-1.22,-3.6,-1.77,401,348,401,362,266
1907,0.36,0.82,0.41,1.04,-3.66,-1.77,399,333,400,357,284
1908,0.37,0.84,0.42,1.1,-3.97,-2.75,395,338,399,355,258
1909,0.36,0.84,0.43,-0.43,-3.3,-1.77,398,339,401,356,257
1910,0.36,0.83,0.42,-0.55,-3.6,-1.83,399,350,398,361,261
1911,0.37,0.83,0.42,1.34,-2.75,-2.99,395,341,403,356,260
1912,0.36,0.84,0.42,1.53,-2.99,-2.62,397,335,403,356,258
1913,0.35,0.83,0.42,0.24,-2.87,-2.44,395,341,397,356,260
1914,0.34,0.85,0.41,0.31,-2.5,-3.3,399,338,399,356,255
1915,0.36,0.85,0.42,0.0,-3.11,-2.44,399,340,396,356,260
1916,0.37,0.85,0.42,-0.67,-2.56,-1.95,399,342,401,355,259
1917,0.36,0.84,0.42,-0.24,-2.81,-2.44,398,337,398,359,260
1918,0.37,0.84,0.42,0.06,-4.09,-2.01,399,341,396,357,259
1919,0.36,0.84,0.41,2.26,-3.72,-2.87,398,340,395,354,260
1920,0.36,0.84,0.42,-0.06,-2.38,-2.32,394,343,401,353,259
1921,0.36,0.84,0.42,0.55,-2.32,-2.75,398,343,398,355,258
1922,0.35,0.83,0.41,2.32,-1.77,-4.03,398,338,403,356,259
1923,0.35,0.83,0.41,-1.22,-3.54,-2.26,399,338,401,357,260
1924,0.36,0.84,0.42,-0.06,-2.99,-1.77,400,335,400,358,257
1925,0.36,0.85,0.42,0.73,-1.77,-3.42,400,341,402,357,258
1926,0.36,0.84,0.41,1.53,-3.3,-2.99,396,334,400,359,257
1927,0.36,0.84,0.42,-0.85,-2.99,-1.83,397,342,398,357,260
1928,0.37,0.84,0.42,0.24,-4.64,-2.01,392,339,402,355,259
1929,0.36,0.84,0.42,-0.37,-2.14,-2.14,396,338,400,356,266
1930,0.35,0.84,0.42,-1.16,-3.48,-1.46,398,339,400,358,260
1931,0.35,0.84,0.41,0.12,-3.66,-2.38,395,343,399,359,260
1932,0.35,0.85,0.43,-0.85,-5.31,-0.12,393,336,401,359,258
1933,0.37,0.85,0.42,1.4,-2.44,-2.62,399,343,398,359,263
1934,0.37,0.84,0.41,-0.18,-4.27,-1.65,393,339,399,359,255
1935,0.36,0.84,0.39,4.7,-2.44,-3.3,400,342,402,356,259
1936,0.35,0.83,0.4,-0.12,-2.81,-3.78,400,346,401,353,260
1937,0.35,0.82,0.4,0.55,-2.62,-3.42,395,341,401,368,259
1938,0.34,0.84,0.41,-2.38,-1.53,-2.32,397,345,399,356,260
1939,0.34,0.85,0.42,0.43,-3.11,-1.83,399,346,402,357,257
1940,0.34,0.85,0.41,-1.46,-3.05,-1.71,399,341,401,361,253
1941,0.35,0.83,0.4,0.24,-2.26,-3.11,397,341,399,360,258
1942,0.35,0.85,0.42,-1.53,-2.62,-1.95,399,342,400,357,260
1943,0.34,0.85,0.42,-1.16,-2.62,-2.81,394,343,398,355,258
1944,0.36,0.85,0.42,0.43,-2.56,-0.67,395,344,417,357,256
1945,0.34,0.85,0.41,0.61,-2.99,-2.38,399,340,403,357,257
1946,0.34,0.84,0.41,0.79,-2.44,-2.5,393,347,400,355,260
1947,0.35,0.84,0.41,2.87,-3.42,-2.93,398,346,397,356,260
1948,0.34,0.84,0.41,-4.94,-4.33,-0.24,397,337,400,358,260
1949,0.34,0.84,0.42,-1.77,-3.66,-1.04,396,338,402,354,260
1950,0.36,0.85,0.41,2.5,-4.03,-3.11,398,341,402,361,258
1951,0.34,0.83,0.4,-0.37,-1.77,-3.23,393,345,401,357,257
1952,0.35,0.86,0.41,0.37,-3.3,-2.44,398,342,400,359,261
1953,0.34,0.84,0.4,-0.85,-3.17,-3.23,398,342,401,357,261
1954,0.35,0.85,0.4,-0.37,-3.42,-5.13,397,346,398,358,256
1955,0.35,0.85,0.41,1.34,-3.17,-2.38,396,348,399,361,255
1956,0.34,0.84,0.41,-0.43,-3.78,-0.98,398,342,413,358,261
1957,0.36,0.84,0.4,-0.43,-3.78,-0.98,398,339,398,356,257
1958,0.36,0.84,0.4,1.04,-4.27,-1.83,397,348,402,357,260
1959,0.36,0.84,0.4,4.76,-4.39,-3.36,398,343,398,356,299
1960,0.35,0.85,0.41,-0.49,-2.32,-2.99,397,345,395,356,256
1961,0.35,0.84,0.41,-1.1,-3.66,-2.2,396,345,399,357,259
1962,0.36,0.84,0.4,1.65,-2.01,-3.54,397,344,401,371,255
1963,0.36,0.84,0.4,1.53,-2.14,-3.05,399,346,402,357,261
1964,0.36,0.84,0.42,1.1,-2.5,-2.62,400,343,400,356,255
1965,0.37,0.84,0.41,1.34,-4.15,-2.32,395,347,399,357,258
1966,0.37,0.84,0.41,2.14,-3.42,-3.36,394,349,396,359,258
1967,0.35,0.84,0.44,-1.04,-3.48,-2.69,399,346,399,356,259
1968,0.36,0.83,0.41,-1.04,-2.69,-2.62,397,344,397,354,260
1969,0.36,0.83,0.41,2.62,-2.56,-4.09,397,340,399,360,261
1970,0.34,0.82,0.41,1.04,-1.65,-1.71,398,345,397,359,260
1971,0.36,0.83,0.43,-0.55,-0.49,-2.87,397,344,400,355,270
1972,0.35,0.83,0.43,-0.31,-1.46,-2.99,394,349,397,359,261
1973,0.37,0.83,0.43,1.65,-3.05,-2.62,398,356,394,356,256
1974,0.37,0.83,0.43,-0.98,-2.38,-2.14,392,345,398,357,262
1975,0.36,0.83,0.43,2.99,-1.95,-4.76,397,343,398,356,261
1976,0.36,0.84,0.43,-0.31,-2.26,-3.3,397,344,398,358,258
1977,0.36,0.84,0.44,-0.43,-1.77,-2.44,397,339,400,358,259
1978,0.36,0.83,0.43,1.16,-2.93,-2.75,396,346,398,361,258
1979,0.36,0.84,0.43,1.53,-2.81,-2.99,397,346,395,357,261
1980,0.36,0.83,0.43,0.31,-2.32,-2.38,397,340,399,354,259
1981,0.36,0.84,0.44,-0.85,-2.32,-2.14,398,348,399,359,258
1982,0.37,0.84,0.43,-0.79,-1.89,-2.5,393,345,394,359,259
1983,0.37,0.83,0.43,1.34,-3.23,-2.5,395,340,398,355,260
1984,0.38,0.83,0.42,0.31,-2.38,-2.87,399,342,402,359,259
1985,0.37,0.83,0.43,0.49,-2.99,-3.42,392,344,396,361,259
1986,0.36,0.83,0.42,0.37,-4.15,-1.16,397,342,399,357,259
1987,0.35,0.82,0.42,1.04,-3.42,-2.44,395,345,401,357,261
1988,0.36,0.84,0.42,0.92,-3.42,-2.14,398,340,398,359,262
1989,0.36,0.84,0.43,1.34,-3.17,-2.32,394,342,398,357,253
1990,0.37,0.86,0.43,-0.49,-4.27,-1.4,394,345,400,354,258
1991,0.37,0.86,0.48,-0.18,2.14,1.16,400,341,400,359,257
1992,0.43,0.81,0.49,-13.61,4.46,5.62,401,345,398,358,259
1993,0.37,0.71,0.59,-0.55,5.43,0.18,395,345,398,352,257
1994,0.54,0.62,0.57,-4.94,-12.08,3.85,401,343,401,352,256
1995,0.64,0.6,0.48,0.37,1.59,35.16,399,337,404,356,253
1996,0.52,0.56,0.54,7.45,-5.62,-7.93,397,342,399,357,269
1997,0.66,0.62,0.54,4.33,-7.39,7.93,396,339,399,357,259
1998,0.61,0.61,0.5,0.49,-5.55,-11.78,399,345,415,356,256
1999,0.66,0.64,0.51,1.04,-3.66,2.26,400,338,400,353,257
2000,0.63,0.54,0.48,4.39,-7.26,-3.54,400,342,400,352,257
2001,0.63,0.61,0.52,10.86,-1.46,-12.51,398,343,401,355,286
2002,0.66,0.61,0.46,-2.62,-3.17,3.05,397,343,401,355,258
2003,0.67,0.61,0.47,-3.91,-1.34,-4.58,400,344,401,360,255
2004,0.64,0.59,0.46,-0.61,-8.36,-3.97,397,347,400,361,260
2005,0.67,0.59,0.47,-1.71,-4.21,-0.67,398,347,399,357,260
2006,0.66,0.59,0.48,1.95,-3.05,-1.83,400,344,400,359,258
2007,0.66,0.59,0.49,0.73,-3.05,-2.44,399,339,399,358,260
