,aX,aY,aZ,gX,gY,gZ,little,ring,middle,index,thumb
0,0.18,-0.98,0.16,-0.85,-2.56,1.34,182,247,183,432,343
1,0.16,-0.98,0.14,0.98,0.43,-2.87,189,248,179,431,350
2,0.15,-0.97,0.16,1.34,-9.28,-0.55,190,246,188,429,349
3,0.14,-0.99,0.15,-3.48,-12.76,-4.58,196,249,180,438,349
4,0.13,-0.98,0.18,8.48,-6.9,-2.14,185,250,183,431,347
5,0.15,-0.98,0.17,0.24,-5.68,1.53,203,255,184,432,349
6,0.14,-0.97,0.15,4.33,5.92,-0.12,186,248,187,431,349
7,0.15,-1.0,0.16,5.68,-1.04,-3.91,194,248,183,428,350
8,0.13,-0.95,0.18,-3.66,-9.4,-0.92,196,248,190,433,351
9,0.18,-0.99,0.19,-1.1,-2.75,-5.62,195,250,179,435,351
10,0.18,-1.01,0.16,5.55,0.79,-0.43,198,252,185,427,354
11,0.11,-0.97,0.12,-0.06,8.54,8.24,196,248,187,435,350
12,0.06,-1.0,0.19,-7.57,-11.35,8.24,192,254,185,433,349
13,0.05,-0.9,0.18,-22.83,4.39,4.33,197,256,194,436,352
14,0.0,-0.98,0.2,8.79,0.92,-0.67,206,253,195,435,353
15,0.01,-0.99,0.18,0.92,-1.59,-6.59,198,252,186,436,348
16,-0.01,-0.95,0.18,0.31,-5.25,-3.17,193,252,190,438,356
17,0.02,-0.98,0.21,1.95,-4.58,-2.99,195,249,188,438,352
18,0.02,-0.99,0.19,-1.83,-2.99,-3.11,199,257,192,436,354
19,0.02,-0.99,0.19,-0.79,-3.54,-5.07,195,250,186,436,356
20,0.03,-0.98,0.18,-1.95,-6.59,-6.59,197,256,191,433,345
21,-0.03,-0.99,0.12,4.09,-5.25,-1.22,197,258,192,429,348
22,0.02,-1.0,0.16,2.44,-6.65,-6.29,209,256,192,435,349
23,0.06,-0.98,0.15,-5.0,-0.92,-5.37,197,261,189,431,349
24,0.07,-0.99,0.11,-2.2,-3.36,-5.25,202,273,193,438,350
25,0.08,-0.99,0.1,0.24,-2.93,-1.53,193,256,189,439,354
26,0.07,-0.99,0.09,-0.43,-3.66,-5.62,202,258,195,436,351
27,0.08,-0.99,0.1,0.12,-5.98,-2.93,203,258,194,437,346
28,0.07,-0.98,0.08,-0.67,-4.15,-2.26,202,260,198,429,348
29,0.08,-0.99,0.09,0.55,2.32,-1.34,195,260,198,439,351
30,0.09,-0.99,0.08,-0.61,-2.69,-2.2,197,260,189,436,349
31,0.1,-1.0,0.06,5.37,-6.23,-2.62,193,258,194,437,352
32,0.09,-1.0,0.09,0.92,-2.69,-1.04,200,255,196,437,349
33,0.08,-0.99,0.07,-1.77,-3.05,-3.6,195,259,193,432,352
34,0.08,-0.98,0.08,-1.65,-1.4,-2.81,198,263,185,437,348
35,0.07,-0.99,0.08,5.62,-1.4,-0.85,198,260,188,431,354
36,0.05,-1.0,0.15,-1.04,-5.74,-3.91,195,259,191,438,351
37,0.08,-0.99,0.13,-0.37,-6.65,-0.61,199,259,192,434,354
38,0.09,-0.99,0.11,2.32,-3.23,-2.5,199,259,200,439,352
39,0.08,-0.99,0.12,1.95,-2.26,-2.14,197,262,194,437,349
40,0.08,-0.98,0.14,-1.65,-3.91,-1.22,201,262,195,435,350
41,0.06,-0.99,0.13,0.06,-2.01,-2.5,199,260,192,440,350
42,0.09,-0.99,0.13,1.53,-2.62,-3.54,205,263,198,439,351
43,0.09,-0.99,0.12,1.1,-3.23,-2.62,201,261,183,438,355
44,0.08,-0.98,0.13,-0.79,-3.66,-2.62,199,257,194,439,352
45,0.08,-0.98,0.1,-1.22,-2.69,-2.32,197,257,200,436,349
46,0.08,-0.99,0.12,-1.1,-2.5,-2.81,204,259,194,437,350
47,0.08,-1.0,0.13,-1.53,-1.65,-2.87,201,264,192,441,353
48,0.07,-0.99,0.11,0.61,-3.6,-1.59,203,260,195,438,349
49,0.09,-1.0,0.11,-0.61,-1.28,-3.23,202,259,198,436,352
50,0.08,-0.99,0.12,0.61,-3.3,-2.69,195,263,197,444,353
51,0.09,-0.98,0.12,0.24,-3.78,-2.26,199,262,194,443,354
52,0.09,-0.99,0.11,1.46,-3.54,-2.99,202,261,198,443,351
53,0.08,-1.01,0.15,-2.75,-0.98,-0.85,199,261,197,438,353
54,0.08,-0.99,0.12,0.61,-5.43,-4.7,197,263,195,438,351
55,0.09,-0.98,0.1,0.92,-3.6,-1.59,201,256,197,442,351
56,0.11,-0.98,0.12,5.68,-10.86,-4.82,200,258,194,439,351
57,0.09,-0.97,0.11,-1.4,-2.38,-2.62,203,258,197,434,353
58,0.1,-0.97,0.14,-3.11,-4.21,-4.46,200,262,196,455,352
59,0.11,-0.98,0.14,-1.95,-0.24,0.61,203,264,193,443,353
60,0.13,-0.97,0.11,2.62,-4.88,-4.94,199,261,195,440,352
61,0.08,-0.95,0.17,-1.89,-1.65,-1.4,200,265,208,439,349
62,0.12,-1.08,0.22,8.91,-13.43,-3.66,201,259,198,440,353
63,0.14,-0.95,0.15,4.39,0.61,-4.33,204,261,198,438,354
64,0.15,-1.01,0.21,3.11,3.48,3.36,199,257,200,449,351
65,0.09,-0.96,0.17,-7.39,5.74,-2.08,203,260,198,441,352
66,0.12,-0.98,0.17,3.36,-2.87,-5.86,209,259,199,442,354
67,0.13,-0.97,0.17,1.4,-3.54,-2.01,204,257,193,439,355
68,0.16,-1.0,0.19,2.62,-1.46,-4.64,197,259,189,435,352
69,0.11,-0.95,0.15,-2.93,-8.79,-0.49,198,266,190,438,350
70,0.11,-0.97,0.14,-2.38,-3.6,-4.76,200,261,199,438,352
71,0.12,-0.98,0.1,2.5,0.24,-2.2,218,263,194,441,354
72,0.09,-1.01,0.14,6.77,-0.12,1.22,202,264,195,435,351
73,0.12,-0.98,0.16,0.73,4.58,-4.88,199,255,199,442,350
74,0.13,-0.96,0.15,-6.65,-2.38,-2.87,209,261,192,435,353
75,0.13,-0.97,0.15,-0.18,-3.42,-2.32,202,260,201,439,354
76,0.12,-0.91,0.12,-7.51,2.93,-3.6,208,260,196,437,353
77,0.07,-0.98,0.14,-0.24,-0.37,5.13,203,265,200,437,353
78,0.12,-0.99,0.14,2.08,-1.89,0.37,198,260,188,434,353
79,0.06,-0.98,0.1,-8.18,-4.7,-3.78,201,264,195,435,351
80,0.09,-1.01,0.17,3.97,-7.51,-2.26,206,265,194,439,354
81,0.07,-1.04,0.09,-6.04,-1.4,-11.6,205,261,194,435,346
82,0.08,-0.98,0.1,1.53,-5.13,-1.53,192,266,199,436,350
83,0.09,-0.98,0.1,0.98,-6.1,-2.38,202,263,200,438,351
84,0.08,-0.99,0.13,1.46,-4.15,-3.48,203,263,194,446,352
85,0.01,-1.03,0.16,19.53,8.97,3.54,202,262,202,438,351
86,-0.0,-0.97,0.28,-0.92,-9.77,-0.43,201,261,196,436,354
87,0.05,-0.85,0.09,2.44,14.95,19.04,203,266,200,440,350
88,0.16,-0.79,0.38,18.01,-29.79,0.43,206,265,196,438,353
89,0.16,-0.91,0.4,-5.62,14.71,-20.69,206,266,200,434,355
90,0.13,-0.95,0.4,-4.7,30.09,-13.98,207,264,202,441,354
91,0.26,-0.87,0.35,-30.4,-10.5,-7.02,207,259,204,436,353
92,0.0,-0.95,0.2,8.54,16.36,7.14,203,259,202,437,347
93,0.04,-1.01,0.34,15.5,-23.5,-9.4,202,256,198,436,354
94,0.1,-0.97,0.33,-7.63,-4.03,-7.87,201,263,196,441,350
95,0.24,-0.93,0.39,6.47,6.71,-28.44,206,267,211,440,350
96,0.12,-0.98,0.33,-0.55,2.32,-0.24,216,264,202,440,350
97,0.04,-0.95,0.31,-0.98,-7.26,-2.32,203,265,202,444,347
98,0.08,-0.94,0.3,0.49,-15.2,-1.46,216,266,199,444,348
99,0.14,-0.94,0.21,-9.28,-11.6,-0.12,206,264,201,439,347
100,0.12,-0.98,0.18,1.34,-14.65,-1.34,197,258,202,444,351
101,0.2,-0.89,0.25,-14.59,7.93,18.43,207,263,199,439,348
102,0.31,-0.88,0.09,14.77,-14.59,-26.06,207,266,204,438,354
103,0.05,-1.01,0.11,6.65,0.24,-12.39,204,262,197,438,352
104,0.12,-0.99,0.17,0.0,-5.31,3.23,202,268,199,436,349
105,0.13,-0.97,0.11,3.23,3.23,-10.68,203,257,201,442,351
106,0.12,-0.98,0.22,1.22,-4.58,0.0,205,264,199,442,352
107,0.12,-0.98,0.16,0.61,-5.92,-0.31,206,264,197,444,351
108,0.11,-0.98,0.17,-6.59,-0.98,-5.0,210,265,199,440,350
109,0.15,-0.97,0.13,-0.37,-5.74,-1.4,208,267,199,441,343
110,0.11,-0.98,0.12,-3.05,-7.32,-0.61,211,261,197,442,351
111,0.1,-0.96,0.08,1.53,6.23,-3.42,206,264,202,446,351
112,0.13,-0.97,0.23,1.65,3.66,-4.15,208,262,198,440,350
113,0.13,-0.96,0.21,-6.96,1.34,-6.71,205,267,202,441,351
114,0.15,-0.96,0.2,0.06,-3.54,-2.69,208,263,197,445,353
115,0.17,-0.96,0.19,2.69,-2.81,-2.56,210,261,197,439,351
116,0.15,-0.97,0.2,2.87,-2.14,-3.85,207,266,202,439,349
117,0.16,-0.96,0.21,0.06,-2.14,-3.48,201,269,199,443,351
118,0.15,-0.97,0.2,-0.24,-2.75,-2.44,209,260,200,441,352
119,0.17,-0.97,0.21,0.79,-2.01,-3.17,203,266,205,445,359
120,0.17,-0.96,0.2,0.55,-1.22,-3.17,208,266,199,438,351
121,0.16,-0.96,0.22,0.06,-2.2,-2.38,207,265,204,446,347
122,0.16,-0.97,0.21,0.55,-3.05,-3.54,205,263,199,438,352
123,0.16,-0.97,0.22,-2.26,-4.21,-3.72,204,265,201,444,347
124,0.17,-0.96,0.22,5.07,-4.15,-2.26,206,265,204,440,349
125,0.15,-0.96,0.21,-1.65,-2.44,-2.44,207,266,202,442,352
126,0.16,-0.96,0.2,-0.73,-5.07,-4.27,207,267,197,444,353
127,0.18,-0.96,0.22,2.14,-4.03,-3.66,207,259,203,440,353
128,0.19,-0.95,0.22,1.83,-2.99,-4.58,208,264,204,443,351
129,0.2,-0.95,0.21,-1.46,-1.34,-2.62,209,264,203,439,351
130,0.2,-0.96,0.21,-2.38,-2.38,-2.75,208,261,201,444,351
131,0.17,-0.98,0.19,0.92,-3.91,-0.85,212,266,201,458,354
132,0.13,-0.98,0.2,5.8,-3.72,-1.83,208,258,199,438,353
133,0.16,-0.96,0.19,0.18,-3.78,-1.71,203,263,200,444,355
134,0.16,-0.96,0.19,2.2,-4.15,-1.4,208,268,197,441,351
135,0.16,-0.96,0.2,13.06,0.31,-0.55,211,270,198,439,351
136,0.14,-0.96,0.18,-4.09,1.34,-5.86,206,266,207,443,355
137,0.16,-0.97,0.19,0.73,-2.69,-1.71,206,265,203,444,357
138,0.15,-0.98,0.18,3.36,-5.92,-0.92,208,264,200,445,351
139,0.17,-0.96,0.19,2.81,-4.09,-3.23,207,262,201,441,349
140,0.17,-0.97,0.18,-1.34,-3.3,-2.01,209,271,201,442,354
141,0.16,-0.98,0.18,0.43,-1.77,-3.97,212,266,198,439,354
142,0.17,-0.97,0.2,-0.79,-2.93,-2.32,206,271,192,441,354
143,0.15,-0.97,0.18,0.0,-3.23,-1.71,203,267,201,445,352
144,0.17,-0.96,0.18,-0.12,-2.93,-3.48,207,264,197,439,352
145,0.16,-0.97,0.2,1.4,-2.14,-3.05,215,267,201,446,354
146,0.16,-0.97,0.18,1.46,-4.09,-2.38,209,268,200,440,350
147,0.17,-0.97,0.18,-0.06,-2.87,-2.44,208,266,210,439,354
148,0.16,-0.97,0.16,-1.53,-2.01,-3.54,207,265,199,442,355
149,0.16,-0.97,0.19,-1.59,-3.97,-1.4,209,266,205,447,355
150,0.18,-0.96,0.17,-0.61,-2.26,-3.3,209,263,206,446,355
151,0.18,-0.97,0.17,0.79,-2.81,-1.95,210,261,207,443,348
152,0.17,-0.97,0.18,0.79,-2.38,-1.59,209,264,197,442,353
153,0.16,-0.98,0.18,0.06,-3.42,-2.38,201,268,202,447,353
154,0.17,-0.97,0.18,0.18,-3.11,-2.44,210,263,201,443,353
155,0.14,-0.98,0.19,0.92,-4.03,-2.81,209,267,195,445,349
156,0.16,-0.97,0.19,-0.37,-3.72,-3.11,204,266,201,439,353
157,0.16,-0.97,0.18,0.85,-2.69,-1.71,221,266,204,442,352
158,0.17,-0.97,0.18,-4.76,-2.93,-2.26,206,265,201,444,352
159,0.16,-0.97,0.16,2.87,-4.09,-3.17,204,268,203,449,354
160,0.18,-0.98,0.18,1.65,-2.87,-2.62,203,257,199,437,354
161,0.18,-0.97,0.17,-2.38,-1.77,-3.3,209,265,201,441,352
162,0.16,-0.97,0.18,-1.65,-1.95,-3.36,206,264,196,436,352
163,0.15,-0.97,0.2,3.05,-3.78,-2.08,211,266,205,438,353
164,0.15,-0.97,0.19,0.98,-4.33,-1.89,209,264,206,446,350
165,0.15,-0.97,0.18,1.65,-3.97,-2.32,207,266,205,444,351
166,0.16,-0.97,0.19,1.77,-4.7,-2.75,210,265,203,440,351
167,0.16,-0.97,0.17,0.37,-3.66,-2.38,211,270,200,443,349
168,0.16,-0.97,0.18,-0.43,-3.11,-2.44,217,268,194,443,350
169,0.17,-0.97,0.18,-0.92,-2.81,-3.72,211,265,205,444,352
170,0.18,-0.97,0.19,-0.06,-3.17,-4.03,209,264,207,448,353
171,0.18,-0.98,0.19,2.2,-4.46,-2.26,209,263,200,443,353
172,0.18,-0.96,0.18,2.75,-4.88,-2.5,212,269,201,444,347
173,0.17,-0.96,0.18,-1.59,-3.36,-1.89,213,265,206,452,354
174,0.19,-0.97,0.19,1.83,-2.99,-3.11,208,269,203,441,352
175,0.21,-0.96,0.22,2.32,-2.99,-3.72,213,265,208,442,348
176,0.2,-0.96,0.21,0.73,-4.09,-0.85,204,268,207,445,351
177,0.18,-0.97,0.19,-0.12,-3.23,-2.32,209,271,192,445,348
178,0.19,-0.97,0.18,0.92,-3.42,-2.56,209,268,201,443,356
179,0.19,-0.97,0.18,0.49,-3.23,-2.5,213,269,197,446,348
180,0.18,-0.99,0.18,1.4,-2.93,-2.26,214,267,205,442,355
181,0.18,-0.97,0.18,0.79,-2.99,-2.5,213,266,205,443,352
182,0.19,-0.96,0.22,-0.98,-2.81,-3.48,211,258,207,445,349
183,0.2,-0.96,0.19,1.22,-4.21,-0.85,211,264,206,437,353
184,0.19,-0.97,0.18,1.34,-2.01,-3.3,214,270,199,445,352
185,0.2,-0.95,0.19,0.55,-2.26,-1.59,213,262,204,435,347
186,0.16,-0.97,0.18,-0.98,-3.78,-1.59,210,264,200,443,348
187,0.19,-0.97,0.18,-0.49,-3.6,-3.23,213,263,200,450,353
188,0.17,-0.97,0.19,0.06,-4.7,-1.95,213,263,200,441,342
189,0.18,-0.97,0.19,0.12,-2.87,-2.62,212,259,198,444,346
190,0.17,-0.97,0.19,0.61,-2.14,-2.08,210,268,204,436,353
191,0.17,-0.97,0.18,0.06,-3.42,-3.17,209,268,204,439,359
192,0.17,-0.97,0.19,0.85,-2.69,-2.32,217,265,203,442,353
193,0.17,-0.97,0.18,-1.28,-4.27,-3.17,212,268,192,442,354
194,0.16,-0.98,0.18,-2.75,-2.38,-2.32,216,267,195,433,342
195,0.17,-0.97,0.19,0.73,-2.69,-4.15,209,265,213,439,349
196,0.17,-0.96,0.14,5.55,-3.97,-2.5,215,266,209,449,355
197,0.19,-0.98,0.17,2.38,-2.87,-3.05,237,273,202,442,353
198,0.18,-0.97,0.17,1.22,-2.62,-2.99,209,268,205,441,353
199,0.17,-0.97,0.18,1.22,-2.44,-2.44,211,266,193,442,349
200,0.17,-0.97,0.18,-0.12,-2.44,-2.81,210,268,199,436,354
201,0.17,-0.97,0.19,-0.18,-2.75,-2.87,218,268,206,441,344
202,0.18,-0.97,0.18,1.28,-2.87,-1.04,212,270,203,441,355
203,0.18,-0.97,0.16,-1.04,-2.99,-2.44,213,263,201,436,350
204,0.18,-0.98,0.15,-1.1,-3.72,-2.5,238,269,204,444,353
205,0.18,-0.97,0.19,-2.08,-2.01,-3.11,210,274,204,441,350
206,0.18,-0.97,0.17,1.65,-2.87,-2.5,211,268,204,445,352
207,0.17,-0.97,0.18,-0.49,-2.08,-3.17,212,267,209,442,350
208,0.18,-0.98,0.16,-0.73,-1.89,-3.66,213,268,205,438,353
209,0.17,-0.97,0.16,0.67,-3.91,-0.85,212,269,205,434,348
210,0.18,-0.96,0.15,-1.04,-2.14,-2.44,207,268,209,441,353
211,0.16,-0.97,0.14,-0.61,0.43,-0.43,213,269,204,441,350
212,0.16,-0.97,0.17,1.28,-2.69,-2.01,212,264,202,442,357
213,0.12,-0.93,0.2,4.52,-5.19,-0.18,209,270,205,442,352
214,0.17,-0.96,0.17,1.65,-3.6,-2.2,214,261,201,440,353
215,0.18,-0.97,0.18,1.28,-3.85,-3.3,211,265,204,445,351
216,0.14,-0.97,0.17,0.24,-2.26,-1.16,205,270,208,444,352
217,0.16,-0.97,0.16,-1.16,-3.66,-2.38,211,265,204,446,353
218,0.17,-0.97,0.19,0.18,-3.3,-2.44,212,266,202,446,350
219,0.15,-0.98,0.17,2.44,-2.69,-1.04,208,268,201,447,352
220,0.18,-0.97,0.17,2.5,-1.71,-3.6,213,269,203,440,351
221,0.16,-0.97,0.17,5.62,-3.11,-4.88,214,267,205,448,357
222,0.2,-0.96,0.16,-1.1,-3.6,-3.54,212,273,209,443,353
223,0.2,-0.97,0.18,0.92,-2.56,-4.39,210,266,204,443,357
224,0.19,-0.97,0.19,-1.71,-3.36,-1.95,211,270,200,440,355
225,0.19,-0.97,0.2,-0.43,-2.44,0.79,213,269,195,437,352
226,0.2,-0.97,0.14,3.42,-4.21,-2.69,211,266,205,445,355
227,0.2,-0.97,0.16,3.97,-2.32,-1.71,213,267,203,435,352
228,0.17,-0.97,0.23,3.48,-2.99,-6.16,209,269,201,440,354
229,0.19,-0.97,0.23,1.4,0.31,-5.49,211,264,204,438,356
230,0.17,-0.97,0.19,-2.26,-2.38,-2.5,211,267,205,446,352
231,0.11,-0.97,0.28,-7.51,-28.5,-10.19,215,262,199,453,354
232,0.31,-0.96,0.05,5.98,6.96,5.49,236,266,204,442,355
233,0.23,-0.96,0.13,7.39,9.4,2.93,211,267,200,440,350
234,0.17,-0.97,0.23,9.09,-2.01,-1.28,215,268,202,447,353
235,0.14,-0.97,0.23,1.34,-8.67,0.67,210,265,203,437,353
236,0.16,-0.96,0.18,-3.17,-9.22,-1.83,209,271,204,444,351
237,0.16,-0.97,0.21,-1.22,-3.11,0.0,214,271,215,444,363
238,0.16,-0.97,0.17,2.99,-5.8,-2.5,214,269,195,447,355
239,0.16,-0.97,0.18,-1.34,-1.83,-1.95,212,266,205,448,352
240,0.17,-0.97,0.18,1.71,-2.99,-2.2,212,269,215,447,348
241,0.14,-0.97,0.17,-2.38,-1.1,-3.78,207,266,201,448,353
242,0.16,-0.97,0.2,2.69,-3.48,-2.32,210,266,199,442,355
243,0.16,-0.97,0.19,1.83,-3.36,-3.05,204,263,206,451,352
244,0.17,-0.97,0.18,0.31,-3.3,-2.32,212,264,206,441,353
245,0.16,-0.97,0.19,0.06,-2.08,-2.75,211,269,203,444,350
246,0.15,-0.97,0.21,0.06,-2.62,-2.44,213,266,204,438,350
247,0.14,-0.97,0.2,1.4,-3.91,-1.4,215,268,203,448,352
248,0.15,-0.97,0.2,0.85,-2.56,-3.05,215,264,190,438,352
249,0.17,-0.97,0.2,2.38,-4.88,-2.2,207,270,200,446,353
250,0.15,-0.97,0.21,0.06,-1.46,-2.87,213,264,201,437,354
251,0.15,-0.97,0.19,-3.42,-0.67,-5.13,213,269,202,438,349
252,0.16,-0.97,0.18,-0.24,-4.76,-3.17,210,267,209,446,353
253,0.16,-0.97,0.2,2.62,-3.48,-2.08,207,267,203,445,350
254,0.16,-0.97,0.2,0.06,-3.66,-2.75,210,280,200,451,352
255,0.15,-0.97,0.21,0.18,-2.62,-3.17,211,269,203,448,355
256,0.15,-0.97,0.2,0.98,-3.17,-2.2,215,266,203,444,350
257,0.17,-0.97,0.23,1.59,-3.48,-2.93,211,265,210,445,346
258,0.16,-0.97,0.19,-2.81,-0.92,-3.54,216,271,203,439,354
259,0.14,-0.97,0.24,1.89,-2.38,-2.69,210,270,207,450,345
260,0.16,-0.97,0.22,-1.77,-2.87,0.31,211,272,207,449,349
261,0.14,-0.97,0.2,-0.18,-2.81,-3.36,212,269,201,439,350
262,0.15,-0.98,0.2,-0.79,-2.32,-2.62,211,267,208,442,352
263,0.15,-0.97,0.2,0.92,-3.6,-2.38,206,273,204,448,350
264,0.15,-0.97,0.2,0.49,-2.93,-2.69,214,269,209,444,352
265,0.15,-0.97,0.19,0.98,-2.5,-3.3,212,273,201,445,352
266,0.14,-0.98,0.2,-1.28,-3.36,-2.14,214,268,204,442,349
267,0.16,-0.97,0.2,1.95,-2.93,-1.89,210,265,203,446,348
268,0.16,-0.97,0.19,0.55,-3.11,-1.16,201,267,205,444,351
269,0.14,-0.97,0.17,0.85,-3.91,-2.26,214,270,204,442,353
270,0.16,-0.98,0.18,1.34,-4.39,-2.32,212,270,205,445,351
271,0.16,-0.97,0.2,1.4,-2.93,-2.69,213,268,201,444,350
272,0.15,-0.97,0.19,0.24,-2.5,-3.54,214,267,193,445,353
273,0.14,-0.97,0.18,-1.83,-1.95,-2.5,215,267,201,441,354
274,0.16,-0.96,0.2,0.06,-3.23,-0.31,209,268,196,448,356
275,0.18,-0.98,0.19,7.14,-3.91,-1.71,210,264,203,443,355
276,0.17,-0.97,0.17,3.54,-7.39,-1.1,212,272,202,444,354
277,0.16,-0.97,0.13,1.59,-5.31,-1.34,215,265,199,448,353
278,0.16,-0.97,0.16,0.0,-1.46,-3.72,215,268,203,445,352
279,0.17,-0.98,0.18,-2.08,-3.91,-2.99,213,266,203,445,354
280,0.18,-0.97,0.16,1.65,-3.3,-2.69,211,268,202,445,353
281,0.19,-0.97,0.18,3.6,-1.59,-1.53,212,261,201,440,348
282,0.18,-0.96,0.17,1.65,-1.89,-2.5,214,271,202,449,350
283,0.14,-0.95,0.23,0.55,-1.46,-2.32,215,272,197,445,358
284,0.17,-0.97,0.19,0.73,-2.2,-2.81,216,268,196,441,350
285,0.17,-0.98,0.16,1.22,2.87,-12.21,213,273,197,444,352
286,0.26,-0.96,0.21,2.44,-1.53,-4.52,213,267,204,450,354
287,0.22,-0.95,0.16,-4.09,-2.75,-4.52,214,266,201,446,353
288,0.17,-0.97,0.19,0.31,-4.39,-4.52,215,264,207,445,354
289,0.22,-0.94,0.25,-0.18,-3.3,-4.82,218,267,203,443,355
290,0.23,-0.95,0.23,-5.55,-2.5,-2.99,216,266,208,450,352
291,0.22,-0.95,0.22,-5.19,-2.01,-3.05,215,267,210,443,354
292,0.22,-0.95,0.21,1.4,2.62,-6.1,214,271,208,445,355
293,0.17,-0.95,0.22,0.49,-2.93,-4.58,215,265,203,445,356
294,0.18,-0.92,0.22,-0.18,-14.59,3.6,209,270,195,439,356
295,0.17,-0.96,0.23,12.39,-2.5,3.48,212,269,203,442,356
296,0.22,-0.94,0.31,3.54,0.12,-10.07,215,266,190,447,353
297,0.12,-0.96,0.27,-3.11,-6.23,6.96,215,271,207,446,355
298,0.17,-0.94,0.3,5.98,-16.36,11.35,215,271,202,445,349
299,0.15,-0.96,0.21,-6.84,-9.28,-1.95,216,268,208,446,351
300,0.21,-0.94,0.25,-0.92,6.41,-0.37,217,267,206,446,350
301,0.13,-0.95,0.26,2.69,-3.3,-0.49,216,272,204,449,351
302,0.11,-0.93,0.36,1.71,5.43,-10.44,216,269,207,445,352
303,0.13,-0.96,0.27,6.04,-6.77,-2.01,215,271,202,441,352
304,0.16,-0.93,0.33,3.85,-11.54,-2.99,217,268,206,445,354
305,0.12,-0.96,0.33,-7.81,-7.2,-1.34,217,267,196,440,355
306,0.16,-0.97,0.23,-6.35,-0.37,-1.95,217,265,203,449,352
307,0.18,-0.98,0.26,-5.19,-6.16,-11.66,215,271,210,446,348
308,0.24,-0.95,0.27,-7.51,9.46,-7.57,217,272,194,449,350
309,0.23,-0.92,0.28,2.81,-10.25,0.61,218,268,194,445,354
310,0.25,-0.93,0.33,6.53,-2.44,15.2,215,270,208,444,352
311,0.23,-0.95,0.24,13.49,-6.65,0.18,217,267,205,450,355
312,0.33,-0.91,0.29,6.1,-37.66,-5.37,219,269,206,447,349
313,0.38,-0.9,0.33,-0.79,-0.92,-4.94,216,274,203,440,349
314,0.26,-0.95,0.18,-3.54,-4.27,0.55,212,265,208,448,353
315,0.21,-0.95,0.25,0.12,-8.54,-0.98,216,270,204,445,355
316,0.21,-0.95,0.25,11.17,-2.81,4.64,232,263,204,449,357
317,0.21,-0.94,0.3,10.44,4.88,-3.05,217,270,198,448,355
318,0.12,-0.95,0.33,10.38,-2.32,-0.61,242,259,207,441,356
319,0.16,-0.95,0.36,4.15,18.62,-4.88,219,266,202,443,358
320,0.09,-0.99,0.29,6.65,16.6,4.39,217,266,202,445,356
321,0.18,-0.96,0.37,1.16,-1.95,-18.86,215,265,203,438,359
322,0.25,-0.9,0.31,0.61,-3.85,-4.82,218,269,204,437,355
323,0.14,-0.92,0.25,-1.1,-10.74,2.5,222,271,197,442,359
324,0.15,-0.91,0.28,15.69,-7.14,0.61,215,270,194,439,358
325,0.16,-0.94,0.3,-0.31,-2.69,-2.2,218,272,206,436,361
326,0.15,-0.95,0.3,-1.53,-2.69,-4.94,218,274,203,441,358
327,0.12,-0.95,0.28,0.98,-7.63,1.71,225,269,206,446,356
328,0.16,-0.95,0.26,3.6,-6.53,-3.72,217,270,205,442,358
329,0.14,-0.95,0.3,-0.79,-0.12,-3.36,222,272,204,446,356
330,0.16,-0.95,0.3,4.58,-5.43,-1.59,221,271,206,446,360
331,0.16,-0.94,0.3,-0.85,-2.75,-2.69,222,272,205,447,359
332,0.15,-0.95,0.31,2.75,-4.7,-3.72,222,268,207,447,360
333,0.17,-0.95,0.27,-0.18,-4.39,-2.38,222,273,207,448,354
334,0.18,-0.95,0.27,2.5,-2.44,-2.81,225,268,205,443,356
335,0.18,-0.94,0.22,4.58,-3.05,-7.63,223,262,208,451,356
336,0.13,-0.96,0.23,0.61,-3.05,-1.77,219,272,203,446,359
337,0.18,-0.94,0.32,10.86,-2.2,-2.5,220,270,205,449,357
338,0.18,-0.94,0.34,5.55,-6.96,4.15,221,261,204,448,356
339,0.16,-0.95,0.31,7.26,-4.03,-0.55,218,266,210,461,359
340,0.17,-0.95,0.3,-3.42,-2.99,-2.93,222,275,204,444,350
341,0.15,-0.95,0.28,1.22,-2.69,-2.69,218,272,205,447,360
342,0.15,-0.95,0.27,-4.82,-4.88,-0.37,221,270,207,446,358
343,0.15,-0.96,0.25,-6.77,-0.98,-3.17,219,270,203,450,360
344,0.13,-0.94,0.19,-0.73,-2.81,-3.78,212,270,209,451,355
345,0.11,-0.98,0.29,-1.77,-4.03,0.18,217,274,206,448,356
346,0.16,-0.96,0.18,-12.76,-0.18,-6.29,214,270,207,446,358
347,0.17,-0.96,0.2,5.8,-5.13,-2.01,221,271,210,448,358
348,0.13,-0.95,0.27,4.88,-2.38,-1.59,221,271,208,446,359
349,0.15,-0.97,0.23,0.79,-3.97,-1.89,219,269,206,448,359
350,0.14,-0.97,0.19,-4.94,1.89,1.46,221,271,206,444,353
351,0.13,-0.97,0.23,11.6,-7.81,0.49,223,271,208,446,358
352,0.14,-0.96,0.22,-0.73,-3.66,-3.3,222,273,209,445,354
353,0.13,-0.96,0.24,-0.61,-2.01,-4.09,234,270,209,445,356
354,0.12,-0.97,0.25,4.88,-7.63,-0.73,221,267,203,444,356
355,0.11,-0.95,0.29,2.38,-0.67,-2.87,221,274,206,446,356
356,0.12,-0.96,0.29,-8.67,-0.24,-6.41,221,272,210,442,359
357,0.13,-0.94,0.28,-0.55,-2.87,-2.32,222,278,208,446,360
358,0.12,-0.96,0.26,0.85,-9.52,-2.56,220,278,203,449,356
359,0.15,-0.97,0.26,2.08,-2.56,-1.77,239,271,196,457,359
360,0.15,-0.95,0.25,1.04,-2.44,-4.27,221,272,204,448,357
361,0.14,-0.95,0.25,2.2,-3.36,-2.44,224,265,210,446,354
362,0.13,-0.95,0.28,0.06,-2.69,-3.3,220,272,210,451,359
363,0.13,-0.96,0.28,0.55,-3.85,-2.44,221,269,198,448,359
364,0.13,-0.96,0.27,0.31,-3.36,-2.5,222,275,204,443,359
365,0.14,-0.95,0.27,0.67,-2.93,-2.93,223,275,206,446,361
366,0.13,-0.96,0.28,1.22,-3.23,-2.5,222,271,205,439,359
367,0.14,-0.95,0.26,0.98,-3.05,-2.38,216,275,207,450,366
368,0.14,-0.95,0.28,0.24,-3.72,-2.69,220,291,206,451,359
369,0.15,-0.95,0.28,-0.98,-3.78,-2.32,224,269,208,448,359
370,0.14,-0.95,0.28,0.24,-1.71,-2.99,226,268,201,447,361
371,0.15,-0.95,0.27,-0.67,-2.69,-2.75,221,273,200,452,363
372,0.13,-0.95,0.27,0.24,-3.72,-2.32,222,272,209,449,358
373,0.15,-0.95,0.3,1.65,-2.87,-2.93,219,274,205,451,357
374,0.14,-0.96,0.28,-0.18,-3.97,-2.14,223,272,205,450,359
375,0.13,-0.96,0.28,-2.32,-3.3,-2.56,219,273,208,447,357
376,0.14,-0.96,0.27,1.04,-3.48,-2.08,225,270,213,449,358
377,0.14,-0.96,0.27,0.98,-3.11,-1.4,221,273,200,450,358
378,0.15,-0.96,0.26,0.79,-3.05,-2.38,223,274,205,447,354
379,0.15,-0.95,0.25,0.31,-2.87,-2.69,218,270,206,450,358
380,0.15,-0.96,0.26,1.4,-3.6,-2.5,223,272,207,453,357
381,0.13,-0.97,0.27,3.54,-3.48,-0.85,224,272,204,452,358
382,0.15,-0.96,0.25,2.5,-3.66,-1.59,222,269,204,448,358
383,0.14,-0.96,0.27,1.4,-2.75,-2.32,227,272,205,453,360
384,0.14,-0.96,0.26,0.37,-2.81,-1.89,221,275,204,452,359
385,0.14,-0.96,0.26,-0.61,-2.32,-2.93,225,273,207,453,358
386,0.14,-0.96,0.27,0.43,-2.56,-2.56,217,272,207,447,354
387,0.15,-0.96,0.26,2.14,-2.81,-2.01,221,271,205,450,358
388,0.15,-0.96,0.24,-1.22,-2.2,-4.15,221,273,196,452,359
389,0.15,-0.96,0.25,-0.06,-3.72,-3.11,221,272,212,449,361
390,0.14,-0.96,0.26,-0.31,-2.62,-2.38,224,272,208,448,357
391,0.14,-0.96,0.25,0.61,-2.62,-2.32,224,275,206,447,358
392,0.15,-0.96,0.25,0.0,-2.62,-2.56,222,272,204,452,358
393,0.14,-0.96,0.25,-0.43,-2.69,-2.93,222,273,198,447,354
394,0.14,-0.96,0.25,0.67,-2.87,-2.38,222,281,207,452,355
395,0.14,-0.97,0.25,-0.18,-2.69,-2.81,222,273,211,451,358
396,0.14,-0.96,0.25,0.67,-3.48,-2.93,222,272,212,452,361
397,0.14,-0.96,0.25,0.73,-3.3,-2.26,223,273,206,449,358
398,0.14,-0.96,0.24,0.85,-2.87,-1.77,222,270,210,448,356
399,0.15,-0.96,0.23,-0.85,-2.75,-2.81,223,273,210,443,359
400,0.14,-0.96,0.24,0.18,-3.05,-2.62,222,273,204,451,356
401,0.14,-0.96,0.24,0.67,-3.11,-2.2,223,274,210,445,352
402,0.15,-0.96,0.22,-3.42,-3.11,-2.2,223,274,203,454,354
403,0.12,-0.97,0.19,-5.31,-4.15,-1.22,223,271,210,449,361
404,0.16,-0.96,0.22,4.39,-4.76,-0.85,222,274,199,451,361
405,0.14,-0.96,0.25,2.08,-4.33,-2.87,222,275,206,464,351
406,0.14,-0.96,0.25,0.12,-4.27,-2.01,221,273,208,449,358
407,0.13,-0.96,0.26,0.79,-3.54,-2.62,223,275,207,452,357
408,0.13,-0.96,0.26,0.12,-2.81,-2.26,218,272,209,445,353
409,0.14,-0.96,0.26,1.28,-3.36,-1.77,219,268,212,445,360
410,0.14,-0.96,0.25,0.92,-2.75,-2.14,221,274,203,452,355
411,0.14,-0.96,0.24,0.55,-2.81,-2.5,223,275,203,449,358
412,0.14,-0.96,0.24,-0.37,-2.81,-2.56,224,273,203,440,358
413,0.13,-0.96,0.23,0.31,-2.56,-2.44,221,275,201,452,362
414,0.14,-0.96,0.24,-1.1,-3.11,-3.54,222,277,206,451,359
415,0.15,-0.96,0.24,2.32,-6.35,-3.42,227,273,208,450,359
416,0.14,-0.96,0.25,0.37,-2.56,-3.3,222,277,205,447,357
417,0.13,-0.97,0.24,-1.46,-2.81,-2.75,227,274,208,446,350
418,0.15,-0.96,0.24,1.34,-2.75,-2.14,222,270,202,445,357
419,0.13,-0.97,0.24,1.89,-2.99,-2.01,221,273,211,452,356
420,0.14,-0.96,0.22,0.67,-3.42,-2.26,220,272,208,444,361
421,0.15,-0.97,0.23,0.43,-3.11,-2.44,221,283,202,442,357
422,0.14,-0.97,0.22,0.61,-3.05,-2.2,217,275,210,447,355
423,0.15,-0.96,0.22,1.95,-3.72,-3.36,220,275,208,444,358
424,0.14,-0.96,0.3,2.69,-7.51,1.22,224,278,210,451,358
425,0.14,-0.97,0.23,1.53,-9.64,1.46,225,277,210,448,360
426,0.13,-0.95,0.33,7.93,-0.92,1.04,222,277,212,448,359
427,0.13,-0.95,0.28,2.81,-3.05,-0.92,219,274,208,452,361
428,0.13,-0.95,0.31,-2.56,-1.89,-4.33,239,276,200,448,361
429,0.13,-0.95,0.27,-0.24,-4.33,-2.2,220,275,203,452,358
430,0.13,-0.95,0.26,0.55,-3.48,-1.4,222,275,205,450,355
431,0.13,-0.96,0.26,1.16,-2.56,-3.48,227,275,202,448,358
432,0.13,-0.95,0.29,2.62,-1.95,-2.38,222,275,202,444,360
433,0.13,-0.95,0.28,1.59,-2.99,-1.65,231,270,207,445,359
434,0.13,-0.95,0.29,1.28,-3.42,-2.14,220,274,208,448,357
435,0.13,-0.95,0.28,-0.24,-3.78,-2.32,226,273,197,444,361
436,0.12,-0.95,0.3,0.24,-3.85,-2.81,225,276,208,451,354
437,0.15,-0.94,0.29,6.77,-4.7,-2.01,223,272,208,452,360
438,0.15,-0.94,0.33,5.98,-1.83,-8.73,220,278,212,450,364
439,0.16,-0.95,0.32,-0.73,-2.75,-1.89,220,276,200,450,359
440,0.15,-0.95,0.29,-1.16,-3.91,-2.81,221,269,206,448,357
441,0.17,-0.95,0.28,-0.79,-2.44,-3.42,221,272,208,464,356
442,0.17,-0.94,0.28,1.53,-2.93,-2.62,222,270,209,448,358
443,0.17,-0.95,0.25,-2.01,-3.42,-4.27,221,277,210,445,361
444,0.22,-0.94,0.23,-10.68,-2.81,-4.88,222,276,207,448,357
445,0.16,-0.96,0.24,0.24,-9.4,-2.26,225,275,208,448,356
446,0.21,-0.94,0.32,16.85,0.73,-1.04,223,278,206,446,356
447,0.16,-0.96,0.22,2.32,6.29,-8.61,222,276,202,448,360
448,0.13,-0.96,0.29,0.12,-1.1,-3.78,221,277,204,445,357
449,0.16,-0.95,0.28,0.0,-2.2,-2.56,225,275,210,447,358
450,0.15,-0.95,0.27,-0.06,-2.81,-2.44,226,276,204,448,359
451,0.16,-0.95,0.28,2.5,-3.36,-2.08,221,273,208,446,359
452,0.15,-0.95,0.26,-0.12,-1.46,-1.65,225,274,206,447,358
453,0.13,-0.96,0.29,2.26,-4.27,-1.16,219,275,207,459,358
454,0.13,-0.96,0.28,-0.55,-3.72,-2.01,221,276,195,444,358
455,0.12,-0.96,0.31,-0.67,-2.44,-2.99,224,277,214,448,355
456,0.14,-0.95,0.29,0.92,-3.48,-2.01,225,278,205,448,357
457,0.13,-0.95,0.28,-1.46,-2.99,-3.36,224,276,204,448,360
458,0.13,-0.96,0.26,-1.95,-2.01,-2.5,227,277,213,445,361
459,0.14,-0.95,0.26,1.22,-3.42,-3.3,225,280,211,450,358
460,0.13,-0.96,0.28,1.1,-3.6,-1.59,221,277,208,453,353
461,0.13,-0.96,0.27,2.5,-3.72,-2.14,224,275,209,451,355
462,0.15,-0.96,0.26,2.14,-3.54,-2.14,219,274,201,443,363
463,0.13,-0.95,0.28,2.81,-1.59,-2.93,223,277,208,448,356
464,0.14,-0.95,0.3,0.55,-4.88,-3.17,219,278,202,449,355
465,0.16,-0.95,0.27,-1.1,-2.01,-3.54,226,275,210,445,354
466,0.15,-0.96,0.26,1.59,-0.55,-3.97,224,278,210,446,348
467,0.13,-0.96,0.27,1.46,-2.32,-1.59,225,272,209,447,353
468,0.14,-0.96,0.25,3.85,-7.57,-4.03,223,275,208,446,351
469,0.18,-0.94,0.25,0.37,-5.0,-2.93,221,278,207,456,357
470,0.17,-0.94,0.29,-0.61,-2.99,-1.22,223,276,208,445,353
471,0.18,-0.95,0.26,-0.79,-1.77,-2.87,227,277,206,449,355
472,0.18,-0.95,0.27,-0.55,-2.56,-1.1,222,281,201,449,353
473,0.18,-0.95,0.27,0.61,-3.36,-3.3,220,277,211,450,355
474,0.18,-0.96,0.27,1.28,-4.21,-2.56,223,279,203,440,353
475,0.17,-0.95,0.27,0.73,-2.44,-2.69,222,279,211,450,353
476,0.18,-0.94,0.28,-1.16,-2.32,-2.5,222,278,205,448,349
477,0.17,-0.95,0.3,1.22,-2.56,-2.2,221,276,211,449,352
478,0.16,-0.94,0.3,0.37,-2.99,-2.69,225,279,209,445,356
479,0.17,-0.95,0.29,0.55,-2.14,-2.99,222,275,210,449,350
480,0.17,-0.94,0.3,2.08,-3.23,-2.32,220,278,204,449,349
481,0.17,-0.94,0.3,1.28,-3.11,-1.83,221,277,210,452,354
482,0.16,-0.95,0.29,-0.49,-2.93,-2.62,224,280,207,451,357
483,0.16,-0.95,0.31,0.49,-3.11,-2.2,224,278,208,448,354
484,0.15,-0.95,0.29,-0.06,-3.11,-2.75,225,271,212,450,355
485,0.17,-0.95,0.29,2.44,-4.94,0.18,226,278,208,452,350
486,0.15,-0.94,0.29,1.65,-4.09,-0.79,225,280,207,447,352
487,0.15,-0.95,0.29,0.43,-3.3,-2.26,226,274,213,449,353
488,0.14,-0.95,0.29,-1.59,-3.54,-2.44,218,278,215,447,354
489,0.15,-0.95,0.3,-1.16,-2.75,-3.48,219,280,210,446,354
490,0.16,-0.95,0.3,0.92,-2.56,-3.6,227,278,213,441,354
491,0.15,-0.94,0.3,-1.22,-2.75,-2.44,223,282,211,454,355
492,0.15,-0.94,0.3,1.1,-2.38,-2.62,224,277,207,448,353
493,0.15,-0.95,0.29,0.61,-2.32,-2.99,244,279,214,450,351
494,0.15,-0.95,0.3,-0.79,-2.93,-3.54,223,280,209,443,355
495,0.15,-0.95,0.3,2.2,-3.05,-2.87,224,279,206,450,354
496,0.15,-0.95,0.29,1.83,-2.99,-2.2,224,272,209,455,357
497,0.16,-0.95,0.29,-1.28,-3.48,-3.17,225,276,213,444,357
498,0.15,-0.95,0.3,1.1,-2.93,-1.59,226,277,213,450,355
499,0.17,-0.95,0.27,2.93,-3.72,-2.99,223,279,213,448,357
500,0.16,-0.95,0.28,1.16,-1.16,-3.17,222,280,211,449,359
501,0.16,-0.95,0.28,3.11,-1.59,-2.81,227,279,215,450,355
502,0.17,-0.94,0.3,4.21,-2.69,-1.71,237,268,214,443,353
503,0.16,-0.94,0.29,-1.1,-2.08,-2.26,220,275,211,447,353
504,0.15,-0.94,0.3,-0.79,-2.32,-2.62,228,279,207,450,356
505,0.15,-0.96,0.29,-0.67,-2.69,-2.99,226,276,209,442,355
506,0.16,-0.95,0.28,0.24,-3.17,-2.5,221,274,210,449,353
507,0.15,-0.95,0.28,-0.61,-2.69,-2.44,225,274,201,458,356
508,0.16,-0.94,0.28,0.61,-3.42,-2.75,221,279,212,449,352
509,0.16,-0.95,0.28,-0.43,-2.5,-2.26,223,283,210,450,352
510,0.18,-0.98,0.16,-0.85,-2.56,1.34,182,247,183,432,343
511,0.16,-0.98,0.14,0.98,0.43,-2.87,189,248,179,431,350
512,0.15,-0.97,0.16,1.34,-9.28,-0.55,190,246,188,429,349
513,0.14,-0.99,0.15,-3.48,-12.76,-4.58,196,249,180,438,349
514,0.13,-0.98,0.18,8.48,-6.9,-2.14,185,250,183,431,347
515,0.15,-0.98,0.17,0.24,-5.68,1.53,203,255,184,432,349
516,0.14,-0.97,0.15,4.33,5.92,-0.12,186,248,187,431,349
517,0.15,-1.0,0.16,5.68,-1.04,-3.91,194,248,183,428,350
518,0.13,-0.95,0.18,-3.66,-9.4,-0.92,196,248,190,433,351
519,0.18,-0.99,0.19,-1.1,-2.75,-5.62,195,250,179,435,351
520,0.18,-1.01,0.16,5.55,0.79,-0.43,198,252,185,427,354
521,0.11,-0.97,0.12,-0.06,8.54,8.24,196,248,187,435,350
522,0.06,-1.0,0.19,-7.57,-11.35,8.24,192,254,185,433,349
523,0.05,-0.9,0.18,-22.83,4.39,4.33,197,256,194,436,352
524,0.0,-0.98,0.2,8.79,0.92,-0.67,206,253,195,435,353
525,0.01,-0.99,0.18,0.92,-1.59,-6.59,198,252,186,436,348
526,-0.01,-0.95,0.18,0.31,-5.25,-3.17,193,252,190,438,356
527,0.02,-0.98,0.21,1.95,-4.58,-2.99,195,249,188,438,352
528,0.02,-0.99,0.19,-1.83,-2.99,-3.11,199,257,192,436,354
529,0.02,-0.99,0.19,-0.79,-3.54,-5.07,195,250,186,436,356
530,0.03,-0.98,0.18,-1.95,-6.59,-6.59,197,256,191,433,345
531,-0.03,-0.99,0.12,4.09,-5.25,-1.22,197,258,192,429,348
532,0.02,-1.0,0.16,2.44,-6.65,-6.29,209,256,192,435,349
533,0.06,-0.98,0.15,-5.0,-0.92,-5.37,197,261,189,431,349
534,0.07,-0.99,0.11,-2.2,-3.36,-5.25,202,273,193,438,350
535,0.08,-0.99,0.1,0.24,-2.93,-1.53,193,256,189,439,354
536,0.07,-0.99,0.09,-0.43,-3.66,-5.62,202,258,195,436,351
537,0.08,-0.99,0.1,0.12,-5.98,-2.93,203,258,194,437,346
538,0.07,-0.98,0.08,-0.67,-4.15,-2.26,202,260,198,429,348
539,0.08,-0.99,0.09,0.55,2.32,-1.34,195,260,198,439,351
540,0.09,-0.99,0.08,-0.61,-2.69,-2.2,197,260,189,436,349
541,0.1,-1.0,0.06,5.37,-6.23,-2.62,193,258,194,437,352
542,0.09,-1.0,0.09,0.92,-2.69,-1.04,200,255,196,437,349
543,0.08,-0.99,0.07,-1.77,-3.05,-3.6,195,259,193,432,352
544,0.08,-0.98,0.08,-1.65,-1.4,-2.81,198,263,185,437,348
545,0.07,-0.99,0.08,5.62,-1.4,-0.85,198,260,188,431,354
546,0.05,-1.0,0.15,-1.04,-5.74,-3.91,195,259,191,438,351
547,0.08,-0.99,0.13,-0.37,-6.65,-0.61,199,259,192,434,354
548,0.09,-0.99,0.11,2.32,-3.23,-2.5,199,259,200,439,352
549,0.08,-0.99,0.12,1.95,-2.26,-2.14,197,262,194,437,349
550,0.08,-0.98,0.14,-1.65,-3.91,-1.22,201,262,195,435,350
551,0.06,-0.99,0.13,0.06,-2.01,-2.5,199,260,192,440,350
552,0.09,-0.99,0.13,1.53,-2.62,-3.54,205,263,198,439,351
553,0.09,-0.99,0.12,1.1,-3.23,-2.62,201,261,183,438,355
554,0.08,-0.98,0.13,-0.79,-3.66,-2.62,199,257,194,439,352
555,0.08,-0.98,0.1,-1.22,-2.69,-2.32,197,257,200,436,349
556,0.08,-0.99,0.12,-1.1,-2.5,-2.81,204,259,194,437,350
557,0.08,-1.0,0.13,-1.53,-1.65,-2.87,201,264,192,441,353
558,0.07,-0.99,0.11,0.61,-3.6,-1.59,203,260,195,438,349
559,0.09,-1.0,0.11,-0.61,-1.28,-3.23,202,259,198,436,352
560,0.08,-0.99,0.12,0.61,-3.3,-2.69,195,263,197,444,353
561,0.09,-0.98,0.12,0.24,-3.78,-2.26,199,262,194,443,354
562,0.09,-0.99,0.11,1.46,-3.54,-2.99,202,261,198,443,351
563,0.08,-1.01,0.15,-2.75,-0.98,-0.85,199,261,197,438,353
564,0.08,-0.99,0.12,0.61,-5.43,-4.7,197,263,195,438,351
565,0.09,-0.98,0.1,0.92,-3.6,-1.59,201,256,197,442,351
566,0.11,-0.98,0.12,5.68,-10.86,-4.82,200,258,194,439,351
567,0.09,-0.97,0.11,-1.4,-2.38,-2.62,203,258,197,434,353
568,0.1,-0.97,0.14,-3.11,-4.21,-4.46,200,262,196,455,352
569,0.11,-0.98,0.14,-1.95,-0.24,0.61,203,264,193,443,353
570,0.13,-0.97,0.11,2.62,-4.88,-4.94,199,261,195,440,352
571,0.08,-0.95,0.17,-1.89,-1.65,-1.4,200,265,208,439,349
572,0.12,-1.08,0.22,8.91,-13.43,-3.66,201,259,198,440,353
573,0.14,-0.95,0.15,4.39,0.61,-4.33,204,261,198,438,354
574,0.15,-1.01,0.21,3.11,3.48,3.36,199,257,200,449,351
575,0.09,-0.96,0.17,-7.39,5.74,-2.08,203,260,198,441,352
576,0.12,-0.98,0.17,3.36,-2.87,-5.86,209,259,199,442,354
577,0.13,-0.97,0.17,1.4,-3.54,-2.01,204,257,193,439,355
578,0.16,-1.0,0.19,2.62,-1.46,-4.64,197,259,189,435,352
579,0.11,-0.95,0.15,-2.93,-8.79,-0.49,198,266,190,438,350
580,0.11,-0.97,0.14,-2.38,-3.6,-4.76,200,261,199,438,352
581,0.12,-0.98,0.1,2.5,0.24,-2.2,218,263,194,441,354
582,0.09,-1.01,0.14,6.77,-0.12,1.22,202,264,195,435,351
583,0.12,-0.98,0.16,0.73,4.58,-4.88,199,255,199,442,350
584,0.13,-0.96,0.15,-6.65,-2.38,-2.87,209,261,192,435,353
585,0.13,-0.97,0.15,-0.18,-3.42,-2.32,202,260,201,439,354
586,0.12,-0.91,0.12,-7.51,2.93,-3.6,208,260,196,437,353
587,0.07,-0.98,0.14,-0.24,-0.37,5.13,203,265,200,437,353
588,0.12,-0.99,0.14,2.08,-1.89,0.37,198,260,188,434,353
589,0.06,-0.98,0.1,-8.18,-4.7,-3.78,201,264,195,435,351
590,0.09,-1.01,0.17,3.97,-7.51,-2.26,206,265,194,439,354
591,0.07,-1.04,0.09,-6.04,-1.4,-11.6,205,261,194,435,346
592,0.08,-0.98,0.1,1.53,-5.13,-1.53,192,266,199,436,350
593,0.09,-0.98,0.1,0.98,-6.1,-2.38,202,263,200,438,351
594,0.08,-0.99,0.13,1.46,-4.15,-3.48,203,263,194,446,352
595,0.01,-1.03,0.16,19.53,8.97,3.54,202,262,202,438,351
596,-0.0,-0.97,0.28,-0.92,-9.77,-0.43,201,261,196,436,354
597,0.05,-0.85,0.09,2.44,14.95,19.04,203,266,200,440,350
598,0.16,-0.79,0.38,18.01,-29.79,0.43,206,265,196,438,353
599,0.16,-0.91,0.4,-5.62,14.71,-20.69,206,266,200,434,355
600,0.13,-0.95,0.4,-4.7,30.09,-13.98,207,264,202,441,354
601,0.26,-0.87,0.35,-30.4,-10.5,-7.02,207,259,204,436,353
602,0.0,-0.95,0.2,8.54,16.36,7.14,203,259,202,437,347
603,0.04,-1.01,0.34,15.5,-23.5,-9.4,202,256,198,436,354
604,0.1,-0.97,0.33,-7.63,-4.03,-7.87,201,263,196,441,350
605,0.24,-0.93,0.39,6.47,6.71,-28.44,206,267,211,440,350
606,0.12,-0.98,0.33,-0.55,2.32,-0.24,216,264,202,440,350
607,0.04,-0.95,0.31,-0.98,-7.26,-2.32,203,265,202,444,347
608,0.08,-0.94,0.3,0.49,-15.2,-1.46,216,266,199,444,348
609,0.14,-0.94,0.21,-9.28,-11.6,-0.12,206,264,201,439,347
610,0.12,-0.98,0.18,1.34,-14.65,-1.34,197,258,202,444,351
611,0.2,-0.89,0.25,-14.59,7.93,18.43,207,263,199,439,348
612,0.31,-0.88,0.09,14.77,-14.59,-26.06,207,266,204,438,354
613,0.05,-1.01,0.11,6.65,0.24,-12.39,204,262,197,438,352
614,0.12,-0.99,0.17,0.0,-5.31,3.23,202,268,199,436,349
615,0.13,-0.97,0.11,3.23,3.23,-10.68,203,257,201,442,351
616,0.12,-0.98,0.22,1.22,-4.58,0.0,205,264,199,442,352
617,0.12,-0.98,0.16,0.61,-5.92,-0.31,206,264,197,444,351
618,0.11,-0.98,0.17,-6.59,-0.98,-5.0,210,265,199,440,350
619,0.15,-0.97,0.13,-0.37,-5.74,-1.4,208,267,199,441,343
620,0.11,-0.98,0.12,-3.05,-7.32,-0.61,211,261,197,442,351
621,0.1,-0.96,0.08,1.53,6.23,-3.42,206,264,202,446,351
622,0.13,-0.97,0.23,1.65,3.66,-4.15,208,262,198,440,350
623,0.13,-0.96,0.21,-6.96,1.34,-6.71,205,267,202,441,351
624,0.15,-0.96,0.2,0.06,-3.54,-2.69,208,263,197,445,353
625,0.17,-0.96,0.19,2.69,-2.81,-2.56,210,261,197,439,351
626,0.15,-0.97,0.2,2.87,-2.14,-3.85,207,266,202,439,349
627,0.16,-0.96,0.21,0.06,-2.14,-3.48,201,269,199,443,351
628,0.15,-0.97,0.2,-0.24,-2.75,-2.44,209,260,200,441,352
629,0.17,-0.97,0.21,0.79,-2.01,-3.17,203,266,205,445,359
630,0.17,-0.96,0.2,0.55,-1.22,-3.17,208,266,199,438,351
631,0.16,-0.96,0.22,0.06,-2.2,-2.38,207,265,204,446,347
632,0.16,-0.97,0.21,0.55,-3.05,-3.54,205,263,199,438,352
633,0.16,-0.97,0.22,-2.26,-4.21,-3.72,204,265,201,444,347
634,0.17,-0.96,0.22,5.07,-4.15,-2.26,206,265,204,440,349
635,0.15,-0.96,0.21,-1.65,-2.44,-2.44,207,266,202,442,352
636,0.16,-0.96,0.2,-0.73,-5.07,-4.27,207,267,197,444,353
637,0.18,-0.96,0.22,2.14,-4.03,-3.66,207,259,203,440,353
638,0.19,-0.95,0.22,1.83,-2.99,-4.58,208,264,204,443,351
639,0.2,-0.95,0.21,-1.46,-1.34,-2.62,209,264,203,439,351
640,0.2,-0.96,0.21,-2.38,-2.38,-2.75,208,261,201,444,351
641,0.17,-0.98,0.19,0.92,-3.91,-0.85,212,266,201,458,354
642,0.13,-0.98,0.2,5.8,-3.72,-1.83,208,258,199,438,353
643,0.16,-0.96,0.19,0.18,-3.78,-1.71,203,263,200,444,355
644,0.16,-0.96,0.19,2.2,-4.15,-1.4,208,268,197,441,351
645,0.16,-0.96,0.2,13.06,0.31,-0.55,211,270,198,439,351
646,0.14,-0.96,0.18,-4.09,1.34,-5.86,206,266,207,443,355
647,0.16,-0.97,0.19,0.73,-2.69,-1.71,206,265,203,444,357
648,0.15,-0.98,0.18,3.36,-5.92,-0.92,208,264,200,445,351
649,0.17,-0.96,0.19,2.81,-4.09,-3.23,207,262,201,441,349
650,0.17,-0.97,0.18,-1.34,-3.3,-2.01,209,271,201,442,354
651,0.16,-0.98,0.18,0.43,-1.77,-3.97,212,266,198,439,354
652,0.17,-0.97,0.2,-0.79,-2.93,-2.32,206,271,192,441,354
653,0.15,-0.97,0.18,0.0,-3.23,-1.71,203,267,201,445,352
654,0.17,-0.96,0.18,-0.12,-2.93,-3.48,207,264,197,439,352
655,0.16,-0.97,0.2,1.4,-2.14,-3.05,215,267,201,446,354
656,0.16,-0.97,0.18,1.46,-4.09,-2.38,209,268,200,440,350
657,0.17,-0.97,0.18,-0.06,-2.87,-2.44,208,266,210,439,354
658,0.16,-0.97,0.16,-1.53,-2.01,-3.54,207,265,199,442,355
659,0.16,-0.97,0.19,-1.59,-3.97,-1.4,209,266,205,447,355
660,0.18,-0.96,0.17,-0.61,-2.26,-3.3,209,263,206,446,355
661,0.18,-0.97,0.17,0.79,-2.81,-1.95,210,261,207,443,348
662,0.17,-0.97,0.18,0.79,-2.38,-1.59,209,264,197,442,353
663,0.16,-0.98,0.18,0.06,-3.42,-2.38,201,268,202,447,353
664,0.17,-0.97,0.18,0.18,-3.11,-2.44,210,263,201,443,353
665,0.14,-0.98,0.19,0.92,-4.03,-2.81,209,267,195,445,349
666,0.16,-0.97,0.19,-0.37,-3.72,-3.11,204,266,201,439,353
667,0.16,-0.97,0.18,0.85,-2.69,-1.71,221,266,204,442,352
668,0.17,-0.97,0.18,-4.76,-2.93,-2.26,206,265,201,444,352
669,0.16,-0.97,0.16,2.87,-4.09,-3.17,204,268,203,449,354
670,0.18,-0.98,0.18,1.65,-2.87,-2.62,203,257,199,437,354
671,0.18,-0.97,0.17,-2.38,-1.77,-3.3,209,265,201,441,352
672,0.16,-0.97,0.18,-1.65,-1.95,-3.36,206,264,196,436,352
673,0.15,-0.97,0.2,3.05,-3.78,-2.08,211,266,205,438,353
674,0.15,-0.97,0.19,0.98,-4.33,-1.89,209,264,206,446,350
675,0.15,-0.97,0.18,1.65,-3.97,-2.32,207,266,205,444,351
676,0.16,-0.97,0.19,1.77,-4.7,-2.75,210,265,203,440,351
677,0.16,-0.97,0.17,0.37,-3.66,-2.38,211,270,200,443,349
678,0.16,-0.97,0.18,-0.43,-3.11,-2.44,217,268,194,443,350
679,0.17,-0.97,0.18,-0.92,-2.81,-3.72,211,265,205,444,352
680,0.18,-0.97,0.19,-0.06,-3.17,-4.03,209,264,207,448,353
681,0.18,-0.98,0.19,2.2,-4.46,-2.26,209,263,200,443,353
682,0.18,-0.96,0.18,2.75,-4.88,-2.5,212,269,201,444,347
683,0.17,-0.96,0.18,-1.59,-3.36,-1.89,213,265,206,452,354
684,0.19,-0.97,0.19,1.83,-2.99,-3.11,208,269,203,441,352
685,0.21,-0.96,0.22,2.32,-2.99,-3.72,213,265,208,442,348
686,0.2,-0.96,0.21,0.73,-4.09,-0.85,204,268,207,445,351
687,0.18,-0.97,0.19,-0.12,-3.23,-2.32,209,271,192,445,348
688,0.19,-0.97,0.18,0.92,-3.42,-2.56,209,268,201,443,356
689,0.19,-0.97,0.18,0.49,-3.23,-2.5,213,269,197,446,348
690,0.18,-0.99,0.18,1.4,-2.93,-2.26,214,267,205,442,355
691,0.18,-0.97,0.18,0.79,-2.99,-2.5,213,266,205,443,352
692,0.19,-0.96,0.22,-0.98,-2.81,-3.48,211,258,207,445,349
693,0.2,-0.96,0.19,1.22,-4.21,-0.85,211,264,206,437,353
694,0.19,-0.97,0.18,1.34,-2.01,-3.3,214,270,199,445,352
695,0.2,-0.95,0.19,0.55,-2.26,-1.59,213,262,204,435,347
696,0.16,-0.97,0.18,-0.98,-3.78,-1.59,210,264,200,443,348
697,0.19,-0.97,0.18,-0.49,-3.6,-3.23,213,263,200,450,353
698,0.17,-0.97,0.19,0.06,-4.7,-1.95,213,263,200,441,342
699,0.18,-0.97,0.19,0.12,-2.87,-2.62,212,259,198,444,346
700,0.17,-0.97,0.19,0.61,-2.14,-2.08,210,268,204,436,353
701,0.17,-0.97,0.18,0.06,-3.42,-3.17,209,268,204,439,359
702,0.17,-0.97,0.19,0.85,-2.69,-2.32,217,265,203,442,353
703,0.17,-0.97,0.18,-1.28,-4.27,-3.17,212,268,192,442,354
704,0.16,-0.98,0.18,-2.75,-2.38,-2.32,216,267,195,433,342
705,0.17,-0.97,0.19,0.73,-2.69,-4.15,209,265,213,439,349
706,0.17,-0.96,0.14,5.55,-3.97,-2.5,215,266,209,449,355
707,0.19,-0.98,0.17,2.38,-2.87,-3.05,237,273,202,442,353
708,0.18,-0.97,0.17,1.22,-2.62,-2.99,209,268,205,441,353
709,0.17,-0.97,0.18,1.22,-2.44,-2.44,211,266,193,442,349
710,0.17,-0.97,0.18,-0.12,-2.44,-2.81,210,268,199,436,354
711,0.17,-0.97,0.19,-0.18,-2.75,-2.87,218,268,206,441,344
712,0.18,-0.97,0.18,1.28,-2.87,-1.04,212,270,203,441,355
713,0.18,-0.97,0.16,-1.04,-2.99,-2.44,213,263,201,436,350
714,0.18,-0.98,0.15,-1.1,-3.72,-2.5,238,269,204,444,353
715,0.18,-0.97,0.19,-2.08,-2.01,-3.11,210,274,204,441,350
716,0.18,-0.97,0.17,1.65,-2.87,-2.5,211,268,204,445,352
717,0.17,-0.97,0.18,-0.49,-2.08,-3.17,212,267,209,442,350
718,0.18,-0.98,0.16,-0.73,-1.89,-3.66,213,268,205,438,353
719,0.17,-0.97,0.16,0.67,-3.91,-0.85,212,269,205,434,348
720,0.18,-0.96,0.15,-1.04,-2.14,-2.44,207,268,209,441,353
721,0.16,-0.97,0.14,-0.61,0.43,-0.43,213,269,204,441,350
722,0.16,-0.97,0.17,1.28,-2.69,-2.01,212,264,202,442,357
723,0.12,-0.93,0.2,4.52,-5.19,-0.18,209,270,205,442,352
724,0.17,-0.96,0.17,1.65,-3.6,-2.2,214,261,201,440,353
725,0.18,-0.97,0.18,1.28,-3.85,-3.3,211,265,204,445,351
726,0.14,-0.97,0.17,0.24,-2.26,-1.16,205,270,208,444,352
727,0.16,-0.97,0.16,-1.16,-3.66,-2.38,211,265,204,446,353
728,0.17,-0.97,0.19,0.18,-3.3,-2.44,212,266,202,446,350
729,0.15,-0.98,0.17,2.44,-2.69,-1.04,208,268,201,447,352
730,0.18,-0.97,0.17,2.5,-1.71,-3.6,213,269,203,440,351
731,0.16,-0.97,0.17,5.62,-3.11,-4.88,214,267,205,448,357
732,0.2,-0.96,0.16,-1.1,-3.6,-3.54,212,273,209,443,353
733,0.2,-0.97,0.18,0.92,-2.56,-4.39,210,266,204,443,357
734,0.19,-0.97,0.19,-1.71,-3.36,-1.95,211,270,200,440,355
735,0.19,-0.97,0.2,-0.43,-2.44,0.79,213,269,195,437,352
736,0.2,-0.97,0.14,3.42,-4.21,-2.69,211,266,205,445,355
737,0.2,-0.97,0.16,3.97,-2.32,-1.71,213,267,203,435,352
738,0.17,-0.97,0.23,3.48,-2.99,-6.16,209,269,201,440,354
739,0.19,-0.97,0.23,1.4,0.31,-5.49,211,264,204,438,356
740,0.17,-0.97,0.19,-2.26,-2.38,-2.5,211,267,205,446,352
741,0.11,-0.97,0.28,-7.51,-28.5,-10.19,215,262,199,453,354
742,0.31,-0.96,0.05,5.98,6.96,5.49,236,266,204,442,355
743,0.23,-0.96,0.13,7.39,9.4,2.93,211,267,200,440,350
744,0.17,-0.97,0.23,9.09,-2.01,-1.28,215,268,202,447,353
745,0.14,-0.97,0.23,1.34,-8.67,0.67,210,265,203,437,353
746,0.16,-0.96,0.18,-3.17,-9.22,-1.83,209,271,204,444,351
747,0.16,-0.97,0.21,-1.22,-3.11,0.0,214,271,215,444,363
748,0.16,-0.97,0.17,2.99,-5.8,-2.5,214,269,195,447,355
749,0.16,-0.97,0.18,-1.34,-1.83,-1.95,212,266,205,448,352
750,0.17,-0.97,0.18,1.71,-2.99,-2.2,212,269,215,447,348
751,0.14,-0.97,0.17,-2.38,-1.1,-3.78,207,266,201,448,353
752,0.16,-0.97,0.2,2.69,-3.48,-2.32,210,266,199,442,355
753,0.16,-0.97,0.19,1.83,-3.36,-3.05,204,263,206,451,352
754,0.17,-0.97,0.18,0.31,-3.3,-2.32,212,264,206,441,353
755,0.16,-0.97,0.19,0.06,-2.08,-2.75,211,269,203,444,350
756,0.15,-0.97,0.21,0.06,-2.62,-2.44,213,266,204,438,350
757,0.14,-0.97,0.2,1.4,-3.91,-1.4,215,268,203,448,352
758,0.15,-0.97,0.2,0.85,-2.56,-3.05,215,264,190,438,352
759,0.17,-0.97,0.2,2.38,-4.88,-2.2,207,270,200,446,353
760,0.15,-0.97,0.21,0.06,-1.46,-2.87,213,264,201,437,354
761,0.15,-0.97,0.19,-3.42,-0.67,-5.13,213,269,202,438,349
762,0.16,-0.97,0.18,-0.24,-4.76,-3.17,210,267,209,446,353
763,0.16,-0.97,0.2,2.62,-3.48,-2.08,207,267,203,445,350
764,0.16,-0.97,0.2,0.06,-3.66,-2.75,210,280,200,451,352
765,0.15,-0.97,0.21,0.18,-2.62,-3.17,211,269,203,448,355
766,0.15,-0.97,0.2,0.98,-3.17,-2.2,215,266,203,444,350
767,0.17,-0.97,0.23,1.59,-3.48,-2.93,211,265,210,445,346
768,0.16,-0.97,0.19,-2.81,-0.92,-3.54,216,271,203,439,354
769,0.14,-0.97,0.24,1.89,-2.38,-2.69,210,270,207,450,345
770,0.16,-0.97,0.22,-1.77,-2.87,0.31,211,272,207,449,349
771,0.14,-0.97,0.2,-0.18,-2.81,-3.36,212,269,201,439,350
772,0.15,-0.98,0.2,-0.79,-2.32,-2.62,211,267,208,442,352
773,0.15,-0.97,0.2,0.92,-3.6,-2.38,206,273,204,448,350
774,0.15,-0.97,0.2,0.49,-2.93,-2.69,214,269,209,444,352
775,0.15,-0.97,0.19,0.98,-2.5,-3.3,212,273,201,445,352
776,0.14,-0.98,0.2,-1.28,-3.36,-2.14,214,268,204,442,349
777,0.16,-0.97,0.2,1.95,-2.93,-1.89,210,265,203,446,348
778,0.16,-0.97,0.19,0.55,-3.11,-1.16,201,267,205,444,351
779,0.14,-0.97,0.17,0.85,-3.91,-2.26,214,270,204,442,353
780,0.16,-0.98,0.18,1.34,-4.39,-2.32,212,270,205,445,351
781,0.16,-0.97,0.2,1.4,-2.93,-2.69,213,268,201,444,350
782,0.15,-0.97,0.19,0.24,-2.5,-3.54,214,267,193,445,353
783,0.14,-0.97,0.18,-1.83,-1.95,-2.5,215,267,201,441,354
784,0.16,-0.96,0.2,0.06,-3.23,-0.31,209,268,196,448,356
785,0.18,-0.98,0.19,7.14,-3.91,-1.71,210,264,203,443,355
786,0.17,-0.97,0.17,3.54,-7.39,-1.1,212,272,202,444,354
787,0.16,-0.97,0.13,1.59,-5.31,-1.34,215,265,199,448,353
788,0.16,-0.97,0.16,0.0,-1.46,-3.72,215,268,203,445,352
789,0.17,-0.98,0.18,-2.08,-3.91,-2.99,213,266,203,445,354
790,0.18,-0.97,0.16,1.65,-3.3,-2.69,211,268,202,445,353
791,0.19,-0.97,0.18,3.6,-1.59,-1.53,212,261,201,440,348
792,0.18,-0.96,0.17,1.65,-1.89,-2.5,214,271,202,449,350
793,0.14,-0.95,0.23,0.55,-1.46,-2.32,215,272,197,445,358
794,0.17,-0.97,0.19,0.73,-2.2,-2.81,216,268,196,441,350
795,0.17,-0.98,0.16,1.22,2.87,-12.21,213,273,197,444,352
796,0.26,-0.96,0.21,2.44,-1.53,-4.52,213,267,204,450,354
797,0.22,-0.95,0.16,-4.09,-2.75,-4.52,214,266,201,446,353
798,0.17,-0.97,0.19,0.31,-4.39,-4.52,215,264,207,445,354
799,0.22,-0.94,0.25,-0.18,-3.3,-4.82,218,267,203,443,355
800,0.23,-0.95,0.23,-5.55,-2.5,-2.99,216,266,208,450,352
801,0.22,-0.95,0.22,-5.19,-2.01,-3.05,215,267,210,443,354
802,0.22,-0.95,0.21,1.4,2.62,-6.1,214,271,208,445,355
803,0.17,-0.95,0.22,0.49,-2.93,-4.58,215,265,203,445,356
804,0.18,-0.92,0.22,-0.18,-14.59,3.6,209,270,195,439,356
805,0.17,-0.96,0.23,12.39,-2.5,3.48,212,269,203,442,356
806,0.22,-0.94,0.31,3.54,0.12,-10.07,215,266,190,447,353
807,0.12,-0.96,0.27,-3.11,-6.23,6.96,215,271,207,446,355
808,0.17,-0.94,0.3,5.98,-16.36,11.35,215,271,202,445,349
809,0.15,-0.96,0.21,-6.84,-9.28,-1.95,216,268,208,446,351
810,0.21,-0.94,0.25,-0.92,6.41,-0.37,217,267,206,446,350
811,0.13,-0.95,0.26,2.69,-3.3,-0.49,216,272,204,449,351
812,0.11,-0.93,0.36,1.71,5.43,-10.44,216,269,207,445,352
813,0.13,-0.96,0.27,6.04,-6.77,-2.01,215,271,202,441,352
814,0.16,-0.93,0.33,3.85,-11.54,-2.99,217,268,206,445,354
815,0.12,-0.96,0.33,-7.81,-7.2,-1.34,217,267,196,440,355
816,0.16,-0.97,0.23,-6.35,-0.37,-1.95,217,265,203,449,352
817,0.18,-0.98,0.26,-5.19,-6.16,-11.66,215,271,210,446,348
818,0.24,-0.95,0.27,-7.51,9.46,-7.57,217,272,194,449,350
819,0.23,-0.92,0.28,2.81,-10.25,0.61,218,268,194,445,354
820,0.25,-0.93,0.33,6.53,-2.44,15.2,215,270,208,444,352
821,0.23,-0.95,0.24,13.49,-6.65,0.18,217,267,205,450,355
822,0.33,-0.91,0.29,6.1,-37.66,-5.37,219,269,206,447,349
823,0.38,-0.9,0.33,-0.79,-0.92,-4.94,216,274,203,440,349
824,0.26,-0.95,0.18,-3.54,-4.27,0.55,212,265,208,448,353
825,0.21,-0.95,0.25,0.12,-8.54,-0.98,216,270,204,445,355
826,0.21,-0.95,0.25,11.17,-2.81,4.64,232,263,204,449,357
827,0.21,-0.94,0.3,10.44,4.88,-3.05,217,270,198,448,355
828,0.12,-0.95,0.33,10.38,-2.32,-0.61,242,259,207,441,356
829,0.16,-0.95,0.36,4.15,18.62,-4.88,219,266,202,443,358
830,0.09,-0.99,0.29,6.65,16.6,4.39,217,266,202,445,356
831,0.18,-0.96,0.37,1.16,-1.95,-18.86,215,265,203,438,359
832,0.25,-0.9,0.31,0.61,-3.85,-4.82,218,269,204,437,355
833,0.14,-0.92,0.25,-1.1,-10.74,2.5,222,271,197,442,359
834,0.15,-0.91,0.28,15.69,-7.14,0.61,215,270,194,439,358
835,0.16,-0.94,0.3,-0.31,-2.69,-2.2,218,272,206,436,361
836,0.15,-0.95,0.3,-1.53,-2.69,-4.94,218,274,203,441,358
837,0.12,-0.95,0.28,0.98,-7.63,1.71,225,269,206,446,356
838,0.16,-0.95,0.26,3.6,-6.53,-3.72,217,270,205,442,358
839,0.14,-0.95,0.3,-0.79,-0.12,-3.36,222,272,204,446,356
840,0.16,-0.95,0.3,4.58,-5.43,-1.59,221,271,206,446,360
841,0.16,-0.94,0.3,-0.85,-2.75,-2.69,222,272,205,447,359
842,0.15,-0.95,0.31,2.75,-4.7,-3.72,222,268,207,447,360
843,0.17,-0.95,0.27,-0.18,-4.39,-2.38,222,273,207,448,354
844,0.18,-0.95,0.27,2.5,-2.44,-2.81,225,268,205,443,356
845,0.18,-0.94,0.22,4.58,-3.05,-7.63,223,262,208,451,356
846,0.13,-0.96,0.23,0.61,-3.05,-1.77,219,272,203,446,359
847,0.18,-0.94,0.32,10.86,-2.2,-2.5,220,270,205,449,357
848,0.18,-0.94,0.34,5.55,-6.96,4.15,221,261,204,448,356
849,0.16,-0.95,0.31,7.26,-4.03,-0.55,218,266,210,461,359
850,0.17,-0.95,0.3,-3.42,-2.99,-2.93,222,275,204,444,350
851,0.15,-0.95,0.28,1.22,-2.69,-2.69,218,272,205,447,360
852,0.15,-0.95,0.27,-4.82,-4.88,-0.37,221,270,207,446,358
853,0.15,-0.96,0.25,-6.77,-0.98,-3.17,219,270,203,450,360
854,0.13,-0.94,0.19,-0.73,-2.81,-3.78,212,270,209,451,355
855,0.11,-0.98,0.29,-1.77,-4.03,0.18,217,274,206,448,356
856,0.16,-0.96,0.18,-12.76,-0.18,-6.29,214,270,207,446,358
857,0.17,-0.96,0.2,5.8,-5.13,-2.01,221,271,210,448,358
858,0.13,-0.95,0.27,4.88,-2.38,-1.59,221,271,208,446,359
859,0.15,-0.97,0.23,0.79,-3.97,-1.89,219,269,206,448,359
860,0.14,-0.97,0.19,-4.94,1.89,1.46,221,271,206,444,353
861,0.13,-0.97,0.23,11.6,-7.81,0.49,223,271,208,446,358
862,0.14,-0.96,0.22,-0.73,-3.66,-3.3,222,273,209,445,354
863,0.13,-0.96,0.24,-0.61,-2.01,-4.09,234,270,209,445,356
864,0.12,-0.97,0.25,4.88,-7.63,-0.73,221,267,203,444,356
865,0.11,-0.95,0.29,2.38,-0.67,-2.87,221,274,206,446,356
866,0.12,-0.96,0.29,-8.67,-0.24,-6.41,221,272,210,442,359
867,0.13,-0.94,0.28,-0.55,-2.87,-2.32,222,278,208,446,360
868,0.12,-0.96,0.26,0.85,-9.52,-2.56,220,278,203,449,356
869,0.15,-0.97,0.26,2.08,-2.56,-1.77,239,271,196,457,359
870,0.15,-0.95,0.25,1.04,-2.44,-4.27,221,272,204,448,357
871,0.14,-0.95,0.25,2.2,-3.36,-2.44,224,265,210,446,354
872,0.13,-0.95,0.28,0.06,-2.69,-3.3,220,272,210,451,359
873,0.13,-0.96,0.28,0.55,-3.85,-2.44,221,269,198,448,359
874,0.13,-0.96,0.27,0.31,-3.36,-2.5,222,275,204,443,359
875,0.14,-0.95,0.27,0.67,-2.93,-2.93,223,275,206,446,361
876,0.13,-0.96,0.28,1.22,-3.23,-2.5,222,271,205,439,359
877,0.14,-0.95,0.26,0.98,-3.05,-2.38,216,275,207,450,366
878,0.14,-0.95,0.28,0.24,-3.72,-2.69,220,291,206,451,359
879,0.15,-0.95,0.28,-0.98,-3.78,-2.32,224,269,208,448,359
880,0.14,-0.95,0.28,0.24,-1.71,-2.99,226,268,201,447,361
881,0.15,-0.95,0.27,-0.67,-2.69,-2.75,221,273,200,452,363
882,0.13,-0.95,0.27,0.24,-3.72,-2.32,222,272,209,449,358
883,0.15,-0.95,0.3,1.65,-2.87,-2.93,219,274,205,451,357
884,0.14,-0.96,0.28,-0.18,-3.97,-2.14,223,272,205,450,359
885,0.13,-0.96,0.28,-2.32,-3.3,-2.56,219,273,208,447,357
886,0.14,-0.96,0.27,1.04,-3.48,-2.08,225,270,213,449,358
887,0.14,-0.96,0.27,0.98,-3.11,-1.4,221,273,200,450,358
888,0.15,-0.96,0.26,0.79,-3.05,-2.38,223,274,205,447,354
889,0.15,-0.95,0.25,0.31,-2.87,-2.69,218,270,206,450,358
890,0.15,-0.96,0.26,1.4,-3.6,-2.5,223,272,207,453,357
891,0.13,-0.97,0.27,3.54,-3.48,-0.85,224,272,204,452,358
892,0.15,-0.96,0.25,2.5,-3.66,-1.59,222,269,204,448,358
893,0.14,-0.96,0.27,1.4,-2.75,-2.32,227,272,205,453,360
894,0.14,-0.96,0.26,0.37,-2.81,-1.89,221,275,204,452,359
895,0.14,-0.96,0.26,-0.61,-2.32,-2.93,225,273,207,453,358
896,0.14,-0.96,0.27,0.43,-2.56,-2.56,217,272,207,447,354
897,0.15,-0.96,0.26,2.14,-2.81,-2.01,221,271,205,450,358
898,0.15,-0.96,0.24,-1.22,-2.2,-4.15,221,273,196,452,359
899,0.15,-0.96,0.25,-0.06,-3.72,-3.11,221,272,212,449,361
900,0.14,-0.96,0.26,-0.31,-2.62,-2.38,224,272,208,448,357
901,0.14,-0.96,0.25,0.61,-2.62,-2.32,224,275,206,447,358
902,0.15,-0.96,0.25,0.0,-2.62,-2.56,222,272,204,452,358
903,0.14,-0.96,0.25,-0.43,-2.69,-2.93,222,273,198,447,354
904,0.14,-0.96,0.25,0.67,-2.87,-2.38,222,281,207,452,355
905,0.14,-0.97,0.25,-0.18,-2.69,-2.81,222,273,211,451,358
906,0.14,-0.96,0.25,0.67,-3.48,-2.93,222,272,212,452,361
907,0.14,-0.96,0.25,0.73,-3.3,-2.26,223,273,206,449,358
908,0.14,-0.96,0.24,0.85,-2.87,-1.77,222,270,210,448,356
909,0.15,-0.96,0.23,-0.85,-2.75,-2.81,223,273,210,443,359
910,0.14,-0.96,0.24,0.18,-3.05,-2.62,222,273,204,451,356
911,0.14,-0.96,0.24,0.67,-3.11,-2.2,223,274,210,445,352
912,0.15,-0.96,0.22,-3.42,-3.11,-2.2,223,274,203,454,354
913,0.12,-0.97,0.19,-5.31,-4.15,-1.22,223,271,210,449,361
914,0.16,-0.96,0.22,4.39,-4.76,-0.85,222,274,199,451,361
915,0.14,-0.96,0.25,2.08,-4.33,-2.87,222,275,206,464,351
916,0.14,-0.96,0.25,0.12,-4.27,-2.01,221,273,208,449,358
917,0.13,-0.96,0.26,0.79,-3.54,-2.62,223,275,207,452,357
918,0.13,-0.96,0.26,0.12,-2.81,-2.26,218,272,209,445,353
919,0.14,-0.96,0.26,1.28,-3.36,-1.77,219,268,212,445,360
920,0.14,-0.96,0.25,0.92,-2.75,-2.14,221,274,203,452,355
921,0.14,-0.96,0.24,0.55,-2.81,-2.5,223,275,203,449,358
922,0.14,-0.96,0.24,-0.37,-2.81,-2.56,224,273,203,440,358
923,0.13,-0.96,0.23,0.31,-2.56,-2.44,221,275,201,452,362
924,0.14,-0.96,0.24,-1.1,-3.11,-3.54,222,277,206,451,359
925,0.15,-0.96,0.24,2.32,-6.35,-3.42,227,273,208,450,359
926,0.14,-0.96,0.25,0.37,-2.56,-3.3,222,277,205,447,357
927,0.13,-0.97,0.24,-1.46,-2.81,-2.75,227,274,208,446,350
928,0.15,-0.96,0.24,1.34,-2.75,-2.14,222,270,202,445,357
929,0.13,-0.97,0.24,1.89,-2.99,-2.01,221,273,211,452,356
930,0.14,-0.96,0.22,0.67,-3.42,-2.26,220,272,208,444,361
931,0.15,-0.97,0.23,0.43,-3.11,-2.44,221,283,202,442,357
932,0.14,-0.97,0.22,0.61,-3.05,-2.2,217,275,210,447,355
933,0.15,-0.96,0.22,1.95,-3.72,-3.36,220,275,208,444,358
934,0.14,-0.96,0.3,2.69,-7.51,1.22,224,278,210,451,358
935,0.14,-0.97,0.23,1.53,-9.64,1.46,225,277,210,448,360
936,0.13,-0.95,0.33,7.93,-0.92,1.04,222,277,212,448,359
937,0.13,-0.95,0.28,2.81,-3.05,-0.92,219,274,208,452,361
938,0.13,-0.95,0.31,-2.56,-1.89,-4.33,239,276,200,448,361
939,0.13,-0.95,0.27,-0.24,-4.33,-2.2,220,275,203,452,358
940,0.13,-0.95,0.26,0.55,-3.48,-1.4,222,275,205,450,355
941,0.13,-0.96,0.26,1.16,-2.56,-3.48,227,275,202,448,358
942,0.13,-0.95,0.29,2.62,-1.95,-2.38,222,275,202,444,360
943,0.13,-0.95,0.28,1.59,-2.99,-1.65,231,270,207,445,359
944,0.13,-0.95,0.29,1.28,-3.42,-2.14,220,274,208,448,357
945,0.13,-0.95,0.28,-0.24,-3.78,-2.32,226,273,197,444,361
946,0.12,-0.95,0.3,0.24,-3.85,-2.81,225,276,208,451,354
947,0.15,-0.94,0.29,6.77,-4.7,-2.01,223,272,208,452,360
948,0.15,-0.94,0.33,5.98,-1.83,-8.73,220,278,212,450,364
949,0.16,-0.95,0.32,-0.73,-2.75,-1.89,220,276,200,450,359
950,0.15,-0.95,0.29,-1.16,-3.91,-2.81,221,269,206,448,357
951,0.17,-0.95,0.28,-0.79,-2.44,-3.42,221,272,208,464,356
952,0.17,-0.94,0.28,1.53,-2.93,-2.62,222,270,209,448,358
953,0.17,-0.95,0.25,-2.01,-3.42,-4.27,221,277,210,445,361
954,0.22,-0.94,0.23,-10.68,-2.81,-4.88,222,276,207,448,357
955,0.16,-0.96,0.24,0.24,-9.4,-2.26,225,275,208,448,356
956,0.21,-0.94,0.32,16.85,0.73,-1.04,223,278,206,446,356
957,0.16,-0.96,0.22,2.32,6.29,-8.61,222,276,202,448,360
958,0.13,-0.96,0.29,0.12,-1.1,-3.78,221,277,204,445,357
959,0.16,-0.95,0.28,0.0,-2.2,-2.56,225,275,210,447,358
960,0.15,-0.95,0.27,-0.06,-2.81,-2.44,226,276,204,448,359
961,0.16,-0.95,0.28,2.5,-3.36,-2.08,221,273,208,446,359
962,0.15,-0.95,0.26,-0.12,-1.46,-1.65,225,274,206,447,358
963,0.13,-0.96,0.29,2.26,-4.27,-1.16,219,275,207,459,358
964,0.13,-0.96,0.28,-0.55,-3.72,-2.01,221,276,195,444,358
965,0.12,-0.96,0.31,-0.67,-2.44,-2.99,224,277,214,448,355
966,0.14,-0.95,0.29,0.92,-3.48,-2.01,225,278,205,448,357
967,0.13,-0.95,0.28,-1.46,-2.99,-3.36,224,276,204,448,360
968,0.13,-0.96,0.26,-1.95,-2.01,-2.5,227,277,213,445,361
969,0.14,-0.95,0.26,1.22,-3.42,-3.3,225,280,211,450,358
970,0.13,-0.96,0.28,1.1,-3.6,-1.59,221,277,208,453,353
971,0.13,-0.96,0.27,2.5,-3.72,-2.14,224,275,209,451,355
972,0.15,-0.96,0.26,2.14,-3.54,-2.14,219,274,201,443,363
973,0.13,-0.95,0.28,2.81,-1.59,-2.93,223,277,208,448,356
974,0.14,-0.95,0.3,0.55,-4.88,-3.17,219,278,202,449,355
975,0.16,-0.95,0.27,-1.1,-2.01,-3.54,226,275,210,445,354
976,0.15,-0.96,0.26,1.59,-0.55,-3.97,224,278,210,446,348
977,0.13,-0.96,0.27,1.46,-2.32,-1.59,225,272,209,447,353
978,0.14,-0.96,0.25,3.85,-7.57,-4.03,223,275,208,446,351
979,0.18,-0.94,0.25,0.37,-5.0,-2.93,221,278,207,456,357
980,0.17,-0.94,0.29,-0.61,-2.99,-1.22,223,276,208,445,353
981,0.18,-0.95,0.26,-0.79,-1.77,-2.87,227,277,206,449,355
982,0.18,-0.95,0.27,-0.55,-2.56,-1.1,222,281,201,449,353
983,0.18,-0.95,0.27,0.61,-3.36,-3.3,220,277,211,450,355
984,0.18,-0.96,0.27,1.28,-4.21,-2.56,223,279,203,440,353
985,0.17,-0.95,0.27,0.73,-2.44,-2.69,222,279,211,450,353
986,0.18,-0.94,0.28,-1.16,-2.32,-2.5,222,278,205,448,349
987,0.17,-0.95,0.3,1.22,-2.56,-2.2,221,276,211,449,352
988,0.16,-0.94,0.3,0.37,-2.99,-2.69,225,279,209,445,356
989,0.17,-0.95,0.29,0.55,-2.14,-2.99,222,275,210,449,350
990,0.17,-0.94,0.3,2.08,-3.23,-2.32,220,278,204,449,349
991,0.17,-0.94,0.3,1.28,-3.11,-1.83,221,277,210,452,354
992,0.16,-0.95,0.29,-0.49,-2.93,-2.62,224,280,207,451,357
993,0.16,-0.95,0.31,0.49,-3.11,-2.2,224,278,208,448,354
994,0.15,-0.95,0.29,-0.06,-3.11,-2.75,225,271,212,450,355
995,0.17,-0.95,0.29,2.44,-4.94,0.18,226,278,208,452,350
996,0.15,-0.94,0.29,1.65,-4.09,-0.79,225,280,207,447,352
997,0.15,-0.95,0.29,0.43,-3.3,-2.26,226,274,213,449,353
998,0.14,-0.95,0.29,-1.59,-3.54,-2.44,218,278,215,447,354
999,0.15,-0.95,0.3,-1.16,-2.75,-3.48,219,280,210,446,354
1000,0.16,-0.95,0.3,0.92,-2.56,-3.6,227,278,213,441,354
1001,0.15,-0.94,0.3,-1.22,-2.75,-2.44,223,282,211,454,355
1002,0.15,-0.94,0.3,1.1,-2.38,-2.62,224,277,207,448,353
1003,0.15,-0.95,0.29,0.61,-2.32,-2.99,244,279,214,450,351
1004,0.15,-0.95,0.3,-0.79,-2.93,-3.54,223,280,209,443,355
1005,0.15,-0.95,0.3,2.2,-3.05,-2.87,224,279,206,450,354
1006,0.15,-0.95,0.29,1.83,-2.99,-2.2,224,272,209,455,357
1007,0.16,-0.95,0.29,-1.28,-3.48,-3.17,225,276,213,444,357
1008,0.15,-0.95,0.3,1.1,-2.93,-1.59,226,277,213,450,355
1009,0.17,-0.95,0.27,2.93,-3.72,-2.99,223,279,213,448,357
1010,0.16,-0.95,0.28,1.16,-1.16,-3.17,222,280,211,449,359
1011,0.16,-0.95,0.28,3.11,-1.59,-2.81,227,279,215,450,355
1012,0.17,-0.94,0.3,4.21,-2.69,-1.71,237,268,214,443,353
1013,0.16,-0.94,0.29,-1.1,-2.08,-2.26,220,275,211,447,353
1014,0.15,-0.94,0.3,-0.79,-2.32,-2.62,228,279,207,450,356
1015,0.15,-0.96,0.29,-0.67,-2.69,-2.99,226,276,209,442,355
1016,0.16,-0.95,0.28,0.24,-3.17,-2.5,221,274,210,449,353
1017,0.15,-0.95,0.28,-0.61,-2.69,-2.44,225,274,201,458,356
1018,0.16,-0.94,0.28,0.61,-3.42,-2.75,221,279,212,449,352
1019,0.16,-0.95,0.28,-0.43,-2.5,-2.26,223,283,210,450,352
1020,0.18,-0.98,0.16,-0.85,-2.56,1.34,182,247,183,432,343
1021,0.16,-0.98,0.14,0.98,0.43,-2.87,189,248,179,431,350
1022,0.15,-0.97,0.16,1.34,-9.28,-0.55,190,246,188,429,349
1023,0.14,-0.99,0.15,-3.48,-12.76,-4.58,196,249,180,438,349
1024,0.13,-0.98,0.18,8.48,-6.9,-2.14,185,250,183,431,347
1025,0.15,-0.98,0.17,0.24,-5.68,1.53,203,255,184,432,349
1026,0.14,-0.97,0.15,4.33,5.92,-0.12,186,248,187,431,349
1027,0.15,-1.0,0.16,5.68,-1.04,-3.91,194,248,183,428,350
1028,0.13,-0.95,0.18,-3.66,-9.4,-0.92,196,248,190,433,351
1029,0.18,-0.99,0.19,-1.1,-2.75,-5.62,195,250,179,435,351
1030,0.18,-1.01,0.16,5.55,0.79,-0.43,198,252,185,427,354
1031,0.11,-0.97,0.12,-0.06,8.54,8.24,196,248,187,435,350
1032,0.06,-1.0,0.19,-7.57,-11.35,8.24,192,254,185,433,349
1033,0.05,-0.9,0.18,-22.83,4.39,4.33,197,256,194,436,352
1034,0.0,-0.98,0.2,8.79,0.92,-0.67,206,253,195,435,353
1035,0.01,-0.99,0.18,0.92,-1.59,-6.59,198,252,186,436,348
1036,-0.01,-0.95,0.18,0.31,-5.25,-3.17,193,252,190,438,356
1037,0.02,-0.98,0.21,1.95,-4.58,-2.99,195,249,188,438,352
1038,0.02,-0.99,0.19,-1.83,-2.99,-3.11,199,257,192,436,354
1039,0.02,-0.99,0.19,-0.79,-3.54,-5.07,195,250,186,436,356
1040,0.03,-0.98,0.18,-1.95,-6.59,-6.59,197,256,191,433,345
1041,-0.03,-0.99,0.12,4.09,-5.25,-1.22,197,258,192,429,348
1042,0.02,-1.0,0.16,2.44,-6.65,-6.29,209,256,192,435,349
1043,0.06,-0.98,0.15,-5.0,-0.92,-5.37,197,261,189,431,349
1044,0.07,-0.99,0.11,-2.2,-3.36,-5.25,202,273,193,438,350
1045,0.08,-0.99,0.1,0.24,-2.93,-1.53,193,256,189,439,354
1046,0.07,-0.99,0.09,-0.43,-3.66,-5.62,202,258,195,436,351
1047,0.08,-0.99,0.1,0.12,-5.98,-2.93,203,258,194,437,346
1048,0.07,-0.98,0.08,-0.67,-4.15,-2.26,202,260,198,429,348
1049,0.08,-0.99,0.09,0.55,2.32,-1.34,195,260,198,439,351
1050,0.09,-0.99,0.08,-0.61,-2.69,-2.2,197,260,189,436,349
1051,0.1,-1.0,0.06,5.37,-6.23,-2.62,193,258,194,437,352
1052,0.09,-1.0,0.09,0.92,-2.69,-1.04,200,255,196,437,349
1053,0.08,-0.99,0.07,-1.77,-3.05,-3.6,195,259,193,432,352
1054,0.08,-0.98,0.08,-1.65,-1.4,-2.81,198,263,185,437,348
1055,0.07,-0.99,0.08,5.62,-1.4,-0.85,198,260,188,431,354
1056,0.05,-1.0,0.15,-1.04,-5.74,-3.91,195,259,191,438,351
1057,0.08,-0.99,0.13,-0.37,-6.65,-0.61,199,259,192,434,354
1058,0.09,-0.99,0.11,2.32,-3.23,-2.5,199,259,200,439,352
1059,0.08,-0.99,0.12,1.95,-2.26,-2.14,197,262,194,437,349
1060,0.08,-0.98,0.14,-1.65,-3.91,-1.22,201,262,195,435,350
1061,0.06,-0.99,0.13,0.06,-2.01,-2.5,199,260,192,440,350
1062,0.09,-0.99,0.13,1.53,-2.62,-3.54,205,263,198,439,351
1063,0.09,-0.99,0.12,1.1,-3.23,-2.62,201,261,183,438,355
1064,0.08,-0.98,0.13,-0.79,-3.66,-2.62,199,257,194,439,352
1065,0.08,-0.98,0.1,-1.22,-2.69,-2.32,197,257,200,436,349
1066,0.08,-0.99,0.12,-1.1,-2.5,-2.81,204,259,194,437,350
1067,0.08,-1.0,0.13,-1.53,-1.65,-2.87,201,264,192,441,353
1068,0.07,-0.99,0.11,0.61,-3.6,-1.59,203,260,195,438,349
1069,0.09,-1.0,0.11,-0.61,-1.28,-3.23,202,259,198,436,352
1070,0.08,-0.99,0.12,0.61,-3.3,-2.69,195,263,197,444,353
1071,0.09,-0.98,0.12,0.24,-3.78,-2.26,199,262,194,443,354
1072,0.09,-0.99,0.11,1.46,-3.54,-2.99,202,261,198,443,351
1073,0.08,-1.01,0.15,-2.75,-0.98,-0.85,199,261,197,438,353
1074,0.08,-0.99,0.12,0.61,-5.43,-4.7,197,263,195,438,351
1075,0.09,-0.98,0.1,0.92,-3.6,-1.59,201,256,197,442,351
1076,0.11,-0.98,0.12,5.68,-10.86,-4.82,200,258,194,439,351
1077,0.09,-0.97,0.11,-1.4,-2.38,-2.62,203,258,197,434,353
1078,0.1,-0.97,0.14,-3.11,-4.21,-4.46,200,262,196,455,352
1079,0.11,-0.98,0.14,-1.95,-0.24,0.61,203,264,193,443,353
1080,0.13,-0.97,0.11,2.62,-4.88,-4.94,199,261,195,440,352
1081,0.08,-0.95,0.17,-1.89,-1.65,-1.4,200,265,208,439,349
1082,0.12,-1.08,0.22,8.91,-13.43,-3.66,201,259,198,440,353
1083,0.14,-0.95,0.15,4.39,0.61,-4.33,204,261,198,438,354
1084,0.15,-1.01,0.21,3.11,3.48,3.36,199,257,200,449,351
1085,0.09,-0.96,0.17,-7.39,5.74,-2.08,203,260,198,441,352
1086,0.12,-0.98,0.17,3.36,-2.87,-5.86,209,259,199,442,354
1087,0.13,-0.97,0.17,1.4,-3.54,-2.01,204,257,193,439,355
1088,0.16,-1.0,0.19,2.62,-1.46,-4.64,197,259,189,435,352
1089,0.11,-0.95,0.15,-2.93,-8.79,-0.49,198,266,190,438,350
1090,0.11,-0.97,0.14,-2.38,-3.6,-4.76,200,261,199,438,352
1091,0.12,-0.98,0.1,2.5,0.24,-2.2,218,263,194,441,354
1092,0.09,-1.01,0.14,6.77,-0.12,1.22,202,264,195,435,351
1093,0.12,-0.98,0.16,0.73,4.58,-4.88,199,255,199,442,350
1094,0.13,-0.96,0.15,-6.65,-2.38,-2.87,209,261,192,435,353
1095,0.13,-0.97,0.15,-0.18,-3.42,-2.32,202,260,201,439,354
1096,0.12,-0.91,0.12,-7.51,2.93,-3.6,208,260,196,437,353
1097,0.07,-0.98,0.14,-0.24,-0.37,5.13,203,265,200,437,353
1098,0.12,-0.99,0.14,2.08,-1.89,0.37,198,260,188,434,353
1099,0.06,-0.98,0.1,-8.18,-4.7,-3.78,201,264,195,435,351
1100,0.09,-1.01,0.17,3.97,-7.51,-2.26,206,265,194,439,354
1101,0.07,-1.04,0.09,-6.04,-1.4,-11.6,205,261,194,435,346
1102,0.08,-0.98,0.1,1.53,-5.13,-1.53,192,266,199,436,350
1103,0.09,-0.98,0.1,0.98,-6.1,-2.38,202,263,200,438,351
1104,0.08,-0.99,0.13,1.46,-4.15,-3.48,203,263,194,446,352
1105,0.01,-1.03,0.16,19.53,8.97,3.54,202,262,202,438,351
1106,-0.0,-0.97,0.28,-0.92,-9.77,-0.43,201,261,196,436,354
1107,0.05,-0.85,0.09,2.44,14.95,19.04,203,266,200,440,350
1108,0.16,-0.79,0.38,18.01,-29.79,0.43,206,265,196,438,353
1109,0.16,-0.91,0.4,-5.62,14.71,-20.69,206,266,200,434,355
1110,0.13,-0.95,0.4,-4.7,30.09,-13.98,207,264,202,441,354
1111,0.26,-0.87,0.35,-30.4,-10.5,-7.02,207,259,204,436,353
1112,0.0,-0.95,0.2,8.54,16.36,7.14,203,259,202,437,347
1113,0.04,-1.01,0.34,15.5,-23.5,-9.4,202,256,198,436,354
1114,0.1,-0.97,0.33,-7.63,-4.03,-7.87,201,263,196,441,350
1115,0.24,-0.93,0.39,6.47,6.71,-28.44,206,267,211,440,350
1116,0.12,-0.98,0.33,-0.55,2.32,-0.24,216,264,202,440,350
1117,0.04,-0.95,0.31,-0.98,-7.26,-2.32,203,265,202,444,347
1118,0.08,-0.94,0.3,0.49,-15.2,-1.46,216,266,199,444,348
1119,0.14,-0.94,0.21,-9.28,-11.6,-0.12,206,264,201,439,347
1120,0.12,-0.98,0.18,1.34,-14.65,-1.34,197,258,202,444,351
1121,0.2,-0.89,0.25,-14.59,7.93,18.43,207,263,199,439,348
1122,0.31,-0.88,0.09,14.77,-14.59,-26.06,207,266,204,438,354
1123,0.05,-1.01,0.11,6.65,0.24,-12.39,204,262,197,438,352
1124,0.12,-0.99,0.17,0.0,-5.31,3.23,202,268,199,436,349
1125,0.13,-0.97,0.11,3.23,3.23,-10.68,203,257,201,442,351
1126,0.12,-0.98,0.22,1.22,-4.58,0.0,205,264,199,442,352
1127,0.12,-0.98,0.16,0.61,-5.92,-0.31,206,264,197,444,351
1128,0.11,-0.98,0.17,-6.59,-0.98,-5.0,210,265,199,440,350
1129,0.15,-0.97,0.13,-0.37,-5.74,-1.4,208,267,199,441,343
1130,0.11,-0.98,0.12,-3.05,-7.32,-0.61,211,261,197,442,351
1131,0.1,-0.96,0.08,1.53,6.23,-3.42,206,264,202,446,351
1132,0.13,-0.97,0.23,1.65,3.66,-4.15,208,262,198,440,350
1133,0.13,-0.96,0.21,-6.96,1.34,-6.71,205,267,202,441,351
1134,0.15,-0.96,0.2,0.06,-3.54,-2.69,208,263,197,445,353
1135,0.17,-0.96,0.19,2.69,-2.81,-2.56,210,261,197,439,351
1136,0.15,-0.97,0.2,2.87,-2.14,-3.85,207,266,202,439,349
1137,0.16,-0.96,0.21,0.06,-2.14,-3.48,201,269,199,443,351
1138,0.15,-0.97,0.2,-0.24,-2.75,-2.44,209,260,200,441,352
1139,0.17,-0.97,0.21,0.79,-2.01,-3.17,203,266,205,445,359
1140,0.17,-0.96,0.2,0.55,-1.22,-3.17,208,266,199,438,351
1141,0.16,-0.96,0.22,0.06,-2.2,-2.38,207,265,204,446,347
1142,0.16,-0.97,0.21,0.55,-3.05,-3.54,205,263,199,438,352
1143,0.16,-0.97,0.22,-2.26,-4.21,-3.72,204,265,201,444,347
1144,0.17,-0.96,0.22,5.07,-4.15,-2.26,206,265,204,440,349
1145,0.15,-0.96,0.21,-1.65,-2.44,-2.44,207,266,202,442,352
1146,0.16,-0.96,0.2,-0.73,-5.07,-4.27,207,267,197,444,353
1147,0.18,-0.96,0.22,2.14,-4.03,-3.66,207,259,203,440,353
1148,0.19,-0.95,0.22,1.83,-2.99,-4.58,208,264,204,443,351
1149,0.2,-0.95,0.21,-1.46,-1.34,-2.62,209,264,203,439,351
1150,0.2,-0.96,0.21,-2.38,-2.38,-2.75,208,261,201,444,351
1151,0.17,-0.98,0.19,0.92,-3.91,-0.85,212,266,201,458,354
1152,0.13,-0.98,0.2,5.8,-3.72,-1.83,208,258,199,438,353
1153,0.16,-0.96,0.19,0.18,-3.78,-1.71,203,263,200,444,355
1154,0.16,-0.96,0.19,2.2,-4.15,-1.4,208,268,197,441,351
1155,0.16,-0.96,0.2,13.06,0.31,-0.55,211,270,198,439,351
1156,0.14,-0.96,0.18,-4.09,1.34,-5.86,206,266,207,443,355
1157,0.16,-0.97,0.19,0.73,-2.69,-1.71,206,265,203,444,357
1158,0.15,-0.98,0.18,3.36,-5.92,-0.92,208,264,200,445,351
1159,0.17,-0.96,0.19,2.81,-4.09,-3.23,207,262,201,441,349
1160,0.17,-0.97,0.18,-1.34,-3.3,-2.01,209,271,201,442,354
1161,0.16,-0.98,0.18,0.43,-1.77,-3.97,212,266,198,439,354
1162,0.17,-0.97,0.2,-0.79,-2.93,-2.32,206,271,192,441,354
1163,0.15,-0.97,0.18,0.0,-3.23,-1.71,203,267,201,445,352
1164,0.17,-0.96,0.18,-0.12,-2.93,-3.48,207,264,197,439,352
1165,0.16,-0.97,0.2,1.4,-2.14,-3.05,215,267,201,446,354
1166,0.16,-0.97,0.18,1.46,-4.09,-2.38,209,268,200,440,350
1167,0.17,-0.97,0.18,-0.06,-2.87,-2.44,208,266,210,439,354
1168,0.16,-0.97,0.16,-1.53,-2.01,-3.54,207,265,199,442,355
1169,0.16,-0.97,0.19,-1.59,-3.97,-1.4,209,266,205,447,355
1170,0.18,-0.96,0.17,-0.61,-2.26,-3.3,209,263,206,446,355
1171,0.18,-0.97,0.17,0.79,-2.81,-1.95,210,261,207,443,348
1172,0.17,-0.97,0.18,0.79,-2.38,-1.59,209,264,197,442,353
1173,0.16,-0.98,0.18,0.06,-3.42,-2.38,201,268,202,447,353
1174,0.17,-0.97,0.18,0.18,-3.11,-2.44,210,263,201,443,353
1175,0.14,-0.98,0.19,0.92,-4.03,-2.81,209,267,195,445,349
1176,0.16,-0.97,0.19,-0.37,-3.72,-3.11,204,266,201,439,353
1177,0.16,-0.97,0.18,0.85,-2.69,-1.71,221,266,204,442,352
1178,0.17,-0.97,0.18,-4.76,-2.93,-2.26,206,265,201,444,352
1179,0.16,-0.97,0.16,2.87,-4.09,-3.17,204,268,203,449,354
1180,0.18,-0.98,0.18,1.65,-2.87,-2.62,203,257,199,437,354
1181,0.18,-0.97,0.17,-2.38,-1.77,-3.3,209,265,201,441,352
1182,0.16,-0.97,0.18,-1.65,-1.95,-3.36,206,264,196,436,352
1183,0.15,-0.97,0.2,3.05,-3.78,-2.08,211,266,205,438,353
1184,0.15,-0.97,0.19,0.98,-4.33,-1.89,209,264,206,446,350
1185,0.15,-0.97,0.18,1.65,-3.97,-2.32,207,266,205,444,351
1186,0.16,-0.97,0.19,1.77,-4.7,-2.75,210,265,203,440,351
1187,0.16,-0.97,0.17,0.37,-3.66,-2.38,211,270,200,443,349
1188,0.16,-0.97,0.18,-0.43,-3.11,-2.44,217,268,194,443,350
1189,0.17,-0.97,0.18,-0.92,-2.81,-3.72,211,265,205,444,352
1190,0.18,-0.97,0.19,-0.06,-3.17,-4.03,209,264,207,448,353
1191,0.18,-0.98,0.19,2.2,-4.46,-2.26,209,263,200,443,353
1192,0.18,-0.96,0.18,2.75,-4.88,-2.5,212,269,201,444,347
1193,0.17,-0.96,0.18,-1.59,-3.36,-1.89,213,265,206,452,354
1194,0.19,-0.97,0.19,1.83,-2.99,-3.11,208,269,203,441,352
1195,0.21,-0.96,0.22,2.32,-2.99,-3.72,213,265,208,442,348
1196,0.2,-0.96,0.21,0.73,-4.09,-0.85,204,268,207,445,351
1197,0.18,-0.97,0.19,-0.12,-3.23,-2.32,209,271,192,445,348
1198,0.19,-0.97,0.18,0.92,-3.42,-2.56,209,268,201,443,356
1199,0.19,-0.97,0.18,0.49,-3.23,-2.5,213,269,197,446,348
1200,0.18,-0.99,0.18,1.4,-2.93,-2.26,214,267,205,442,355
1201,0.18,-0.97,0.18,0.79,-2.99,-2.5,213,266,205,443,352
1202,0.19,-0.96,0.22,-0.98,-2.81,-3.48,211,258,207,445,349
1203,0.2,-0.96,0.19,1.22,-4.21,-0.85,211,264,206,437,353
1204,0.19,-0.97,0.18,1.34,-2.01,-3.3,214,270,199,445,352
1205,0.2,-0.95,0.19,0.55,-2.26,-1.59,213,262,204,435,347
1206,0.16,-0.97,0.18,-0.98,-3.78,-1.59,210,264,200,443,348
1207,0.19,-0.97,0.18,-0.49,-3.6,-3.23,213,263,200,450,353
1208,0.17,-0.97,0.19,0.06,-4.7,-1.95,213,263,200,441,342
1209,0.18,-0.97,0.19,0.12,-2.87,-2.62,212,259,198,444,346
1210,0.17,-0.97,0.19,0.61,-2.14,-2.08,210,268,204,436,353
1211,0.17,-0.97,0.18,0.06,-3.42,-3.17,209,268,204,439,359
1212,0.17,-0.97,0.19,0.85,-2.69,-2.32,217,265,203,442,353
1213,0.17,-0.97,0.18,-1.28,-4.27,-3.17,212,268,192,442,354
1214,0.16,-0.98,0.18,-2.75,-2.38,-2.32,216,267,195,433,342
1215,0.17,-0.97,0.19,0.73,-2.69,-4.15,209,265,213,439,349
1216,0.17,-0.96,0.14,5.55,-3.97,-2.5,215,266,209,449,355
1217,0.19,-0.98,0.17,2.38,-2.87,-3.05,237,273,202,442,353
1218,0.18,-0.97,0.17,1.22,-2.62,-2.99,209,268,205,441,353
1219,0.17,-0.97,0.18,1.22,-2.44,-2.44,211,266,193,442,349
1220,0.17,-0.97,0.18,-0.12,-2.44,-2.81,210,268,199,436,354
1221,0.17,-0.97,0.19,-0.18,-2.75,-2.87,218,268,206,441,344
1222,0.18,-0.97,0.18,1.28,-2.87,-1.04,212,270,203,441,355
1223,0.18,-0.97,0.16,-1.04,-2.99,-2.44,213,263,201,436,350
1224,0.18,-0.98,0.15,-1.1,-3.72,-2.5,238,269,204,444,353
1225,0.18,-0.97,0.19,-2.08,-2.01,-3.11,210,274,204,441,350
1226,0.18,-0.97,0.17,1.65,-2.87,-2.5,211,268,204,445,352
1227,0.17,-0.97,0.18,-0.49,-2.08,-3.17,212,267,209,442,350
1228,0.18,-0.98,0.16,-0.73,-1.89,-3.66,213,268,205,438,353
1229,0.17,-0.97,0.16,0.67,-3.91,-0.85,212,269,205,434,348
1230,0.18,-0.96,0.15,-1.04,-2.14,-2.44,207,268,209,441,353
1231,0.16,-0.97,0.14,-0.61,0.43,-0.43,213,269,204,441,350
1232,0.16,-0.97,0.17,1.28,-2.69,-2.01,212,264,202,442,357
1233,0.12,-0.93,0.2,4.52,-5.19,-0.18,209,270,205,442,352
1234,0.17,-0.96,0.17,1.65,-3.6,-2.2,214,261,201,440,353
1235,0.18,-0.97,0.18,1.28,-3.85,-3.3,211,265,204,445,351
1236,0.14,-0.97,0.17,0.24,-2.26,-1.16,205,270,208,444,352
1237,0.16,-0.97,0.16,-1.16,-3.66,-2.38,211,265,204,446,353
1238,0.17,-0.97,0.19,0.18,-3.3,-2.44,212,266,202,446,350
1239,0.15,-0.98,0.17,2.44,-2.69,-1.04,208,268,201,447,352
1240,0.18,-0.97,0.17,2.5,-1.71,-3.6,213,269,203,440,351
1241,0.16,-0.97,0.17,5.62,-3.11,-4.88,214,267,205,448,357
1242,0.2,-0.96,0.16,-1.1,-3.6,-3.54,212,273,209,443,353
1243,0.2,-0.97,0.18,0.92,-2.56,-4.39,210,266,204,443,357
1244,0.19,-0.97,0.19,-1.71,-3.36,-1.95,211,270,200,440,355
1245,0.19,-0.97,0.2,-0.43,-2.44,0.79,213,269,195,437,352
1246,0.2,-0.97,0.14,3.42,-4.21,-2.69,211,266,205,445,355
1247,0.2,-0.97,0.16,3.97,-2.32,-1.71,213,267,203,435,352
1248,0.17,-0.97,0.23,3.48,-2.99,-6.16,209,269,201,440,354
1249,0.19,-0.97,0.23,1.4,0.31,-5.49,211,264,204,438,356
1250,0.17,-0.97,0.19,-2.26,-2.38,-2.5,211,267,205,446,352
1251,0.11,-0.97,0.28,-7.51,-28.5,-10.19,215,262,199,453,354
1252,0.31,-0.96,0.05,5.98,6.96,5.49,236,266,204,442,355
1253,0.23,-0.96,0.13,7.39,9.4,2.93,211,267,200,440,350
1254,0.17,-0.97,0.23,9.09,-2.01,-1.28,215,268,202,447,353
1255,0.14,-0.97,0.23,1.34,-8.67,0.67,210,265,203,437,353
1256,0.16,-0.96,0.18,-3.17,-9.22,-1.83,209,271,204,444,351
1257,0.16,-0.97,0.21,-1.22,-3.11,0.0,214,271,215,444,363
1258,0.16,-0.97,0.17,2.99,-5.8,-2.5,214,269,195,447,355
1259,0.16,-0.97,0.18,-1.34,-1.83,-1.95,212,266,205,448,352
1260,0.17,-0.97,0.18,1.71,-2.99,-2.2,212,269,215,447,348
1261,0.14,-0.97,0.17,-2.38,-1.1,-3.78,207,266,201,448,353
1262,0.16,-0.97,0.2,2.69,-3.48,-2.32,210,266,199,442,355
1263,0.16,-0.97,0.19,1.83,-3.36,-3.05,204,263,206,451,352
1264,0.17,-0.97,0.18,0.31,-3.3,-2.32,212,264,206,441,353
1265,0.16,-0.97,0.19,0.06,-2.08,-2.75,211,269,203,444,350
1266,0.15,-0.97,0.21,0.06,-2.62,-2.44,213,266,204,438,350
1267,0.14,-0.97,0.2,1.4,-3.91,-1.4,215,268,203,448,352
1268,0.15,-0.97,0.2,0.85,-2.56,-3.05,215,264,190,438,352
1269,0.17,-0.97,0.2,2.38,-4.88,-2.2,207,270,200,446,353
1270,0.15,-0.97,0.21,0.06,-1.46,-2.87,213,264,201,437,354
1271,0.15,-0.97,0.19,-3.42,-0.67,-5.13,213,269,202,438,349
1272,0.16,-0.97,0.18,-0.24,-4.76,-3.17,210,267,209,446,353
1273,0.16,-0.97,0.2,2.62,-3.48,-2.08,207,267,203,445,350
1274,0.16,-0.97,0.2,0.06,-3.66,-2.75,210,280,200,451,352
1275,0.15,-0.97,0.21,0.18,-2.62,-3.17,211,269,203,448,355
1276,0.15,-0.97,0.2,0.98,-3.17,-2.2,215,266,203,444,350
1277,0.17,-0.97,0.23,1.59,-3.48,-2.93,211,265,210,445,346
1278,0.16,-0.97,0.19,-2.81,-0.92,-3.54,216,271,203,439,354
1279,0.14,-0.97,0.24,1.89,-2.38,-2.69,210,270,207,450,345
1280,0.16,-0.97,0.22,-1.77,-2.87,0.31,211,272,207,449,349
1281,0.14,-0.97,0.2,-0.18,-2.81,-3.36,212,269,201,439,350
1282,0.15,-0.98,0.2,-0.79,-2.32,-2.62,211,267,208,442,352
1283,0.15,-0.97,0.2,0.92,-3.6,-2.38,206,273,204,448,350
1284,0.15,-0.97,0.2,0.49,-2.93,-2.69,214,269,209,444,352
1285,0.15,-0.97,0.19,0.98,-2.5,-3.3,212,273,201,445,352
1286,0.14,-0.98,0.2,-1.28,-3.36,-2.14,214,268,204,442,349
1287,0.16,-0.97,0.2,1.95,-2.93,-1.89,210,265,203,446,348
1288,0.16,-0.97,0.19,0.55,-3.11,-1.16,201,267,205,444,351
1289,0.14,-0.97,0.17,0.85,-3.91,-2.26,214,270,204,442,353
1290,0.16,-0.98,0.18,1.34,-4.39,-2.32,212,270,205,445,351
1291,0.16,-0.97,0.2,1.4,-2.93,-2.69,213,268,201,444,350
1292,0.15,-0.97,0.19,0.24,-2.5,-3.54,214,267,193,445,353
1293,0.14,-0.97,0.18,-1.83,-1.95,-2.5,215,267,201,441,354
1294,0.16,-0.96,0.2,0.06,-3.23,-0.31,209,268,196,448,356
1295,0.18,-0.98,0.19,7.14,-3.91,-1.71,210,264,203,443,355
1296,0.17,-0.97,0.17,3.54,-7.39,-1.1,212,272,202,444,354
1297,0.16,-0.97,0.13,1.59,-5.31,-1.34,215,265,199,448,353
1298,0.16,-0.97,0.16,0.0,-1.46,-3.72,215,268,203,445,352
1299,0.17,-0.98,0.18,-2.08,-3.91,-2.99,213,266,203,445,354
1300,0.18,-0.97,0.16,1.65,-3.3,-2.69,211,268,202,445,353
1301,0.19,-0.97,0.18,3.6,-1.59,-1.53,212,261,201,440,348
1302,0.18,-0.96,0.17,1.65,-1.89,-2.5,214,271,202,449,350
1303,0.14,-0.95,0.23,0.55,-1.46,-2.32,215,272,197,445,358
1304,0.17,-0.97,0.19,0.73,-2.2,-2.81,216,268,196,441,350
1305,0.17,-0.98,0.16,1.22,2.87,-12.21,213,273,197,444,352
1306,0.26,-0.96,0.21,2.44,-1.53,-4.52,213,267,204,450,354
1307,0.22,-0.95,0.16,-4.09,-2.75,-4.52,214,266,201,446,353
1308,0.17,-0.97,0.19,0.31,-4.39,-4.52,215,264,207,445,354
1309,0.22,-0.94,0.25,-0.18,-3.3,-4.82,218,267,203,443,355
1310,0.23,-0.95,0.23,-5.55,-2.5,-2.99,216,266,208,450,352
1311,0.22,-0.95,0.22,-5.19,-2.01,-3.05,215,267,210,443,354
1312,0.22,-0.95,0.21,1.4,2.62,-6.1,214,271,208,445,355
1313,0.17,-0.95,0.22,0.49,-2.93,-4.58,215,265,203,445,356
1314,0.18,-0.92,0.22,-0.18,-14.59,3.6,209,270,195,439,356
1315,0.17,-0.96,0.23,12.39,-2.5,3.48,212,269,203,442,356
1316,0.22,-0.94,0.31,3.54,0.12,-10.07,215,266,190,447,353
1317,0.12,-0.96,0.27,-3.11,-6.23,6.96,215,271,207,446,355
1318,0.17,-0.94,0.3,5.98,-16.36,11.35,215,271,202,445,349
1319,0.15,-0.96,0.21,-6.84,-9.28,-1.95,216,268,208,446,351
1320,0.21,-0.94,0.25,-0.92,6.41,-0.37,217,267,206,446,350
1321,0.13,-0.95,0.26,2.69,-3.3,-0.49,216,272,204,449,351
1322,0.11,-0.93,0.36,1.71,5.43,-10.44,216,269,207,445,352
1323,0.13,-0.96,0.27,6.04,-6.77,-2.01,215,271,202,441,352
1324,0.16,-0.93,0.33,3.85,-11.54,-2.99,217,268,206,445,354
1325,0.12,-0.96,0.33,-7.81,-7.2,-1.34,217,267,196,440,355
1326,0.16,-0.97,0.23,-6.35,-0.37,-1.95,217,265,203,449,352
1327,0.18,-0.98,0.26,-5.19,-6.16,-11.66,215,271,210,446,348
1328,0.24,-0.95,0.27,-7.51,9.46,-7.57,217,272,194,449,350
1329,0.23,-0.92,0.28,2.81,-10.25,0.61,218,268,194,445,354
1330,0.25,-0.93,0.33,6.53,-2.44,15.2,215,270,208,444,352
1331,0.23,-0.95,0.24,13.49,-6.65,0.18,217,267,205,450,355
1332,0.33,-0.91,0.29,6.1,-37.66,-5.37,219,269,206,447,349
1333,0.38,-0.9,0.33,-0.79,-0.92,-4.94,216,274,203,440,349
1334,0.26,-0.95,0.18,-3.54,-4.27,0.55,212,265,208,448,353
1335,0.21,-0.95,0.25,0.12,-8.54,-0.98,216,270,204,445,355
1336,0.21,-0.95,0.25,11.17,-2.81,4.64,232,263,204,449,357
1337,0.21,-0.94,0.3,10.44,4.88,-3.05,217,270,198,448,355
1338,0.12,-0.95,0.33,10.38,-2.32,-0.61,242,259,207,441,356
1339,0.16,-0.95,0.36,4.15,18.62,-4.88,219,266,202,443,358
1340,0.09,-0.99,0.29,6.65,16.6,4.39,217,266,202,445,356
1341,0.18,-0.96,0.37,1.16,-1.95,-18.86,215,265,203,438,359
1342,0.25,-0.9,0.31,0.61,-3.85,-4.82,218,269,204,437,355
1343,0.14,-0.92,0.25,-1.1,-10.74,2.5,222,271,197,442,359
1344,0.15,-0.91,0.28,15.69,-7.14,0.61,215,270,194,439,358
1345,0.16,-0.94,0.3,-0.31,-2.69,-2.2,218,272,206,436,361
1346,0.15,-0.95,0.3,-1.53,-2.69,-4.94,218,274,203,441,358
1347,0.12,-0.95,0.28,0.98,-7.63,1.71,225,269,206,446,356
1348,0.16,-0.95,0.26,3.6,-6.53,-3.72,217,270,205,442,358
1349,0.14,-0.95,0.3,-0.79,-0.12,-3.36,222,272,204,446,356
1350,0.16,-0.95,0.3,4.58,-5.43,-1.59,221,271,206,446,360
1351,0.16,-0.94,0.3,-0.85,-2.75,-2.69,222,272,205,447,359
1352,0.15,-0.95,0.31,2.75,-4.7,-3.72,222,268,207,447,360
1353,0.17,-0.95,0.27,-0.18,-4.39,-2.38,222,273,207,448,354
1354,0.18,-0.95,0.27,2.5,-2.44,-2.81,225,268,205,443,356
1355,0.18,-0.94,0.22,4.58,-3.05,-7.63,223,262,208,451,356
1356,0.13,-0.96,0.23,0.61,-3.05,-1.77,219,272,203,446,359
1357,0.18,-0.94,0.32,10.86,-2.2,-2.5,220,270,205,449,357
1358,0.18,-0.94,0.34,5.55,-6.96,4.15,221,261,204,448,356
1359,0.16,-0.95,0.31,7.26,-4.03,-0.55,218,266,210,461,359
1360,0.17,-0.95,0.3,-3.42,-2.99,-2.93,222,275,204,444,350
1361,0.15,-0.95,0.28,1.22,-2.69,-2.69,218,272,205,447,360
1362,0.15,-0.95,0.27,-4.82,-4.88,-0.37,221,270,207,446,358
1363,0.15,-0.96,0.25,-6.77,-0.98,-3.17,219,270,203,450,360
1364,0.13,-0.94,0.19,-0.73,-2.81,-3.78,212,270,209,451,355
1365,0.11,-0.98,0.29,-1.77,-4.03,0.18,217,274,206,448,356
1366,0.16,-0.96,0.18,-12.76,-0.18,-6.29,214,270,207,446,358
1367,0.17,-0.96,0.2,5.8,-5.13,-2.01,221,271,210,448,358
1368,0.13,-0.95,0.27,4.88,-2.38,-1.59,221,271,208,446,359
1369,0.15,-0.97,0.23,0.79,-3.97,-1.89,219,269,206,448,359
1370,0.14,-0.97,0.19,-4.94,1.89,1.46,221,271,206,444,353
1371,0.13,-0.97,0.23,11.6,-7.81,0.49,223,271,208,446,358
1372,0.14,-0.96,0.22,-0.73,-3.66,-3.3,222,273,209,445,354
1373,0.13,-0.96,0.24,-0.61,-2.01,-4.09,234,270,209,445,356
1374,0.12,-0.97,0.25,4.88,-7.63,-0.73,221,267,203,444,356
1375,0.11,-0.95,0.29,2.38,-0.67,-2.87,221,274,206,446,356
1376,0.12,-0.96,0.29,-8.67,-0.24,-6.41,221,272,210,442,359
1377,0.13,-0.94,0.28,-0.55,-2.87,-2.32,222,278,208,446,360
1378,0.12,-0.96,0.26,0.85,-9.52,-2.56,220,278,203,449,356
1379,0.15,-0.97,0.26,2.08,-2.56,-1.77,239,271,196,457,359
1380,0.15,-0.95,0.25,1.04,-2.44,-4.27,221,272,204,448,357
1381,0.14,-0.95,0.25,2.2,-3.36,-2.44,224,265,210,446,354
1382,0.13,-0.95,0.28,0.06,-2.69,-3.3,220,272,210,451,359
1383,0.13,-0.96,0.28,0.55,-3.85,-2.44,221,269,198,448,359
1384,0.13,-0.96,0.27,0.31,-3.36,-2.5,222,275,204,443,359
1385,0.14,-0.95,0.27,0.67,-2.93,-2.93,223,275,206,446,361
1386,0.13,-0.96,0.28,1.22,-3.23,-2.5,222,271,205,439,359
1387,0.14,-0.95,0.26,0.98,-3.05,-2.38,216,275,207,450,366
1388,0.14,-0.95,0.28,0.24,-3.72,-2.69,220,291,206,451,359
1389,0.15,-0.95,0.28,-0.98,-3.78,-2.32,224,269,208,448,359
1390,0.14,-0.95,0.28,0.24,-1.71,-2.99,226,268,201,447,361
1391,0.15,-0.95,0.27,-0.67,-2.69,-2.75,221,273,200,452,363
1392,0.13,-0.95,0.27,0.24,-3.72,-2.32,222,272,209,449,358
1393,0.15,-0.95,0.3,1.65,-2.87,-2.93,219,274,205,451,357
1394,0.14,-0.96,0.28,-0.18,-3.97,-2.14,223,272,205,450,359
1395,0.13,-0.96,0.28,-2.32,-3.3,-2.56,219,273,208,447,357
1396,0.14,-0.96,0.27,1.04,-3.48,-2.08,225,270,213,449,358
1397,0.14,-0.96,0.27,0.98,-3.11,-1.4,221,273,200,450,358
1398,0.15,-0.96,0.26,0.79,-3.05,-2.38,223,274,205,447,354
1399,0.15,-0.95,0.25,0.31,-2.87,-2.69,218,270,206,450,358
1400,0.15,-0.96,0.26,1.4,-3.6,-2.5,223,272,207,453,357
1401,0.13,-0.97,0.27,3.54,-3.48,-0.85,224,272,204,452,358
1402,0.15,-0.96,0.25,2.5,-3.66,-1.59,222,269,204,448,358
1403,0.14,-0.96,0.27,1.4,-2.75,-2.32,227,272,205,453,360
1404,0.14,-0.96,0.26,0.37,-2.81,-1.89,221,275,204,452,359
1405,0.14,-0.96,0.26,-0.61,-2.32,-2.93,225,273,207,453,358
1406,0.14,-0.96,0.27,0.43,-2.56,-2.56,217,272,207,447,354
1407,0.15,-0.96,0.26,2.14,-2.81,-2.01,221,271,205,450,358
1408,0.15,-0.96,0.24,-1.22,-2.2,-4.15,221,273,196,452,359
1409,0.15,-0.96,0.25,-0.06,-3.72,-3.11,221,272,212,449,361
1410,0.14,-0.96,0.26,-0.31,-2.62,-2.38,224,272,208,448,357
1411,0.14,-0.96,0.25,0.61,-2.62,-2.32,224,275,206,447,358
1412,0.15,-0.96,0.25,0.0,-2.62,-2.56,222,272,204,452,358
1413,0.14,-0.96,0.25,-0.43,-2.69,-2.93,222,273,198,447,354
1414,0.14,-0.96,0.25,0.67,-2.87,-2.38,222,281,207,452,355
1415,0.14,-0.97,0.25,-0.18,-2.69,-2.81,222,273,211,451,358
1416,0.14,-0.96,0.25,0.67,-3.48,-2.93,222,272,212,452,361
1417,0.14,-0.96,0.25,0.73,-3.3,-2.26,223,273,206,449,358
1418,0.14,-0.96,0.24,0.85,-2.87,-1.77,222,270,210,448,356
1419,0.15,-0.96,0.23,-0.85,-2.75,-2.81,223,273,210,443,359
1420,0.14,-0.96,0.24,0.18,-3.05,-2.62,222,273,204,451,356
1421,0.14,-0.96,0.24,0.67,-3.11,-2.2,223,274,210,445,352
1422,0.15,-0.96,0.22,-3.42,-3.11,-2.2,223,274,203,454,354
1423,0.12,-0.97,0.19,-5.31,-4.15,-1.22,223,271,210,449,361
1424,0.16,-0.96,0.22,4.39,-4.76,-0.85,222,274,199,451,361
1425,0.14,-0.96,0.25,2.08,-4.33,-2.87,222,275,206,464,351
1426,0.14,-0.96,0.25,0.12,-4.27,-2.01,221,273,208,449,358
1427,0.13,-0.96,0.26,0.79,-3.54,-2.62,223,275,207,452,357
1428,0.13,-0.96,0.26,0.12,-2.81,-2.26,218,272,209,445,353
1429,0.14,-0.96,0.26,1.28,-3.36,-1.77,219,268,212,445,360
1430,0.14,-0.96,0.25,0.92,-2.75,-2.14,221,274,203,452,355
1431,0.14,-0.96,0.24,0.55,-2.81,-2.5,223,275,203,449,358
1432,0.14,-0.96,0.24,-0.37,-2.81,-2.56,224,273,203,440,358
1433,0.13,-0.96,0.23,0.31,-2.56,-2.44,221,275,201,452,362
1434,0.14,-0.96,0.24,-1.1,-3.11,-3.54,222,277,206,451,359
1435,0.15,-0.96,0.24,2.32,-6.35,-3.42,227,273,208,450,359
1436,0.14,-0.96,0.25,0.37,-2.56,-3.3,222,277,205,447,357
1437,0.13,-0.97,0.24,-1.46,-2.81,-2.75,227,274,208,446,350
1438,0.15,-0.96,0.24,1.34,-2.75,-2.14,222,270,202,445,357
1439,0.13,-0.97,0.24,1.89,-2.99,-2.01,221,273,211,452,356
1440,0.14,-0.96,0.22,0.67,-3.42,-2.26,220,272,208,444,361
1441,0.15,-0.97,0.23,0.43,-3.11,-2.44,221,283,202,442,357
1442,0.14,-0.97,0.22,0.61,-3.05,-2.2,217,275,210,447,355
1443,0.15,-0.96,0.22,1.95,-3.72,-3.36,220,275,208,444,358
1444,0.14,-0.96,0.3,2.69,-7.51,1.22,224,278,210,451,358
1445,0.14,-0.97,0.23,1.53,-9.64,1.46,225,277,210,448,360
1446,0.13,-0.95,0.33,7.93,-0.92,1.04,222,277,212,448,359
1447,0.13,-0.95,0.28,2.81,-3.05,-0.92,219,274,208,452,361
1448,0.13,-0.95,0.31,-2.56,-1.89,-4.33,239,276,200,448,361
1449,0.13,-0.95,0.27,-0.24,-4.33,-2.2,220,275,203,452,358
1450,0.13,-0.95,0.26,0.55,-3.48,-1.4,222,275,205,450,355
1451,0.13,-0.96,0.26,1.16,-2.56,-3.48,227,275,202,448,358
1452,0.13,-0.95,0.29,2.62,-1.95,-2.38,222,275,202,444,360
1453,0.13,-0.95,0.28,1.59,-2.99,-1.65,231,270,207,445,359
1454,0.13,-0.95,0.29,1.28,-3.42,-2.14,220,274,208,448,357
1455,0.13,-0.95,0.28,-0.24,-3.78,-2.32,226,273,197,444,361
1456,0.12,-0.95,0.3,0.24,-3.85,-2.81,225,276,208,451,354
1457,0.15,-0.94,0.29,6.77,-4.7,-2.01,223,272,208,452,360
1458,0.15,-0.94,0.33,5.98,-1.83,-8.73,220,278,212,450,364
1459,0.16,-0.95,0.32,-0.73,-2.75,-1.89,220,276,200,450,359
1460,0.15,-0.95,0.29,-1.16,-3.91,-2.81,221,269,206,448,357
1461,0.17,-0.95,0.28,-0.79,-2.44,-3.42,221,272,208,464,356
1462,0.17,-0.94,0.28,1.53,-2.93,-2.62,222,270,209,448,358
1463,0.17,-0.95,0.25,-2.01,-3.42,-4.27,221,277,210,445,361
1464,0.22,-0.94,0.23,-10.68,-2.81,-4.88,222,276,207,448,357
1465,0.16,-0.96,0.24,0.24,-9.4,-2.26,225,275,208,448,356
1466,0.21,-0.94,0.32,16.85,0.73,-1.04,223,278,206,446,356
1467,0.16,-0.96,0.22,2.32,6.29,-8.61,222,276,202,448,360
1468,0.13,-0.96,0.29,0.12,-1.1,-3.78,221,277,204,445,357
1469,0.16,-0.95,0.28,0.0,-2.2,-2.56,225,275,210,447,358
1470,0.15,-0.95,0.27,-0.06,-2.81,-2.44,226,276,204,448,359
1471,0.16,-0.95,0.28,2.5,-3.36,-2.08,221,273,208,446,359
1472,0.15,-0.95,0.26,-0.12,-1.46,-1.65,225,274,206,447,358
1473,0.13,-0.96,0.29,2.26,-4.27,-1.16,219,275,207,459,358
1474,0.13,-0.96,0.28,-0.55,-3.72,-2.01,221,276,195,444,358
1475,0.12,-0.96,0.31,-0.67,-2.44,-2.99,224,277,214,448,355
1476,0.14,-0.95,0.29,0.92,-3.48,-2.01,225,278,205,448,357
1477,0.13,-0.95,0.28,-1.46,-2.99,-3.36,224,276,204,448,360
1478,0.13,-0.96,0.26,-1.95,-2.01,-2.5,227,277,213,445,361
1479,0.14,-0.95,0.26,1.22,-3.42,-3.3,225,280,211,450,358
1480,0.13,-0.96,0.28,1.1,-3.6,-1.59,221,277,208,453,353
1481,0.13,-0.96,0.27,2.5,-3.72,-2.14,224,275,209,451,355
1482,0.15,-0.96,0.26,2.14,-3.54,-2.14,219,274,201,443,363
1483,0.13,-0.95,0.28,2.81,-1.59,-2.93,223,277,208,448,356
1484,0.14,-0.95,0.3,0.55,-4.88,-3.17,219,278,202,449,355
1485,0.16,-0.95,0.27,-1.1,-2.01,-3.54,226,275,210,445,354
1486,0.15,-0.96,0.26,1.59,-0.55,-3.97,224,278,210,446,348
1487,0.13,-0.96,0.27,1.46,-2.32,-1.59,225,272,209,447,353
1488,0.14,-0.96,0.25,3.85,-7.57,-4.03,223,275,208,446,351
1489,0.18,-0.94,0.25,0.37,-5.0,-2.93,221,278,207,456,357
1490,0.17,-0.94,0.29,-0.61,-2.99,-1.22,223,276,208,445,353
1491,0.18,-0.95,0.26,-0.79,-1.77,-2.87,227,277,206,449,355
1492,0.18,-0.95,0.27,-0.55,-2.56,-1.1,222,281,201,449,353
1493,0.18,-0.95,0.27,0.61,-3.36,-3.3,220,277,211,450,355
1494,0.18,-0.96,0.27,1.28,-4.21,-2.56,223,279,203,440,353
1495,0.17,-0.95,0.27,0.73,-2.44,-2.69,222,279,211,450,353
1496,0.18,-0.94,0.28,-1.16,-2.32,-2.5,222,278,205,448,349
1497,0.17,-0.95,0.3,1.22,-2.56,-2.2,221,276,211,449,352
1498,0.16,-0.94,0.3,0.37,-2.99,-2.69,225,279,209,445,356
1499,0.17,-0.95,0.29,0.55,-2.14,-2.99,222,275,210,449,350
1500,0.17,-0.94,0.3,2.08,-3.23,-2.32,220,278,204,449,349
1501,0.17,-0.94,0.3,1.28,-3.11,-1.83,221,277,210,452,354
1502,0.16,-0.95,0.29,-0.49,-2.93,-2.62,224,280,207,451,357
1503,0.16,-0.95,0.31,0.49,-3.11,-2.2,224,278,208,448,354
1504,0.15,-0.95,0.29,-0.06,-3.11,-2.75,225,271,212,450,355
1505,0.17,-0.95,0.29,2.44,-4.94,0.18,226,278,208,452,350
1506,0.15,-0.94,0.29,1.65,-4.09,-0.79,225,280,207,447,352
1507,0.15,-0.95,0.29,0.43,-3.3,-2.26,226,274,213,449,353
1508,0.14,-0.95,0.29,-1.59,-3.54,-2.44,218,278,215,447,354
1509,0.15,-0.95,0.3,-1.16,-2.75,-3.48,219,280,210,446,354
1510,0.16,-0.95,0.3,0.92,-2.56,-3.6,227,278,213,441,354
1511,0.15,-0.94,0.3,-1.22,-2.75,-2.44,223,282,211,454,355
1512,0.15,-0.94,0.3,1.1,-2.38,-2.62,224,277,207,448,353
1513,0.15,-0.95,0.29,0.61,-2.32,-2.99,244,279,214,450,351
1514,0.15,-0.95,0.3,-0.79,-2.93,-3.54,223,280,209,443,355
1515,0.15,-0.95,0.3,2.2,-3.05,-2.87,224,279,206,450,354
1516,0.15,-0.95,0.29,1.83,-2.99,-2.2,224,272,209,455,357
1517,0.16,-0.95,0.29,-1.28,-3.48,-3.17,225,276,213,444,357
1518,0.15,-0.95,0.3,1.1,-2.93,-1.59,226,277,213,450,355
1519,0.17,-0.95,0.27,2.93,-3.72,-2.99,223,279,213,448,357
1520,0.16,-0.95,0.28,1.16,-1.16,-3.17,222,280,211,449,359
1521,0.16,-0.95,0.28,3.11,-1.59,-2.81,227,279,215,450,355
1522,0.17,-0.94,0.3,4.21,-2.69,-1.71,237,268,214,443,353
1523,0.16,-0.94,0.29,-1.1,-2.08,-2.26,220,275,211,447,353
1524,0.15,-0.94,0.3,-0.79,-2.32,-2.62,228,279,207,450,356
1525,0.15,-0.96,0.29,-0.67,-2.69,-2.99,226,276,209,442,355
1526,0.16,-0.95,0.28,0.24,-3.17,-2.5,221,274,210,449,353
1527,0.15,-0.95,0.28,-0.61,-2.69,-2.44,225,274,201,458,356
1528,0.16,-0.94,0.28,0.61,-3.42,-2.75,221,279,212,449,352
1529,0.16,-0.95,0.28,-0.43,-2.5,-2.26,223,283,210,450,352
1530,0.18,-0.98,0.16,-0.85,-2.56,1.34,182,247,183,432,343
1531,0.16,-0.98,0.14,0.98,0.43,-2.87,189,248,179,431,350
1532,0.15,-0.97,0.16,1.34,-9.28,-0.55,190,246,188,429,349
1533,0.14,-0.99,0.15,-3.48,-12.76,-4.58,196,249,180,438,349
1534,0.13,-0.98,0.18,8.48,-6.9,-2.14,185,250,183,431,347
1535,0.15,-0.98,0.17,0.24,-5.68,1.53,203,255,184,432,349
1536,0.14,-0.97,0.15,4.33,5.92,-0.12,186,248,187,431,349
1537,0.15,-1.0,0.16,5.68,-1.04,-3.91,194,248,183,428,350
1538,0.13,-0.95,0.18,-3.66,-9.4,-0.92,196,248,190,433,351
1539,0.18,-0.99,0.19,-1.1,-2.75,-5.62,195,250,179,435,351
1540,0.18,-1.01,0.16,5.55,0.79,-0.43,198,252,185,427,354
1541,0.11,-0.97,0.12,-0.06,8.54,8.24,196,248,187,435,350
1542,0.06,-1.0,0.19,-7.57,-11.35,8.24,192,254,185,433,349
1543,0.05,-0.9,0.18,-22.83,4.39,4.33,197,256,194,436,352
1544,0.0,-0.98,0.2,8.79,0.92,-0.67,206,253,195,435,353
1545,0.01,-0.99,0.18,0.92,-1.59,-6.59,198,252,186,436,348
1546,-0.01,-0.95,0.18,0.31,-5.25,-3.17,193,252,190,438,356
1547,0.02,-0.98,0.21,1.95,-4.58,-2.99,195,249,188,438,352
1548,0.02,-0.99,0.19,-1.83,-2.99,-3.11,199,257,192,436,354
1549,0.02,-0.99,0.19,-0.79,-3.54,-5.07,195,250,186,436,356
1550,0.03,-0.98,0.18,-1.95,-6.59,-6.59,197,256,191,433,345
1551,-0.03,-0.99,0.12,4.09,-5.25,-1.22,197,258,192,429,348
1552,0.02,-1.0,0.16,2.44,-6.65,-6.29,209,256,192,435,349
1553,0.06,-0.98,0.15,-5.0,-0.92,-5.37,197,261,189,431,349
1554,0.07,-0.99,0.11,-2.2,-3.36,-5.25,202,273,193,438,350
1555,0.08,-0.99,0.1,0.24,-2.93,-1.53,193,256,189,439,354
1556,0.07,-0.99,0.09,-0.43,-3.66,-5.62,202,258,195,436,351
1557,0.08,-0.99,0.1,0.12,-5.98,-2.93,203,258,194,437,346
1558,0.07,-0.98,0.08,-0.67,-4.15,-2.26,202,260,198,429,348
1559,0.08,-0.99,0.09,0.55,2.32,-1.34,195,260,198,439,351
1560,0.09,-0.99,0.08,-0.61,-2.69,-2.2,197,260,189,436,349
1561,0.1,-1.0,0.06,5.37,-6.23,-2.62,193,258,194,437,352
1562,0.09,-1.0,0.09,0.92,-2.69,-1.04,200,255,196,437,349
1563,0.08,-0.99,0.07,-1.77,-3.05,-3.6,195,259,193,432,352
1564,0.08,-0.98,0.08,-1.65,-1.4,-2.81,198,263,185,437,348
1565,0.07,-0.99,0.08,5.62,-1.4,-0.85,198,260,188,431,354
1566,0.05,-1.0,0.15,-1.04,-5.74,-3.91,195,259,191,438,351
1567,0.08,-0.99,0.13,-0.37,-6.65,-0.61,199,259,192,434,354
1568,0.09,-0.99,0.11,2.32,-3.23,-2.5,199,259,200,439,352
1569,0.08,-0.99,0.12,1.95,-2.26,-2.14,197,262,194,437,349
1570,0.08,-0.98,0.14,-1.65,-3.91,-1.22,201,262,195,435,350
1571,0.06,-0.99,0.13,0.06,-2.01,-2.5,199,260,192,440,350
1572,0.09,-0.99,0.13,1.53,-2.62,-3.54,205,263,198,439,351
1573,0.09,-0.99,0.12,1.1,-3.23,-2.62,201,261,183,438,355
1574,0.08,-0.98,0.13,-0.79,-3.66,-2.62,199,257,194,439,352
1575,0.08,-0.98,0.1,-1.22,-2.69,-2.32,197,257,200,436,349
1576,0.08,-0.99,0.12,-1.1,-2.5,-2.81,204,259,194,437,350
1577,0.08,-1.0,0.13,-1.53,-1.65,-2.87,201,264,192,441,353
1578,0.07,-0.99,0.11,0.61,-3.6,-1.59,203,260,195,438,349
1579,0.09,-1.0,0.11,-0.61,-1.28,-3.23,202,259,198,436,352
1580,0.08,-0.99,0.12,0.61,-3.3,-2.69,195,263,197,444,353
1581,0.09,-0.98,0.12,0.24,-3.78,-2.26,199,262,194,443,354
1582,0.09,-0.99,0.11,1.46,-3.54,-2.99,202,261,198,443,351
1583,0.08,-1.01,0.15,-2.75,-0.98,-0.85,199,261,197,438,353
1584,0.08,-0.99,0.12,0.61,-5.43,-4.7,197,263,195,438,351
1585,0.09,-0.98,0.1,0.92,-3.6,-1.59,201,256,197,442,351
1586,0.11,-0.98,0.12,5.68,-10.86,-4.82,200,258,194,439,351
1587,0.09,-0.97,0.11,-1.4,-2.38,-2.62,203,258,197,434,353
1588,0.1,-0.97,0.14,-3.11,-4.21,-4.46,200,262,196,455,352
1589,0.11,-0.98,0.14,-1.95,-0.24,0.61,203,264,193,443,353
1590,0.13,-0.97,0.11,2.62,-4.88,-4.94,199,261,195,440,352
1591,0.08,-0.95,0.17,-1.89,-1.65,-1.4,200,265,208,439,349
1592,0.12,-1.08,0.22,8.91,-13.43,-3.66,201,259,198,440,353
1593,0.14,-0.95,0.15,4.39,0.61,-4.33,204,261,198,438,354
1594,0.15,-1.01,0.21,3.11,3.48,3.36,199,257,200,449,351
1595,0.09,-0.96,0.17,-7.39,5.74,-2.08,203,260,198,441,352
1596,0.12,-0.98,0.17,3.36,-2.87,-5.86,209,259,199,442,354
1597,0.13,-0.97,0.17,1.4,-3.54,-2.01,204,257,193,439,355
1598,0.16,-1.0,0.19,2.62,-1.46,-4.64,197,259,189,435,352
1599,0.11,-0.95,0.15,-2.93,-8.79,-0.49,198,266,190,438,350
1600,0.11,-0.97,0.14,-2.38,-3.6,-4.76,200,261,199,438,352
1601,0.12,-0.98,0.1,2.5,0.24,-2.2,218,263,194,441,354
1602,0.09,-1.01,0.14,6.77,-0.12,1.22,202,264,195,435,351
1603,0.12,-0.98,0.16,0.73,4.58,-4.88,199,255,199,442,350
1604,0.13,-0.96,0.15,-6.65,-2.38,-2.87,209,261,192,435,353
1605,0.13,-0.97,0.15,-0.18,-3.42,-2.32,202,260,201,439,354
1606,0.12,-0.91,0.12,-7.51,2.93,-3.6,208,260,196,437,353
1607,0.07,-0.98,0.14,-0.24,-0.37,5.13,203,265,200,437,353
1608,0.12,-0.99,0.14,2.08,-1.89,0.37,198,260,188,434,353
1609,0.06,-0.98,0.1,-8.18,-4.7,-3.78,201,264,195,435,351
1610,0.09,-1.01,0.17,3.97,-7.51,-2.26,206,265,194,439,354
1611,0.07,-1.04,0.09,-6.04,-1.4,-11.6,205,261,194,435,346
1612,0.08,-0.98,0.1,1.53,-5.13,-1.53,192,266,199,436,350
1613,0.09,-0.98,0.1,0.98,-6.1,-2.38,202,263,200,438,351
1614,0.08,-0.99,0.13,1.46,-4.15,-3.48,203,263,194,446,352
1615,0.01,-1.03,0.16,19.53,8.97,3.54,202,262,202,438,351
1616,-0.0,-0.97,0.28,-0.92,-9.77,-0.43,201,261,196,436,354
1617,0.05,-0.85,0.09,2.44,14.95,19.04,203,266,200,440,350
1618,0.16,-0.79,0.38,18.01,-29.79,0.43,206,265,196,438,353
1619,0.16,-0.91,0.4,-5.62,14.71,-20.69,206,266,200,434,355
1620,0.13,-0.95,0.4,-4.7,30.09,-13.98,207,264,202,441,354
1621,0.26,-0.87,0.35,-30.4,-10.5,-7.02,207,259,204,436,353
1622,0.0,-0.95,0.2,8.54,16.36,7.14,203,259,202,437,347
1623,0.04,-1.01,0.34,15.5,-23.5,-9.4,202,256,198,436,354
1624,0.1,-0.97,0.33,-7.63,-4.03,-7.87,201,263,196,441,350
1625,0.24,-0.93,0.39,6.47,6.71,-28.44,206,267,211,440,350
1626,0.12,-0.98,0.33,-0.55,2.32,-0.24,216,264,202,440,350
1627,0.04,-0.95,0.31,-0.98,-7.26,-2.32,203,265,202,444,347
1628,0.08,-0.94,0.3,0.49,-15.2,-1.46,216,266,199,444,348
1629,0.14,-0.94,0.21,-9.28,-11.6,-0.12,206,264,201,439,347
1630,0.12,-0.98,0.18,1.34,-14.65,-1.34,197,258,202,444,351
1631,0.2,-0.89,0.25,-14.59,7.93,18.43,207,263,199,439,348
1632,0.31,-0.88,0.09,14.77,-14.59,-26.06,207,266,204,438,354
1633,0.05,-1.01,0.11,6.65,0.24,-12.39,204,262,197,438,352
1634,0.12,-0.99,0.17,0.0,-5.31,3.23,202,268,199,436,349
1635,0.13,-0.97,0.11,3.23,3.23,-10.68,203,257,201,442,351
1636,0.12,-0.98,0.22,1.22,-4.58,0.0,205,264,199,442,352
1637,0.12,-0.98,0.16,0.61,-5.92,-0.31,206,264,197,444,351
1638,0.11,-0.98,0.17,-6.59,-0.98,-5.0,210,265,199,440,350
1639,0.15,-0.97,0.13,-0.37,-5.74,-1.4,208,267,199,441,343
1640,0.11,-0.98,0.12,-3.05,-7.32,-0.61,211,261,197,442,351
1641,0.1,-0.96,0.08,1.53,6.23,-3.42,206,264,202,446,351
1642,0.13,-0.97,0.23,1.65,3.66,-4.15,208,262,198,440,350
1643,0.13,-0.96,0.21,-6.96,1.34,-6.71,205,267,202,441,351
1644,0.15,-0.96,0.2,0.06,-3.54,-2.69,208,263,197,445,353
1645,0.17,-0.96,0.19,2.69,-2.81,-2.56,210,261,197,439,351
1646,0.15,-0.97,0.2,2.87,-2.14,-3.85,207,266,202,439,349
1647,0.16,-0.96,0.21,0.06,-2.14,-3.48,201,269,199,443,351
1648,0.15,-0.97,0.2,-0.24,-2.75,-2.44,209,260,200,441,352
1649,0.17,-0.97,0.21,0.79,-2.01,-3.17,203,266,205,445,359
1650,0.17,-0.96,0.2,0.55,-1.22,-3.17,208,266,199,438,351
1651,0.16,-0.96,0.22,0.06,-2.2,-2.38,207,265,204,446,347
1652,0.16,-0.97,0.21,0.55,-3.05,-3.54,205,263,199,438,352
1653,0.16,-0.97,0.22,-2.26,-4.21,-3.72,204,265,201,444,347
1654,0.17,-0.96,0.22,5.07,-4.15,-2.26,206,265,204,440,349
1655,0.15,-0.96,0.21,-1.65,-2.44,-2.44,207,266,202,442,352
1656,0.16,-0.96,0.2,-0.73,-5.07,-4.27,207,267,197,444,353
1657,0.18,-0.96,0.22,2.14,-4.03,-3.66,207,259,203,440,353
1658,0.19,-0.95,0.22,1.83,-2.99,-4.58,208,264,204,443,351
1659,0.2,-0.95,0.21,-1.46,-1.34,-2.62,209,264,203,439,351
1660,0.2,-0.96,0.21,-2.38,-2.38,-2.75,208,261,201,444,351
1661,0.17,-0.98,0.19,0.92,-3.91,-0.85,212,266,201,458,354
1662,0.13,-0.98,0.2,5.8,-3.72,-1.83,208,258,199,438,353
1663,0.16,-0.96,0.19,0.18,-3.78,-1.71,203,263,200,444,355
1664,0.16,-0.96,0.19,2.2,-4.15,-1.4,208,268,197,441,351
1665,0.16,-0.96,0.2,13.06,0.31,-0.55,211,270,198,439,351
1666,0.14,-0.96,0.18,-4.09,1.34,-5.86,206,266,207,443,355
1667,0.16,-0.97,0.19,0.73,-2.69,-1.71,206,265,203,444,357
1668,0.15,-0.98,0.18,3.36,-5.92,-0.92,208,264,200,445,351
1669,0.17,-0.96,0.19,2.81,-4.09,-3.23,207,262,201,441,349
1670,0.17,-0.97,0.18,-1.34,-3.3,-2.01,209,271,201,442,354
1671,0.16,-0.98,0.18,0.43,-1.77,-3.97,212,266,198,439,354
1672,0.17,-0.97,0.2,-0.79,-2.93,-2.32,206,271,192,441,354
1673,0.15,-0.97,0.18,0.0,-3.23,-1.71,203,267,201,445,352
1674,0.17,-0.96,0.18,-0.12,-2.93,-3.48,207,264,197,439,352
1675,0.16,-0.97,0.2,1.4,-2.14,-3.05,215,267,201,446,354
1676,0.16,-0.97,0.18,1.46,-4.09,-2.38,209,268,200,440,350
1677,0.17,-0.97,0.18,-0.06,-2.87,-2.44,208,266,210,439,354
1678,0.16,-0.97,0.16,-1.53,-2.01,-3.54,207,265,199,442,355
1679,0.16,-0.97,0.19,-1.59,-3.97,-1.4,209,266,205,447,355
1680,0.18,-0.96,0.17,-0.61,-2.26,-3.3,209,263,206,446,355
1681,0.18,-0.97,0.17,0.79,-2.81,-1.95,210,261,207,443,348
1682,0.17,-0.97,0.18,0.79,-2.38,-1.59,209,264,197,442,353
1683,0.16,-0.98,0.18,0.06,-3.42,-2.38,201,268,202,447,353
1684,0.17,-0.97,0.18,0.18,-3.11,-2.44,210,263,201,443,353
1685,0.14,-0.98,0.19,0.92,-4.03,-2.81,209,267,195,445,349
1686,0.16,-0.97,0.19,-0.37,-3.72,-3.11,204,266,201,439,353
1687,0.16,-0.97,0.18,0.85,-2.69,-1.71,221,266,204,442,352
1688,0.17,-0.97,0.18,-4.76,-2.93,-2.26,206,265,201,444,352
1689,0.16,-0.97,0.16,2.87,-4.09,-3.17,204,268,203,449,354
1690,0.18,-0.98,0.18,1.65,-2.87,-2.62,203,257,199,437,354
1691,0.18,-0.97,0.17,-2.38,-1.77,-3.3,209,265,201,441,352
1692,0.16,-0.97,0.18,-1.65,-1.95,-3.36,206,264,196,436,352
1693,0.15,-0.97,0.2,3.05,-3.78,-2.08,211,266,205,438,353
1694,0.15,-0.97,0.19,0.98,-4.33,-1.89,209,264,206,446,350
1695,0.15,-0.97,0.18,1.65,-3.97,-2.32,207,266,205,444,351
1696,0.16,-0.97,0.19,1.77,-4.7,-2.75,210,265,203,440,351
1697,0.16,-0.97,0.17,0.37,-3.66,-2.38,211,270,200,443,349
1698,0.16,-0.97,0.18,-0.43,-3.11,-2.44,217,268,194,443,350
1699,0.17,-0.97,0.18,-0.92,-2.81,-3.72,211,265,205,444,352
1700,0.18,-0.97,0.19,-0.06,-3.17,-4.03,209,264,207,448,353
1701,0.18,-0.98,0.19,2.2,-4.46,-2.26,209,263,200,443,353
1702,0.18,-0.96,0.18,2.75,-4.88,-2.5,212,269,201,444,347
1703,0.17,-0.96,0.18,-1.59,-3.36,-1.89,213,265,206,452,354
1704,0.19,-0.97,0.19,1.83,-2.99,-3.11,208,269,203,441,352
1705,0.21,-0.96,0.22,2.32,-2.99,-3.72,213,265,208,442,348
1706,0.2,-0.96,0.21,0.73,-4.09,-0.85,204,268,207,445,351
1707,0.18,-0.97,0.19,-0.12,-3.23,-2.32,209,271,192,445,348
1708,0.19,-0.97,0.18,0.92,-3.42,-2.56,209,268,201,443,356
1709,0.19,-0.97,0.18,0.49,-3.23,-2.5,213,269,197,446,348
1710,0.18,-0.99,0.18,1.4,-2.93,-2.26,214,267,205,442,355
1711,0.18,-0.97,0.18,0.79,-2.99,-2.5,213,266,205,443,352
1712,0.19,-0.96,0.22,-0.98,-2.81,-3.48,211,258,207,445,349
1713,0.2,-0.96,0.19,1.22,-4.21,-0.85,211,264,206,437,353
1714,0.19,-0.97,0.18,1.34,-2.01,-3.3,214,270,199,445,352
1715,0.2,-0.95,0.19,0.55,-2.26,-1.59,213,262,204,435,347
1716,0.16,-0.97,0.18,-0.98,-3.78,-1.59,210,264,200,443,348
1717,0.19,-0.97,0.18,-0.49,-3.6,-3.23,213,263,200,450,353
1718,0.17,-0.97,0.19,0.06,-4.7,-1.95,213,263,200,441,342
1719,0.18,-0.97,0.19,0.12,-2.87,-2.62,212,259,198,444,346
1720,0.17,-0.97,0.19,0.61,-2.14,-2.08,210,268,204,436,353
1721,0.17,-0.97,0.18,0.06,-3.42,-3.17,209,268,204,439,359
1722,0.17,-0.97,0.19,0.85,-2.69,-2.32,217,265,203,442,353
1723,0.17,-0.97,0.18,-1.28,-4.27,-3.17,212,268,192,442,354
1724,0.16,-0.98,0.18,-2.75,-2.38,-2.32,216,267,195,433,342
1725,0.17,-0.97,0.19,0.73,-2.69,-4.15,209,265,213,439,349
1726,0.17,-0.96,0.14,5.55,-3.97,-2.5,215,266,209,449,355
1727,0.19,-0.98,0.17,2.38,-2.87,-3.05,237,273,202,442,353
1728,0.18,-0.97,0.17,1.22,-2.62,-2.99,209,268,205,441,353
1729,0.17,-0.97,0.18,1.22,-2.44,-2.44,211,266,193,442,349
1730,0.17,-0.97,0.18,-0.12,-2.44,-2.81,210,268,199,436,354
1731,0.17,-0.97,0.19,-0.18,-2.75,-2.87,218,268,206,441,344
1732,0.18,-0.97,0.18,1.28,-2.87,-1.04,212,270,203,441,355
1733,0.18,-0.97,0.16,-1.04,-2.99,-2.44,213,263,201,436,350
1734,0.18,-0.98,0.15,-1.1,-3.72,-2.5,238,269,204,444,353
1735,0.18,-0.97,0.19,-2.08,-2.01,-3.11,210,274,204,441,350
1736,0.18,-0.97,0.17,1.65,-2.87,-2.5,211,268,204,445,352
1737,0.17,-0.97,0.18,-0.49,-2.08,-3.17,212,267,209,442,350
1738,0.18,-0.98,0.16,-0.73,-1.89,-3.66,213,268,205,438,353
1739,0.17,-0.97,0.16,0.67,-3.91,-0.85,212,269,205,434,348
1740,0.18,-0.96,0.15,-1.04,-2.14,-2.44,207,268,209,441,353
1741,0.16,-0.97,0.14,-0.61,0.43,-0.43,213,269,204,441,350
1742,0.16,-0.97,0.17,1.28,-2.69,-2.01,212,264,202,442,357
1743,0.12,-0.93,0.2,4.52,-5.19,-0.18,209,270,205,442,352
1744,0.17,-0.96,0.17,1.65,-3.6,-2.2,214,261,201,440,353
1745,0.18,-0.97,0.18,1.28,-3.85,-3.3,211,265,204,445,351
1746,0.14,-0.97,0.17,0.24,-2.26,-1.16,205,270,208,444,352
1747,0.16,-0.97,0.16,-1.16,-3.66,-2.38,211,265,204,446,353
1748,0.17,-0.97,0.19,0.18,-3.3,-2.44,212,266,202,446,350
1749,0.15,-0.98,0.17,2.44,-2.69,-1.04,208,268,201,447,352
1750,0.18,-0.97,0.17,2.5,-1.71,-3.6,213,269,203,440,351
1751,0.16,-0.97,0.17,5.62,-3.11,-4.88,214,267,205,448,357
1752,0.2,-0.96,0.16,-1.1,-3.6,-3.54,212,273,209,443,353
1753,0.2,-0.97,0.18,0.92,-2.56,-4.39,210,266,204,443,357
1754,0.19,-0.97,0.19,-1.71,-3.36,-1.95,211,270,200,440,355
1755,0.19,-0.97,0.2,-0.43,-2.44,0.79,213,269,195,437,352
1756,0.2,-0.97,0.14,3.42,-4.21,-2.69,211,266,205,445,355
1757,0.2,-0.97,0.16,3.97,-2.32,-1.71,213,267,203,435,352
1758,0.17,-0.97,0.23,3.48,-2.99,-6.16,209,269,201,440,354
1759,0.19,-0.97,0.23,1.4,0.31,-5.49,211,264,204,438,356
1760,0.17,-0.97,0.19,-2.26,-2.38,-2.5,211,267,205,446,352
1761,0.11,-0.97,0.28,-7.51,-28.5,-10.19,215,262,199,453,354
1762,0.31,-0.96,0.05,5.98,6.96,5.49,236,266,204,442,355
1763,0.23,-0.96,0.13,7.39,9.4,2.93,211,267,200,440,350
1764,0.17,-0.97,0.23,9.09,-2.01,-1.28,215,268,202,447,353
1765,0.14,-0.97,0.23,1.34,-8.67,0.67,210,265,203,437,353
1766,0.16,-0.96,0.18,-3.17,-9.22,-1.83,209,271,204,444,351
1767,0.16,-0.97,0.21,-1.22,-3.11,0.0,214,271,215,444,363
1768,0.16,-0.97,0.17,2.99,-5.8,-2.5,214,269,195,447,355
1769,0.16,-0.97,0.18,-1.34,-1.83,-1.95,212,266,205,448,352
1770,0.17,-0.97,0.18,1.71,-2.99,-2.2,212,269,215,447,348
1771,0.14,-0.97,0.17,-2.38,-1.1,-3.78,207,266,201,448,353
1772,0.16,-0.97,0.2,2.69,-3.48,-2.32,210,266,199,442,355
1773,0.16,-0.97,0.19,1.83,-3.36,-3.05,204,263,206,451,352
1774,0.17,-0.97,0.18,0.31,-3.3,-2.32,212,264,206,441,353
1775,0.16,-0.97,0.19,0.06,-2.08,-2.75,211,269,203,444,350
1776,0.15,-0.97,0.21,0.06,-2.62,-2.44,213,266,204,438,350
1777,0.14,-0.97,0.2,1.4,-3.91,-1.4,215,268,203,448,352
1778,0.15,-0.97,0.2,0.85,-2.56,-3.05,215,264,190,438,352
1779,0.17,-0.97,0.2,2.38,-4.88,-2.2,207,270,200,446,353
1780,0.15,-0.97,0.21,0.06,-1.46,-2.87,213,264,201,437,354
1781,0.15,-0.97,0.19,-3.42,-0.67,-5.13,213,269,202,438,349
1782,0.16,-0.97,0.18,-0.24,-4.76,-3.17,210,267,209,446,353
1783,0.16,-0.97,0.2,2.62,-3.48,-2.08,207,267,203,445,350
1784,0.16,-0.97,0.2,0.06,-3.66,-2.75,210,280,200,451,352
1785,0.15,-0.97,0.21,0.18,-2.62,-3.17,211,269,203,448,355
1786,0.15,-0.97,0.2,0.98,-3.17,-2.2,215,266,203,444,350
1787,0.17,-0.97,0.23,1.59,-3.48,-2.93,211,265,210,445,346
1788,0.16,-0.97,0.19,-2.81,-0.92,-3.54,216,271,203,439,354
1789,0.14,-0.97,0.24,1.89,-2.38,-2.69,210,270,207,450,345
1790,0.16,-0.97,0.22,-1.77,-2.87,0.31,211,272,207,449,349
1791,0.14,-0.97,0.2,-0.18,-2.81,-3.36,212,269,201,439,350
1792,0.15,-0.98,0.2,-0.79,-2.32,-2.62,211,267,208,442,352
1793,0.15,-0.97,0.2,0.92,-3.6,-2.38,206,273,204,448,350
1794,0.15,-0.97,0.2,0.49,-2.93,-2.69,214,269,209,444,352
1795,0.15,-0.97,0.19,0.98,-2.5,-3.3,212,273,201,445,352
1796,0.14,-0.98,0.2,-1.28,-3.36,-2.14,214,268,204,442,349
1797,0.16,-0.97,0.2,1.95,-2.93,-1.89,210,265,203,446,348
1798,0.16,-0.97,0.19,0.55,-3.11,-1.16,201,267,205,444,351
1799,0.14,-0.97,0.17,0.85,-3.91,-2.26,214,270,204,442,353
1800,0.16,-0.98,0.18,1.34,-4.39,-2.32,212,270,205,445,351
1801,0.16,-0.97,0.2,1.4,-2.93,-2.69,213,268,201,444,350
1802,0.15,-0.97,0.19,0.24,-2.5,-3.54,214,267,193,445,353
1803,0.14,-0.97,0.18,-1.83,-1.95,-2.5,215,267,201,441,354
1804,0.16,-0.96,0.2,0.06,-3.23,-0.31,209,268,196,448,356
1805,0.18,-0.98,0.19,7.14,-3.91,-1.71,210,264,203,443,355
1806,0.17,-0.97,0.17,3.54,-7.39,-1.1,212,272,202,444,354
1807,0.16,-0.97,0.13,1.59,-5.31,-1.34,215,265,199,448,353
1808,0.16,-0.97,0.16,0.0,-1.46,-3.72,215,268,203,445,352
1809,0.17,-0.98,0.18,-2.08,-3.91,-2.99,213,266,203,445,354
1810,0.18,-0.97,0.16,1.65,-3.3,-2.69,211,268,202,445,353
1811,0.19,-0.97,0.18,3.6,-1.59,-1.53,212,261,201,440,348
1812,0.18,-0.96,0.17,1.65,-1.89,-2.5,214,271,202,449,350
1813,0.14,-0.95,0.23,0.55,-1.46,-2.32,215,272,197,445,358
1814,0.17,-0.97,0.19,0.73,-2.2,-2.81,216,268,196,441,350
1815,0.17,-0.98,0.16,1.22,2.87,-12.21,213,273,197,444,352
1816,0.26,-0.96,0.21,2.44,-1.53,-4.52,213,267,204,450,354
1817,0.22,-0.95,0.16,-4.09,-2.75,-4.52,214,266,201,446,353
1818,0.17,-0.97,0.19,0.31,-4.39,-4.52,215,264,207,445,354
1819,0.22,-0.94,0.25,-0.18,-3.3,-4.82,218,267,203,443,355
1820,0.23,-0.95,0.23,-5.55,-2.5,-2.99,216,266,208,450,352
1821,0.22,-0.95,0.22,-5.19,-2.01,-3.05,215,267,210,443,354
1822,0.22,-0.95,0.21,1.4,2.62,-6.1,214,271,208,445,355
1823,0.17,-0.95,0.22,0.49,-2.93,-4.58,215,265,203,445,356
1824,0.18,-0.92,0.22,-0.18,-14.59,3.6,209,270,195,439,356
1825,0.17,-0.96,0.23,12.39,-2.5,3.48,212,269,203,442,356
1826,0.22,-0.94,0.31,3.54,0.12,-10.07,215,266,190,447,353
1827,0.12,-0.96,0.27,-3.11,-6.23,6.96,215,271,207,446,355
1828,0.17,-0.94,0.3,5.98,-16.36,11.35,215,271,202,445,349
1829,0.15,-0.96,0.21,-6.84,-9.28,-1.95,216,268,208,446,351
1830,0.21,-0.94,0.25,-0.92,6.41,-0.37,217,267,206,446,350
1831,0.13,-0.95,0.26,2.69,-3.3,-0.49,216,272,204,449,351
1832,0.11,-0.93,0.36,1.71,5.43,-10.44,216,269,207,445,352
1833,0.13,-0.96,0.27,6.04,-6.77,-2.01,215,271,202,441,352
1834,0.16,-0.93,0.33,3.85,-11.54,-2.99,217,268,206,445,354
1835,0.12,-0.96,0.33,-7.81,-7.2,-1.34,217,267,196,440,355
1836,0.16,-0.97,0.23,-6.35,-0.37,-1.95,217,265,203,449,352
1837,0.18,-0.98,0.26,-5.19,-6.16,-11.66,215,271,210,446,348
1838,0.24,-0.95,0.27,-7.51,9.46,-7.57,217,272,194,449,350
1839,0.23,-0.92,0.28,2.81,-10.25,0.61,218,268,194,445,354
1840,0.25,-0.93,0.33,6.53,-2.44,15.2,215,270,208,444,352
1841,0.23,-0.95,0.24,13.49,-6.65,0.18,217,267,205,450,355
1842,0.33,-0.91,0.29,6.1,-37.66,-5.37,219,269,206,447,349
1843,0.38,-0.9,0.33,-0.79,-0.92,-4.94,216,274,203,440,349
1844,0.26,-0.95,0.18,-3.54,-4.27,0.55,212,265,208,448,353
1845,0.21,-0.95,0.25,0.12,-8.54,-0.98,216,270,204,445,355
1846,0.21,-0.95,0.25,11.17,-2.81,4.64,232,263,204,449,357
1847,0.21,-0.94,0.3,10.44,4.88,-3.05,217,270,198,448,355
1848,0.12,-0.95,0.33,10.38,-2.32,-0.61,242,259,207,441,356
1849,0.16,-0.95,0.36,4.15,18.62,-4.88,219,266,202,443,358
1850,0.09,-0.99,0.29,6.65,16.6,4.39,217,266,202,445,356
1851,0.18,-0.96,0.37,1.16,-1.95,-18.86,215,265,203,438,359
1852,0.25,-0.9,0.31,0.61,-3.85,-4.82,218,269,204,437,355
1853,0.14,-0.92,0.25,-1.1,-10.74,2.5,222,271,197,442,359
1854,0.15,-0.91,0.28,15.69,-7.14,0.61,215,270,194,439,358
1855,0.16,-0.94,0.3,-0.31,-2.69,-2.2,218,272,206,436,361
1856,0.15,-0.95,0.3,-1.53,-2.69,-4.94,218,274,203,441,358
1857,0.12,-0.95,0.28,0.98,-7.63,1.71,225,269,206,446,356
1858,0.16,-0.95,0.26,3.6,-6.53,-3.72,217,270,205,442,358
1859,0.14,-0.95,0.3,-0.79,-0.12,-3.36,222,272,204,446,356
1860,0.16,-0.95,0.3,4.58,-5.43,-1.59,221,271,206,446,360
1861,0.16,-0.94,0.3,-0.85,-2.75,-2.69,222,272,205,447,359
1862,0.15,-0.95,0.31,2.75,-4.7,-3.72,222,268,207,447,360
1863,0.17,-0.95,0.27,-0.18,-4.39,-2.38,222,273,207,448,354
1864,0.18,-0.95,0.27,2.5,-2.44,-2.81,225,268,205,443,356
1865,0.18,-0.94,0.22,4.58,-3.05,-7.63,223,262,208,451,356
1866,0.13,-0.96,0.23,0.61,-3.05,-1.77,219,272,203,446,359
1867,0.18,-0.94,0.32,10.86,-2.2,-2.5,220,270,205,449,357
1868,0.18,-0.94,0.34,5.55,-6.96,4.15,221,261,204,448,356
1869,0.16,-0.95,0.31,7.26,-4.03,-0.55,218,266,210,461,359
1870,0.17,-0.95,0.3,-3.42,-2.99,-2.93,222,275,204,444,350
1871,0.15,-0.95,0.28,1.22,-2.69,-2.69,218,272,205,447,360
1872,0.15,-0.95,0.27,-4.82,-4.88,-0.37,221,270,207,446,358
1873,0.15,-0.96,0.25,-6.77,-0.98,-3.17,219,270,203,450,360
1874,0.13,-0.94,0.19,-0.73,-2.81,-3.78,212,270,209,451,355
1875,0.11,-0.98,0.29,-1.77,-4.03,0.18,217,274,206,448,356
1876,0.16,-0.96,0.18,-12.76,-0.18,-6.29,214,270,207,446,358
1877,0.17,-0.96,0.2,5.8,-5.13,-2.01,221,271,210,448,358
1878,0.13,-0.95,0.27,4.88,-2.38,-1.59,221,271,208,446,359
1879,0.15,-0.97,0.23,0.79,-3.97,-1.89,219,269,206,448,359
1880,0.14,-0.97,0.19,-4.94,1.89,1.46,221,271,206,444,353
1881,0.13,-0.97,0.23,11.6,-7.81,0.49,223,271,208,446,358
1882,0.14,-0.96,0.22,-0.73,-3.66,-3.3,222,273,209,445,354
1883,0.13,-0.96,0.24,-0.61,-2.01,-4.09,234,270,209,445,356
1884,0.12,-0.97,0.25,4.88,-7.63,-0.73,221,267,203,444,356
1885,0.11,-0.95,0.29,2.38,-0.67,-2.87,221,274,206,446,356
1886,0.12,-0.96,0.29,-8.67,-0.24,-6.41,221,272,210,442,359
1887,0.13,-0.94,0.28,-0.55,-2.87,-2.32,222,278,208,446,360
1888,0.12,-0.96,0.26,0.85,-9.52,-2.56,220,278,203,449,356
1889,0.15,-0.97,0.26,2.08,-2.56,-1.77,239,271,196,457,359
1890,0.15,-0.95,0.25,1.04,-2.44,-4.27,221,272,204,448,357
1891,0.14,-0.95,0.25,2.2,-3.36,-2.44,224,265,210,446,354
1892,0.13,-0.95,0.28,0.06,-2.69,-3.3,220,272,210,451,359
1893,0.13,-0.96,0.28,0.55,-3.85,-2.44,221,269,198,448,359
1894,0.13,-0.96,0.27,0.31,-3.36,-2.5,222,275,204,443,359
1895,0.14,-0.95,0.27,0.67,-2.93,-2.93,223,275,206,446,361
1896,0.13,-0.96,0.28,1.22,-3.23,-2.5,222,271,205,439,359
1897,0.14,-0.95,0.26,0.98,-3.05,-2.38,216,275,207,450,366
1898,0.14,-0.95,0.28,0.24,-3.72,-2.69,220,291,206,451,359
1899,0.15,-0.95,0.28,-0.98,-3.78,-2.32,224,269,208,448,359
1900,0.14,-0.95,0.28,0.24,-1.71,-2.99,226,268,201,447,361
1901,0.15,-0.95,0.27,-0.67,-2.69,-2.75,221,273,200,452,363
1902,0.13,-0.95,0.27,0.24,-3.72,-2.32,222,272,209,449,358
1903,0.15,-0.95,0.3,1.65,-2.87,-2.93,219,274,205,451,357
1904,0.14,-0.96,0.28,-0.18,-3.97,-2.14,223,272,205,450,359
1905,0.13,-0.96,0.28,-2.32,-3.3,-2.56,219,273,208,447,357
1906,0.14,-0.96,0.27,1.04,-3.48,-2.08,225,270,213,449,358
1907,0.14,-0.96,0.27,0.98,-3.11,-1.4,221,273,200,450,358
1908,0.15,-0.96,0.26,0.79,-3.05,-2.38,223,274,205,447,354
1909,0.15,-0.95,0.25,0.31,-2.87,-2.69,218,270,206,450,358
1910,0.15,-0.96,0.26,1.4,-3.6,-2.5,223,272,207,453,357
1911,0.13,-0.97,0.27,3.54,-3.48,-0.85,224,272,204,452,358
1912,0.15,-0.96,0.25,2.5,-3.66,-1.59,222,269,204,448,358
1913,0.14,-0.96,0.27,1.4,-2.75,-2.32,227,272,205,453,360
1914,0.14,-0.96,0.26,0.37,-2.81,-1.89,221,275,204,452,359
1915,0.14,-0.96,0.26,-0.61,-2.32,-2.93,225,273,207,453,358
1916,0.14,-0.96,0.27,0.43,-2.56,-2.56,217,272,207,447,354
1917,0.15,-0.96,0.26,2.14,-2.81,-2.01,221,271,205,450,358
1918,0.15,-0.96,0.24,-1.22,-2.2,-4.15,221,273,196,452,359
1919,0.15,-0.96,0.25,-0.06,-3.72,-3.11,221,272,212,449,361
1920,0.14,-0.96,0.26,-0.31,-2.62,-2.38,224,272,208,448,357
1921,0.14,-0.96,0.25,0.61,-2.62,-2.32,224,275,206,447,358
1922,0.15,-0.96,0.25,0.0,-2.62,-2.56,222,272,204,452,358
1923,0.14,-0.96,0.25,-0.43,-2.69,-2.93,222,273,198,447,354
1924,0.14,-0.96,0.25,0.67,-2.87,-2.38,222,281,207,452,355
1925,0.14,-0.97,0.25,-0.18,-2.69,-2.81,222,273,211,451,358
1926,0.14,-0.96,0.25,0.67,-3.48,-2.93,222,272,212,452,361
1927,0.14,-0.96,0.25,0.73,-3.3,-2.26,223,273,206,449,358
1928,0.14,-0.96,0.24,0.85,-2.87,-1.77,222,270,210,448,356
1929,0.15,-0.96,0.23,-0.85,-2.75,-2.81,223,273,210,443,359
1930,0.14,-0.96,0.24,0.18,-3.05,-2.62,222,273,204,451,356
1931,0.14,-0.96,0.24,0.67,-3.11,-2.2,223,274,210,445,352
1932,0.15,-0.96,0.22,-3.42,-3.11,-2.2,223,274,203,454,354
1933,0.12,-0.97,0.19,-5.31,-4.15,-1.22,223,271,210,449,361
1934,0.16,-0.96,0.22,4.39,-4.76,-0.85,222,274,199,451,361
1935,0.14,-0.96,0.25,2.08,-4.33,-2.87,222,275,206,464,351
1936,0.14,-0.96,0.25,0.12,-4.27,-2.01,221,273,208,449,358
1937,0.13,-0.96,0.26,0.79,-3.54,-2.62,223,275,207,452,357
1938,0.13,-0.96,0.26,0.12,-2.81,-2.26,218,272,209,445,353
1939,0.14,-0.96,0.26,1.28,-3.36,-1.77,219,268,212,445,360
1940,0.14,-0.96,0.25,0.92,-2.75,-2.14,221,274,203,452,355
1941,0.14,-0.96,0.24,0.55,-2.81,-2.5,223,275,203,449,358
1942,0.14,-0.96,0.24,-0.37,-2.81,-2.56,224,273,203,440,358
1943,0.13,-0.96,0.23,0.31,-2.56,-2.44,221,275,201,452,362
1944,0.14,-0.96,0.24,-1.1,-3.11,-3.54,222,277,206,451,359
1945,0.15,-0.96,0.24,2.32,-6.35,-3.42,227,273,208,450,359
1946,0.14,-0.96,0.25,0.37,-2.56,-3.3,222,277,205,447,357
1947,0.13,-0.97,0.24,-1.46,-2.81,-2.75,227,274,208,446,350
1948,0.15,-0.96,0.24,1.34,-2.75,-2.14,222,270,202,445,357
1949,0.13,-0.97,0.24,1.89,-2.99,-2.01,221,273,211,452,356
1950,0.14,-0.96,0.22,0.67,-3.42,-2.26,220,272,208,444,361
1951,0.15,-0.97,0.23,0.43,-3.11,-2.44,221,283,202,442,357
1952,0.14,-0.97,0.22,0.61,-3.05,-2.2,217,275,210,447,355
1953,0.15,-0.96,0.22,1.95,-3.72,-3.36,220,275,208,444,358
1954,0.14,-0.96,0.3,2.69,-7.51,1.22,224,278,210,451,358
1955,0.14,-0.97,0.23,1.53,-9.64,1.46,225,277,210,448,360
1956,0.13,-0.95,0.33,7.93,-0.92,1.04,222,277,212,448,359
1957,0.13,-0.95,0.28,2.81,-3.05,-0.92,219,274,208,452,361
1958,0.13,-0.95,0.31,-2.56,-1.89,-4.33,239,276,200,448,361
1959,0.13,-0.95,0.27,-0.24,-4.33,-2.2,220,275,203,452,358
1960,0.13,-0.95,0.26,0.55,-3.48,-1.4,222,275,205,450,355
1961,0.13,-0.96,0.26,1.16,-2.56,-3.48,227,275,202,448,358
1962,0.13,-0.95,0.29,2.62,-1.95,-2.38,222,275,202,444,360
1963,0.13,-0.95,0.28,1.59,-2.99,-1.65,231,270,207,445,359
1964,0.13,-0.95,0.29,1.28,-3.42,-2.14,220,274,208,448,357
1965,0.13,-0.95,0.28,-0.24,-3.78,-2.32,226,273,197,444,361
1966,0.12,-0.95,0.3,0.24,-3.85,-2.81,225,276,208,451,354
1967,0.15,-0.94,0.29,6.77,-4.7,-2.01,223,272,208,452,360
1968,0.15,-0.94,0.33,5.98,-1.83,-8.73,220,278,212,450,364
1969,0.16,-0.95,0.32,-0.73,-2.75,-1.89,220,276,200,450,359
1970,0.15,-0.95,0.29,-1.16,-3.91,-2.81,221,269,206,448,357
1971,0.17,-0.95,0.28,-0.79,-2.44,-3.42,221,272,208,464,356
1972,0.17,-0.94,0.28,1.53,-2.93,-2.62,222,270,209,448,358
1973,0.17,-0.95,0.25,-2.01,-3.42,-4.27,221,277,210,445,361
1974,0.22,-0.94,0.23,-10.68,-2.81,-4.88,222,276,207,448,357
1975,0.16,-0.96,0.24,0.24,-9.4,-2.26,225,275,208,448,356
1976,0.21,-0.94,0.32,16.85,0.73,-1.04,223,278,206,446,356
1977,0.16,-0.96,0.22,2.32,6.29,-8.61,222,276,202,448,360
1978,0.13,-0.96,0.29,0.12,-1.1,-3.78,221,277,204,445,357
1979,0.16,-0.95,0.28,0.0,-2.2,-2.56,225,275,210,447,358
1980,0.15,-0.95,0.27,-0.06,-2.81,-2.44,226,276,204,448,359
1981,0.16,-0.95,0.28,2.5,-3.36,-2.08,221,273,208,446,359
1982,0.15,-0.95,0.26,-0.12,-1.46,-1.65,225,274,206,447,358
1983,0.13,-0.96,0.29,2.26,-4.27,-1.16,219,275,207,459,358
1984,0.13,-0.96,0.28,-0.55,-3.72,-2.01,221,276,195,444,358
1985,0.12,-0.96,0.31,-0.67,-2.44,-2.99,224,277,214,448,355
1986,0.14,-0.95,0.29,0.92,-3.48,-2.01,225,278,205,448,357
1987,0.13,-0.95,0.28,-1.46,-2.99,-3.36,224,276,204,448,360
1988,0.13,-0.96,0.26,-1.95,-2.01,-2.5,227,277,213,445,361
1989,0.14,-0.95,0.26,1.22,-3.42,-3.3,225,280,211,450,358
1990,0.13,-0.96,0.28,1.1,-3.6,-1.59,221,277,208,453,353
1991,0.13,-0.96,0.27,2.5,-3.72,-2.14,224,275,209,451,355
1992,0.15,-0.96,0.26,2.14,-3.54,-2.14,219,274,201,443,363
1993,0.13,-0.95,0.28,2.81,-1.59,-2.93,223,277,208,448,356
1994,0.14,-0.95,0.3,0.55,-4.88,-3.17,219,278,202,449,355
1995,0.16,-0.95,0.27,-1.1,-2.01,-3.54,226,275,210,445,354
1996,0.15,-0.96,0.26,1.59,-0.55,-3.97,224,278,210,446,348
1997,0.13,-0.96,0.27,1.46,-2.32,-1.59,225,272,209,447,353
1998,0.14,-0.96,0.25,3.85,-7.57,-4.03,223,275,208,446,351
1999,0.18,-0.94,0.25,0.37,-5.0,-2.93,221,278,207,456,357
2000,0.17,-0.94,0.29,-0.61,-2.99,-1.22,223,276,208,445,353
2001,0.18,-0.95,0.26,-0.79,-1.77,-2.87,227,277,206,449,355
2002,0.18,-0.95,0.27,-0.55,-2.56,-1.1,222,281,201,449,353
2003,0.18,-0.95,0.27,0.61,-3.36,-3.3,220,277,211,450,355
2004,0.18,-0.96,0.27,1.28,-4.21,-2.56,223,279,203,440,353
2005,0.17,-0.95,0.27,0.73,-2.44,-2.69,222,279,211,450,353
2006,0.18,-0.94,0.28,-1.16,-2.32,-2.5,222,278,205,448,349
2007,0.17,-0.95,0.3,1.22,-2.56,-2.2,221,276,211,449,352
2008,0.16,-0.94,0.3,0.37,-2.99,-2.69,225,279,209,445,356
2009,0.17,-0.95,0.29,0.55,-2.14,-2.99,222,275,210,449,350
2010,0.17,-0.94,0.3,2.08,-3.23,-2.32,220,278,204,449,349
2011,0.17,-0.94,0.3,1.28,-3.11,-1.83,221,277,210,452,354
2012,0.16,-0.95,0.29,-0.49,-2.93,-2.62,224,280,207,451,357
2013,0.16,-0.95,0.31,0.49,-3.11,-2.2,224,278,208,448,354
2014,0.15,-0.95,0.29,-0.06,-3.11,-2.75,225,271,212,450,355
2015,0.17,-0.95,0.29,2.44,-4.94,0.18,226,278,208,452,350
2016,0.15,-0.94,0.29,1.65,-4.09,-0.79,225,280,207,447,352
2017,0.15,-0.95,0.29,0.43,-3.3,-2.26,226,274,213,449,353
2018,0.14,-0.95,0.29,-1.59,-3.54,-2.44,218,278,215,447,354
2019,0.15,-0.95,0.3,-1.16,-2.75,-3.48,219,280,210,446,354
2020,0.16,-0.95,0.3,0.92,-2.56,-3.6,227,278,213,441,354
2021,0.15,-0.94,0.3,-1.22,-2.75,-2.44,223,282,211,454,355
2022,0.15,-0.94,0.3,1.1,-2.38,-2.62,224,277,207,448,353
2023,0.15,-0.95,0.29,0.61,-2.32,-2.99,244,279,214,450,351
2024,0.15,-0.95,0.3,-0.79,-2.93,-3.54,223,280,209,443,355
2025,0.15,-0.95,0.3,2.2,-3.05,-2.87,224,279,206,450,354
2026,0.15,-0.95,0.29,1.83,-2.99,-2.2,224,272,209,455,357
2027,0.16,-0.95,0.29,-1.28,-3.48,-3.17,225,276,213,444,357
2028,0.15,-0.95,0.3,1.1,-2.93,-1.59,226,277,213,450,355
2029,0.17,-0.95,0.27,2.93,-3.72,-2.99,223,279,213,448,357
2030,0.16,-0.95,0.28,1.16,-1.16,-3.17,222,280,211,449,359
2031,0.16,-0.95,0.28,3.11,-1.59,-2.81,227,279,215,450,355
2032,0.17,-0.94,0.3,4.21,-2.69,-1.71,237,268,214,443,353
2033,0.16,-0.94,0.29,-1.1,-2.08,-2.26,220,275,211,447,353
2034,0.15,-0.94,0.3,-0.79,-2.32,-2.62,228,279,207,450,356
2035,0.15,-0.96,0.29,-0.67,-2.69,-2.99,226,276,209,442,355
2036,0.16,-0.95,0.28,0.24,-3.17,-2.5,221,274,210,449,353
2037,0.15,-0.95,0.28,-0.61,-2.69,-2.44,225,274,201,458,356
2038,0.16,-0.94,0.28,0.61,-3.42,-2.75,221,279,212,449,352
2039,0.16,-0.95,0.28,-0.43,-2.5,-2.26,223,283,210,450,352
