,aX,aY,aZ,gX,gY,gZ,little,ring,middle,index,thumb
0,0.42,0.89,0.19,-5.68,-10.68,-8.79,380,276,206,439,360
1,0.37,0.88,0.28,2.93,-1.4,-6.41,382,275,200,447,358
2,0.38,0.94,0.27,-2.5,-1.77,-2.14,384,280,198,444,362
3,0.39,0.88,0.3,-0.06,-1.16,-3.36,381,277,201,442,360
4,0.37,0.95,0.29,2.44,1.46,1.34,378,277,205,443,359
5,0.35,0.88,0.31,-5.74,-7.02,-2.08,378,280,206,443,361
6,0.41,0.82,0.27,-12.51,5.49,-4.64,378,277,202,438,358
7,0.37,0.86,0.33,-0.79,8.61,6.23,367,278,205,440,355
8,0.42,0.92,0.29,-8.18,-10.86,7.02,367,277,201,437,354
9,0.42,0.8,0.33,0.49,-0.61,-1.4,379,277,205,445,358
10,0.42,0.82,0.32,0.67,8.42,-13.67,367,277,205,439,355
11,0.45,0.85,0.35,4.64,-4.58,-3.78,370,276,201,438,358
12,0.42,0.84,0.33,-2.08,-2.56,-0.73,370,278,209,447,359
13,0.43,0.84,0.34,0.0,-1.1,1.71,369,280,200,457,357
14,0.44,0.83,0.34,2.44,-3.05,-1.46,370,278,202,445,359
15,0.44,0.84,0.33,-1.28,-3.11,-0.31,368,281,202,442,357
16,0.43,0.82,0.35,-0.55,-3.97,-1.95,370,280,203,444,358
17,0.44,0.83,0.33,2.56,-2.81,-3.23,371,281,199,447,358
18,0.46,0.84,0.3,5.98,-7.75,-1.22,368,277,202,438,357
19,0.46,0.83,0.32,2.56,-2.62,-3.3,369,275,202,443,358
20,0.48,0.85,0.3,-0.12,-1.53,-6.9,370,279,203,444,360
21,0.47,0.83,0.28,-0.79,-2.62,0.37,371,288,202,439,356
22,0.5,0.83,0.29,-1.22,-3.17,-1.65,368,281,203,443,360
23,0.5,0.82,0.29,3.23,-3.42,-2.08,370,278,203,445,353
24,0.49,0.82,0.29,0.18,-1.34,-0.73,366,278,202,444,357
25,0.49,0.82,0.31,-0.31,0.12,-4.39,365,278,205,442,356
26,0.49,0.82,0.3,2.5,-2.81,-5.25,370,280,205,444,357
27,0.48,0.82,0.3,0.67,-0.73,-3.17,365,285,202,442,358
28,0.49,0.85,0.31,-2.44,-0.31,-3.36,365,278,204,445,361
29,0.46,0.86,0.31,2.87,-4.88,-7.57,368,277,205,450,358
30,0.44,0.85,0.31,-3.23,-0.06,-9.28,367,275,202,437,358
31,0.46,0.8,0.29,0.79,-12.57,-6.16,366,279,201,448,359
32,0.46,0.8,0.27,3.72,-2.26,-0.67,367,278,204,442,360
33,0.5,0.85,0.23,6.35,-5.74,-2.44,362,277,205,440,360
34,0.5,0.82,0.24,-4.33,-1.95,-0.49,367,280,205,441,358
35,0.5,0.82,0.25,-1.46,-6.9,-3.05,368,277,202,437,356
36,0.51,0.81,0.24,-7.81,-2.69,-0.98,371,276,203,442,358
37,0.52,0.82,0.24,1.95,-1.83,-3.05,370,278,204,442,360
38,0.5,0.81,0.25,0.12,-2.62,-2.44,371,275,201,442,355
39,0.5,0.84,0.26,3.17,0.24,-3.66,369,277,204,439,357
40,0.53,0.86,0.25,2.5,0.85,-4.88,369,277,202,442,358
41,0.51,0.86,0.23,4.64,0.0,-1.95,368,278,201,443,360
42,0.51,0.86,0.27,0.55,-0.24,-2.44,364,277,205,443,356
43,0.54,0.82,0.27,6.77,-1.83,-5.49,368,279,204,446,355
44,0.51,0.79,0.25,3.48,-8.18,-2.81,365,280,202,446,358
45,0.5,0.82,0.27,-5.8,-7.51,-3.54,379,280,203,444,358
46,0.52,0.81,0.25,0.85,-8.06,-4.03,368,280,201,443,358
47,0.5,0.82,0.25,6.65,-3.72,-4.21,370,278,202,437,358
48,0.51,0.85,0.27,4.15,-1.65,-6.29,370,277,204,443,356
49,0.49,0.86,0.26,5.92,-4.39,-1.71,372,278,203,437,359
50,0.49,0.82,0.24,0.31,-4.33,-2.44,367,277,199,446,357
51,0.5,0.84,0.24,0.49,-2.38,-2.2,371,278,203,440,361
52,0.52,0.84,0.24,2.81,-3.3,-3.48,369,277,205,442,358
53,0.5,0.83,0.24,2.01,-1.77,-3.48,368,278,200,443,357
54,0.51,0.82,0.23,2.93,-1.83,-2.26,368,280,202,448,360
55,0.52,0.81,0.23,-4.46,3.78,-5.86,367,277,205,442,360
56,0.5,0.82,0.26,-0.67,-2.69,0.24,396,279,205,442,358
57,0.51,0.82,0.27,2.26,-3.66,-2.44,364,280,204,442,361
58,0.5,0.81,0.27,1.34,0.12,-4.27,368,280,202,443,361
59,0.5,0.81,0.26,1.59,-2.93,-3.05,368,281,201,446,362
60,0.5,0.82,0.27,-0.24,-3.78,-2.93,365,281,203,446,359
61,0.49,0.82,0.27,0.06,-4.76,-2.2,370,278,201,445,359
62,0.49,0.83,0.28,1.4,-2.75,-2.62,366,278,199,442,355
63,0.47,0.81,0.26,-1.89,-1.71,-1.59,367,275,205,440,361
64,0.51,0.83,0.24,1.4,-1.16,-2.08,365,277,197,443,355
65,0.49,0.83,0.24,1.95,-3.72,-1.04,357,279,204,442,361
66,0.5,0.83,0.24,1.04,-3.97,-0.92,365,277,204,445,356
67,0.49,0.82,0.24,-0.49,-2.08,-0.67,363,276,205,442,357
68,0.51,0.83,0.25,-0.24,-2.62,-2.62,370,277,203,448,360
69,0.51,0.83,0.26,-1.46,-2.2,-1.34,370,279,204,444,359
70,0.52,0.83,0.25,-0.12,-3.6,-1.95,369,279,204,443,361
71,0.51,0.82,0.25,1.16,-2.87,-3.05,366,281,202,441,359
72,0.51,0.82,0.25,-1.16,-2.38,-1.65,370,276,217,442,359
73,0.52,0.82,0.25,0.31,-3.3,-2.81,366,277,202,442,355
74,0.52,0.82,0.25,-1.16,-2.56,-2.08,368,279,202,448,360
75,0.51,0.83,0.26,1.04,-2.5,-2.56,368,281,204,442,358
76,0.52,0.82,0.26,2.87,-2.26,-1.83,367,280,204,442,360
77,0.52,0.82,0.25,1.1,-1.53,-3.17,365,278,207,444,360
78,0.52,0.83,0.25,2.81,-5.07,-2.38,367,277,204,439,360
79,0.51,0.82,0.26,1.59,-0.55,-3.23,365,279,203,437,354
80,0.5,0.81,0.27,-0.73,-2.26,1.34,367,280,205,442,359
81,0.52,0.82,0.27,-0.49,-1.83,-1.71,366,279,201,440,358
82,0.51,0.82,0.27,0.98,-4.09,-3.17,368,278,204,445,360
83,0.52,0.81,0.26,0.06,-3.11,-2.2,369,281,205,442,360
84,0.52,0.82,0.26,0.06,-3.3,-2.01,365,284,205,445,358
85,0.51,0.82,0.27,-0.43,-2.14,-2.08,367,278,206,441,355
86,0.52,0.82,0.25,3.05,-2.87,-4.94,366,280,205,448,365
87,0.51,0.82,0.25,2.01,-2.87,-1.89,365,276,201,437,361
88,0.5,0.82,0.25,-0.55,-1.95,-2.93,369,281,203,442,360
89,0.52,0.82,0.24,-0.12,-3.3,-1.77,371,278,202,443,359
90,0.51,0.83,0.26,0.12,-3.23,-2.44,366,279,202,441,356
91,0.52,0.83,0.24,0.0,-2.38,-2.75,370,278,204,437,357
92,0.52,0.82,0.25,-0.18,-3.05,-0.79,367,279,203,443,359
93,0.52,0.81,0.24,1.22,-3.78,-1.16,364,280,207,441,360
94,0.51,0.83,0.24,1.46,-2.01,-2.69,369,283,205,442,362
95,0.53,0.83,0.25,-0.61,-5.62,-0.37,365,279,219,438,361
96,0.52,0.82,0.25,1.22,-1.34,-3.42,370,278,202,442,359
97,0.51,0.83,0.25,-2.75,-3.72,-2.32,369,280,202,445,361
98,0.53,0.8,0.25,0.0,-3.91,-1.34,367,278,202,436,359
99,0.52,0.81,0.24,-1.4,-3.6,-1.28,368,279,201,451,357
100,0.54,0.81,0.25,2.26,-3.05,-0.79,367,277,204,437,360
101,0.52,0.8,0.25,-1.34,-1.65,-1.16,368,281,207,442,359
102,0.53,0.82,0.27,1.04,-2.56,-2.38,368,281,202,443,359
103,0.54,0.8,0.26,0.61,-2.01,-3.23,378,283,210,444,359
104,0.53,0.81,0.27,0.61,-1.28,-2.62,365,278,202,446,360
105,0.51,0.81,0.26,0.24,-3.17,-3.05,369,278,203,440,360
106,0.52,0.8,0.26,-1.04,-3.6,-4.64,364,277,204,444,357
107,0.52,0.81,0.27,0.18,-3.3,-2.81,369,282,206,442,362
108,0.52,0.8,0.25,1.28,-4.46,-4.27,369,279,203,440,360
109,0.52,0.81,0.26,0.12,-2.81,-1.89,366,280,203,442,361
110,0.51,0.82,0.26,-1.83,-2.99,-2.81,368,281,204,443,360
111,0.52,0.81,0.25,0.49,-3.05,-2.44,367,288,205,440,362
112,0.53,0.83,0.29,-6.35,-2.87,2.01,368,279,204,440,360
113,0.55,0.82,0.27,-2.38,-5.25,-1.83,367,282,202,445,360
114,0.53,0.79,0.26,-1.28,-2.44,-3.97,368,278,207,435,360
115,0.53,0.82,0.28,1.34,-1.53,2.38,368,279,207,443,361
116,0.54,0.79,0.27,0.73,-3.66,-1.34,366,279,208,446,360
117,0.53,0.8,0.28,2.01,-0.12,-4.03,371,278,219,442,359
118,0.53,0.76,0.27,-3.78,-6.47,-3.85,368,281,207,441,359
119,0.52,0.77,0.28,-1.28,-5.92,-4.21,367,278,206,440,358
120,0.52,0.79,0.28,-1.65,-2.75,-2.69,370,278,203,439,361
121,0.54,0.79,0.29,0.67,-3.36,-1.1,370,279,209,441,356
122,0.55,0.8,0.29,0.61,-3.54,-2.2,370,279,203,441,360
123,0.56,0.8,0.28,2.99,-3.48,-3.66,370,281,217,436,356
124,0.53,0.8,0.28,2.2,-2.99,-4.09,368,277,204,443,359
125,0.56,0.79,0.26,0.55,-4.58,-1.89,369,276,205,439,359
126,0.55,0.78,0.29,-1.4,-3.48,0.79,370,279,204,441,358
127,0.54,0.77,0.28,-3.97,-4.52,-3.05,368,279,206,445,360
128,0.53,0.78,0.28,4.52,-0.85,-6.29,370,278,208,439,359
129,0.54,0.8,0.29,-1.4,-2.62,-3.23,372,280,206,445,364
130,0.55,0.8,0.28,1.89,-3.05,-3.85,367,279,202,440,360
131,0.56,0.82,0.27,4.39,-1.22,-3.66,368,281,206,440,363
132,0.55,0.81,0.28,1.77,-4.64,-4.58,368,282,201,440,354
133,0.56,0.81,0.26,4.33,-3.42,-1.71,370,280,206,442,358
134,0.55,0.81,0.27,1.89,-3.72,-6.23,369,280,203,444,361
135,0.53,0.79,0.27,-2.01,-4.21,-2.5,369,279,207,441,361
136,0.52,0.81,0.27,-3.17,-2.38,-2.2,367,280,203,441,362
137,0.55,0.79,0.29,2.56,-2.5,-2.26,369,281,203,442,362
138,0.54,0.8,0.29,1.16,-2.01,-3.23,369,278,206,441,360
139,0.55,0.79,0.26,1.65,-3.78,-0.61,369,278,203,441,360
140,0.53,0.79,0.27,1.04,0.31,-4.52,368,279,204,439,358
141,0.54,0.81,0.26,1.53,-3.6,-0.18,371,282,207,442,358
142,0.54,0.8,0.27,-0.85,-2.32,-1.28,370,280,207,442,362
143,0.56,0.79,0.26,1.83,-5.19,-1.71,369,279,206,442,359
144,0.55,0.8,0.26,0.98,-4.27,-2.5,371,279,218,442,362
145,0.55,0.79,0.26,-0.61,-3.54,-3.05,371,282,206,436,356
146,0.54,0.79,0.27,-3.54,-2.5,-0.73,368,278,204,441,359
147,0.55,0.8,0.26,0.31,-3.85,-1.95,368,276,205,436,359
148,0.54,0.8,0.27,-1.77,-1.65,-2.32,369,279,201,440,360
149,0.53,0.8,0.27,1.46,-2.2,-2.93,372,280,204,436,360
150,0.55,0.79,0.27,0.18,-1.4,-2.75,370,282,203,439,359
151,0.55,0.8,0.27,-0.24,-2.32,-1.22,369,285,204,445,356
152,0.55,0.78,0.28,2.2,-3.05,-2.75,368,281,208,445,361
153,0.55,0.79,0.27,1.71,-3.3,-3.54,369,279,204,442,361
154,0.54,0.8,0.27,1.4,-4.39,-5.31,368,281,204,442,360
155,0.56,0.82,0.28,3.78,-2.26,-2.14,369,281,207,441,360
156,0.55,0.8,0.26,0.24,-4.33,-3.6,369,278,204,440,360
157,0.54,0.81,0.27,-2.14,-3.66,-6.71,367,285,204,442,361
158,0.54,0.81,0.28,-2.01,-2.75,-0.31,370,280,201,436,356
159,0.56,0.81,0.28,0.73,-4.76,-3.78,367,288,203,439,360
160,0.55,0.8,0.29,-1.1,-1.28,-2.38,370,276,205,445,357
161,0.54,0.8,0.28,3.05,-4.03,1.04,367,279,213,441,362
162,0.56,0.78,0.27,-0.43,-3.36,-1.65,368,281,201,445,356
163,0.55,0.78,0.28,0.43,-1.95,-4.09,371,284,209,443,356
164,0.55,0.79,0.27,0.37,-2.75,-2.44,368,282,209,445,360
165,0.55,0.79,0.29,1.04,-3.97,-2.75,372,275,204,442,358
166,0.56,0.78,0.28,1.28,-4.15,-2.62,368,277,204,441,362
167,0.55,0.79,0.29,0.18,-2.38,-2.56,368,281,209,444,361
168,0.55,0.79,0.28,-0.31,-3.17,-4.58,370,282,207,437,358
169,0.56,0.79,0.26,1.83,-3.3,-2.14,368,277,206,441,362
170,0.55,0.79,0.28,0.12,-3.72,-2.38,366,282,203,442,362
171,0.56,0.78,0.27,-1.77,-2.32,-2.99,367,282,207,439,360
172,0.55,0.79,0.27,1.71,-2.93,-1.83,367,279,203,441,361
173,0.55,0.78,0.27,-0.61,-2.5,-2.81,368,281,204,438,360
174,0.55,0.78,0.27,1.16,-3.78,-3.3,375,279,205,444,357
175,0.54,0.8,0.28,1.59,-3.3,-0.67,368,278,204,437,357
176,0.55,0.79,0.27,1.53,-2.26,-2.14,368,280,203,442,361
177,0.55,0.8,0.26,1.77,-2.26,-3.17,368,280,204,442,361
178,0.56,0.8,0.26,-1.4,-1.71,-3.6,365,281,203,442,361
179,0.56,0.8,0.26,-0.12,-3.42,-2.01,370,282,205,442,362
180,0.56,0.81,0.27,1.22,-2.2,-4.03,369,280,207,441,361
181,0.56,0.8,0.26,2.14,-3.42,-1.83,370,279,207,442,357
182,0.55,0.8,0.25,-0.43,-3.23,-2.99,369,279,203,435,359
183,0.56,0.78,0.26,-2.69,-3.66,-2.69,370,279,207,441,361
184,0.55,0.79,0.26,0.61,-2.01,-1.77,371,275,203,444,360
185,0.55,0.79,0.27,-0.06,-2.87,-3.54,365,279,204,444,364
186,0.55,0.8,0.26,1.53,-2.87,-2.44,366,280,203,445,364
187,0.55,0.8,0.27,0.24,-3.48,-2.81,368,280,211,442,359
188,0.54,0.8,0.28,-0.18,-2.5,-1.71,368,280,207,443,362
189,0.54,0.79,0.28,-0.49,-2.62,-1.65,367,281,207,440,361
190,0.54,0.79,0.28,-2.26,-2.69,-1.83,371,279,202,444,362
191,0.55,0.78,0.28,-0.73,-2.38,-2.08,368,280,206,442,361
192,0.55,0.79,0.29,-0.79,-2.44,-3.3,365,282,206,442,362
193,0.55,0.78,0.28,-0.37,-3.11,-2.93,369,280,207,442,363
194,0.54,0.79,0.28,1.4,-3.17,-2.2,374,281,205,438,361
195,0.54,0.79,0.29,-0.37,-1.65,-2.93,371,282,207,436,357
196,0.55,0.79,0.28,1.16,-2.14,-2.75,369,280,207,440,363
197,0.55,0.8,0.28,1.4,-3.48,-2.99,371,279,208,445,360
198,0.54,0.79,0.28,-0.12,-2.93,-2.56,367,279,205,444,360
199,0.55,0.79,0.28,0.98,-4.88,-1.28,370,280,208,441,362
200,0.53,0.78,0.28,-0.06,-2.32,-2.62,369,282,205,440,362
201,0.54,0.8,0.28,-0.73,-1.34,-2.44,371,279,207,445,363
202,0.55,0.8,0.29,0.73,-3.11,-2.62,366,282,203,440,359
203,0.54,0.79,0.28,-0.49,-2.01,-3.6,367,280,206,441,360
204,0.54,0.8,0.28,-1.16,-2.44,-2.93,369,281,207,442,361
205,0.54,0.8,0.29,0.67,-1.83,-1.53,369,280,205,446,362
206,0.56,0.8,0.29,-0.92,-3.23,-1.65,365,278,203,440,362
207,0.55,0.79,0.28,-0.24,-2.14,-2.93,371,279,205,443,361
208,0.54,0.78,0.3,1.34,-3.48,-2.32,382,282,204,443,361
209,0.55,0.79,0.29,1.22,-2.69,-2.62,366,285,206,442,361
210,0.55,0.79,0.29,-0.24,-3.11,-2.2,368,281,204,442,363
211,0.57,0.79,0.3,1.34,-1.83,-1.95,368,284,204,445,362
212,0.56,0.79,0.3,0.37,-3.42,-2.93,372,279,206,438,363
213,0.54,0.77,0.3,-2.32,-4.15,-2.99,373,280,206,440,362
214,0.55,0.79,0.31,-0.24,-1.89,-1.53,369,283,203,440,361
215,0.55,0.77,0.31,-0.67,-2.5,-0.73,370,283,208,442,361
216,0.57,0.78,0.3,0.18,-2.93,-2.2,367,282,205,440,362
217,0.55,0.77,0.32,-0.79,-3.11,-2.08,367,279,203,438,361
218,0.58,0.79,0.3,0.73,-2.2,-3.23,366,281,205,441,361
219,0.56,0.78,0.3,-3.36,-3.78,-3.72,370,281,208,441,360
220,0.53,0.75,0.34,1.4,2.26,-12.88,369,282,205,441,362
221,0.49,0.82,0.37,0.37,0.85,-6.1,371,286,207,444,364
222,0.37,0.77,0.45,5.74,-3.42,4.09,369,279,206,445,359
223,0.41,0.88,0.38,-0.85,0.06,-11.9,369,280,203,442,362
224,0.41,0.8,0.38,-4.64,-2.81,-6.16,369,282,208,441,362
225,0.42,0.79,0.41,1.28,-1.04,-2.08,370,281,206,443,365
226,0.4,0.85,0.44,-0.43,-0.06,0.0,369,280,205,445,364
227,0.36,0.78,0.43,-1.77,0.98,-3.11,372,280,209,445,363
228,0.39,0.84,0.48,-1.89,-1.1,-11.41,368,280,208,436,363
229,0.39,0.79,0.43,0.06,-4.76,-11.6,368,279,210,443,363
230,0.38,0.82,0.47,0.49,-1.59,-3.05,366,279,208,437,363
231,0.36,0.82,0.44,0.92,-4.15,-1.46,368,282,205,439,361
232,0.4,0.8,0.41,0.98,-6.53,-2.5,375,292,207,440,361
233,0.38,0.82,0.41,3.78,-1.83,-1.34,367,279,201,443,362
234,0.41,0.81,0.41,3.54,-2.62,-2.5,368,281,202,442,363
235,0.4,0.81,0.4,0.67,-3.05,-0.85,366,280,204,444,363
236,0.37,0.82,0.4,4.58,-1.22,1.22,372,283,203,444,361
237,0.41,0.84,0.39,0.31,-0.37,-0.98,367,283,204,444,364
238,0.42,0.8,0.38,-0.06,-4.7,-2.01,369,282,206,441,363
239,0.42,0.83,0.37,-2.32,-3.48,-2.01,367,281,202,442,362
240,0.42,0.89,0.37,-5.25,0.49,0.85,369,282,206,438,360
241,0.44,0.87,0.37,-1.28,-1.16,0.06,364,281,205,442,362
242,0.44,0.84,0.39,-0.12,-2.32,-5.37,396,281,202,436,366
243,0.42,0.83,0.38,-1.04,-2.14,0.92,369,282,204,444,375
244,0.44,0.79,0.38,-0.61,-2.56,-2.01,366,294,207,441,365
245,0.45,0.81,0.38,0.37,-3.97,-2.38,371,283,205,445,361
246,0.45,0.81,0.39,-0.24,-1.59,-2.5,371,283,206,441,363
247,0.44,0.8,0.38,-2.26,-3.6,-2.08,368,282,204,442,364
248,0.45,0.81,0.38,-0.24,-2.99,-1.71,370,282,204,442,361
249,0.45,0.81,0.37,-0.49,-3.11,-1.34,367,281,204,445,360
250,0.43,0.81,0.39,-1.1,-3.78,-0.73,371,278,205,441,362
251,0.48,0.8,0.39,-15.44,-4.15,-5.74,365,280,205,441,364
252,0.44,0.82,0.39,1.83,-1.46,-1.53,369,282,203,441,360
253,0.45,0.82,0.39,-3.11,-2.69,-3.91,369,282,203,437,366
254,0.46,0.81,0.38,-1.89,-3.54,-1.1,368,282,205,440,360
255,0.47,0.8,0.38,-0.31,-3.97,-2.56,366,280,205,440,363
256,0.47,0.8,0.4,3.36,-1.28,-2.56,366,284,203,442,360
257,0.47,0.82,0.4,3.36,-3.36,-2.87,367,281,205,445,364
258,0.45,0.82,0.38,0.12,-4.58,-1.65,365,283,204,445,366
259,0.47,0.82,0.36,0.73,-4.76,-5.62,369,281,205,435,364
260,0.44,0.8,0.37,2.5,-0.31,-4.09,365,284,204,442,366
261,0.46,0.83,0.39,-0.12,-4.64,-5.92,365,283,205,440,366
262,0.47,0.81,0.33,-1.46,-2.38,-2.44,366,282,205,441,364
263,0.45,0.78,0.35,-3.17,-5.13,-0.92,367,282,208,444,359
264,0.46,0.82,0.36,0.49,-3.42,0.85,368,281,205,436,364
265,0.44,0.77,0.38,-2.2,-0.49,-4.94,365,281,207,440,362
266,0.46,0.82,0.39,2.87,2.14,-3.23,367,281,207,444,366
267,0.45,0.8,0.4,-2.08,-2.44,-0.67,363,283,207,443,366
268,0.47,0.81,0.4,-0.92,-4.33,0.67,363,287,207,448,364
269,0.47,0.81,0.38,0.92,-1.89,0.12,365,283,206,446,366
270,0.49,0.8,0.34,7.32,-3.42,-1.34,364,281,205,442,367
271,0.46,0.8,0.37,-1.46,-4.46,-1.83,366,277,204,437,362
272,0.47,0.82,0.39,-0.98,-1.34,-3.36,364,284,202,441,357
273,0.45,0.83,0.39,-1.4,-2.5,-1.71,363,280,208,443,361
274,0.46,0.82,0.38,-0.18,-3.97,-2.56,362,281,208,438,364
275,0.47,0.8,0.37,-1.53,-3.6,-2.81,361,281,204,441,360
276,0.49,0.79,0.36,0.12,-3.23,-2.69,362,284,211,441,364
277,0.45,0.81,0.4,-3.36,-0.43,-4.46,361,281,205,445,366
278,0.47,0.79,0.37,0.43,-4.64,-2.32,360,285,207,440,365
279,0.47,0.81,0.37,2.44,-3.17,-1.65,362,281,208,436,360
280,0.45,0.79,0.37,-2.08,-5.49,-0.79,360,282,207,444,360
281,0.47,0.82,0.38,-1.34,-4.15,-5.49,360,284,204,445,370
282,0.45,0.8,0.39,-0.49,-4.33,-1.83,361,284,206,440,360
283,0.45,0.83,0.37,-0.49,-3.3,-4.21,365,283,206,443,367
284,0.5,0.87,0.39,13.18,-9.52,9.83,356,281,206,440,364
285,0.45,0.86,0.39,29.6,-1.83,-23.19,362,281,207,442,359
286,0.42,0.82,0.33,7.45,-5.43,-0.98,359,283,208,437,362
287,0.41,0.8,0.28,3.23,-1.1,-0.79,362,282,206,443,365
288,0.48,0.87,0.24,8.42,-9.77,-0.37,363,283,203,446,363
289,0.5,0.88,0.22,1.16,-1.59,1.16,363,281,208,438,363
290,0.48,0.81,0.25,-2.44,-5.8,-3.05,364,279,207,443,365
291,0.51,0.88,0.21,3.42,-1.04,0.49,362,281,205,432,366
292,0.49,0.81,0.2,-3.85,-4.94,1.1,364,279,207,442,364
293,0.57,0.81,0.24,5.43,1.46,3.78,363,278,205,445,363
294,0.53,0.78,0.26,-0.49,0.98,-4.21,363,281,204,436,364
295,0.53,0.78,0.25,7.75,4.03,2.93,357,277,205,440,365
296,0.58,0.78,0.23,1.77,-3.11,2.01,361,280,205,445,364
297,0.58,0.79,0.21,3.11,-1.83,-5.0,362,280,206,444,366
298,0.55,0.79,0.22,0.18,-5.31,-6.35,363,279,201,444,362
299,0.55,0.8,0.22,0.31,-2.32,-3.97,361,281,206,441,364
300,0.53,0.8,0.23,-1.89,-2.69,-4.03,361,280,205,443,366
301,0.53,0.81,0.25,-2.08,-2.44,-1.28,358,278,205,441,364
302,0.54,0.79,0.24,0.92,-4.15,-0.55,363,284,208,440,371
303,0.55,0.79,0.25,-0.61,-2.62,-1.34,361,283,205,443,364
304,0.58,0.75,0.24,-11.6,-4.58,1.34,362,280,208,442,361
305,0.56,0.8,0.28,0.37,-3.05,-4.52,360,286,209,445,363
306,0.57,0.79,0.25,1.34,-3.23,-3.85,361,284,207,441,363
307,0.58,0.8,0.26,2.75,-2.44,-1.83,366,283,220,444,365
308,0.57,0.8,0.25,1.22,-2.14,-3.17,360,282,210,442,364
309,0.54,0.79,0.27,0.92,-2.2,-3.66,360,284,204,442,367
310,0.55,0.8,0.26,0.43,-2.99,-2.38,361,283,207,442,362
311,0.55,0.79,0.25,0.12,-4.64,-1.83,359,296,206,445,363
312,0.56,0.79,0.24,0.79,-3.17,-3.54,361,284,201,443,363
313,0.55,0.8,0.25,-0.12,-2.69,-2.5,360,282,209,441,364
314,0.57,0.8,0.25,2.01,-3.66,-2.56,362,282,209,442,364
315,0.55,0.79,0.25,0.18,-2.2,-1.65,362,281,207,445,364
316,0.57,0.8,0.25,-0.98,-2.26,-2.75,359,284,206,442,365
317,0.56,0.79,0.26,-0.98,-1.22,-2.75,356,283,206,440,365
318,0.57,0.79,0.26,2.93,-3.36,-2.62,359,281,204,443,364
319,0.56,0.78,0.25,1.46,-2.93,-1.95,359,282,206,441,367
320,0.56,0.78,0.25,-0.67,-2.38,-2.93,359,280,206,440,365
321,0.57,0.78,0.25,0.18,-1.77,-1.83,360,283,208,441,366
322,0.57,0.78,0.25,0.37,-2.26,-3.23,362,279,209,442,364
323,0.57,0.79,0.25,0.12,-2.44,-2.56,358,282,207,444,365
324,0.56,0.79,0.25,-0.12,-2.5,-2.14,361,283,210,447,365
325,0.56,0.78,0.26,-0.79,-2.75,-2.38,361,281,208,441,366
326,0.58,0.77,0.25,-0.43,-1.89,-1.95,360,281,203,442,368
327,0.59,0.78,0.27,-2.62,-3.78,-2.32,360,281,214,441,361
328,0.58,0.77,0.28,-2.93,-1.77,-3.17,360,284,202,443,362
329,0.56,0.75,0.29,-0.92,-5.25,-4.88,360,285,206,441,362
330,0.58,0.75,0.29,-1.71,-4.33,-2.01,359,282,206,444,362
331,0.56,0.76,0.3,0.0,-3.66,-2.01,381,283,207,442,363
332,0.58,0.74,0.29,-0.31,-3.91,-2.32,364,281,207,443,363
333,0.57,0.76,0.3,-1.46,-2.2,-3.3,359,298,209,441,363
334,0.59,0.76,0.29,2.32,-5.07,-5.92,360,281,206,442,365
335,0.56,0.78,0.28,7.02,1.59,-8.18,361,282,208,440,359
336,0.54,0.82,0.28,-5.98,2.93,-12.39,358,281,204,444,360
337,0.54,0.83,0.29,2.87,-8.12,-6.96,361,281,219,441,362
338,0.46,0.85,0.27,3.36,1.89,-9.89,359,282,212,434,363
339,0.49,0.85,0.26,1.77,-2.38,-0.06,357,281,206,438,363
340,0.49,0.85,0.26,-1.04,-1.89,-3.66,359,284,206,444,364
341,0.46,0.85,0.26,-0.24,-2.99,-3.6,359,281,205,442,366
342,0.46,0.86,0.27,0.61,-2.93,-0.55,361,280,203,443,360
343,0.46,0.84,0.26,1.83,-3.11,-0.24,359,284,206,439,366
344,0.46,0.84,0.26,0.31,-2.5,-2.87,358,284,209,438,364
345,0.46,0.84,0.28,-2.08,-2.75,-2.5,368,284,206,438,365
346,0.47,0.84,0.27,2.14,-3.17,-2.99,359,281,204,440,364
347,0.48,0.85,0.26,3.17,-4.88,-3.17,357,281,206,444,365
348,0.48,0.84,0.27,-0.37,-1.53,-3.17,359,284,208,446,363
349,0.48,0.85,0.25,2.93,-0.79,-5.62,359,283,208,445,365
350,0.47,0.84,0.25,1.71,-1.83,-2.56,358,276,211,440,362
351,0.47,0.85,0.26,-0.92,-4.09,-2.26,359,284,206,445,365
352,0.48,0.83,0.27,0.06,-2.32,-2.14,358,284,207,437,361
353,0.49,0.85,0.26,0.31,-2.44,-5.55,360,281,204,441,363
354,0.48,0.85,0.26,3.48,-6.9,-2.93,357,284,207,445,364
355,0.48,0.84,0.25,0.85,-3.36,-2.44,358,283,206,446,363
356,0.46,0.83,0.25,1.53,-2.69,-2.26,361,288,209,441,366
357,0.47,0.86,0.25,0.73,-5.43,-3.6,358,278,206,443,359
358,0.43,0.87,0.25,-0.31,-4.7,-1.4,357,280,205,442,361
359,0.44,0.86,0.24,-0.61,-3.17,1.04,360,282,215,441,363
360,0.47,0.85,0.24,-2.08,-6.47,1.34,360,281,205,442,361
361,0.49,0.84,0.24,-0.31,-0.31,0.24,366,282,205,441,363
362,0.5,0.79,0.23,-0.92,-5.86,-1.59,359,282,206,442,359
363,0.54,0.82,0.23,0.49,-2.62,-1.59,358,287,209,441,359
364,0.51,0.83,0.22,-0.67,-5.13,-3.72,358,281,207,439,360
365,0.5,0.84,0.21,0.67,-4.27,-8.54,360,281,208,446,361
366,0.46,0.87,0.21,1.77,-1.1,-7.75,358,281,208,443,362
367,0.43,0.86,0.22,-0.55,-2.44,2.56,359,284,207,442,364
368,0.47,0.84,0.21,0.31,-4.27,1.95,357,283,206,441,366
369,0.47,0.84,0.21,-0.12,-1.89,-1.59,353,282,206,443,363
370,0.52,0.84,0.23,2.14,-4.7,-5.49,356,281,207,441,362
371,0.51,0.82,0.21,-2.69,-3.78,-0.67,358,282,206,445,365
372,0.5,0.85,0.23,3.6,-3.48,-5.55,356,281,208,445,365
373,0.49,0.85,0.22,0.18,-1.22,-1.95,357,282,207,440,363
374,0.48,0.83,0.23,-0.31,-4.94,-4.27,359,285,205,446,361
375,0.5,0.84,0.23,2.32,-3.85,-1.71,360,280,209,447,363
376,0.5,0.84,0.23,-0.43,-2.93,-2.56,357,281,211,444,365
377,0.5,0.83,0.25,-1.28,-3.11,-1.46,360,282,206,438,365
378,0.5,0.82,0.25,-2.26,0.31,-1.04,360,281,213,440,363
379,0.53,0.82,0.25,-0.43,-5.74,-2.32,361,284,205,440,359
380,0.51,0.82,0.25,-1.53,-2.5,-1.65,356,282,220,441,362
381,0.53,0.82,0.25,-1.28,-2.44,-3.42,351,280,208,440,365
382,0.5,0.81,0.25,-1.16,-2.26,-0.06,359,281,206,441,364
383,0.52,0.82,0.24,0.18,-3.05,-0.98,359,283,205,441,360
384,0.53,0.82,0.25,0.24,-3.11,-3.05,353,284,206,444,363
385,0.52,0.81,0.25,1.71,-3.3,-2.62,357,285,210,444,364
386,0.52,0.79,0.24,2.14,-3.05,-3.23,362,284,206,442,364
387,0.51,0.82,0.24,1.59,-3.23,-2.62,355,294,207,438,363
388,0.51,0.82,0.24,2.2,-3.48,-2.32,357,279,206,448,365
389,0.52,0.83,0.24,0.73,-5.19,-2.93,355,283,206,440,360
390,0.51,0.82,0.25,0.79,0.61,-2.56,357,281,208,440,364
391,0.51,0.82,0.24,-0.12,-3.66,-2.38,358,281,208,441,365
392,0.52,0.83,0.25,-1.16,-3.17,-2.69,357,294,205,442,363
393,0.51,0.81,0.25,-0.18,-2.87,-1.65,357,282,204,441,366
394,0.52,0.82,0.25,-0.37,-2.87,-2.69,358,283,208,443,363
395,0.52,0.82,0.25,0.12,-2.62,-3.3,360,281,208,443,367
396,0.52,0.82,0.26,0.18,-2.26,-1.4,358,283,208,445,362
397,0.52,0.81,0.25,0.37,-2.93,-2.01,361,281,209,443,366
398,0.52,0.82,0.26,0.43,-2.44,-2.93,364,280,203,438,363
399,0.51,0.82,0.26,1.1,-3.11,-2.99,359,283,206,439,365
400,0.51,0.82,0.25,-0.12,-1.83,-3.3,357,281,209,442,362
401,0.52,0.82,0.25,3.05,-2.44,-3.78,359,283,205,445,361
402,0.51,0.83,0.27,-0.06,-1.83,-2.08,356,283,203,443,363
403,0.52,0.78,0.24,4.33,-7.14,0.98,358,282,209,443,363
404,0.51,0.8,0.21,0.18,-6.59,-1.95,355,282,206,444,362
405,0.52,0.81,0.22,0.98,-3.97,-1.53,359,288,211,441,363
406,0.51,0.83,0.23,-0.67,-1.1,-5.07,356,284,209,444,362
407,0.52,0.83,0.23,1.95,-2.93,-0.18,356,280,206,441,366
408,0.53,0.83,0.21,-0.67,-3.05,-1.65,355,283,206,437,364
409,0.52,0.81,0.22,0.55,-2.75,-2.93,357,284,206,443,362
410,0.53,0.83,0.23,1.77,-3.42,-2.87,358,279,211,442,363
411,0.52,0.81,0.22,-0.31,-3.36,-0.92,353,282,209,444,365
412,0.52,0.81,0.22,-0.67,-2.08,-1.4,357,284,205,444,364
413,0.52,0.81,0.23,0.0,-2.69,-2.75,359,282,206,442,363
414,0.52,0.82,0.22,0.24,-2.2,-3.48,359,283,207,436,361
415,0.52,0.82,0.23,0.0,-3.97,-1.77,357,282,205,443,365
416,0.52,0.82,0.24,-0.37,-1.53,-2.69,358,284,208,445,366
417,0.53,0.81,0.24,-2.99,0.37,1.77,358,284,206,450,359
418,0.54,0.77,0.26,-10.38,-9.46,2.38,357,284,207,446,366
419,0.6,0.84,0.26,-8.97,0.0,-10.99,357,282,209,444,365
420,0.5,0.83,0.26,7.63,1.53,-4.15,357,283,210,443,363
421,0.5,0.82,0.27,-8.79,4.09,-9.46,350,280,207,436,363
422,0.48,0.81,0.29,-1.04,-4.82,0.49,356,282,208,443,375
423,0.5,0.81,0.28,0.06,-4.15,-0.98,358,282,209,445,363
424,0.5,0.82,0.28,-0.31,-2.81,0.79,357,282,210,442,362
425,0.5,0.82,0.29,-0.49,-3.54,-1.46,354,281,208,445,363
426,0.51,0.79,0.28,-1.22,-4.33,-1.46,356,285,208,441,365
427,0.51,0.81,0.29,0.85,-2.01,-2.62,356,285,209,441,361
428,0.52,0.82,0.29,0.73,-1.65,-3.11,359,300,210,443,363
429,0.51,0.82,0.28,0.92,-2.81,-3.11,356,285,204,442,362
430,0.5,0.81,0.28,1.04,-2.93,-2.08,359,282,209,444,365
431,0.51,0.82,0.28,0.79,-1.16,-1.65,357,284,211,440,364
432,0.51,0.82,0.27,1.1,-3.72,-3.23,359,282,206,445,362
433,0.5,0.82,0.28,-0.85,-2.32,-2.69,363,281,205,445,362
434,0.51,0.81,0.28,-1.53,-3.17,-2.01,357,282,206,445,363
435,0.5,0.81,0.28,-0.49,-3.48,-3.42,359,282,209,441,362
436,0.52,0.81,0.27,1.89,-4.33,-2.2,357,278,206,443,363
437,0.51,0.81,0.28,-0.12,-2.69,-3.48,358,278,210,442,363
438,0.52,0.82,0.27,0.18,-3.23,-2.14,356,283,206,442,360
439,0.52,0.82,0.27,0.98,-2.14,-3.42,359,284,221,439,364
440,0.53,0.83,0.27,-0.12,-3.97,-2.93,359,286,208,445,365
441,0.52,0.81,0.28,0.98,-2.69,-1.77,355,281,208,443,360
442,0.52,0.82,0.27,0.43,-3.91,-1.4,348,284,206,437,360
443,0.52,0.81,0.28,1.28,-4.15,-2.62,355,280,206,444,359
444,0.52,0.81,0.26,-0.06,-3.17,-2.01,358,283,209,441,364
445,0.53,0.81,0.26,0.12,-2.5,-3.05,359,282,205,442,359
446,0.52,0.81,0.27,1.59,-1.22,-2.26,357,284,209,442,359
447,0.52,0.82,0.27,0.24,-2.38,-3.11,357,282,209,446,364
448,0.53,0.81,0.26,1.65,-1.53,-2.32,359,285,209,442,365
449,0.52,0.81,0.27,0.85,-3.42,-2.69,358,282,206,447,364
450,0.52,0.81,0.27,1.46,-4.46,-2.38,357,282,206,438,362
451,0.52,0.81,0.26,0.43,-2.99,-1.83,360,282,206,446,362
452,0.53,0.82,0.27,3.97,-1.77,0.31,370,283,209,441,362
453,0.53,0.81,0.26,0.85,-4.09,-3.11,361,283,210,436,363
454,0.53,0.82,0.26,0.43,-2.26,-1.34,358,281,210,442,364
455,0.53,0.79,0.27,1.77,-1.04,-2.99,358,281,206,443,363
456,0.53,0.8,0.28,-0.98,-3.3,-1.95,357,282,209,447,366
457,0.53,0.8,0.28,1.34,-2.26,-1.77,352,282,207,447,362
458,0.54,0.79,0.28,-1.77,-2.69,-3.36,355,282,206,446,359
459,0.53,0.81,0.28,0.85,-3.17,-2.44,358,285,210,445,361
460,0.53,0.8,0.28,0.49,-2.14,-2.81,357,280,210,440,359
461,0.53,0.81,0.28,1.1,-2.38,-3.11,352,282,210,442,363
462,0.51,0.81,0.27,-0.06,-3.3,-3.6,367,282,208,442,362
463,0.52,0.81,0.27,-0.37,-2.2,-2.81,358,283,209,437,363
464,0.51,0.81,0.29,0.18,-3.54,-2.32,357,282,210,442,363
465,0.52,0.8,0.28,-0.18,-3.91,-3.3,360,285,209,441,370
466,0.52,0.8,0.27,0.49,-2.32,-2.62,360,285,206,445,361
467,0.52,0.81,0.28,-0.85,-4.03,-3.17,357,284,209,437,366
468,0.53,0.81,0.27,0.98,-1.77,-2.87,357,281,206,440,365
469,0.52,0.81,0.28,0.18,-3.36,-2.32,364,281,211,441,362
470,0.52,0.8,0.27,-0.06,-2.26,-1.77,358,285,216,454,359
471,0.52,0.8,0.28,0.43,-2.99,-2.32,357,284,208,438,364
472,0.52,0.81,0.28,0.12,-3.36,-1.71,359,282,211,442,359
473,0.52,0.81,0.27,0.24,-3.05,-2.14,360,283,208,446,363
474,0.52,0.81,0.27,1.16,-2.75,-1.95,359,285,208,444,360
475,0.53,0.82,0.27,1.04,-2.26,-1.89,357,282,207,442,364
476,0.53,0.81,0.26,0.31,-2.81,-2.56,357,286,210,441,365
477,0.52,0.8,0.26,0.79,-2.62,-2.08,357,283,208,439,364
478,0.53,0.81,0.26,-0.18,-2.87,-2.99,360,286,207,446,364
479,0.53,0.81,0.27,-0.31,-1.59,-2.87,357,284,209,439,365
480,0.53,0.81,0.28,-0.37,-3.11,-2.93,360,282,206,442,362
481,0.52,0.79,0.26,-0.18,-3.97,-1.83,360,285,207,445,359
482,0.55,0.81,0.26,5.0,-7.51,0.12,360,285,208,445,362
483,0.53,0.81,0.25,2.2,-4.64,-1.83,355,282,209,443,363
484,0.55,0.82,0.24,2.56,-1.22,-3.36,359,282,208,442,365
485,0.55,0.79,0.24,0.79,-3.05,-4.52,360,285,209,441,365
486,0.53,0.82,0.25,1.04,-2.99,-2.62,361,285,206,446,363
487,0.54,0.82,0.24,1.71,-2.2,-3.72,356,282,204,436,362
488,0.52,0.82,0.26,-1.77,-1.65,-2.32,361,281,209,442,360
489,0.54,0.82,0.25,-0.06,-2.56,-2.38,356,282,208,442,363
490,0.53,0.81,0.25,0.24,-2.01,-1.89,397,283,203,442,362
491,0.54,0.82,0.25,2.69,-1.46,-3.05,357,282,203,443,359
492,0.52,0.82,0.26,0.24,-3.54,-2.81,360,281,208,442,363
493,0.52,0.8,0.25,0.92,-1.04,-0.79,358,278,208,438,363
494,0.52,0.8,0.25,-0.61,-3.54,-1.89,358,279,208,438,360
495,0.54,0.79,0.27,0.79,-0.92,-2.5,358,283,209,445,364
496,0.53,0.79,0.28,-0.49,-0.98,-4.76,360,285,208,441,362
497,0.58,0.83,0.27,1.28,-3.17,-6.35,356,285,206,447,363
498,0.56,0.83,0.27,1.4,-5.25,-5.37,358,283,206,441,366
499,0.53,0.8,0.28,-0.92,-1.89,-0.49,359,283,207,443,364
500,0.54,0.8,0.27,-0.12,-3.11,-1.77,356,280,207,446,364
501,0.55,0.8,0.28,-0.18,-2.32,-3.66,358,284,210,441,363
502,0.54,0.8,0.28,0.67,-2.5,-3.17,357,281,209,441,365
503,0.55,0.8,0.27,0.92,-3.17,-3.3,361,283,208,443,365
504,0.54,0.8,0.28,0.31,-3.11,-2.26,358,283,207,439,360
505,0.54,0.8,0.28,0.0,-2.69,-2.38,360,285,205,443,361
506,0.54,0.79,0.28,0.49,-2.26,-3.23,357,286,207,441,366
507,0.5,0.8,0.28,0.0,-4.27,-4.58,360,283,206,447,357
508,0.5,0.81,0.3,3.91,-2.87,-1.71,358,282,208,437,364
509,0.52,0.8,0.27,0.55,-5.86,-1.53,359,282,209,445,365
510,0.56,0.82,0.26,0.24,-4.09,-0.49,356,281,209,438,366
511,0.57,0.82,0.25,0.92,-4.64,-2.38,359,283,207,445,367
512,0.54,0.78,0.27,-0.67,-3.78,-4.88,361,281,208,444,363
513,0.42,0.89,0.19,-5.68,-10.68,-8.79,380,276,206,439,360
514,0.37,0.88,0.28,2.93,-1.4,-6.41,382,275,200,447,358
515,0.38,0.94,0.27,-2.5,-1.77,-2.14,384,280,198,444,362
516,0.39,0.88,0.3,-0.06,-1.16,-3.36,381,277,201,442,360
517,0.37,0.95,0.29,2.44,1.46,1.34,378,277,205,443,359
518,0.35,0.88,0.31,-5.74,-7.02,-2.08,378,280,206,443,361
519,0.41,0.82,0.27,-12.51,5.49,-4.64,378,277,202,438,358
520,0.37,0.86,0.33,-0.79,8.61,6.23,367,278,205,440,355
521,0.42,0.92,0.29,-8.18,-10.86,7.02,367,277,201,437,354
522,0.42,0.8,0.33,0.49,-0.61,-1.4,379,277,205,445,358
523,0.42,0.82,0.32,0.67,8.42,-13.67,367,277,205,439,355
524,0.45,0.85,0.35,4.64,-4.58,-3.78,370,276,201,438,358
525,0.42,0.84,0.33,-2.08,-2.56,-0.73,370,278,209,447,359
526,0.43,0.84,0.34,0.0,-1.1,1.71,369,280,200,457,357
527,0.44,0.83,0.34,2.44,-3.05,-1.46,370,278,202,445,359
528,0.44,0.84,0.33,-1.28,-3.11,-0.31,368,281,202,442,357
529,0.43,0.82,0.35,-0.55,-3.97,-1.95,370,280,203,444,358
530,0.44,0.83,0.33,2.56,-2.81,-3.23,371,281,199,447,358
531,0.46,0.84,0.3,5.98,-7.75,-1.22,368,277,202,438,357
532,0.46,0.83,0.32,2.56,-2.62,-3.3,369,275,202,443,358
533,0.48,0.85,0.3,-0.12,-1.53,-6.9,370,279,203,444,360
534,0.47,0.83,0.28,-0.79,-2.62,0.37,371,288,202,439,356
535,0.5,0.83,0.29,-1.22,-3.17,-1.65,368,281,203,443,360
536,0.5,0.82,0.29,3.23,-3.42,-2.08,370,278,203,445,353
537,0.49,0.82,0.29,0.18,-1.34,-0.73,366,278,202,444,357
538,0.49,0.82,0.31,-0.31,0.12,-4.39,365,278,205,442,356
539,0.49,0.82,0.3,2.5,-2.81,-5.25,370,280,205,444,357
540,0.48,0.82,0.3,0.67,-0.73,-3.17,365,285,202,442,358
541,0.49,0.85,0.31,-2.44,-0.31,-3.36,365,278,204,445,361
542,0.46,0.86,0.31,2.87,-4.88,-7.57,368,277,205,450,358
543,0.44,0.85,0.31,-3.23,-0.06,-9.28,367,275,202,437,358
544,0.46,0.8,0.29,0.79,-12.57,-6.16,366,279,201,448,359
545,0.46,0.8,0.27,3.72,-2.26,-0.67,367,278,204,442,360
546,0.5,0.85,0.23,6.35,-5.74,-2.44,362,277,205,440,360
547,0.5,0.82,0.24,-4.33,-1.95,-0.49,367,280,205,441,358
548,0.5,0.82,0.25,-1.46,-6.9,-3.05,368,277,202,437,356
549,0.51,0.81,0.24,-7.81,-2.69,-0.98,371,276,203,442,358
550,0.52,0.82,0.24,1.95,-1.83,-3.05,370,278,204,442,360
551,0.5,0.81,0.25,0.12,-2.62,-2.44,371,275,201,442,355
552,0.5,0.84,0.26,3.17,0.24,-3.66,369,277,204,439,357
553,0.53,0.86,0.25,2.5,0.85,-4.88,369,277,202,442,358
554,0.51,0.86,0.23,4.64,0.0,-1.95,368,278,201,443,360
555,0.51,0.86,0.27,0.55,-0.24,-2.44,364,277,205,443,356
556,0.54,0.82,0.27,6.77,-1.83,-5.49,368,279,204,446,355
557,0.51,0.79,0.25,3.48,-8.18,-2.81,365,280,202,446,358
558,0.5,0.82,0.27,-5.8,-7.51,-3.54,379,280,203,444,358
559,0.52,0.81,0.25,0.85,-8.06,-4.03,368,280,201,443,358
560,0.5,0.82,0.25,6.65,-3.72,-4.21,370,278,202,437,358
561,0.51,0.85,0.27,4.15,-1.65,-6.29,370,277,204,443,356
562,0.49,0.86,0.26,5.92,-4.39,-1.71,372,278,203,437,359
563,0.49,0.82,0.24,0.31,-4.33,-2.44,367,277,199,446,357
564,0.5,0.84,0.24,0.49,-2.38,-2.2,371,278,203,440,361
565,0.52,0.84,0.24,2.81,-3.3,-3.48,369,277,205,442,358
566,0.5,0.83,0.24,2.01,-1.77,-3.48,368,278,200,443,357
567,0.51,0.82,0.23,2.93,-1.83,-2.26,368,280,202,448,360
568,0.52,0.81,0.23,-4.46,3.78,-5.86,367,277,205,442,360
569,0.5,0.82,0.26,-0.67,-2.69,0.24,396,279,205,442,358
570,0.51,0.82,0.27,2.26,-3.66,-2.44,364,280,204,442,361
571,0.5,0.81,0.27,1.34,0.12,-4.27,368,280,202,443,361
572,0.5,0.81,0.26,1.59,-2.93,-3.05,368,281,201,446,362
573,0.5,0.82,0.27,-0.24,-3.78,-2.93,365,281,203,446,359
574,0.49,0.82,0.27,0.06,-4.76,-2.2,370,278,201,445,359
575,0.49,0.83,0.28,1.4,-2.75,-2.62,366,278,199,442,355
576,0.47,0.81,0.26,-1.89,-1.71,-1.59,367,275,205,440,361
577,0.51,0.83,0.24,1.4,-1.16,-2.08,365,277,197,443,355
578,0.49,0.83,0.24,1.95,-3.72,-1.04,357,279,204,442,361
579,0.5,0.83,0.24,1.04,-3.97,-0.92,365,277,204,445,356
580,0.49,0.82,0.24,-0.49,-2.08,-0.67,363,276,205,442,357
581,0.51,0.83,0.25,-0.24,-2.62,-2.62,370,277,203,448,360
582,0.51,0.83,0.26,-1.46,-2.2,-1.34,370,279,204,444,359
583,0.52,0.83,0.25,-0.12,-3.6,-1.95,369,279,204,443,361
584,0.51,0.82,0.25,1.16,-2.87,-3.05,366,281,202,441,359
585,0.51,0.82,0.25,-1.16,-2.38,-1.65,370,276,217,442,359
586,0.52,0.82,0.25,0.31,-3.3,-2.81,366,277,202,442,355
587,0.52,0.82,0.25,-1.16,-2.56,-2.08,368,279,202,448,360
588,0.51,0.83,0.26,1.04,-2.5,-2.56,368,281,204,442,358
589,0.52,0.82,0.26,2.87,-2.26,-1.83,367,280,204,442,360
590,0.52,0.82,0.25,1.1,-1.53,-3.17,365,278,207,444,360
591,0.52,0.83,0.25,2.81,-5.07,-2.38,367,277,204,439,360
592,0.51,0.82,0.26,1.59,-0.55,-3.23,365,279,203,437,354
593,0.5,0.81,0.27,-0.73,-2.26,1.34,367,280,205,442,359
594,0.52,0.82,0.27,-0.49,-1.83,-1.71,366,279,201,440,358
595,0.51,0.82,0.27,0.98,-4.09,-3.17,368,278,204,445,360
596,0.52,0.81,0.26,0.06,-3.11,-2.2,369,281,205,442,360
597,0.52,0.82,0.26,0.06,-3.3,-2.01,365,284,205,445,358
598,0.51,0.82,0.27,-0.43,-2.14,-2.08,367,278,206,441,355
599,0.52,0.82,0.25,3.05,-2.87,-4.94,366,280,205,448,365
600,0.51,0.82,0.25,2.01,-2.87,-1.89,365,276,201,437,361
601,0.5,0.82,0.25,-0.55,-1.95,-2.93,369,281,203,442,360
602,0.52,0.82,0.24,-0.12,-3.3,-1.77,371,278,202,443,359
603,0.51,0.83,0.26,0.12,-3.23,-2.44,366,279,202,441,356
604,0.52,0.83,0.24,0.0,-2.38,-2.75,370,278,204,437,357
605,0.52,0.82,0.25,-0.18,-3.05,-0.79,367,279,203,443,359
606,0.52,0.81,0.24,1.22,-3.78,-1.16,364,280,207,441,360
607,0.51,0.83,0.24,1.46,-2.01,-2.69,369,283,205,442,362
608,0.53,0.83,0.25,-0.61,-5.62,-0.37,365,279,219,438,361
609,0.52,0.82,0.25,1.22,-1.34,-3.42,370,278,202,442,359
610,0.51,0.83,0.25,-2.75,-3.72,-2.32,369,280,202,445,361
611,0.53,0.8,0.25,0.0,-3.91,-1.34,367,278,202,436,359
612,0.52,0.81,0.24,-1.4,-3.6,-1.28,368,279,201,451,357
613,0.54,0.81,0.25,2.26,-3.05,-0.79,367,277,204,437,360
614,0.52,0.8,0.25,-1.34,-1.65,-1.16,368,281,207,442,359
615,0.53,0.82,0.27,1.04,-2.56,-2.38,368,281,202,443,359
616,0.54,0.8,0.26,0.61,-2.01,-3.23,378,283,210,444,359
617,0.53,0.81,0.27,0.61,-1.28,-2.62,365,278,202,446,360
618,0.51,0.81,0.26,0.24,-3.17,-3.05,369,278,203,440,360
619,0.52,0.8,0.26,-1.04,-3.6,-4.64,364,277,204,444,357
620,0.52,0.81,0.27,0.18,-3.3,-2.81,369,282,206,442,362
621,0.52,0.8,0.25,1.28,-4.46,-4.27,369,279,203,440,360
622,0.52,0.81,0.26,0.12,-2.81,-1.89,366,280,203,442,361
623,0.51,0.82,0.26,-1.83,-2.99,-2.81,368,281,204,443,360
624,0.52,0.81,0.25,0.49,-3.05,-2.44,367,288,205,440,362
625,0.53,0.83,0.29,-6.35,-2.87,2.01,368,279,204,440,360
626,0.55,0.82,0.27,-2.38,-5.25,-1.83,367,282,202,445,360
627,0.53,0.79,0.26,-1.28,-2.44,-3.97,368,278,207,435,360
628,0.53,0.82,0.28,1.34,-1.53,2.38,368,279,207,443,361
629,0.54,0.79,0.27,0.73,-3.66,-1.34,366,279,208,446,360
630,0.53,0.8,0.28,2.01,-0.12,-4.03,371,278,219,442,359
631,0.53,0.76,0.27,-3.78,-6.47,-3.85,368,281,207,441,359
632,0.52,0.77,0.28,-1.28,-5.92,-4.21,367,278,206,440,358
633,0.52,0.79,0.28,-1.65,-2.75,-2.69,370,278,203,439,361
634,0.54,0.79,0.29,0.67,-3.36,-1.1,370,279,209,441,356
635,0.55,0.8,0.29,0.61,-3.54,-2.2,370,279,203,441,360
636,0.56,0.8,0.28,2.99,-3.48,-3.66,370,281,217,436,356
637,0.53,0.8,0.28,2.2,-2.99,-4.09,368,277,204,443,359
638,0.56,0.79,0.26,0.55,-4.58,-1.89,369,276,205,439,359
639,0.55,0.78,0.29,-1.4,-3.48,0.79,370,279,204,441,358
640,0.54,0.77,0.28,-3.97,-4.52,-3.05,368,279,206,445,360
641,0.53,0.78,0.28,4.52,-0.85,-6.29,370,278,208,439,359
642,0.54,0.8,0.29,-1.4,-2.62,-3.23,372,280,206,445,364
643,0.55,0.8,0.28,1.89,-3.05,-3.85,367,279,202,440,360
644,0.56,0.82,0.27,4.39,-1.22,-3.66,368,281,206,440,363
645,0.55,0.81,0.28,1.77,-4.64,-4.58,368,282,201,440,354
646,0.56,0.81,0.26,4.33,-3.42,-1.71,370,280,206,442,358
647,0.55,0.81,0.27,1.89,-3.72,-6.23,369,280,203,444,361
648,0.53,0.79,0.27,-2.01,-4.21,-2.5,369,279,207,441,361
649,0.52,0.81,0.27,-3.17,-2.38,-2.2,367,280,203,441,362
650,0.55,0.79,0.29,2.56,-2.5,-2.26,369,281,203,442,362
651,0.54,0.8,0.29,1.16,-2.01,-3.23,369,278,206,441,360
652,0.55,0.79,0.26,1.65,-3.78,-0.61,369,278,203,441,360
653,0.53,0.79,0.27,1.04,0.31,-4.52,368,279,204,439,358
654,0.54,0.81,0.26,1.53,-3.6,-0.18,371,282,207,442,358
655,0.54,0.8,0.27,-0.85,-2.32,-1.28,370,280,207,442,362
656,0.56,0.79,0.26,1.83,-5.19,-1.71,369,279,206,442,359
657,0.55,0.8,0.26,0.98,-4.27,-2.5,371,279,218,442,362
658,0.55,0.79,0.26,-0.61,-3.54,-3.05,371,282,206,436,356
659,0.54,0.79,0.27,-3.54,-2.5,-0.73,368,278,204,441,359
660,0.55,0.8,0.26,0.31,-3.85,-1.95,368,276,205,436,359
661,0.54,0.8,0.27,-1.77,-1.65,-2.32,369,279,201,440,360
662,0.53,0.8,0.27,1.46,-2.2,-2.93,372,280,204,436,360
663,0.55,0.79,0.27,0.18,-1.4,-2.75,370,282,203,439,359
664,0.55,0.8,0.27,-0.24,-2.32,-1.22,369,285,204,445,356
665,0.55,0.78,0.28,2.2,-3.05,-2.75,368,281,208,445,361
666,0.55,0.79,0.27,1.71,-3.3,-3.54,369,279,204,442,361
667,0.54,0.8,0.27,1.4,-4.39,-5.31,368,281,204,442,360
668,0.56,0.82,0.28,3.78,-2.26,-2.14,369,281,207,441,360
669,0.55,0.8,0.26,0.24,-4.33,-3.6,369,278,204,440,360
670,0.54,0.81,0.27,-2.14,-3.66,-6.71,367,285,204,442,361
671,0.54,0.81,0.28,-2.01,-2.75,-0.31,370,280,201,436,356
672,0.56,0.81,0.28,0.73,-4.76,-3.78,367,288,203,439,360
673,0.55,0.8,0.29,-1.1,-1.28,-2.38,370,276,205,445,357
674,0.54,0.8,0.28,3.05,-4.03,1.04,367,279,213,441,362
675,0.56,0.78,0.27,-0.43,-3.36,-1.65,368,281,201,445,356
676,0.55,0.78,0.28,0.43,-1.95,-4.09,371,284,209,443,356
677,0.55,0.79,0.27,0.37,-2.75,-2.44,368,282,209,445,360
678,0.55,0.79,0.29,1.04,-3.97,-2.75,372,275,204,442,358
679,0.56,0.78,0.28,1.28,-4.15,-2.62,368,277,204,441,362
680,0.55,0.79,0.29,0.18,-2.38,-2.56,368,281,209,444,361
681,0.55,0.79,0.28,-0.31,-3.17,-4.58,370,282,207,437,358
682,0.56,0.79,0.26,1.83,-3.3,-2.14,368,277,206,441,362
683,0.55,0.79,0.28,0.12,-3.72,-2.38,366,282,203,442,362
684,0.56,0.78,0.27,-1.77,-2.32,-2.99,367,282,207,439,360
685,0.55,0.79,0.27,1.71,-2.93,-1.83,367,279,203,441,361
686,0.55,0.78,0.27,-0.61,-2.5,-2.81,368,281,204,438,360
687,0.55,0.78,0.27,1.16,-3.78,-3.3,375,279,205,444,357
688,0.54,0.8,0.28,1.59,-3.3,-0.67,368,278,204,437,357
689,0.55,0.79,0.27,1.53,-2.26,-2.14,368,280,203,442,361
690,0.55,0.8,0.26,1.77,-2.26,-3.17,368,280,204,442,361
691,0.56,0.8,0.26,-1.4,-1.71,-3.6,365,281,203,442,361
692,0.56,0.8,0.26,-0.12,-3.42,-2.01,370,282,205,442,362
693,0.56,0.81,0.27,1.22,-2.2,-4.03,369,280,207,441,361
694,0.56,0.8,0.26,2.14,-3.42,-1.83,370,279,207,442,357
695,0.55,0.8,0.25,-0.43,-3.23,-2.99,369,279,203,435,359
696,0.56,0.78,0.26,-2.69,-3.66,-2.69,370,279,207,441,361
697,0.55,0.79,0.26,0.61,-2.01,-1.77,371,275,203,444,360
698,0.55,0.79,0.27,-0.06,-2.87,-3.54,365,279,204,444,364
699,0.55,0.8,0.26,1.53,-2.87,-2.44,366,280,203,445,364
700,0.55,0.8,0.27,0.24,-3.48,-2.81,368,280,211,442,359
701,0.54,0.8,0.28,-0.18,-2.5,-1.71,368,280,207,443,362
702,0.54,0.79,0.28,-0.49,-2.62,-1.65,367,281,207,440,361
703,0.54,0.79,0.28,-2.26,-2.69,-1.83,371,279,202,444,362
704,0.55,0.78,0.28,-0.73,-2.38,-2.08,368,280,206,442,361
705,0.55,0.79,0.29,-0.79,-2.44,-3.3,365,282,206,442,362
706,0.55,0.78,0.28,-0.37,-3.11,-2.93,369,280,207,442,363
707,0.54,0.79,0.28,1.4,-3.17,-2.2,374,281,205,438,361
708,0.54,0.79,0.29,-0.37,-1.65,-2.93,371,282,207,436,357
709,0.55,0.79,0.28,1.16,-2.14,-2.75,369,280,207,440,363
710,0.55,0.8,0.28,1.4,-3.48,-2.99,371,279,208,445,360
711,0.54,0.79,0.28,-0.12,-2.93,-2.56,367,279,205,444,360
712,0.55,0.79,0.28,0.98,-4.88,-1.28,370,280,208,441,362
713,0.53,0.78,0.28,-0.06,-2.32,-2.62,369,282,205,440,362
714,0.54,0.8,0.28,-0.73,-1.34,-2.44,371,279,207,445,363
715,0.55,0.8,0.29,0.73,-3.11,-2.62,366,282,203,440,359
716,0.54,0.79,0.28,-0.49,-2.01,-3.6,367,280,206,441,360
717,0.54,0.8,0.28,-1.16,-2.44,-2.93,369,281,207,442,361
718,0.54,0.8,0.29,0.67,-1.83,-1.53,369,280,205,446,362
719,0.56,0.8,0.29,-0.92,-3.23,-1.65,365,278,203,440,362
720,0.55,0.79,0.28,-0.24,-2.14,-2.93,371,279,205,443,361
721,0.54,0.78,0.3,1.34,-3.48,-2.32,382,282,204,443,361
722,0.55,0.79,0.29,1.22,-2.69,-2.62,366,285,206,442,361
723,0.55,0.79,0.29,-0.24,-3.11,-2.2,368,281,204,442,363
724,0.57,0.79,0.3,1.34,-1.83,-1.95,368,284,204,445,362
725,0.56,0.79,0.3,0.37,-3.42,-2.93,372,279,206,438,363
726,0.54,0.77,0.3,-2.32,-4.15,-2.99,373,280,206,440,362
727,0.55,0.79,0.31,-0.24,-1.89,-1.53,369,283,203,440,361
728,0.55,0.77,0.31,-0.67,-2.5,-0.73,370,283,208,442,361
729,0.57,0.78,0.3,0.18,-2.93,-2.2,367,282,205,440,362
730,0.55,0.77,0.32,-0.79,-3.11,-2.08,367,279,203,438,361
731,0.58,0.79,0.3,0.73,-2.2,-3.23,366,281,205,441,361
732,0.56,0.78,0.3,-3.36,-3.78,-3.72,370,281,208,441,360
733,0.53,0.75,0.34,1.4,2.26,-12.88,369,282,205,441,362
734,0.49,0.82,0.37,0.37,0.85,-6.1,371,286,207,444,364
735,0.37,0.77,0.45,5.74,-3.42,4.09,369,279,206,445,359
736,0.41,0.88,0.38,-0.85,0.06,-11.9,369,280,203,442,362
737,0.41,0.8,0.38,-4.64,-2.81,-6.16,369,282,208,441,362
738,0.42,0.79,0.41,1.28,-1.04,-2.08,370,281,206,443,365
739,0.4,0.85,0.44,-0.43,-0.06,0.0,369,280,205,445,364
740,0.36,0.78,0.43,-1.77,0.98,-3.11,372,280,209,445,363
741,0.39,0.84,0.48,-1.89,-1.1,-11.41,368,280,208,436,363
742,0.39,0.79,0.43,0.06,-4.76,-11.6,368,279,210,443,363
743,0.38,0.82,0.47,0.49,-1.59,-3.05,366,279,208,437,363
744,0.36,0.82,0.44,0.92,-4.15,-1.46,368,282,205,439,361
745,0.4,0.8,0.41,0.98,-6.53,-2.5,375,292,207,440,361
746,0.38,0.82,0.41,3.78,-1.83,-1.34,367,279,201,443,362
747,0.41,0.81,0.41,3.54,-2.62,-2.5,368,281,202,442,363
748,0.4,0.81,0.4,0.67,-3.05,-0.85,366,280,204,444,363
749,0.37,0.82,0.4,4.58,-1.22,1.22,372,283,203,444,361
750,0.41,0.84,0.39,0.31,-0.37,-0.98,367,283,204,444,364
751,0.42,0.8,0.38,-0.06,-4.7,-2.01,369,282,206,441,363
752,0.42,0.83,0.37,-2.32,-3.48,-2.01,367,281,202,442,362
753,0.42,0.89,0.37,-5.25,0.49,0.85,369,282,206,438,360
754,0.44,0.87,0.37,-1.28,-1.16,0.06,364,281,205,442,362
755,0.44,0.84,0.39,-0.12,-2.32,-5.37,396,281,202,436,366
756,0.42,0.83,0.38,-1.04,-2.14,0.92,369,282,204,444,375
757,0.44,0.79,0.38,-0.61,-2.56,-2.01,366,294,207,441,365
758,0.45,0.81,0.38,0.37,-3.97,-2.38,371,283,205,445,361
759,0.45,0.81,0.39,-0.24,-1.59,-2.5,371,283,206,441,363
760,0.44,0.8,0.38,-2.26,-3.6,-2.08,368,282,204,442,364
761,0.45,0.81,0.38,-0.24,-2.99,-1.71,370,282,204,442,361
762,0.45,0.81,0.37,-0.49,-3.11,-1.34,367,281,204,445,360
763,0.43,0.81,0.39,-1.1,-3.78,-0.73,371,278,205,441,362
764,0.48,0.8,0.39,-15.44,-4.15,-5.74,365,280,205,441,364
765,0.44,0.82,0.39,1.83,-1.46,-1.53,369,282,203,441,360
766,0.45,0.82,0.39,-3.11,-2.69,-3.91,369,282,203,437,366
767,0.46,0.81,0.38,-1.89,-3.54,-1.1,368,282,205,440,360
768,0.47,0.8,0.38,-0.31,-3.97,-2.56,366,280,205,440,363
769,0.47,0.8,0.4,3.36,-1.28,-2.56,366,284,203,442,360
770,0.47,0.82,0.4,3.36,-3.36,-2.87,367,281,205,445,364
771,0.45,0.82,0.38,0.12,-4.58,-1.65,365,283,204,445,366
772,0.47,0.82,0.36,0.73,-4.76,-5.62,369,281,205,435,364
773,0.44,0.8,0.37,2.5,-0.31,-4.09,365,284,204,442,366
774,0.46,0.83,0.39,-0.12,-4.64,-5.92,365,283,205,440,366
775,0.47,0.81,0.33,-1.46,-2.38,-2.44,366,282,205,441,364
776,0.45,0.78,0.35,-3.17,-5.13,-0.92,367,282,208,444,359
777,0.46,0.82,0.36,0.49,-3.42,0.85,368,281,205,436,364
778,0.44,0.77,0.38,-2.2,-0.49,-4.94,365,281,207,440,362
779,0.46,0.82,0.39,2.87,2.14,-3.23,367,281,207,444,366
780,0.45,0.8,0.4,-2.08,-2.44,-0.67,363,283,207,443,366
781,0.47,0.81,0.4,-0.92,-4.33,0.67,363,287,207,448,364
782,0.47,0.81,0.38,0.92,-1.89,0.12,365,283,206,446,366
783,0.49,0.8,0.34,7.32,-3.42,-1.34,364,281,205,442,367
784,0.46,0.8,0.37,-1.46,-4.46,-1.83,366,277,204,437,362
785,0.47,0.82,0.39,-0.98,-1.34,-3.36,364,284,202,441,357
786,0.45,0.83,0.39,-1.4,-2.5,-1.71,363,280,208,443,361
787,0.46,0.82,0.38,-0.18,-3.97,-2.56,362,281,208,438,364
788,0.47,0.8,0.37,-1.53,-3.6,-2.81,361,281,204,441,360
789,0.49,0.79,0.36,0.12,-3.23,-2.69,362,284,211,441,364
790,0.45,0.81,0.4,-3.36,-0.43,-4.46,361,281,205,445,366
791,0.47,0.79,0.37,0.43,-4.64,-2.32,360,285,207,440,365
792,0.47,0.81,0.37,2.44,-3.17,-1.65,362,281,208,436,360
793,0.45,0.79,0.37,-2.08,-5.49,-0.79,360,282,207,444,360
794,0.47,0.82,0.38,-1.34,-4.15,-5.49,360,284,204,445,370
795,0.45,0.8,0.39,-0.49,-4.33,-1.83,361,284,206,440,360
796,0.45,0.83,0.37,-0.49,-3.3,-4.21,365,283,206,443,367
797,0.5,0.87,0.39,13.18,-9.52,9.83,356,281,206,440,364
798,0.45,0.86,0.39,29.6,-1.83,-23.19,362,281,207,442,359
799,0.42,0.82,0.33,7.45,-5.43,-0.98,359,283,208,437,362
800,0.41,0.8,0.28,3.23,-1.1,-0.79,362,282,206,443,365
801,0.48,0.87,0.24,8.42,-9.77,-0.37,363,283,203,446,363
802,0.5,0.88,0.22,1.16,-1.59,1.16,363,281,208,438,363
803,0.48,0.81,0.25,-2.44,-5.8,-3.05,364,279,207,443,365
804,0.51,0.88,0.21,3.42,-1.04,0.49,362,281,205,432,366
805,0.49,0.81,0.2,-3.85,-4.94,1.1,364,279,207,442,364
806,0.57,0.81,0.24,5.43,1.46,3.78,363,278,205,445,363
807,0.53,0.78,0.26,-0.49,0.98,-4.21,363,281,204,436,364
808,0.53,0.78,0.25,7.75,4.03,2.93,357,277,205,440,365
809,0.58,0.78,0.23,1.77,-3.11,2.01,361,280,205,445,364
810,0.58,0.79,0.21,3.11,-1.83,-5.0,362,280,206,444,366
811,0.55,0.79,0.22,0.18,-5.31,-6.35,363,279,201,444,362
812,0.55,0.8,0.22,0.31,-2.32,-3.97,361,281,206,441,364
813,0.53,0.8,0.23,-1.89,-2.69,-4.03,361,280,205,443,366
814,0.53,0.81,0.25,-2.08,-2.44,-1.28,358,278,205,441,364
815,0.54,0.79,0.24,0.92,-4.15,-0.55,363,284,208,440,371
816,0.55,0.79,0.25,-0.61,-2.62,-1.34,361,283,205,443,364
817,0.58,0.75,0.24,-11.6,-4.58,1.34,362,280,208,442,361
818,0.56,0.8,0.28,0.37,-3.05,-4.52,360,286,209,445,363
819,0.57,0.79,0.25,1.34,-3.23,-3.85,361,284,207,441,363
820,0.58,0.8,0.26,2.75,-2.44,-1.83,366,283,220,444,365
821,0.57,0.8,0.25,1.22,-2.14,-3.17,360,282,210,442,364
822,0.54,0.79,0.27,0.92,-2.2,-3.66,360,284,204,442,367
823,0.55,0.8,0.26,0.43,-2.99,-2.38,361,283,207,442,362
824,0.55,0.79,0.25,0.12,-4.64,-1.83,359,296,206,445,363
825,0.56,0.79,0.24,0.79,-3.17,-3.54,361,284,201,443,363
826,0.55,0.8,0.25,-0.12,-2.69,-2.5,360,282,209,441,364
827,0.57,0.8,0.25,2.01,-3.66,-2.56,362,282,209,442,364
828,0.55,0.79,0.25,0.18,-2.2,-1.65,362,281,207,445,364
829,0.57,0.8,0.25,-0.98,-2.26,-2.75,359,284,206,442,365
830,0.56,0.79,0.26,-0.98,-1.22,-2.75,356,283,206,440,365
831,0.57,0.79,0.26,2.93,-3.36,-2.62,359,281,204,443,364
832,0.56,0.78,0.25,1.46,-2.93,-1.95,359,282,206,441,367
833,0.56,0.78,0.25,-0.67,-2.38,-2.93,359,280,206,440,365
834,0.57,0.78,0.25,0.18,-1.77,-1.83,360,283,208,441,366
835,0.57,0.78,0.25,0.37,-2.26,-3.23,362,279,209,442,364
836,0.57,0.79,0.25,0.12,-2.44,-2.56,358,282,207,444,365
837,0.56,0.79,0.25,-0.12,-2.5,-2.14,361,283,210,447,365
838,0.56,0.78,0.26,-0.79,-2.75,-2.38,361,281,208,441,366
839,0.58,0.77,0.25,-0.43,-1.89,-1.95,360,281,203,442,368
840,0.59,0.78,0.27,-2.62,-3.78,-2.32,360,281,214,441,361
841,0.58,0.77,0.28,-2.93,-1.77,-3.17,360,284,202,443,362
842,0.56,0.75,0.29,-0.92,-5.25,-4.88,360,285,206,441,362
843,0.58,0.75,0.29,-1.71,-4.33,-2.01,359,282,206,444,362
844,0.56,0.76,0.3,0.0,-3.66,-2.01,381,283,207,442,363
845,0.58,0.74,0.29,-0.31,-3.91,-2.32,364,281,207,443,363
846,0.57,0.76,0.3,-1.46,-2.2,-3.3,359,298,209,441,363
847,0.59,0.76,0.29,2.32,-5.07,-5.92,360,281,206,442,365
848,0.56,0.78,0.28,7.02,1.59,-8.18,361,282,208,440,359
849,0.54,0.82,0.28,-5.98,2.93,-12.39,358,281,204,444,360
850,0.54,0.83,0.29,2.87,-8.12,-6.96,361,281,219,441,362
851,0.46,0.85,0.27,3.36,1.89,-9.89,359,282,212,434,363
852,0.49,0.85,0.26,1.77,-2.38,-0.06,357,281,206,438,363
853,0.49,0.85,0.26,-1.04,-1.89,-3.66,359,284,206,444,364
854,0.46,0.85,0.26,-0.24,-2.99,-3.6,359,281,205,442,366
855,0.46,0.86,0.27,0.61,-2.93,-0.55,361,280,203,443,360
856,0.46,0.84,0.26,1.83,-3.11,-0.24,359,284,206,439,366
857,0.46,0.84,0.26,0.31,-2.5,-2.87,358,284,209,438,364
858,0.46,0.84,0.28,-2.08,-2.75,-2.5,368,284,206,438,365
859,0.47,0.84,0.27,2.14,-3.17,-2.99,359,281,204,440,364
860,0.48,0.85,0.26,3.17,-4.88,-3.17,357,281,206,444,365
861,0.48,0.84,0.27,-0.37,-1.53,-3.17,359,284,208,446,363
862,0.48,0.85,0.25,2.93,-0.79,-5.62,359,283,208,445,365
863,0.47,0.84,0.25,1.71,-1.83,-2.56,358,276,211,440,362
864,0.47,0.85,0.26,-0.92,-4.09,-2.26,359,284,206,445,365
865,0.48,0.83,0.27,0.06,-2.32,-2.14,358,284,207,437,361
866,0.49,0.85,0.26,0.31,-2.44,-5.55,360,281,204,441,363
867,0.48,0.85,0.26,3.48,-6.9,-2.93,357,284,207,445,364
868,0.48,0.84,0.25,0.85,-3.36,-2.44,358,283,206,446,363
869,0.46,0.83,0.25,1.53,-2.69,-2.26,361,288,209,441,366
870,0.47,0.86,0.25,0.73,-5.43,-3.6,358,278,206,443,359
871,0.43,0.87,0.25,-0.31,-4.7,-1.4,357,280,205,442,361
872,0.44,0.86,0.24,-0.61,-3.17,1.04,360,282,215,441,363
873,0.47,0.85,0.24,-2.08,-6.47,1.34,360,281,205,442,361
874,0.49,0.84,0.24,-0.31,-0.31,0.24,366,282,205,441,363
875,0.5,0.79,0.23,-0.92,-5.86,-1.59,359,282,206,442,359
876,0.54,0.82,0.23,0.49,-2.62,-1.59,358,287,209,441,359
877,0.51,0.83,0.22,-0.67,-5.13,-3.72,358,281,207,439,360
878,0.5,0.84,0.21,0.67,-4.27,-8.54,360,281,208,446,361
879,0.46,0.87,0.21,1.77,-1.1,-7.75,358,281,208,443,362
880,0.43,0.86,0.22,-0.55,-2.44,2.56,359,284,207,442,364
881,0.47,0.84,0.21,0.31,-4.27,1.95,357,283,206,441,366
882,0.47,0.84,0.21,-0.12,-1.89,-1.59,353,282,206,443,363
883,0.52,0.84,0.23,2.14,-4.7,-5.49,356,281,207,441,362
884,0.51,0.82,0.21,-2.69,-3.78,-0.67,358,282,206,445,365
885,0.5,0.85,0.23,3.6,-3.48,-5.55,356,281,208,445,365
886,0.49,0.85,0.22,0.18,-1.22,-1.95,357,282,207,440,363
887,0.48,0.83,0.23,-0.31,-4.94,-4.27,359,285,205,446,361
888,0.5,0.84,0.23,2.32,-3.85,-1.71,360,280,209,447,363
889,0.5,0.84,0.23,-0.43,-2.93,-2.56,357,281,211,444,365
890,0.5,0.83,0.25,-1.28,-3.11,-1.46,360,282,206,438,365
891,0.5,0.82,0.25,-2.26,0.31,-1.04,360,281,213,440,363
892,0.53,0.82,0.25,-0.43,-5.74,-2.32,361,284,205,440,359
893,0.51,0.82,0.25,-1.53,-2.5,-1.65,356,282,220,441,362
894,0.53,0.82,0.25,-1.28,-2.44,-3.42,351,280,208,440,365
895,0.5,0.81,0.25,-1.16,-2.26,-0.06,359,281,206,441,364
896,0.52,0.82,0.24,0.18,-3.05,-0.98,359,283,205,441,360
897,0.53,0.82,0.25,0.24,-3.11,-3.05,353,284,206,444,363
898,0.52,0.81,0.25,1.71,-3.3,-2.62,357,285,210,444,364
899,0.52,0.79,0.24,2.14,-3.05,-3.23,362,284,206,442,364
900,0.51,0.82,0.24,1.59,-3.23,-2.62,355,294,207,438,363
901,0.51,0.82,0.24,2.2,-3.48,-2.32,357,279,206,448,365
902,0.52,0.83,0.24,0.73,-5.19,-2.93,355,283,206,440,360
903,0.51,0.82,0.25,0.79,0.61,-2.56,357,281,208,440,364
904,0.51,0.82,0.24,-0.12,-3.66,-2.38,358,281,208,441,365
905,0.52,0.83,0.25,-1.16,-3.17,-2.69,357,294,205,442,363
906,0.51,0.81,0.25,-0.18,-2.87,-1.65,357,282,204,441,366
907,0.52,0.82,0.25,-0.37,-2.87,-2.69,358,283,208,443,363
908,0.52,0.82,0.25,0.12,-2.62,-3.3,360,281,208,443,367
909,0.52,0.82,0.26,0.18,-2.26,-1.4,358,283,208,445,362
910,0.52,0.81,0.25,0.37,-2.93,-2.01,361,281,209,443,366
911,0.52,0.82,0.26,0.43,-2.44,-2.93,364,280,203,438,363
912,0.51,0.82,0.26,1.1,-3.11,-2.99,359,283,206,439,365
913,0.51,0.82,0.25,-0.12,-1.83,-3.3,357,281,209,442,362
914,0.52,0.82,0.25,3.05,-2.44,-3.78,359,283,205,445,361
915,0.51,0.83,0.27,-0.06,-1.83,-2.08,356,283,203,443,363
916,0.52,0.78,0.24,4.33,-7.14,0.98,358,282,209,443,363
917,0.51,0.8,0.21,0.18,-6.59,-1.95,355,282,206,444,362
918,0.52,0.81,0.22,0.98,-3.97,-1.53,359,288,211,441,363
919,0.51,0.83,0.23,-0.67,-1.1,-5.07,356,284,209,444,362
920,0.52,0.83,0.23,1.95,-2.93,-0.18,356,280,206,441,366
921,0.53,0.83,0.21,-0.67,-3.05,-1.65,355,283,206,437,364
922,0.52,0.81,0.22,0.55,-2.75,-2.93,357,284,206,443,362
923,0.53,0.83,0.23,1.77,-3.42,-2.87,358,279,211,442,363
924,0.52,0.81,0.22,-0.31,-3.36,-0.92,353,282,209,444,365
925,0.52,0.81,0.22,-0.67,-2.08,-1.4,357,284,205,444,364
926,0.52,0.81,0.23,0.0,-2.69,-2.75,359,282,206,442,363
927,0.52,0.82,0.22,0.24,-2.2,-3.48,359,283,207,436,361
928,0.52,0.82,0.23,0.0,-3.97,-1.77,357,282,205,443,365
929,0.52,0.82,0.24,-0.37,-1.53,-2.69,358,284,208,445,366
930,0.53,0.81,0.24,-2.99,0.37,1.77,358,284,206,450,359
931,0.54,0.77,0.26,-10.38,-9.46,2.38,357,284,207,446,366
932,0.6,0.84,0.26,-8.97,0.0,-10.99,357,282,209,444,365
933,0.5,0.83,0.26,7.63,1.53,-4.15,357,283,210,443,363
934,0.5,0.82,0.27,-8.79,4.09,-9.46,350,280,207,436,363
935,0.48,0.81,0.29,-1.04,-4.82,0.49,356,282,208,443,375
936,0.5,0.81,0.28,0.06,-4.15,-0.98,358,282,209,445,363
937,0.5,0.82,0.28,-0.31,-2.81,0.79,357,282,210,442,362
938,0.5,0.82,0.29,-0.49,-3.54,-1.46,354,281,208,445,363
939,0.51,0.79,0.28,-1.22,-4.33,-1.46,356,285,208,441,365
940,0.51,0.81,0.29,0.85,-2.01,-2.62,356,285,209,441,361
941,0.52,0.82,0.29,0.73,-1.65,-3.11,359,300,210,443,363
942,0.51,0.82,0.28,0.92,-2.81,-3.11,356,285,204,442,362
943,0.5,0.81,0.28,1.04,-2.93,-2.08,359,282,209,444,365
944,0.51,0.82,0.28,0.79,-1.16,-1.65,357,284,211,440,364
945,0.51,0.82,0.27,1.1,-3.72,-3.23,359,282,206,445,362
946,0.5,0.82,0.28,-0.85,-2.32,-2.69,363,281,205,445,362
947,0.51,0.81,0.28,-1.53,-3.17,-2.01,357,282,206,445,363
948,0.5,0.81,0.28,-0.49,-3.48,-3.42,359,282,209,441,362
949,0.52,0.81,0.27,1.89,-4.33,-2.2,357,278,206,443,363
950,0.51,0.81,0.28,-0.12,-2.69,-3.48,358,278,210,442,363
951,0.52,0.82,0.27,0.18,-3.23,-2.14,356,283,206,442,360
952,0.52,0.82,0.27,0.98,-2.14,-3.42,359,284,221,439,364
953,0.53,0.83,0.27,-0.12,-3.97,-2.93,359,286,208,445,365
954,0.52,0.81,0.28,0.98,-2.69,-1.77,355,281,208,443,360
955,0.52,0.82,0.27,0.43,-3.91,-1.4,348,284,206,437,360
956,0.52,0.81,0.28,1.28,-4.15,-2.62,355,280,206,444,359
957,0.52,0.81,0.26,-0.06,-3.17,-2.01,358,283,209,441,364
958,0.53,0.81,0.26,0.12,-2.5,-3.05,359,282,205,442,359
959,0.52,0.81,0.27,1.59,-1.22,-2.26,357,284,209,442,359
960,0.52,0.82,0.27,0.24,-2.38,-3.11,357,282,209,446,364
961,0.53,0.81,0.26,1.65,-1.53,-2.32,359,285,209,442,365
962,0.52,0.81,0.27,0.85,-3.42,-2.69,358,282,206,447,364
963,0.52,0.81,0.27,1.46,-4.46,-2.38,357,282,206,438,362
964,0.52,0.81,0.26,0.43,-2.99,-1.83,360,282,206,446,362
965,0.53,0.82,0.27,3.97,-1.77,0.31,370,283,209,441,362
966,0.53,0.81,0.26,0.85,-4.09,-3.11,361,283,210,436,363
967,0.53,0.82,0.26,0.43,-2.26,-1.34,358,281,210,442,364
968,0.53,0.79,0.27,1.77,-1.04,-2.99,358,281,206,443,363
969,0.53,0.8,0.28,-0.98,-3.3,-1.95,357,282,209,447,366
970,0.53,0.8,0.28,1.34,-2.26,-1.77,352,282,207,447,362
971,0.54,0.79,0.28,-1.77,-2.69,-3.36,355,282,206,446,359
972,0.53,0.81,0.28,0.85,-3.17,-2.44,358,285,210,445,361
973,0.53,0.8,0.28,0.49,-2.14,-2.81,357,280,210,440,359
974,0.53,0.81,0.28,1.1,-2.38,-3.11,352,282,210,442,363
975,0.51,0.81,0.27,-0.06,-3.3,-3.6,367,282,208,442,362
976,0.52,0.81,0.27,-0.37,-2.2,-2.81,358,283,209,437,363
977,0.51,0.81,0.29,0.18,-3.54,-2.32,357,282,210,442,363
978,0.52,0.8,0.28,-0.18,-3.91,-3.3,360,285,209,441,370
979,0.52,0.8,0.27,0.49,-2.32,-2.62,360,285,206,445,361
980,0.52,0.81,0.28,-0.85,-4.03,-3.17,357,284,209,437,366
981,0.53,0.81,0.27,0.98,-1.77,-2.87,357,281,206,440,365
982,0.52,0.81,0.28,0.18,-3.36,-2.32,364,281,211,441,362
983,0.52,0.8,0.27,-0.06,-2.26,-1.77,358,285,216,454,359
984,0.52,0.8,0.28,0.43,-2.99,-2.32,357,284,208,438,364
985,0.52,0.81,0.28,0.12,-3.36,-1.71,359,282,211,442,359
986,0.52,0.81,0.27,0.24,-3.05,-2.14,360,283,208,446,363
987,0.52,0.81,0.27,1.16,-2.75,-1.95,359,285,208,444,360
988,0.53,0.82,0.27,1.04,-2.26,-1.89,357,282,207,442,364
989,0.53,0.81,0.26,0.31,-2.81,-2.56,357,286,210,441,365
990,0.52,0.8,0.26,0.79,-2.62,-2.08,357,283,208,439,364
991,0.53,0.81,0.26,-0.18,-2.87,-2.99,360,286,207,446,364
992,0.53,0.81,0.27,-0.31,-1.59,-2.87,357,284,209,439,365
993,0.53,0.81,0.28,-0.37,-3.11,-2.93,360,282,206,442,362
994,0.52,0.79,0.26,-0.18,-3.97,-1.83,360,285,207,445,359
995,0.55,0.81,0.26,5.0,-7.51,0.12,360,285,208,445,362
996,0.53,0.81,0.25,2.2,-4.64,-1.83,355,282,209,443,363
997,0.55,0.82,0.24,2.56,-1.22,-3.36,359,282,208,442,365
998,0.55,0.79,0.24,0.79,-3.05,-4.52,360,285,209,441,365
999,0.53,0.82,0.25,1.04,-2.99,-2.62,361,285,206,446,363
1000,0.54,0.82,0.24,1.71,-2.2,-3.72,356,282,204,436,362
1001,0.52,0.82,0.26,-1.77,-1.65,-2.32,361,281,209,442,360
1002,0.54,0.82,0.25,-0.06,-2.56,-2.38,356,282,208,442,363
1003,0.53,0.81,0.25,0.24,-2.01,-1.89,397,283,203,442,362
1004,0.54,0.82,0.25,2.69,-1.46,-3.05,357,282,203,443,359
1005,0.52,0.82,0.26,0.24,-3.54,-2.81,360,281,208,442,363
1006,0.52,0.8,0.25,0.92,-1.04,-0.79,358,278,208,438,363
1007,0.52,0.8,0.25,-0.61,-3.54,-1.89,358,279,208,438,360
1008,0.54,0.79,0.27,0.79,-0.92,-2.5,358,283,209,445,364
1009,0.53,0.79,0.28,-0.49,-0.98,-4.76,360,285,208,441,362
1010,0.58,0.83,0.27,1.28,-3.17,-6.35,356,285,206,447,363
1011,0.56,0.83,0.27,1.4,-5.25,-5.37,358,283,206,441,366
1012,0.53,0.8,0.28,-0.92,-1.89,-0.49,359,283,207,443,364
1013,0.54,0.8,0.27,-0.12,-3.11,-1.77,356,280,207,446,364
1014,0.55,0.8,0.28,-0.18,-2.32,-3.66,358,284,210,441,363
1015,0.54,0.8,0.28,0.67,-2.5,-3.17,357,281,209,441,365
1016,0.55,0.8,0.27,0.92,-3.17,-3.3,361,283,208,443,365
1017,0.54,0.8,0.28,0.31,-3.11,-2.26,358,283,207,439,360
1018,0.54,0.8,0.28,0.0,-2.69,-2.38,360,285,205,443,361
1019,0.54,0.79,0.28,0.49,-2.26,-3.23,357,286,207,441,366
1020,0.5,0.8,0.28,0.0,-4.27,-4.58,360,283,206,447,357
1021,0.5,0.81,0.3,3.91,-2.87,-1.71,358,282,208,437,364
1022,0.52,0.8,0.27,0.55,-5.86,-1.53,359,282,209,445,365
1023,0.56,0.82,0.26,0.24,-4.09,-0.49,356,281,209,438,366
1024,0.57,0.82,0.25,0.92,-4.64,-2.38,359,283,207,445,367
1025,0.54,0.78,0.27,-0.67,-3.78,-4.88,361,281,208,444,363
1026,0.42,0.89,0.19,-5.68,-10.68,-8.79,380,276,206,439,360
1027,0.37,0.88,0.28,2.93,-1.4,-6.41,382,275,200,447,358
1028,0.38,0.94,0.27,-2.5,-1.77,-2.14,384,280,198,444,362
1029,0.39,0.88,0.3,-0.06,-1.16,-3.36,381,277,201,442,360
1030,0.37,0.95,0.29,2.44,1.46,1.34,378,277,205,443,359
1031,0.35,0.88,0.31,-5.74,-7.02,-2.08,378,280,206,443,361
1032,0.41,0.82,0.27,-12.51,5.49,-4.64,378,277,202,438,358
1033,0.37,0.86,0.33,-0.79,8.61,6.23,367,278,205,440,355
1034,0.42,0.92,0.29,-8.18,-10.86,7.02,367,277,201,437,354
1035,0.42,0.8,0.33,0.49,-0.61,-1.4,379,277,205,445,358
1036,0.42,0.82,0.32,0.67,8.42,-13.67,367,277,205,439,355
1037,0.45,0.85,0.35,4.64,-4.58,-3.78,370,276,201,438,358
1038,0.42,0.84,0.33,-2.08,-2.56,-0.73,370,278,209,447,359
1039,0.43,0.84,0.34,0.0,-1.1,1.71,369,280,200,457,357
1040,0.44,0.83,0.34,2.44,-3.05,-1.46,370,278,202,445,359
1041,0.44,0.84,0.33,-1.28,-3.11,-0.31,368,281,202,442,357
1042,0.43,0.82,0.35,-0.55,-3.97,-1.95,370,280,203,444,358
1043,0.44,0.83,0.33,2.56,-2.81,-3.23,371,281,199,447,358
1044,0.46,0.84,0.3,5.98,-7.75,-1.22,368,277,202,438,357
1045,0.46,0.83,0.32,2.56,-2.62,-3.3,369,275,202,443,358
1046,0.48,0.85,0.3,-0.12,-1.53,-6.9,370,279,203,444,360
1047,0.47,0.83,0.28,-0.79,-2.62,0.37,371,288,202,439,356
1048,0.5,0.83,0.29,-1.22,-3.17,-1.65,368,281,203,443,360
1049,0.5,0.82,0.29,3.23,-3.42,-2.08,370,278,203,445,353
1050,0.49,0.82,0.29,0.18,-1.34,-0.73,366,278,202,444,357
1051,0.49,0.82,0.31,-0.31,0.12,-4.39,365,278,205,442,356
1052,0.49,0.82,0.3,2.5,-2.81,-5.25,370,280,205,444,357
1053,0.48,0.82,0.3,0.67,-0.73,-3.17,365,285,202,442,358
1054,0.49,0.85,0.31,-2.44,-0.31,-3.36,365,278,204,445,361
1055,0.46,0.86,0.31,2.87,-4.88,-7.57,368,277,205,450,358
1056,0.44,0.85,0.31,-3.23,-0.06,-9.28,367,275,202,437,358
1057,0.46,0.8,0.29,0.79,-12.57,-6.16,366,279,201,448,359
1058,0.46,0.8,0.27,3.72,-2.26,-0.67,367,278,204,442,360
1059,0.5,0.85,0.23,6.35,-5.74,-2.44,362,277,205,440,360
1060,0.5,0.82,0.24,-4.33,-1.95,-0.49,367,280,205,441,358
1061,0.5,0.82,0.25,-1.46,-6.9,-3.05,368,277,202,437,356
1062,0.51,0.81,0.24,-7.81,-2.69,-0.98,371,276,203,442,358
1063,0.52,0.82,0.24,1.95,-1.83,-3.05,370,278,204,442,360
1064,0.5,0.81,0.25,0.12,-2.62,-2.44,371,275,201,442,355
1065,0.5,0.84,0.26,3.17,0.24,-3.66,369,277,204,439,357
1066,0.53,0.86,0.25,2.5,0.85,-4.88,369,277,202,442,358
1067,0.51,0.86,0.23,4.64,0.0,-1.95,368,278,201,443,360
1068,0.51,0.86,0.27,0.55,-0.24,-2.44,364,277,205,443,356
1069,0.54,0.82,0.27,6.77,-1.83,-5.49,368,279,204,446,355
1070,0.51,0.79,0.25,3.48,-8.18,-2.81,365,280,202,446,358
1071,0.5,0.82,0.27,-5.8,-7.51,-3.54,379,280,203,444,358
1072,0.52,0.81,0.25,0.85,-8.06,-4.03,368,280,201,443,358
1073,0.5,0.82,0.25,6.65,-3.72,-4.21,370,278,202,437,358
1074,0.51,0.85,0.27,4.15,-1.65,-6.29,370,277,204,443,356
1075,0.49,0.86,0.26,5.92,-4.39,-1.71,372,278,203,437,359
1076,0.49,0.82,0.24,0.31,-4.33,-2.44,367,277,199,446,357
1077,0.5,0.84,0.24,0.49,-2.38,-2.2,371,278,203,440,361
1078,0.52,0.84,0.24,2.81,-3.3,-3.48,369,277,205,442,358
1079,0.5,0.83,0.24,2.01,-1.77,-3.48,368,278,200,443,357
1080,0.51,0.82,0.23,2.93,-1.83,-2.26,368,280,202,448,360
1081,0.52,0.81,0.23,-4.46,3.78,-5.86,367,277,205,442,360
1082,0.5,0.82,0.26,-0.67,-2.69,0.24,396,279,205,442,358
1083,0.51,0.82,0.27,2.26,-3.66,-2.44,364,280,204,442,361
1084,0.5,0.81,0.27,1.34,0.12,-4.27,368,280,202,443,361
1085,0.5,0.81,0.26,1.59,-2.93,-3.05,368,281,201,446,362
1086,0.5,0.82,0.27,-0.24,-3.78,-2.93,365,281,203,446,359
1087,0.49,0.82,0.27,0.06,-4.76,-2.2,370,278,201,445,359
1088,0.49,0.83,0.28,1.4,-2.75,-2.62,366,278,199,442,355
1089,0.47,0.81,0.26,-1.89,-1.71,-1.59,367,275,205,440,361
1090,0.51,0.83,0.24,1.4,-1.16,-2.08,365,277,197,443,355
1091,0.49,0.83,0.24,1.95,-3.72,-1.04,357,279,204,442,361
1092,0.5,0.83,0.24,1.04,-3.97,-0.92,365,277,204,445,356
1093,0.49,0.82,0.24,-0.49,-2.08,-0.67,363,276,205,442,357
1094,0.51,0.83,0.25,-0.24,-2.62,-2.62,370,277,203,448,360
1095,0.51,0.83,0.26,-1.46,-2.2,-1.34,370,279,204,444,359
1096,0.52,0.83,0.25,-0.12,-3.6,-1.95,369,279,204,443,361
1097,0.51,0.82,0.25,1.16,-2.87,-3.05,366,281,202,441,359
1098,0.51,0.82,0.25,-1.16,-2.38,-1.65,370,276,217,442,359
1099,0.52,0.82,0.25,0.31,-3.3,-2.81,366,277,202,442,355
1100,0.52,0.82,0.25,-1.16,-2.56,-2.08,368,279,202,448,360
1101,0.51,0.83,0.26,1.04,-2.5,-2.56,368,281,204,442,358
1102,0.52,0.82,0.26,2.87,-2.26,-1.83,367,280,204,442,360
1103,0.52,0.82,0.25,1.1,-1.53,-3.17,365,278,207,444,360
1104,0.52,0.83,0.25,2.81,-5.07,-2.38,367,277,204,439,360
1105,0.51,0.82,0.26,1.59,-0.55,-3.23,365,279,203,437,354
1106,0.5,0.81,0.27,-0.73,-2.26,1.34,367,280,205,442,359
1107,0.52,0.82,0.27,-0.49,-1.83,-1.71,366,279,201,440,358
1108,0.51,0.82,0.27,0.98,-4.09,-3.17,368,278,204,445,360
1109,0.52,0.81,0.26,0.06,-3.11,-2.2,369,281,205,442,360
1110,0.52,0.82,0.26,0.06,-3.3,-2.01,365,284,205,445,358
1111,0.51,0.82,0.27,-0.43,-2.14,-2.08,367,278,206,441,355
1112,0.52,0.82,0.25,3.05,-2.87,-4.94,366,280,205,448,365
1113,0.51,0.82,0.25,2.01,-2.87,-1.89,365,276,201,437,361
1114,0.5,0.82,0.25,-0.55,-1.95,-2.93,369,281,203,442,360
1115,0.52,0.82,0.24,-0.12,-3.3,-1.77,371,278,202,443,359
1116,0.51,0.83,0.26,0.12,-3.23,-2.44,366,279,202,441,356
1117,0.52,0.83,0.24,0.0,-2.38,-2.75,370,278,204,437,357
1118,0.52,0.82,0.25,-0.18,-3.05,-0.79,367,279,203,443,359
1119,0.52,0.81,0.24,1.22,-3.78,-1.16,364,280,207,441,360
1120,0.51,0.83,0.24,1.46,-2.01,-2.69,369,283,205,442,362
1121,0.53,0.83,0.25,-0.61,-5.62,-0.37,365,279,219,438,361
1122,0.52,0.82,0.25,1.22,-1.34,-3.42,370,278,202,442,359
1123,0.51,0.83,0.25,-2.75,-3.72,-2.32,369,280,202,445,361
1124,0.53,0.8,0.25,0.0,-3.91,-1.34,367,278,202,436,359
1125,0.52,0.81,0.24,-1.4,-3.6,-1.28,368,279,201,451,357
1126,0.54,0.81,0.25,2.26,-3.05,-0.79,367,277,204,437,360
1127,0.52,0.8,0.25,-1.34,-1.65,-1.16,368,281,207,442,359
1128,0.53,0.82,0.27,1.04,-2.56,-2.38,368,281,202,443,359
1129,0.54,0.8,0.26,0.61,-2.01,-3.23,378,283,210,444,359
1130,0.53,0.81,0.27,0.61,-1.28,-2.62,365,278,202,446,360
1131,0.51,0.81,0.26,0.24,-3.17,-3.05,369,278,203,440,360
1132,0.52,0.8,0.26,-1.04,-3.6,-4.64,364,277,204,444,357
1133,0.52,0.81,0.27,0.18,-3.3,-2.81,369,282,206,442,362
1134,0.52,0.8,0.25,1.28,-4.46,-4.27,369,279,203,440,360
1135,0.52,0.81,0.26,0.12,-2.81,-1.89,366,280,203,442,361
1136,0.51,0.82,0.26,-1.83,-2.99,-2.81,368,281,204,443,360
1137,0.52,0.81,0.25,0.49,-3.05,-2.44,367,288,205,440,362
1138,0.53,0.83,0.29,-6.35,-2.87,2.01,368,279,204,440,360
1139,0.55,0.82,0.27,-2.38,-5.25,-1.83,367,282,202,445,360
1140,0.53,0.79,0.26,-1.28,-2.44,-3.97,368,278,207,435,360
1141,0.53,0.82,0.28,1.34,-1.53,2.38,368,279,207,443,361
1142,0.54,0.79,0.27,0.73,-3.66,-1.34,366,279,208,446,360
1143,0.53,0.8,0.28,2.01,-0.12,-4.03,371,278,219,442,359
1144,0.53,0.76,0.27,-3.78,-6.47,-3.85,368,281,207,441,359
1145,0.52,0.77,0.28,-1.28,-5.92,-4.21,367,278,206,440,358
1146,0.52,0.79,0.28,-1.65,-2.75,-2.69,370,278,203,439,361
1147,0.54,0.79,0.29,0.67,-3.36,-1.1,370,279,209,441,356
1148,0.55,0.8,0.29,0.61,-3.54,-2.2,370,279,203,441,360
1149,0.56,0.8,0.28,2.99,-3.48,-3.66,370,281,217,436,356
1150,0.53,0.8,0.28,2.2,-2.99,-4.09,368,277,204,443,359
1151,0.56,0.79,0.26,0.55,-4.58,-1.89,369,276,205,439,359
1152,0.55,0.78,0.29,-1.4,-3.48,0.79,370,279,204,441,358
1153,0.54,0.77,0.28,-3.97,-4.52,-3.05,368,279,206,445,360
1154,0.53,0.78,0.28,4.52,-0.85,-6.29,370,278,208,439,359
1155,0.54,0.8,0.29,-1.4,-2.62,-3.23,372,280,206,445,364
1156,0.55,0.8,0.28,1.89,-3.05,-3.85,367,279,202,440,360
1157,0.56,0.82,0.27,4.39,-1.22,-3.66,368,281,206,440,363
1158,0.55,0.81,0.28,1.77,-4.64,-4.58,368,282,201,440,354
1159,0.56,0.81,0.26,4.33,-3.42,-1.71,370,280,206,442,358
1160,0.55,0.81,0.27,1.89,-3.72,-6.23,369,280,203,444,361
1161,0.53,0.79,0.27,-2.01,-4.21,-2.5,369,279,207,441,361
1162,0.52,0.81,0.27,-3.17,-2.38,-2.2,367,280,203,441,362
1163,0.55,0.79,0.29,2.56,-2.5,-2.26,369,281,203,442,362
1164,0.54,0.8,0.29,1.16,-2.01,-3.23,369,278,206,441,360
1165,0.55,0.79,0.26,1.65,-3.78,-0.61,369,278,203,441,360
1166,0.53,0.79,0.27,1.04,0.31,-4.52,368,279,204,439,358
1167,0.54,0.81,0.26,1.53,-3.6,-0.18,371,282,207,442,358
1168,0.54,0.8,0.27,-0.85,-2.32,-1.28,370,280,207,442,362
1169,0.56,0.79,0.26,1.83,-5.19,-1.71,369,279,206,442,359
1170,0.55,0.8,0.26,0.98,-4.27,-2.5,371,279,218,442,362
1171,0.55,0.79,0.26,-0.61,-3.54,-3.05,371,282,206,436,356
1172,0.54,0.79,0.27,-3.54,-2.5,-0.73,368,278,204,441,359
1173,0.55,0.8,0.26,0.31,-3.85,-1.95,368,276,205,436,359
1174,0.54,0.8,0.27,-1.77,-1.65,-2.32,369,279,201,440,360
1175,0.53,0.8,0.27,1.46,-2.2,-2.93,372,280,204,436,360
1176,0.55,0.79,0.27,0.18,-1.4,-2.75,370,282,203,439,359
1177,0.55,0.8,0.27,-0.24,-2.32,-1.22,369,285,204,445,356
1178,0.55,0.78,0.28,2.2,-3.05,-2.75,368,281,208,445,361
1179,0.55,0.79,0.27,1.71,-3.3,-3.54,369,279,204,442,361
1180,0.54,0.8,0.27,1.4,-4.39,-5.31,368,281,204,442,360
1181,0.56,0.82,0.28,3.78,-2.26,-2.14,369,281,207,441,360
1182,0.55,0.8,0.26,0.24,-4.33,-3.6,369,278,204,440,360
1183,0.54,0.81,0.27,-2.14,-3.66,-6.71,367,285,204,442,361
1184,0.54,0.81,0.28,-2.01,-2.75,-0.31,370,280,201,436,356
1185,0.56,0.81,0.28,0.73,-4.76,-3.78,367,288,203,439,360
1186,0.55,0.8,0.29,-1.1,-1.28,-2.38,370,276,205,445,357
1187,0.54,0.8,0.28,3.05,-4.03,1.04,367,279,213,441,362
1188,0.56,0.78,0.27,-0.43,-3.36,-1.65,368,281,201,445,356
1189,0.55,0.78,0.28,0.43,-1.95,-4.09,371,284,209,443,356
1190,0.55,0.79,0.27,0.37,-2.75,-2.44,368,282,209,445,360
1191,0.55,0.79,0.29,1.04,-3.97,-2.75,372,275,204,442,358
1192,0.56,0.78,0.28,1.28,-4.15,-2.62,368,277,204,441,362
1193,0.55,0.79,0.29,0.18,-2.38,-2.56,368,281,209,444,361
1194,0.55,0.79,0.28,-0.31,-3.17,-4.58,370,282,207,437,358
1195,0.56,0.79,0.26,1.83,-3.3,-2.14,368,277,206,441,362
1196,0.55,0.79,0.28,0.12,-3.72,-2.38,366,282,203,442,362
1197,0.56,0.78,0.27,-1.77,-2.32,-2.99,367,282,207,439,360
1198,0.55,0.79,0.27,1.71,-2.93,-1.83,367,279,203,441,361
1199,0.55,0.78,0.27,-0.61,-2.5,-2.81,368,281,204,438,360
1200,0.55,0.78,0.27,1.16,-3.78,-3.3,375,279,205,444,357
1201,0.54,0.8,0.28,1.59,-3.3,-0.67,368,278,204,437,357
1202,0.55,0.79,0.27,1.53,-2.26,-2.14,368,280,203,442,361
1203,0.55,0.8,0.26,1.77,-2.26,-3.17,368,280,204,442,361
1204,0.56,0.8,0.26,-1.4,-1.71,-3.6,365,281,203,442,361
1205,0.56,0.8,0.26,-0.12,-3.42,-2.01,370,282,205,442,362
1206,0.56,0.81,0.27,1.22,-2.2,-4.03,369,280,207,441,361
1207,0.56,0.8,0.26,2.14,-3.42,-1.83,370,279,207,442,357
1208,0.55,0.8,0.25,-0.43,-3.23,-2.99,369,279,203,435,359
1209,0.56,0.78,0.26,-2.69,-3.66,-2.69,370,279,207,441,361
1210,0.55,0.79,0.26,0.61,-2.01,-1.77,371,275,203,444,360
1211,0.55,0.79,0.27,-0.06,-2.87,-3.54,365,279,204,444,364
1212,0.55,0.8,0.26,1.53,-2.87,-2.44,366,280,203,445,364
1213,0.55,0.8,0.27,0.24,-3.48,-2.81,368,280,211,442,359
1214,0.54,0.8,0.28,-0.18,-2.5,-1.71,368,280,207,443,362
1215,0.54,0.79,0.28,-0.49,-2.62,-1.65,367,281,207,440,361
1216,0.54,0.79,0.28,-2.26,-2.69,-1.83,371,279,202,444,362
1217,0.55,0.78,0.28,-0.73,-2.38,-2.08,368,280,206,442,361
1218,0.55,0.79,0.29,-0.79,-2.44,-3.3,365,282,206,442,362
1219,0.55,0.78,0.28,-0.37,-3.11,-2.93,369,280,207,442,363
1220,0.54,0.79,0.28,1.4,-3.17,-2.2,374,281,205,438,361
1221,0.54,0.79,0.29,-0.37,-1.65,-2.93,371,282,207,436,357
1222,0.55,0.79,0.28,1.16,-2.14,-2.75,369,280,207,440,363
1223,0.55,0.8,0.28,1.4,-3.48,-2.99,371,279,208,445,360
1224,0.54,0.79,0.28,-0.12,-2.93,-2.56,367,279,205,444,360
1225,0.55,0.79,0.28,0.98,-4.88,-1.28,370,280,208,441,362
1226,0.53,0.78,0.28,-0.06,-2.32,-2.62,369,282,205,440,362
1227,0.54,0.8,0.28,-0.73,-1.34,-2.44,371,279,207,445,363
1228,0.55,0.8,0.29,0.73,-3.11,-2.62,366,282,203,440,359
1229,0.54,0.79,0.28,-0.49,-2.01,-3.6,367,280,206,441,360
1230,0.54,0.8,0.28,-1.16,-2.44,-2.93,369,281,207,442,361
1231,0.54,0.8,0.29,0.67,-1.83,-1.53,369,280,205,446,362
1232,0.56,0.8,0.29,-0.92,-3.23,-1.65,365,278,203,440,362
1233,0.55,0.79,0.28,-0.24,-2.14,-2.93,371,279,205,443,361
1234,0.54,0.78,0.3,1.34,-3.48,-2.32,382,282,204,443,361
1235,0.55,0.79,0.29,1.22,-2.69,-2.62,366,285,206,442,361
1236,0.55,0.79,0.29,-0.24,-3.11,-2.2,368,281,204,442,363
1237,0.57,0.79,0.3,1.34,-1.83,-1.95,368,284,204,445,362
1238,0.56,0.79,0.3,0.37,-3.42,-2.93,372,279,206,438,363
1239,0.54,0.77,0.3,-2.32,-4.15,-2.99,373,280,206,440,362
1240,0.55,0.79,0.31,-0.24,-1.89,-1.53,369,283,203,440,361
1241,0.55,0.77,0.31,-0.67,-2.5,-0.73,370,283,208,442,361
1242,0.57,0.78,0.3,0.18,-2.93,-2.2,367,282,205,440,362
1243,0.55,0.77,0.32,-0.79,-3.11,-2.08,367,279,203,438,361
1244,0.58,0.79,0.3,0.73,-2.2,-3.23,366,281,205,441,361
1245,0.56,0.78,0.3,-3.36,-3.78,-3.72,370,281,208,441,360
1246,0.53,0.75,0.34,1.4,2.26,-12.88,369,282,205,441,362
1247,0.49,0.82,0.37,0.37,0.85,-6.1,371,286,207,444,364
1248,0.37,0.77,0.45,5.74,-3.42,4.09,369,279,206,445,359
1249,0.41,0.88,0.38,-0.85,0.06,-11.9,369,280,203,442,362
1250,0.41,0.8,0.38,-4.64,-2.81,-6.16,369,282,208,441,362
1251,0.42,0.79,0.41,1.28,-1.04,-2.08,370,281,206,443,365
1252,0.4,0.85,0.44,-0.43,-0.06,0.0,369,280,205,445,364
1253,0.36,0.78,0.43,-1.77,0.98,-3.11,372,280,209,445,363
1254,0.39,0.84,0.48,-1.89,-1.1,-11.41,368,280,208,436,363
1255,0.39,0.79,0.43,0.06,-4.76,-11.6,368,279,210,443,363
1256,0.38,0.82,0.47,0.49,-1.59,-3.05,366,279,208,437,363
1257,0.36,0.82,0.44,0.92,-4.15,-1.46,368,282,205,439,361
1258,0.4,0.8,0.41,0.98,-6.53,-2.5,375,292,207,440,361
1259,0.38,0.82,0.41,3.78,-1.83,-1.34,367,279,201,443,362
1260,0.41,0.81,0.41,3.54,-2.62,-2.5,368,281,202,442,363
1261,0.4,0.81,0.4,0.67,-3.05,-0.85,366,280,204,444,363
1262,0.37,0.82,0.4,4.58,-1.22,1.22,372,283,203,444,361
1263,0.41,0.84,0.39,0.31,-0.37,-0.98,367,283,204,444,364
1264,0.42,0.8,0.38,-0.06,-4.7,-2.01,369,282,206,441,363
1265,0.42,0.83,0.37,-2.32,-3.48,-2.01,367,281,202,442,362
1266,0.42,0.89,0.37,-5.25,0.49,0.85,369,282,206,438,360
1267,0.44,0.87,0.37,-1.28,-1.16,0.06,364,281,205,442,362
1268,0.44,0.84,0.39,-0.12,-2.32,-5.37,396,281,202,436,366
1269,0.42,0.83,0.38,-1.04,-2.14,0.92,369,282,204,444,375
1270,0.44,0.79,0.38,-0.61,-2.56,-2.01,366,294,207,441,365
1271,0.45,0.81,0.38,0.37,-3.97,-2.38,371,283,205,445,361
1272,0.45,0.81,0.39,-0.24,-1.59,-2.5,371,283,206,441,363
1273,0.44,0.8,0.38,-2.26,-3.6,-2.08,368,282,204,442,364
1274,0.45,0.81,0.38,-0.24,-2.99,-1.71,370,282,204,442,361
1275,0.45,0.81,0.37,-0.49,-3.11,-1.34,367,281,204,445,360
1276,0.43,0.81,0.39,-1.1,-3.78,-0.73,371,278,205,441,362
1277,0.48,0.8,0.39,-15.44,-4.15,-5.74,365,280,205,441,364
1278,0.44,0.82,0.39,1.83,-1.46,-1.53,369,282,203,441,360
1279,0.45,0.82,0.39,-3.11,-2.69,-3.91,369,282,203,437,366
1280,0.46,0.81,0.38,-1.89,-3.54,-1.1,368,282,205,440,360
1281,0.47,0.8,0.38,-0.31,-3.97,-2.56,366,280,205,440,363
1282,0.47,0.8,0.4,3.36,-1.28,-2.56,366,284,203,442,360
1283,0.47,0.82,0.4,3.36,-3.36,-2.87,367,281,205,445,364
1284,0.45,0.82,0.38,0.12,-4.58,-1.65,365,283,204,445,366
1285,0.47,0.82,0.36,0.73,-4.76,-5.62,369,281,205,435,364
1286,0.44,0.8,0.37,2.5,-0.31,-4.09,365,284,204,442,366
1287,0.46,0.83,0.39,-0.12,-4.64,-5.92,365,283,205,440,366
1288,0.47,0.81,0.33,-1.46,-2.38,-2.44,366,282,205,441,364
1289,0.45,0.78,0.35,-3.17,-5.13,-0.92,367,282,208,444,359
1290,0.46,0.82,0.36,0.49,-3.42,0.85,368,281,205,436,364
1291,0.44,0.77,0.38,-2.2,-0.49,-4.94,365,281,207,440,362
1292,0.46,0.82,0.39,2.87,2.14,-3.23,367,281,207,444,366
1293,0.45,0.8,0.4,-2.08,-2.44,-0.67,363,283,207,443,366
1294,0.47,0.81,0.4,-0.92,-4.33,0.67,363,287,207,448,364
1295,0.47,0.81,0.38,0.92,-1.89,0.12,365,283,206,446,366
1296,0.49,0.8,0.34,7.32,-3.42,-1.34,364,281,205,442,367
1297,0.46,0.8,0.37,-1.46,-4.46,-1.83,366,277,204,437,362
1298,0.47,0.82,0.39,-0.98,-1.34,-3.36,364,284,202,441,357
1299,0.45,0.83,0.39,-1.4,-2.5,-1.71,363,280,208,443,361
1300,0.46,0.82,0.38,-0.18,-3.97,-2.56,362,281,208,438,364
1301,0.47,0.8,0.37,-1.53,-3.6,-2.81,361,281,204,441,360
1302,0.49,0.79,0.36,0.12,-3.23,-2.69,362,284,211,441,364
1303,0.45,0.81,0.4,-3.36,-0.43,-4.46,361,281,205,445,366
1304,0.47,0.79,0.37,0.43,-4.64,-2.32,360,285,207,440,365
1305,0.47,0.81,0.37,2.44,-3.17,-1.65,362,281,208,436,360
1306,0.45,0.79,0.37,-2.08,-5.49,-0.79,360,282,207,444,360
1307,0.47,0.82,0.38,-1.34,-4.15,-5.49,360,284,204,445,370
1308,0.45,0.8,0.39,-0.49,-4.33,-1.83,361,284,206,440,360
1309,0.45,0.83,0.37,-0.49,-3.3,-4.21,365,283,206,443,367
1310,0.5,0.87,0.39,13.18,-9.52,9.83,356,281,206,440,364
1311,0.45,0.86,0.39,29.6,-1.83,-23.19,362,281,207,442,359
1312,0.42,0.82,0.33,7.45,-5.43,-0.98,359,283,208,437,362
1313,0.41,0.8,0.28,3.23,-1.1,-0.79,362,282,206,443,365
1314,0.48,0.87,0.24,8.42,-9.77,-0.37,363,283,203,446,363
1315,0.5,0.88,0.22,1.16,-1.59,1.16,363,281,208,438,363
1316,0.48,0.81,0.25,-2.44,-5.8,-3.05,364,279,207,443,365
1317,0.51,0.88,0.21,3.42,-1.04,0.49,362,281,205,432,366
1318,0.49,0.81,0.2,-3.85,-4.94,1.1,364,279,207,442,364
1319,0.57,0.81,0.24,5.43,1.46,3.78,363,278,205,445,363
1320,0.53,0.78,0.26,-0.49,0.98,-4.21,363,281,204,436,364
1321,0.53,0.78,0.25,7.75,4.03,2.93,357,277,205,440,365
1322,0.58,0.78,0.23,1.77,-3.11,2.01,361,280,205,445,364
1323,0.58,0.79,0.21,3.11,-1.83,-5.0,362,280,206,444,366
1324,0.55,0.79,0.22,0.18,-5.31,-6.35,363,279,201,444,362
1325,0.55,0.8,0.22,0.31,-2.32,-3.97,361,281,206,441,364
1326,0.53,0.8,0.23,-1.89,-2.69,-4.03,361,280,205,443,366
1327,0.53,0.81,0.25,-2.08,-2.44,-1.28,358,278,205,441,364
1328,0.54,0.79,0.24,0.92,-4.15,-0.55,363,284,208,440,371
1329,0.55,0.79,0.25,-0.61,-2.62,-1.34,361,283,205,443,364
1330,0.58,0.75,0.24,-11.6,-4.58,1.34,362,280,208,442,361
1331,0.56,0.8,0.28,0.37,-3.05,-4.52,360,286,209,445,363
1332,0.57,0.79,0.25,1.34,-3.23,-3.85,361,284,207,441,363
1333,0.58,0.8,0.26,2.75,-2.44,-1.83,366,283,220,444,365
1334,0.57,0.8,0.25,1.22,-2.14,-3.17,360,282,210,442,364
1335,0.54,0.79,0.27,0.92,-2.2,-3.66,360,284,204,442,367
1336,0.55,0.8,0.26,0.43,-2.99,-2.38,361,283,207,442,362
1337,0.55,0.79,0.25,0.12,-4.64,-1.83,359,296,206,445,363
1338,0.56,0.79,0.24,0.79,-3.17,-3.54,361,284,201,443,363
1339,0.55,0.8,0.25,-0.12,-2.69,-2.5,360,282,209,441,364
1340,0.57,0.8,0.25,2.01,-3.66,-2.56,362,282,209,442,364
1341,0.55,0.79,0.25,0.18,-2.2,-1.65,362,281,207,445,364
1342,0.57,0.8,0.25,-0.98,-2.26,-2.75,359,284,206,442,365
1343,0.56,0.79,0.26,-0.98,-1.22,-2.75,356,283,206,440,365
1344,0.57,0.79,0.26,2.93,-3.36,-2.62,359,281,204,443,364
1345,0.56,0.78,0.25,1.46,-2.93,-1.95,359,282,206,441,367
1346,0.56,0.78,0.25,-0.67,-2.38,-2.93,359,280,206,440,365
1347,0.57,0.78,0.25,0.18,-1.77,-1.83,360,283,208,441,366
1348,0.57,0.78,0.25,0.37,-2.26,-3.23,362,279,209,442,364
1349,0.57,0.79,0.25,0.12,-2.44,-2.56,358,282,207,444,365
1350,0.56,0.79,0.25,-0.12,-2.5,-2.14,361,283,210,447,365
1351,0.56,0.78,0.26,-0.79,-2.75,-2.38,361,281,208,441,366
1352,0.58,0.77,0.25,-0.43,-1.89,-1.95,360,281,203,442,368
1353,0.59,0.78,0.27,-2.62,-3.78,-2.32,360,281,214,441,361
1354,0.58,0.77,0.28,-2.93,-1.77,-3.17,360,284,202,443,362
1355,0.56,0.75,0.29,-0.92,-5.25,-4.88,360,285,206,441,362
1356,0.58,0.75,0.29,-1.71,-4.33,-2.01,359,282,206,444,362
1357,0.56,0.76,0.3,0.0,-3.66,-2.01,381,283,207,442,363
1358,0.58,0.74,0.29,-0.31,-3.91,-2.32,364,281,207,443,363
1359,0.57,0.76,0.3,-1.46,-2.2,-3.3,359,298,209,441,363
1360,0.59,0.76,0.29,2.32,-5.07,-5.92,360,281,206,442,365
1361,0.56,0.78,0.28,7.02,1.59,-8.18,361,282,208,440,359
1362,0.54,0.82,0.28,-5.98,2.93,-12.39,358,281,204,444,360
1363,0.54,0.83,0.29,2.87,-8.12,-6.96,361,281,219,441,362
1364,0.46,0.85,0.27,3.36,1.89,-9.89,359,282,212,434,363
1365,0.49,0.85,0.26,1.77,-2.38,-0.06,357,281,206,438,363
1366,0.49,0.85,0.26,-1.04,-1.89,-3.66,359,284,206,444,364
1367,0.46,0.85,0.26,-0.24,-2.99,-3.6,359,281,205,442,366
1368,0.46,0.86,0.27,0.61,-2.93,-0.55,361,280,203,443,360
1369,0.46,0.84,0.26,1.83,-3.11,-0.24,359,284,206,439,366
1370,0.46,0.84,0.26,0.31,-2.5,-2.87,358,284,209,438,364
1371,0.46,0.84,0.28,-2.08,-2.75,-2.5,368,284,206,438,365
1372,0.47,0.84,0.27,2.14,-3.17,-2.99,359,281,204,440,364
1373,0.48,0.85,0.26,3.17,-4.88,-3.17,357,281,206,444,365
1374,0.48,0.84,0.27,-0.37,-1.53,-3.17,359,284,208,446,363
1375,0.48,0.85,0.25,2.93,-0.79,-5.62,359,283,208,445,365
1376,0.47,0.84,0.25,1.71,-1.83,-2.56,358,276,211,440,362
1377,0.47,0.85,0.26,-0.92,-4.09,-2.26,359,284,206,445,365
1378,0.48,0.83,0.27,0.06,-2.32,-2.14,358,284,207,437,361
1379,0.49,0.85,0.26,0.31,-2.44,-5.55,360,281,204,441,363
1380,0.48,0.85,0.26,3.48,-6.9,-2.93,357,284,207,445,364
1381,0.48,0.84,0.25,0.85,-3.36,-2.44,358,283,206,446,363
1382,0.46,0.83,0.25,1.53,-2.69,-2.26,361,288,209,441,366
1383,0.47,0.86,0.25,0.73,-5.43,-3.6,358,278,206,443,359
1384,0.43,0.87,0.25,-0.31,-4.7,-1.4,357,280,205,442,361
1385,0.44,0.86,0.24,-0.61,-3.17,1.04,360,282,215,441,363
1386,0.47,0.85,0.24,-2.08,-6.47,1.34,360,281,205,442,361
1387,0.49,0.84,0.24,-0.31,-0.31,0.24,366,282,205,441,363
1388,0.5,0.79,0.23,-0.92,-5.86,-1.59,359,282,206,442,359
1389,0.54,0.82,0.23,0.49,-2.62,-1.59,358,287,209,441,359
1390,0.51,0.83,0.22,-0.67,-5.13,-3.72,358,281,207,439,360
1391,0.5,0.84,0.21,0.67,-4.27,-8.54,360,281,208,446,361
1392,0.46,0.87,0.21,1.77,-1.1,-7.75,358,281,208,443,362
1393,0.43,0.86,0.22,-0.55,-2.44,2.56,359,284,207,442,364
1394,0.47,0.84,0.21,0.31,-4.27,1.95,357,283,206,441,366
1395,0.47,0.84,0.21,-0.12,-1.89,-1.59,353,282,206,443,363
1396,0.52,0.84,0.23,2.14,-4.7,-5.49,356,281,207,441,362
1397,0.51,0.82,0.21,-2.69,-3.78,-0.67,358,282,206,445,365
1398,0.5,0.85,0.23,3.6,-3.48,-5.55,356,281,208,445,365
1399,0.49,0.85,0.22,0.18,-1.22,-1.95,357,282,207,440,363
1400,0.48,0.83,0.23,-0.31,-4.94,-4.27,359,285,205,446,361
1401,0.5,0.84,0.23,2.32,-3.85,-1.71,360,280,209,447,363
1402,0.5,0.84,0.23,-0.43,-2.93,-2.56,357,281,211,444,365
1403,0.5,0.83,0.25,-1.28,-3.11,-1.46,360,282,206,438,365
1404,0.5,0.82,0.25,-2.26,0.31,-1.04,360,281,213,440,363
1405,0.53,0.82,0.25,-0.43,-5.74,-2.32,361,284,205,440,359
1406,0.51,0.82,0.25,-1.53,-2.5,-1.65,356,282,220,441,362
1407,0.53,0.82,0.25,-1.28,-2.44,-3.42,351,280,208,440,365
1408,0.5,0.81,0.25,-1.16,-2.26,-0.06,359,281,206,441,364
1409,0.52,0.82,0.24,0.18,-3.05,-0.98,359,283,205,441,360
1410,0.53,0.82,0.25,0.24,-3.11,-3.05,353,284,206,444,363
1411,0.52,0.81,0.25,1.71,-3.3,-2.62,357,285,210,444,364
1412,0.52,0.79,0.24,2.14,-3.05,-3.23,362,284,206,442,364
1413,0.51,0.82,0.24,1.59,-3.23,-2.62,355,294,207,438,363
1414,0.51,0.82,0.24,2.2,-3.48,-2.32,357,279,206,448,365
1415,0.52,0.83,0.24,0.73,-5.19,-2.93,355,283,206,440,360
1416,0.51,0.82,0.25,0.79,0.61,-2.56,357,281,208,440,364
1417,0.51,0.82,0.24,-0.12,-3.66,-2.38,358,281,208,441,365
1418,0.52,0.83,0.25,-1.16,-3.17,-2.69,357,294,205,442,363
1419,0.51,0.81,0.25,-0.18,-2.87,-1.65,357,282,204,441,366
1420,0.52,0.82,0.25,-0.37,-2.87,-2.69,358,283,208,443,363
1421,0.52,0.82,0.25,0.12,-2.62,-3.3,360,281,208,443,367
1422,0.52,0.82,0.26,0.18,-2.26,-1.4,358,283,208,445,362
1423,0.52,0.81,0.25,0.37,-2.93,-2.01,361,281,209,443,366
1424,0.52,0.82,0.26,0.43,-2.44,-2.93,364,280,203,438,363
1425,0.51,0.82,0.26,1.1,-3.11,-2.99,359,283,206,439,365
1426,0.51,0.82,0.25,-0.12,-1.83,-3.3,357,281,209,442,362
1427,0.52,0.82,0.25,3.05,-2.44,-3.78,359,283,205,445,361
1428,0.51,0.83,0.27,-0.06,-1.83,-2.08,356,283,203,443,363
1429,0.52,0.78,0.24,4.33,-7.14,0.98,358,282,209,443,363
1430,0.51,0.8,0.21,0.18,-6.59,-1.95,355,282,206,444,362
1431,0.52,0.81,0.22,0.98,-3.97,-1.53,359,288,211,441,363
1432,0.51,0.83,0.23,-0.67,-1.1,-5.07,356,284,209,444,362
1433,0.52,0.83,0.23,1.95,-2.93,-0.18,356,280,206,441,366
1434,0.53,0.83,0.21,-0.67,-3.05,-1.65,355,283,206,437,364
1435,0.52,0.81,0.22,0.55,-2.75,-2.93,357,284,206,443,362
1436,0.53,0.83,0.23,1.77,-3.42,-2.87,358,279,211,442,363
1437,0.52,0.81,0.22,-0.31,-3.36,-0.92,353,282,209,444,365
1438,0.52,0.81,0.22,-0.67,-2.08,-1.4,357,284,205,444,364
1439,0.52,0.81,0.23,0.0,-2.69,-2.75,359,282,206,442,363
1440,0.52,0.82,0.22,0.24,-2.2,-3.48,359,283,207,436,361
1441,0.52,0.82,0.23,0.0,-3.97,-1.77,357,282,205,443,365
1442,0.52,0.82,0.24,-0.37,-1.53,-2.69,358,284,208,445,366
1443,0.53,0.81,0.24,-2.99,0.37,1.77,358,284,206,450,359
1444,0.54,0.77,0.26,-10.38,-9.46,2.38,357,284,207,446,366
1445,0.6,0.84,0.26,-8.97,0.0,-10.99,357,282,209,444,365
1446,0.5,0.83,0.26,7.63,1.53,-4.15,357,283,210,443,363
1447,0.5,0.82,0.27,-8.79,4.09,-9.46,350,280,207,436,363
1448,0.48,0.81,0.29,-1.04,-4.82,0.49,356,282,208,443,375
1449,0.5,0.81,0.28,0.06,-4.15,-0.98,358,282,209,445,363
1450,0.5,0.82,0.28,-0.31,-2.81,0.79,357,282,210,442,362
1451,0.5,0.82,0.29,-0.49,-3.54,-1.46,354,281,208,445,363
1452,0.51,0.79,0.28,-1.22,-4.33,-1.46,356,285,208,441,365
1453,0.51,0.81,0.29,0.85,-2.01,-2.62,356,285,209,441,361
1454,0.52,0.82,0.29,0.73,-1.65,-3.11,359,300,210,443,363
1455,0.51,0.82,0.28,0.92,-2.81,-3.11,356,285,204,442,362
1456,0.5,0.81,0.28,1.04,-2.93,-2.08,359,282,209,444,365
1457,0.51,0.82,0.28,0.79,-1.16,-1.65,357,284,211,440,364
1458,0.51,0.82,0.27,1.1,-3.72,-3.23,359,282,206,445,362
1459,0.5,0.82,0.28,-0.85,-2.32,-2.69,363,281,205,445,362
1460,0.51,0.81,0.28,-1.53,-3.17,-2.01,357,282,206,445,363
1461,0.5,0.81,0.28,-0.49,-3.48,-3.42,359,282,209,441,362
1462,0.52,0.81,0.27,1.89,-4.33,-2.2,357,278,206,443,363
1463,0.51,0.81,0.28,-0.12,-2.69,-3.48,358,278,210,442,363
1464,0.52,0.82,0.27,0.18,-3.23,-2.14,356,283,206,442,360
1465,0.52,0.82,0.27,0.98,-2.14,-3.42,359,284,221,439,364
1466,0.53,0.83,0.27,-0.12,-3.97,-2.93,359,286,208,445,365
1467,0.52,0.81,0.28,0.98,-2.69,-1.77,355,281,208,443,360
1468,0.52,0.82,0.27,0.43,-3.91,-1.4,348,284,206,437,360
1469,0.52,0.81,0.28,1.28,-4.15,-2.62,355,280,206,444,359
1470,0.52,0.81,0.26,-0.06,-3.17,-2.01,358,283,209,441,364
1471,0.53,0.81,0.26,0.12,-2.5,-3.05,359,282,205,442,359
1472,0.52,0.81,0.27,1.59,-1.22,-2.26,357,284,209,442,359
1473,0.52,0.82,0.27,0.24,-2.38,-3.11,357,282,209,446,364
1474,0.53,0.81,0.26,1.65,-1.53,-2.32,359,285,209,442,365
1475,0.52,0.81,0.27,0.85,-3.42,-2.69,358,282,206,447,364
1476,0.52,0.81,0.27,1.46,-4.46,-2.38,357,282,206,438,362
1477,0.52,0.81,0.26,0.43,-2.99,-1.83,360,282,206,446,362
1478,0.53,0.82,0.27,3.97,-1.77,0.31,370,283,209,441,362
1479,0.53,0.81,0.26,0.85,-4.09,-3.11,361,283,210,436,363
1480,0.53,0.82,0.26,0.43,-2.26,-1.34,358,281,210,442,364
1481,0.53,0.79,0.27,1.77,-1.04,-2.99,358,281,206,443,363
1482,0.53,0.8,0.28,-0.98,-3.3,-1.95,357,282,209,447,366
1483,0.53,0.8,0.28,1.34,-2.26,-1.77,352,282,207,447,362
1484,0.54,0.79,0.28,-1.77,-2.69,-3.36,355,282,206,446,359
1485,0.53,0.81,0.28,0.85,-3.17,-2.44,358,285,210,445,361
1486,0.53,0.8,0.28,0.49,-2.14,-2.81,357,280,210,440,359
1487,0.53,0.81,0.28,1.1,-2.38,-3.11,352,282,210,442,363
1488,0.51,0.81,0.27,-0.06,-3.3,-3.6,367,282,208,442,362
1489,0.52,0.81,0.27,-0.37,-2.2,-2.81,358,283,209,437,363
1490,0.51,0.81,0.29,0.18,-3.54,-2.32,357,282,210,442,363
1491,0.52,0.8,0.28,-0.18,-3.91,-3.3,360,285,209,441,370
1492,0.52,0.8,0.27,0.49,-2.32,-2.62,360,285,206,445,361
1493,0.52,0.81,0.28,-0.85,-4.03,-3.17,357,284,209,437,366
1494,0.53,0.81,0.27,0.98,-1.77,-2.87,357,281,206,440,365
1495,0.52,0.81,0.28,0.18,-3.36,-2.32,364,281,211,441,362
1496,0.52,0.8,0.27,-0.06,-2.26,-1.77,358,285,216,454,359
1497,0.52,0.8,0.28,0.43,-2.99,-2.32,357,284,208,438,364
1498,0.52,0.81,0.28,0.12,-3.36,-1.71,359,282,211,442,359
1499,0.52,0.81,0.27,0.24,-3.05,-2.14,360,283,208,446,363
1500,0.52,0.81,0.27,1.16,-2.75,-1.95,359,285,208,444,360
1501,0.53,0.82,0.27,1.04,-2.26,-1.89,357,282,207,442,364
1502,0.53,0.81,0.26,0.31,-2.81,-2.56,357,286,210,441,365
1503,0.52,0.8,0.26,0.79,-2.62,-2.08,357,283,208,439,364
1504,0.53,0.81,0.26,-0.18,-2.87,-2.99,360,286,207,446,364
1505,0.53,0.81,0.27,-0.31,-1.59,-2.87,357,284,209,439,365
1506,0.53,0.81,0.28,-0.37,-3.11,-2.93,360,282,206,442,362
1507,0.52,0.79,0.26,-0.18,-3.97,-1.83,360,285,207,445,359
1508,0.55,0.81,0.26,5.0,-7.51,0.12,360,285,208,445,362
1509,0.53,0.81,0.25,2.2,-4.64,-1.83,355,282,209,443,363
1510,0.55,0.82,0.24,2.56,-1.22,-3.36,359,282,208,442,365
1511,0.55,0.79,0.24,0.79,-3.05,-4.52,360,285,209,441,365
1512,0.53,0.82,0.25,1.04,-2.99,-2.62,361,285,206,446,363
1513,0.54,0.82,0.24,1.71,-2.2,-3.72,356,282,204,436,362
1514,0.52,0.82,0.26,-1.77,-1.65,-2.32,361,281,209,442,360
1515,0.54,0.82,0.25,-0.06,-2.56,-2.38,356,282,208,442,363
1516,0.53,0.81,0.25,0.24,-2.01,-1.89,397,283,203,442,362
1517,0.54,0.82,0.25,2.69,-1.46,-3.05,357,282,203,443,359
1518,0.52,0.82,0.26,0.24,-3.54,-2.81,360,281,208,442,363
1519,0.52,0.8,0.25,0.92,-1.04,-0.79,358,278,208,438,363
1520,0.52,0.8,0.25,-0.61,-3.54,-1.89,358,279,208,438,360
1521,0.54,0.79,0.27,0.79,-0.92,-2.5,358,283,209,445,364
1522,0.53,0.79,0.28,-0.49,-0.98,-4.76,360,285,208,441,362
1523,0.58,0.83,0.27,1.28,-3.17,-6.35,356,285,206,447,363
1524,0.56,0.83,0.27,1.4,-5.25,-5.37,358,283,206,441,366
1525,0.53,0.8,0.28,-0.92,-1.89,-0.49,359,283,207,443,364
1526,0.54,0.8,0.27,-0.12,-3.11,-1.77,356,280,207,446,364
1527,0.55,0.8,0.28,-0.18,-2.32,-3.66,358,284,210,441,363
1528,0.54,0.8,0.28,0.67,-2.5,-3.17,357,281,209,441,365
1529,0.55,0.8,0.27,0.92,-3.17,-3.3,361,283,208,443,365
1530,0.54,0.8,0.28,0.31,-3.11,-2.26,358,283,207,439,360
1531,0.54,0.8,0.28,0.0,-2.69,-2.38,360,285,205,443,361
1532,0.54,0.79,0.28,0.49,-2.26,-3.23,357,286,207,441,366
1533,0.5,0.8,0.28,0.0,-4.27,-4.58,360,283,206,447,357
1534,0.5,0.81,0.3,3.91,-2.87,-1.71,358,282,208,437,364
1535,0.52,0.8,0.27,0.55,-5.86,-1.53,359,282,209,445,365
1536,0.56,0.82,0.26,0.24,-4.09,-0.49,356,281,209,438,366
1537,0.57,0.82,0.25,0.92,-4.64,-2.38,359,283,207,445,367
1538,0.54,0.78,0.27,-0.67,-3.78,-4.88,361,281,208,444,363
1539,0.42,0.89,0.19,-5.68,-10.68,-8.79,380,276,206,439,360
1540,0.37,0.88,0.28,2.93,-1.4,-6.41,382,275,200,447,358
1541,0.38,0.94,0.27,-2.5,-1.77,-2.14,384,280,198,444,362
1542,0.39,0.88,0.3,-0.06,-1.16,-3.36,381,277,201,442,360
1543,0.37,0.95,0.29,2.44,1.46,1.34,378,277,205,443,359
1544,0.35,0.88,0.31,-5.74,-7.02,-2.08,378,280,206,443,361
1545,0.41,0.82,0.27,-12.51,5.49,-4.64,378,277,202,438,358
1546,0.37,0.86,0.33,-0.79,8.61,6.23,367,278,205,440,355
1547,0.42,0.92,0.29,-8.18,-10.86,7.02,367,277,201,437,354
1548,0.42,0.8,0.33,0.49,-0.61,-1.4,379,277,205,445,358
1549,0.42,0.82,0.32,0.67,8.42,-13.67,367,277,205,439,355
1550,0.45,0.85,0.35,4.64,-4.58,-3.78,370,276,201,438,358
1551,0.42,0.84,0.33,-2.08,-2.56,-0.73,370,278,209,447,359
1552,0.43,0.84,0.34,0.0,-1.1,1.71,369,280,200,457,357
1553,0.44,0.83,0.34,2.44,-3.05,-1.46,370,278,202,445,359
1554,0.44,0.84,0.33,-1.28,-3.11,-0.31,368,281,202,442,357
1555,0.43,0.82,0.35,-0.55,-3.97,-1.95,370,280,203,444,358
1556,0.44,0.83,0.33,2.56,-2.81,-3.23,371,281,199,447,358
1557,0.46,0.84,0.3,5.98,-7.75,-1.22,368,277,202,438,357
1558,0.46,0.83,0.32,2.56,-2.62,-3.3,369,275,202,443,358
1559,0.48,0.85,0.3,-0.12,-1.53,-6.9,370,279,203,444,360
1560,0.47,0.83,0.28,-0.79,-2.62,0.37,371,288,202,439,356
1561,0.5,0.83,0.29,-1.22,-3.17,-1.65,368,281,203,443,360
1562,0.5,0.82,0.29,3.23,-3.42,-2.08,370,278,203,445,353
1563,0.49,0.82,0.29,0.18,-1.34,-0.73,366,278,202,444,357
1564,0.49,0.82,0.31,-0.31,0.12,-4.39,365,278,205,442,356
1565,0.49,0.82,0.3,2.5,-2.81,-5.25,370,280,205,444,357
1566,0.48,0.82,0.3,0.67,-0.73,-3.17,365,285,202,442,358
1567,0.49,0.85,0.31,-2.44,-0.31,-3.36,365,278,204,445,361
1568,0.46,0.86,0.31,2.87,-4.88,-7.57,368,277,205,450,358
1569,0.44,0.85,0.31,-3.23,-0.06,-9.28,367,275,202,437,358
1570,0.46,0.8,0.29,0.79,-12.57,-6.16,366,279,201,448,359
1571,0.46,0.8,0.27,3.72,-2.26,-0.67,367,278,204,442,360
1572,0.5,0.85,0.23,6.35,-5.74,-2.44,362,277,205,440,360
1573,0.5,0.82,0.24,-4.33,-1.95,-0.49,367,280,205,441,358
1574,0.5,0.82,0.25,-1.46,-6.9,-3.05,368,277,202,437,356
1575,0.51,0.81,0.24,-7.81,-2.69,-0.98,371,276,203,442,358
1576,0.52,0.82,0.24,1.95,-1.83,-3.05,370,278,204,442,360
1577,0.5,0.81,0.25,0.12,-2.62,-2.44,371,275,201,442,355
1578,0.5,0.84,0.26,3.17,0.24,-3.66,369,277,204,439,357
1579,0.53,0.86,0.25,2.5,0.85,-4.88,369,277,202,442,358
1580,0.51,0.86,0.23,4.64,0.0,-1.95,368,278,201,443,360
1581,0.51,0.86,0.27,0.55,-0.24,-2.44,364,277,205,443,356
1582,0.54,0.82,0.27,6.77,-1.83,-5.49,368,279,204,446,355
1583,0.51,0.79,0.25,3.48,-8.18,-2.81,365,280,202,446,358
1584,0.5,0.82,0.27,-5.8,-7.51,-3.54,379,280,203,444,358
1585,0.52,0.81,0.25,0.85,-8.06,-4.03,368,280,201,443,358
1586,0.5,0.82,0.25,6.65,-3.72,-4.21,370,278,202,437,358
1587,0.51,0.85,0.27,4.15,-1.65,-6.29,370,277,204,443,356
1588,0.49,0.86,0.26,5.92,-4.39,-1.71,372,278,203,437,359
1589,0.49,0.82,0.24,0.31,-4.33,-2.44,367,277,199,446,357
1590,0.5,0.84,0.24,0.49,-2.38,-2.2,371,278,203,440,361
1591,0.52,0.84,0.24,2.81,-3.3,-3.48,369,277,205,442,358
1592,0.5,0.83,0.24,2.01,-1.77,-3.48,368,278,200,443,357
1593,0.51,0.82,0.23,2.93,-1.83,-2.26,368,280,202,448,360
1594,0.52,0.81,0.23,-4.46,3.78,-5.86,367,277,205,442,360
1595,0.5,0.82,0.26,-0.67,-2.69,0.24,396,279,205,442,358
1596,0.51,0.82,0.27,2.26,-3.66,-2.44,364,280,204,442,361
1597,0.5,0.81,0.27,1.34,0.12,-4.27,368,280,202,443,361
1598,0.5,0.81,0.26,1.59,-2.93,-3.05,368,281,201,446,362
1599,0.5,0.82,0.27,-0.24,-3.78,-2.93,365,281,203,446,359
1600,0.49,0.82,0.27,0.06,-4.76,-2.2,370,278,201,445,359
1601,0.49,0.83,0.28,1.4,-2.75,-2.62,366,278,199,442,355
1602,0.47,0.81,0.26,-1.89,-1.71,-1.59,367,275,205,440,361
1603,0.51,0.83,0.24,1.4,-1.16,-2.08,365,277,197,443,355
1604,0.49,0.83,0.24,1.95,-3.72,-1.04,357,279,204,442,361
1605,0.5,0.83,0.24,1.04,-3.97,-0.92,365,277,204,445,356
1606,0.49,0.82,0.24,-0.49,-2.08,-0.67,363,276,205,442,357
1607,0.51,0.83,0.25,-0.24,-2.62,-2.62,370,277,203,448,360
1608,0.51,0.83,0.26,-1.46,-2.2,-1.34,370,279,204,444,359
1609,0.52,0.83,0.25,-0.12,-3.6,-1.95,369,279,204,443,361
1610,0.51,0.82,0.25,1.16,-2.87,-3.05,366,281,202,441,359
1611,0.51,0.82,0.25,-1.16,-2.38,-1.65,370,276,217,442,359
1612,0.52,0.82,0.25,0.31,-3.3,-2.81,366,277,202,442,355
1613,0.52,0.82,0.25,-1.16,-2.56,-2.08,368,279,202,448,360
1614,0.51,0.83,0.26,1.04,-2.5,-2.56,368,281,204,442,358
1615,0.52,0.82,0.26,2.87,-2.26,-1.83,367,280,204,442,360
1616,0.52,0.82,0.25,1.1,-1.53,-3.17,365,278,207,444,360
1617,0.52,0.83,0.25,2.81,-5.07,-2.38,367,277,204,439,360
1618,0.51,0.82,0.26,1.59,-0.55,-3.23,365,279,203,437,354
1619,0.5,0.81,0.27,-0.73,-2.26,1.34,367,280,205,442,359
1620,0.52,0.82,0.27,-0.49,-1.83,-1.71,366,279,201,440,358
1621,0.51,0.82,0.27,0.98,-4.09,-3.17,368,278,204,445,360
1622,0.52,0.81,0.26,0.06,-3.11,-2.2,369,281,205,442,360
1623,0.52,0.82,0.26,0.06,-3.3,-2.01,365,284,205,445,358
1624,0.51,0.82,0.27,-0.43,-2.14,-2.08,367,278,206,441,355
1625,0.52,0.82,0.25,3.05,-2.87,-4.94,366,280,205,448,365
1626,0.51,0.82,0.25,2.01,-2.87,-1.89,365,276,201,437,361
1627,0.5,0.82,0.25,-0.55,-1.95,-2.93,369,281,203,442,360
1628,0.52,0.82,0.24,-0.12,-3.3,-1.77,371,278,202,443,359
1629,0.51,0.83,0.26,0.12,-3.23,-2.44,366,279,202,441,356
1630,0.52,0.83,0.24,0.0,-2.38,-2.75,370,278,204,437,357
1631,0.52,0.82,0.25,-0.18,-3.05,-0.79,367,279,203,443,359
1632,0.52,0.81,0.24,1.22,-3.78,-1.16,364,280,207,441,360
1633,0.51,0.83,0.24,1.46,-2.01,-2.69,369,283,205,442,362
1634,0.53,0.83,0.25,-0.61,-5.62,-0.37,365,279,219,438,361
1635,0.52,0.82,0.25,1.22,-1.34,-3.42,370,278,202,442,359
1636,0.51,0.83,0.25,-2.75,-3.72,-2.32,369,280,202,445,361
1637,0.53,0.8,0.25,0.0,-3.91,-1.34,367,278,202,436,359
1638,0.52,0.81,0.24,-1.4,-3.6,-1.28,368,279,201,451,357
1639,0.54,0.81,0.25,2.26,-3.05,-0.79,367,277,204,437,360
1640,0.52,0.8,0.25,-1.34,-1.65,-1.16,368,281,207,442,359
1641,0.53,0.82,0.27,1.04,-2.56,-2.38,368,281,202,443,359
1642,0.54,0.8,0.26,0.61,-2.01,-3.23,378,283,210,444,359
1643,0.53,0.81,0.27,0.61,-1.28,-2.62,365,278,202,446,360
1644,0.51,0.81,0.26,0.24,-3.17,-3.05,369,278,203,440,360
1645,0.52,0.8,0.26,-1.04,-3.6,-4.64,364,277,204,444,357
1646,0.52,0.81,0.27,0.18,-3.3,-2.81,369,282,206,442,362
1647,0.52,0.8,0.25,1.28,-4.46,-4.27,369,279,203,440,360
1648,0.52,0.81,0.26,0.12,-2.81,-1.89,366,280,203,442,361
1649,0.51,0.82,0.26,-1.83,-2.99,-2.81,368,281,204,443,360
1650,0.52,0.81,0.25,0.49,-3.05,-2.44,367,288,205,440,362
1651,0.53,0.83,0.29,-6.35,-2.87,2.01,368,279,204,440,360
1652,0.55,0.82,0.27,-2.38,-5.25,-1.83,367,282,202,445,360
1653,0.53,0.79,0.26,-1.28,-2.44,-3.97,368,278,207,435,360
1654,0.53,0.82,0.28,1.34,-1.53,2.38,368,279,207,443,361
1655,0.54,0.79,0.27,0.73,-3.66,-1.34,366,279,208,446,360
1656,0.53,0.8,0.28,2.01,-0.12,-4.03,371,278,219,442,359
1657,0.53,0.76,0.27,-3.78,-6.47,-3.85,368,281,207,441,359
1658,0.52,0.77,0.28,-1.28,-5.92,-4.21,367,278,206,440,358
1659,0.52,0.79,0.28,-1.65,-2.75,-2.69,370,278,203,439,361
1660,0.54,0.79,0.29,0.67,-3.36,-1.1,370,279,209,441,356
1661,0.55,0.8,0.29,0.61,-3.54,-2.2,370,279,203,441,360
1662,0.56,0.8,0.28,2.99,-3.48,-3.66,370,281,217,436,356
1663,0.53,0.8,0.28,2.2,-2.99,-4.09,368,277,204,443,359
1664,0.56,0.79,0.26,0.55,-4.58,-1.89,369,276,205,439,359
1665,0.55,0.78,0.29,-1.4,-3.48,0.79,370,279,204,441,358
1666,0.54,0.77,0.28,-3.97,-4.52,-3.05,368,279,206,445,360
1667,0.53,0.78,0.28,4.52,-0.85,-6.29,370,278,208,439,359
1668,0.54,0.8,0.29,-1.4,-2.62,-3.23,372,280,206,445,364
1669,0.55,0.8,0.28,1.89,-3.05,-3.85,367,279,202,440,360
1670,0.56,0.82,0.27,4.39,-1.22,-3.66,368,281,206,440,363
1671,0.55,0.81,0.28,1.77,-4.64,-4.58,368,282,201,440,354
1672,0.56,0.81,0.26,4.33,-3.42,-1.71,370,280,206,442,358
1673,0.55,0.81,0.27,1.89,-3.72,-6.23,369,280,203,444,361
1674,0.53,0.79,0.27,-2.01,-4.21,-2.5,369,279,207,441,361
1675,0.52,0.81,0.27,-3.17,-2.38,-2.2,367,280,203,441,362
1676,0.55,0.79,0.29,2.56,-2.5,-2.26,369,281,203,442,362
1677,0.54,0.8,0.29,1.16,-2.01,-3.23,369,278,206,441,360
1678,0.55,0.79,0.26,1.65,-3.78,-0.61,369,278,203,441,360
1679,0.53,0.79,0.27,1.04,0.31,-4.52,368,279,204,439,358
1680,0.54,0.81,0.26,1.53,-3.6,-0.18,371,282,207,442,358
1681,0.54,0.8,0.27,-0.85,-2.32,-1.28,370,280,207,442,362
1682,0.56,0.79,0.26,1.83,-5.19,-1.71,369,279,206,442,359
1683,0.55,0.8,0.26,0.98,-4.27,-2.5,371,279,218,442,362
1684,0.55,0.79,0.26,-0.61,-3.54,-3.05,371,282,206,436,356
1685,0.54,0.79,0.27,-3.54,-2.5,-0.73,368,278,204,441,359
1686,0.55,0.8,0.26,0.31,-3.85,-1.95,368,276,205,436,359
1687,0.54,0.8,0.27,-1.77,-1.65,-2.32,369,279,201,440,360
1688,0.53,0.8,0.27,1.46,-2.2,-2.93,372,280,204,436,360
1689,0.55,0.79,0.27,0.18,-1.4,-2.75,370,282,203,439,359
1690,0.55,0.8,0.27,-0.24,-2.32,-1.22,369,285,204,445,356
1691,0.55,0.78,0.28,2.2,-3.05,-2.75,368,281,208,445,361
1692,0.55,0.79,0.27,1.71,-3.3,-3.54,369,279,204,442,361
1693,0.54,0.8,0.27,1.4,-4.39,-5.31,368,281,204,442,360
1694,0.56,0.82,0.28,3.78,-2.26,-2.14,369,281,207,441,360
1695,0.55,0.8,0.26,0.24,-4.33,-3.6,369,278,204,440,360
1696,0.54,0.81,0.27,-2.14,-3.66,-6.71,367,285,204,442,361
1697,0.54,0.81,0.28,-2.01,-2.75,-0.31,370,280,201,436,356
1698,0.56,0.81,0.28,0.73,-4.76,-3.78,367,288,203,439,360
1699,0.55,0.8,0.29,-1.1,-1.28,-2.38,370,276,205,445,357
1700,0.54,0.8,0.28,3.05,-4.03,1.04,367,279,213,441,362
1701,0.56,0.78,0.27,-0.43,-3.36,-1.65,368,281,201,445,356
1702,0.55,0.78,0.28,0.43,-1.95,-4.09,371,284,209,443,356
1703,0.55,0.79,0.27,0.37,-2.75,-2.44,368,282,209,445,360
1704,0.55,0.79,0.29,1.04,-3.97,-2.75,372,275,204,442,358
1705,0.56,0.78,0.28,1.28,-4.15,-2.62,368,277,204,441,362
1706,0.55,0.79,0.29,0.18,-2.38,-2.56,368,281,209,444,361
1707,0.55,0.79,0.28,-0.31,-3.17,-4.58,370,282,207,437,358
1708,0.56,0.79,0.26,1.83,-3.3,-2.14,368,277,206,441,362
1709,0.55,0.79,0.28,0.12,-3.72,-2.38,366,282,203,442,362
1710,0.56,0.78,0.27,-1.77,-2.32,-2.99,367,282,207,439,360
1711,0.55,0.79,0.27,1.71,-2.93,-1.83,367,279,203,441,361
1712,0.55,0.78,0.27,-0.61,-2.5,-2.81,368,281,204,438,360
1713,0.55,0.78,0.27,1.16,-3.78,-3.3,375,279,205,444,357
1714,0.54,0.8,0.28,1.59,-3.3,-0.67,368,278,204,437,357
1715,0.55,0.79,0.27,1.53,-2.26,-2.14,368,280,203,442,361
1716,0.55,0.8,0.26,1.77,-2.26,-3.17,368,280,204,442,361
1717,0.56,0.8,0.26,-1.4,-1.71,-3.6,365,281,203,442,361
1718,0.56,0.8,0.26,-0.12,-3.42,-2.01,370,282,205,442,362
1719,0.56,0.81,0.27,1.22,-2.2,-4.03,369,280,207,441,361
1720,0.56,0.8,0.26,2.14,-3.42,-1.83,370,279,207,442,357
1721,0.55,0.8,0.25,-0.43,-3.23,-2.99,369,279,203,435,359
1722,0.56,0.78,0.26,-2.69,-3.66,-2.69,370,279,207,441,361
1723,0.55,0.79,0.26,0.61,-2.01,-1.77,371,275,203,444,360
1724,0.55,0.79,0.27,-0.06,-2.87,-3.54,365,279,204,444,364
1725,0.55,0.8,0.26,1.53,-2.87,-2.44,366,280,203,445,364
1726,0.55,0.8,0.27,0.24,-3.48,-2.81,368,280,211,442,359
1727,0.54,0.8,0.28,-0.18,-2.5,-1.71,368,280,207,443,362
1728,0.54,0.79,0.28,-0.49,-2.62,-1.65,367,281,207,440,361
1729,0.54,0.79,0.28,-2.26,-2.69,-1.83,371,279,202,444,362
1730,0.55,0.78,0.28,-0.73,-2.38,-2.08,368,280,206,442,361
1731,0.55,0.79,0.29,-0.79,-2.44,-3.3,365,282,206,442,362
1732,0.55,0.78,0.28,-0.37,-3.11,-2.93,369,280,207,442,363
1733,0.54,0.79,0.28,1.4,-3.17,-2.2,374,281,205,438,361
1734,0.54,0.79,0.29,-0.37,-1.65,-2.93,371,282,207,436,357
1735,0.55,0.79,0.28,1.16,-2.14,-2.75,369,280,207,440,363
1736,0.55,0.8,0.28,1.4,-3.48,-2.99,371,279,208,445,360
1737,0.54,0.79,0.28,-0.12,-2.93,-2.56,367,279,205,444,360
1738,0.55,0.79,0.28,0.98,-4.88,-1.28,370,280,208,441,362
1739,0.53,0.78,0.28,-0.06,-2.32,-2.62,369,282,205,440,362
1740,0.54,0.8,0.28,-0.73,-1.34,-2.44,371,279,207,445,363
1741,0.55,0.8,0.29,0.73,-3.11,-2.62,366,282,203,440,359
1742,0.54,0.79,0.28,-0.49,-2.01,-3.6,367,280,206,441,360
1743,0.54,0.8,0.28,-1.16,-2.44,-2.93,369,281,207,442,361
1744,0.54,0.8,0.29,0.67,-1.83,-1.53,369,280,205,446,362
1745,0.56,0.8,0.29,-0.92,-3.23,-1.65,365,278,203,440,362
1746,0.55,0.79,0.28,-0.24,-2.14,-2.93,371,279,205,443,361
1747,0.54,0.78,0.3,1.34,-3.48,-2.32,382,282,204,443,361
1748,0.55,0.79,0.29,1.22,-2.69,-2.62,366,285,206,442,361
1749,0.55,0.79,0.29,-0.24,-3.11,-2.2,368,281,204,442,363
1750,0.57,0.79,0.3,1.34,-1.83,-1.95,368,284,204,445,362
1751,0.56,0.79,0.3,0.37,-3.42,-2.93,372,279,206,438,363
1752,0.54,0.77,0.3,-2.32,-4.15,-2.99,373,280,206,440,362
1753,0.55,0.79,0.31,-0.24,-1.89,-1.53,369,283,203,440,361
1754,0.55,0.77,0.31,-0.67,-2.5,-0.73,370,283,208,442,361
1755,0.57,0.78,0.3,0.18,-2.93,-2.2,367,282,205,440,362
1756,0.55,0.77,0.32,-0.79,-3.11,-2.08,367,279,203,438,361
1757,0.58,0.79,0.3,0.73,-2.2,-3.23,366,281,205,441,361
1758,0.56,0.78,0.3,-3.36,-3.78,-3.72,370,281,208,441,360
1759,0.53,0.75,0.34,1.4,2.26,-12.88,369,282,205,441,362
1760,0.49,0.82,0.37,0.37,0.85,-6.1,371,286,207,444,364
1761,0.37,0.77,0.45,5.74,-3.42,4.09,369,279,206,445,359
1762,0.41,0.88,0.38,-0.85,0.06,-11.9,369,280,203,442,362
1763,0.41,0.8,0.38,-4.64,-2.81,-6.16,369,282,208,441,362
1764,0.42,0.79,0.41,1.28,-1.04,-2.08,370,281,206,443,365
1765,0.4,0.85,0.44,-0.43,-0.06,0.0,369,280,205,445,364
1766,0.36,0.78,0.43,-1.77,0.98,-3.11,372,280,209,445,363
1767,0.39,0.84,0.48,-1.89,-1.1,-11.41,368,280,208,436,363
1768,0.39,0.79,0.43,0.06,-4.76,-11.6,368,279,210,443,363
1769,0.38,0.82,0.47,0.49,-1.59,-3.05,366,279,208,437,363
1770,0.36,0.82,0.44,0.92,-4.15,-1.46,368,282,205,439,361
1771,0.4,0.8,0.41,0.98,-6.53,-2.5,375,292,207,440,361
1772,0.38,0.82,0.41,3.78,-1.83,-1.34,367,279,201,443,362
1773,0.41,0.81,0.41,3.54,-2.62,-2.5,368,281,202,442,363
1774,0.4,0.81,0.4,0.67,-3.05,-0.85,366,280,204,444,363
1775,0.37,0.82,0.4,4.58,-1.22,1.22,372,283,203,444,361
1776,0.41,0.84,0.39,0.31,-0.37,-0.98,367,283,204,444,364
1777,0.42,0.8,0.38,-0.06,-4.7,-2.01,369,282,206,441,363
1778,0.42,0.83,0.37,-2.32,-3.48,-2.01,367,281,202,442,362
1779,0.42,0.89,0.37,-5.25,0.49,0.85,369,282,206,438,360
1780,0.44,0.87,0.37,-1.28,-1.16,0.06,364,281,205,442,362
1781,0.44,0.84,0.39,-0.12,-2.32,-5.37,396,281,202,436,366
1782,0.42,0.83,0.38,-1.04,-2.14,0.92,369,282,204,444,375
1783,0.44,0.79,0.38,-0.61,-2.56,-2.01,366,294,207,441,365
1784,0.45,0.81,0.38,0.37,-3.97,-2.38,371,283,205,445,361
1785,0.45,0.81,0.39,-0.24,-1.59,-2.5,371,283,206,441,363
1786,0.44,0.8,0.38,-2.26,-3.6,-2.08,368,282,204,442,364
1787,0.45,0.81,0.38,-0.24,-2.99,-1.71,370,282,204,442,361
1788,0.45,0.81,0.37,-0.49,-3.11,-1.34,367,281,204,445,360
1789,0.43,0.81,0.39,-1.1,-3.78,-0.73,371,278,205,441,362
1790,0.48,0.8,0.39,-15.44,-4.15,-5.74,365,280,205,441,364
1791,0.44,0.82,0.39,1.83,-1.46,-1.53,369,282,203,441,360
1792,0.45,0.82,0.39,-3.11,-2.69,-3.91,369,282,203,437,366
1793,0.46,0.81,0.38,-1.89,-3.54,-1.1,368,282,205,440,360
1794,0.47,0.8,0.38,-0.31,-3.97,-2.56,366,280,205,440,363
1795,0.47,0.8,0.4,3.36,-1.28,-2.56,366,284,203,442,360
1796,0.47,0.82,0.4,3.36,-3.36,-2.87,367,281,205,445,364
1797,0.45,0.82,0.38,0.12,-4.58,-1.65,365,283,204,445,366
1798,0.47,0.82,0.36,0.73,-4.76,-5.62,369,281,205,435,364
1799,0.44,0.8,0.37,2.5,-0.31,-4.09,365,284,204,442,366
1800,0.46,0.83,0.39,-0.12,-4.64,-5.92,365,283,205,440,366
1801,0.47,0.81,0.33,-1.46,-2.38,-2.44,366,282,205,441,364
1802,0.45,0.78,0.35,-3.17,-5.13,-0.92,367,282,208,444,359
1803,0.46,0.82,0.36,0.49,-3.42,0.85,368,281,205,436,364
1804,0.44,0.77,0.38,-2.2,-0.49,-4.94,365,281,207,440,362
1805,0.46,0.82,0.39,2.87,2.14,-3.23,367,281,207,444,366
1806,0.45,0.8,0.4,-2.08,-2.44,-0.67,363,283,207,443,366
1807,0.47,0.81,0.4,-0.92,-4.33,0.67,363,287,207,448,364
1808,0.47,0.81,0.38,0.92,-1.89,0.12,365,283,206,446,366
1809,0.49,0.8,0.34,7.32,-3.42,-1.34,364,281,205,442,367
1810,0.46,0.8,0.37,-1.46,-4.46,-1.83,366,277,204,437,362
1811,0.47,0.82,0.39,-0.98,-1.34,-3.36,364,284,202,441,357
1812,0.45,0.83,0.39,-1.4,-2.5,-1.71,363,280,208,443,361
1813,0.46,0.82,0.38,-0.18,-3.97,-2.56,362,281,208,438,364
1814,0.47,0.8,0.37,-1.53,-3.6,-2.81,361,281,204,441,360
1815,0.49,0.79,0.36,0.12,-3.23,-2.69,362,284,211,441,364
1816,0.45,0.81,0.4,-3.36,-0.43,-4.46,361,281,205,445,366
1817,0.47,0.79,0.37,0.43,-4.64,-2.32,360,285,207,440,365
1818,0.47,0.81,0.37,2.44,-3.17,-1.65,362,281,208,436,360
1819,0.45,0.79,0.37,-2.08,-5.49,-0.79,360,282,207,444,360
1820,0.47,0.82,0.38,-1.34,-4.15,-5.49,360,284,204,445,370
1821,0.45,0.8,0.39,-0.49,-4.33,-1.83,361,284,206,440,360
1822,0.45,0.83,0.37,-0.49,-3.3,-4.21,365,283,206,443,367
1823,0.5,0.87,0.39,13.18,-9.52,9.83,356,281,206,440,364
1824,0.45,0.86,0.39,29.6,-1.83,-23.19,362,281,207,442,359
1825,0.42,0.82,0.33,7.45,-5.43,-0.98,359,283,208,437,362
1826,0.41,0.8,0.28,3.23,-1.1,-0.79,362,282,206,443,365
1827,0.48,0.87,0.24,8.42,-9.77,-0.37,363,283,203,446,363
1828,0.5,0.88,0.22,1.16,-1.59,1.16,363,281,208,438,363
1829,0.48,0.81,0.25,-2.44,-5.8,-3.05,364,279,207,443,365
1830,0.51,0.88,0.21,3.42,-1.04,0.49,362,281,205,432,366
1831,0.49,0.81,0.2,-3.85,-4.94,1.1,364,279,207,442,364
1832,0.57,0.81,0.24,5.43,1.46,3.78,363,278,205,445,363
1833,0.53,0.78,0.26,-0.49,0.98,-4.21,363,281,204,436,364
1834,0.53,0.78,0.25,7.75,4.03,2.93,357,277,205,440,365
1835,0.58,0.78,0.23,1.77,-3.11,2.01,361,280,205,445,364
1836,0.58,0.79,0.21,3.11,-1.83,-5.0,362,280,206,444,366
1837,0.55,0.79,0.22,0.18,-5.31,-6.35,363,279,201,444,362
1838,0.55,0.8,0.22,0.31,-2.32,-3.97,361,281,206,441,364
1839,0.53,0.8,0.23,-1.89,-2.69,-4.03,361,280,205,443,366
1840,0.53,0.81,0.25,-2.08,-2.44,-1.28,358,278,205,441,364
1841,0.54,0.79,0.24,0.92,-4.15,-0.55,363,284,208,440,371
1842,0.55,0.79,0.25,-0.61,-2.62,-1.34,361,283,205,443,364
1843,0.58,0.75,0.24,-11.6,-4.58,1.34,362,280,208,442,361
1844,0.56,0.8,0.28,0.37,-3.05,-4.52,360,286,209,445,363
1845,0.57,0.79,0.25,1.34,-3.23,-3.85,361,284,207,441,363
1846,0.58,0.8,0.26,2.75,-2.44,-1.83,366,283,220,444,365
1847,0.57,0.8,0.25,1.22,-2.14,-3.17,360,282,210,442,364
1848,0.54,0.79,0.27,0.92,-2.2,-3.66,360,284,204,442,367
1849,0.55,0.8,0.26,0.43,-2.99,-2.38,361,283,207,442,362
1850,0.55,0.79,0.25,0.12,-4.64,-1.83,359,296,206,445,363
1851,0.56,0.79,0.24,0.79,-3.17,-3.54,361,284,201,443,363
1852,0.55,0.8,0.25,-0.12,-2.69,-2.5,360,282,209,441,364
1853,0.57,0.8,0.25,2.01,-3.66,-2.56,362,282,209,442,364
1854,0.55,0.79,0.25,0.18,-2.2,-1.65,362,281,207,445,364
1855,0.57,0.8,0.25,-0.98,-2.26,-2.75,359,284,206,442,365
1856,0.56,0.79,0.26,-0.98,-1.22,-2.75,356,283,206,440,365
1857,0.57,0.79,0.26,2.93,-3.36,-2.62,359,281,204,443,364
1858,0.56,0.78,0.25,1.46,-2.93,-1.95,359,282,206,441,367
1859,0.56,0.78,0.25,-0.67,-2.38,-2.93,359,280,206,440,365
1860,0.57,0.78,0.25,0.18,-1.77,-1.83,360,283,208,441,366
1861,0.57,0.78,0.25,0.37,-2.26,-3.23,362,279,209,442,364
1862,0.57,0.79,0.25,0.12,-2.44,-2.56,358,282,207,444,365
1863,0.56,0.79,0.25,-0.12,-2.5,-2.14,361,283,210,447,365
1864,0.56,0.78,0.26,-0.79,-2.75,-2.38,361,281,208,441,366
1865,0.58,0.77,0.25,-0.43,-1.89,-1.95,360,281,203,442,368
1866,0.59,0.78,0.27,-2.62,-3.78,-2.32,360,281,214,441,361
1867,0.58,0.77,0.28,-2.93,-1.77,-3.17,360,284,202,443,362
1868,0.56,0.75,0.29,-0.92,-5.25,-4.88,360,285,206,441,362
1869,0.58,0.75,0.29,-1.71,-4.33,-2.01,359,282,206,444,362
1870,0.56,0.76,0.3,0.0,-3.66,-2.01,381,283,207,442,363
1871,0.58,0.74,0.29,-0.31,-3.91,-2.32,364,281,207,443,363
1872,0.57,0.76,0.3,-1.46,-2.2,-3.3,359,298,209,441,363
1873,0.59,0.76,0.29,2.32,-5.07,-5.92,360,281,206,442,365
1874,0.56,0.78,0.28,7.02,1.59,-8.18,361,282,208,440,359
1875,0.54,0.82,0.28,-5.98,2.93,-12.39,358,281,204,444,360
1876,0.54,0.83,0.29,2.87,-8.12,-6.96,361,281,219,441,362
1877,0.46,0.85,0.27,3.36,1.89,-9.89,359,282,212,434,363
1878,0.49,0.85,0.26,1.77,-2.38,-0.06,357,281,206,438,363
1879,0.49,0.85,0.26,-1.04,-1.89,-3.66,359,284,206,444,364
1880,0.46,0.85,0.26,-0.24,-2.99,-3.6,359,281,205,442,366
1881,0.46,0.86,0.27,0.61,-2.93,-0.55,361,280,203,443,360
1882,0.46,0.84,0.26,1.83,-3.11,-0.24,359,284,206,439,366
1883,0.46,0.84,0.26,0.31,-2.5,-2.87,358,284,209,438,364
1884,0.46,0.84,0.28,-2.08,-2.75,-2.5,368,284,206,438,365
1885,0.47,0.84,0.27,2.14,-3.17,-2.99,359,281,204,440,364
1886,0.48,0.85,0.26,3.17,-4.88,-3.17,357,281,206,444,365
1887,0.48,0.84,0.27,-0.37,-1.53,-3.17,359,284,208,446,363
1888,0.48,0.85,0.25,2.93,-0.79,-5.62,359,283,208,445,365
1889,0.47,0.84,0.25,1.71,-1.83,-2.56,358,276,211,440,362
1890,0.47,0.85,0.26,-0.92,-4.09,-2.26,359,284,206,445,365
1891,0.48,0.83,0.27,0.06,-2.32,-2.14,358,284,207,437,361
1892,0.49,0.85,0.26,0.31,-2.44,-5.55,360,281,204,441,363
1893,0.48,0.85,0.26,3.48,-6.9,-2.93,357,284,207,445,364
1894,0.48,0.84,0.25,0.85,-3.36,-2.44,358,283,206,446,363
1895,0.46,0.83,0.25,1.53,-2.69,-2.26,361,288,209,441,366
1896,0.47,0.86,0.25,0.73,-5.43,-3.6,358,278,206,443,359
1897,0.43,0.87,0.25,-0.31,-4.7,-1.4,357,280,205,442,361
1898,0.44,0.86,0.24,-0.61,-3.17,1.04,360,282,215,441,363
1899,0.47,0.85,0.24,-2.08,-6.47,1.34,360,281,205,442,361
1900,0.49,0.84,0.24,-0.31,-0.31,0.24,366,282,205,441,363
1901,0.5,0.79,0.23,-0.92,-5.86,-1.59,359,282,206,442,359
1902,0.54,0.82,0.23,0.49,-2.62,-1.59,358,287,209,441,359
1903,0.51,0.83,0.22,-0.67,-5.13,-3.72,358,281,207,439,360
1904,0.5,0.84,0.21,0.67,-4.27,-8.54,360,281,208,446,361
1905,0.46,0.87,0.21,1.77,-1.1,-7.75,358,281,208,443,362
1906,0.43,0.86,0.22,-0.55,-2.44,2.56,359,284,207,442,364
1907,0.47,0.84,0.21,0.31,-4.27,1.95,357,283,206,441,366
1908,0.47,0.84,0.21,-0.12,-1.89,-1.59,353,282,206,443,363
1909,0.52,0.84,0.23,2.14,-4.7,-5.49,356,281,207,441,362
1910,0.51,0.82,0.21,-2.69,-3.78,-0.67,358,282,206,445,365
1911,0.5,0.85,0.23,3.6,-3.48,-5.55,356,281,208,445,365
1912,0.49,0.85,0.22,0.18,-1.22,-1.95,357,282,207,440,363
1913,0.48,0.83,0.23,-0.31,-4.94,-4.27,359,285,205,446,361
1914,0.5,0.84,0.23,2.32,-3.85,-1.71,360,280,209,447,363
1915,0.5,0.84,0.23,-0.43,-2.93,-2.56,357,281,211,444,365
1916,0.5,0.83,0.25,-1.28,-3.11,-1.46,360,282,206,438,365
1917,0.5,0.82,0.25,-2.26,0.31,-1.04,360,281,213,440,363
1918,0.53,0.82,0.25,-0.43,-5.74,-2.32,361,284,205,440,359
1919,0.51,0.82,0.25,-1.53,-2.5,-1.65,356,282,220,441,362
1920,0.53,0.82,0.25,-1.28,-2.44,-3.42,351,280,208,440,365
1921,0.5,0.81,0.25,-1.16,-2.26,-0.06,359,281,206,441,364
1922,0.52,0.82,0.24,0.18,-3.05,-0.98,359,283,205,441,360
1923,0.53,0.82,0.25,0.24,-3.11,-3.05,353,284,206,444,363
1924,0.52,0.81,0.25,1.71,-3.3,-2.62,357,285,210,444,364
1925,0.52,0.79,0.24,2.14,-3.05,-3.23,362,284,206,442,364
1926,0.51,0.82,0.24,1.59,-3.23,-2.62,355,294,207,438,363
1927,0.51,0.82,0.24,2.2,-3.48,-2.32,357,279,206,448,365
1928,0.52,0.83,0.24,0.73,-5.19,-2.93,355,283,206,440,360
1929,0.51,0.82,0.25,0.79,0.61,-2.56,357,281,208,440,364
1930,0.51,0.82,0.24,-0.12,-3.66,-2.38,358,281,208,441,365
1931,0.52,0.83,0.25,-1.16,-3.17,-2.69,357,294,205,442,363
1932,0.51,0.81,0.25,-0.18,-2.87,-1.65,357,282,204,441,366
1933,0.52,0.82,0.25,-0.37,-2.87,-2.69,358,283,208,443,363
1934,0.52,0.82,0.25,0.12,-2.62,-3.3,360,281,208,443,367
1935,0.52,0.82,0.26,0.18,-2.26,-1.4,358,283,208,445,362
1936,0.52,0.81,0.25,0.37,-2.93,-2.01,361,281,209,443,366
1937,0.52,0.82,0.26,0.43,-2.44,-2.93,364,280,203,438,363
1938,0.51,0.82,0.26,1.1,-3.11,-2.99,359,283,206,439,365
1939,0.51,0.82,0.25,-0.12,-1.83,-3.3,357,281,209,442,362
1940,0.52,0.82,0.25,3.05,-2.44,-3.78,359,283,205,445,361
1941,0.51,0.83,0.27,-0.06,-1.83,-2.08,356,283,203,443,363
1942,0.52,0.78,0.24,4.33,-7.14,0.98,358,282,209,443,363
1943,0.51,0.8,0.21,0.18,-6.59,-1.95,355,282,206,444,362
1944,0.52,0.81,0.22,0.98,-3.97,-1.53,359,288,211,441,363
1945,0.51,0.83,0.23,-0.67,-1.1,-5.07,356,284,209,444,362
1946,0.52,0.83,0.23,1.95,-2.93,-0.18,356,280,206,441,366
1947,0.53,0.83,0.21,-0.67,-3.05,-1.65,355,283,206,437,364
1948,0.52,0.81,0.22,0.55,-2.75,-2.93,357,284,206,443,362
1949,0.53,0.83,0.23,1.77,-3.42,-2.87,358,279,211,442,363
1950,0.52,0.81,0.22,-0.31,-3.36,-0.92,353,282,209,444,365
1951,0.52,0.81,0.22,-0.67,-2.08,-1.4,357,284,205,444,364
1952,0.52,0.81,0.23,0.0,-2.69,-2.75,359,282,206,442,363
1953,0.52,0.82,0.22,0.24,-2.2,-3.48,359,283,207,436,361
1954,0.52,0.82,0.23,0.0,-3.97,-1.77,357,282,205,443,365
1955,0.52,0.82,0.24,-0.37,-1.53,-2.69,358,284,208,445,366
1956,0.53,0.81,0.24,-2.99,0.37,1.77,358,284,206,450,359
1957,0.54,0.77,0.26,-10.38,-9.46,2.38,357,284,207,446,366
1958,0.6,0.84,0.26,-8.97,0.0,-10.99,357,282,209,444,365
1959,0.5,0.83,0.26,7.63,1.53,-4.15,357,283,210,443,363
1960,0.5,0.82,0.27,-8.79,4.09,-9.46,350,280,207,436,363
1961,0.48,0.81,0.29,-1.04,-4.82,0.49,356,282,208,443,375
1962,0.5,0.81,0.28,0.06,-4.15,-0.98,358,282,209,445,363
1963,0.5,0.82,0.28,-0.31,-2.81,0.79,357,282,210,442,362
1964,0.5,0.82,0.29,-0.49,-3.54,-1.46,354,281,208,445,363
1965,0.51,0.79,0.28,-1.22,-4.33,-1.46,356,285,208,441,365
1966,0.51,0.81,0.29,0.85,-2.01,-2.62,356,285,209,441,361
1967,0.52,0.82,0.29,0.73,-1.65,-3.11,359,300,210,443,363
1968,0.51,0.82,0.28,0.92,-2.81,-3.11,356,285,204,442,362
1969,0.5,0.81,0.28,1.04,-2.93,-2.08,359,282,209,444,365
1970,0.51,0.82,0.28,0.79,-1.16,-1.65,357,284,211,440,364
1971,0.51,0.82,0.27,1.1,-3.72,-3.23,359,282,206,445,362
1972,0.5,0.82,0.28,-0.85,-2.32,-2.69,363,281,205,445,362
1973,0.51,0.81,0.28,-1.53,-3.17,-2.01,357,282,206,445,363
1974,0.5,0.81,0.28,-0.49,-3.48,-3.42,359,282,209,441,362
1975,0.52,0.81,0.27,1.89,-4.33,-2.2,357,278,206,443,363
1976,0.51,0.81,0.28,-0.12,-2.69,-3.48,358,278,210,442,363
1977,0.52,0.82,0.27,0.18,-3.23,-2.14,356,283,206,442,360
1978,0.52,0.82,0.27,0.98,-2.14,-3.42,359,284,221,439,364
1979,0.53,0.83,0.27,-0.12,-3.97,-2.93,359,286,208,445,365
1980,0.52,0.81,0.28,0.98,-2.69,-1.77,355,281,208,443,360
1981,0.52,0.82,0.27,0.43,-3.91,-1.4,348,284,206,437,360
1982,0.52,0.81,0.28,1.28,-4.15,-2.62,355,280,206,444,359
1983,0.52,0.81,0.26,-0.06,-3.17,-2.01,358,283,209,441,364
1984,0.53,0.81,0.26,0.12,-2.5,-3.05,359,282,205,442,359
1985,0.52,0.81,0.27,1.59,-1.22,-2.26,357,284,209,442,359
1986,0.52,0.82,0.27,0.24,-2.38,-3.11,357,282,209,446,364
1987,0.53,0.81,0.26,1.65,-1.53,-2.32,359,285,209,442,365
1988,0.52,0.81,0.27,0.85,-3.42,-2.69,358,282,206,447,364
1989,0.52,0.81,0.27,1.46,-4.46,-2.38,357,282,206,438,362
1990,0.52,0.81,0.26,0.43,-2.99,-1.83,360,282,206,446,362
1991,0.53,0.82,0.27,3.97,-1.77,0.31,370,283,209,441,362
1992,0.53,0.81,0.26,0.85,-4.09,-3.11,361,283,210,436,363
1993,0.53,0.82,0.26,0.43,-2.26,-1.34,358,281,210,442,364
1994,0.53,0.79,0.27,1.77,-1.04,-2.99,358,281,206,443,363
1995,0.53,0.8,0.28,-0.98,-3.3,-1.95,357,282,209,447,366
1996,0.53,0.8,0.28,1.34,-2.26,-1.77,352,282,207,447,362
1997,0.54,0.79,0.28,-1.77,-2.69,-3.36,355,282,206,446,359
1998,0.53,0.81,0.28,0.85,-3.17,-2.44,358,285,210,445,361
1999,0.53,0.8,0.28,0.49,-2.14,-2.81,357,280,210,440,359
2000,0.53,0.81,0.28,1.1,-2.38,-3.11,352,282,210,442,363
2001,0.51,0.81,0.27,-0.06,-3.3,-3.6,367,282,208,442,362
2002,0.52,0.81,0.27,-0.37,-2.2,-2.81,358,283,209,437,363
2003,0.51,0.81,0.29,0.18,-3.54,-2.32,357,282,210,442,363
2004,0.52,0.8,0.28,-0.18,-3.91,-3.3,360,285,209,441,370
2005,0.52,0.8,0.27,0.49,-2.32,-2.62,360,285,206,445,361
2006,0.52,0.81,0.28,-0.85,-4.03,-3.17,357,284,209,437,366
2007,0.53,0.81,0.27,0.98,-1.77,-2.87,357,281,206,440,365
2008,0.52,0.81,0.28,0.18,-3.36,-2.32,364,281,211,441,362
2009,0.52,0.8,0.27,-0.06,-2.26,-1.77,358,285,216,454,359
2010,0.52,0.8,0.28,0.43,-2.99,-2.32,357,284,208,438,364
2011,0.52,0.81,0.28,0.12,-3.36,-1.71,359,282,211,442,359
2012,0.52,0.81,0.27,0.24,-3.05,-2.14,360,283,208,446,363
2013,0.52,0.81,0.27,1.16,-2.75,-1.95,359,285,208,444,360
2014,0.53,0.82,0.27,1.04,-2.26,-1.89,357,282,207,442,364
2015,0.53,0.81,0.26,0.31,-2.81,-2.56,357,286,210,441,365
2016,0.52,0.8,0.26,0.79,-2.62,-2.08,357,283,208,439,364
2017,0.53,0.81,0.26,-0.18,-2.87,-2.99,360,286,207,446,364
2018,0.53,0.81,0.27,-0.31,-1.59,-2.87,357,284,209,439,365
2019,0.53,0.81,0.28,-0.37,-3.11,-2.93,360,282,206,442,362
2020,0.52,0.79,0.26,-0.18,-3.97,-1.83,360,285,207,445,359
2021,0.55,0.81,0.26,5.0,-7.51,0.12,360,285,208,445,362
2022,0.53,0.81,0.25,2.2,-4.64,-1.83,355,282,209,443,363
2023,0.55,0.82,0.24,2.56,-1.22,-3.36,359,282,208,442,365
2024,0.55,0.79,0.24,0.79,-3.05,-4.52,360,285,209,441,365
2025,0.53,0.82,0.25,1.04,-2.99,-2.62,361,285,206,446,363
2026,0.54,0.82,0.24,1.71,-2.2,-3.72,356,282,204,436,362
2027,0.52,0.82,0.26,-1.77,-1.65,-2.32,361,281,209,442,360
2028,0.54,0.82,0.25,-0.06,-2.56,-2.38,356,282,208,442,363
2029,0.53,0.81,0.25,0.24,-2.01,-1.89,397,283,203,442,362
2030,0.54,0.82,0.25,2.69,-1.46,-3.05,357,282,203,443,359
2031,0.52,0.82,0.26,0.24,-3.54,-2.81,360,281,208,442,363
2032,0.52,0.8,0.25,0.92,-1.04,-0.79,358,278,208,438,363
2033,0.52,0.8,0.25,-0.61,-3.54,-1.89,358,279,208,438,360
2034,0.54,0.79,0.27,0.79,-0.92,-2.5,358,283,209,445,364
2035,0.53,0.79,0.28,-0.49,-0.98,-4.76,360,285,208,441,362
2036,0.58,0.83,0.27,1.28,-3.17,-6.35,356,285,206,447,363
2037,0.56,0.83,0.27,1.4,-5.25,-5.37,358,283,206,441,366
2038,0.53,0.8,0.28,-0.92,-1.89,-0.49,359,283,207,443,364
2039,0.54,0.8,0.27,-0.12,-3.11,-1.77,356,280,207,446,364
2040,0.55,0.8,0.28,-0.18,-2.32,-3.66,358,284,210,441,363
2041,0.54,0.8,0.28,0.67,-2.5,-3.17,357,281,209,441,365
2042,0.55,0.8,0.27,0.92,-3.17,-3.3,361,283,208,443,365
2043,0.54,0.8,0.28,0.31,-3.11,-2.26,358,283,207,439,360
2044,0.54,0.8,0.28,0.0,-2.69,-2.38,360,285,205,443,361
2045,0.54,0.79,0.28,0.49,-2.26,-3.23,357,286,207,441,366
2046,0.5,0.8,0.28,0.0,-4.27,-4.58,360,283,206,447,357
2047,0.5,0.81,0.3,3.91,-2.87,-1.71,358,282,208,437,364
2048,0.52,0.8,0.27,0.55,-5.86,-1.53,359,282,209,445,365
2049,0.56,0.82,0.26,0.24,-4.09,-0.49,356,281,209,438,366
2050,0.57,0.82,0.25,0.92,-4.64,-2.38,359,283,207,445,367
2051,0.54,0.78,0.27,-0.67,-3.78,-4.88,361,281,208,444,363
