,aX,aY,aZ,gX,gY,gZ,little,ring,middle,index,thumb
0,0.35,0.93,0.08,1.4,-2.62,-2.44,198,253,415,453,334
1,0.34,0.94,0.08,-4.33,-0.37,-3.66,204,259,415,451,337
2,0.33,0.94,0.09,0.43,-5.62,-2.56,201,265,416,450,335
3,0.36,0.94,0.1,-2.93,0.24,-0.18,198,255,415,449,335
4,0.38,0.95,0.11,-2.56,-3.72,3.42,199,265,411,456,335
5,0.41,0.97,0.13,-11.23,4.15,3.48,201,260,414,453,335
6,0.52,0.86,0.18,-10.86,-14.1,2.5,200,259,414,445,339
7,0.52,0.84,0.19,-7.81,-5.43,-1.77,207,264,413,450,335
8,0.47,0.83,0.21,-4.33,-7.45,1.46,199,263,409,449,335
9,0.5,0.86,0.2,5.37,-6.35,-5.37,202,264,415,443,335
10,0.46,0.86,0.21,-1.22,-0.06,-1.83,204,280,417,452,337
11,0.48,0.86,0.21,-4.15,0.24,-4.39,201,268,413,455,339
12,0.46,0.86,0.25,-4.58,1.65,0.37,199,265,421,445,334
13,0.51,0.83,0.25,0.73,-2.62,-3.11,195,265,410,443,332
14,0.48,0.83,0.24,3.42,-3.6,-4.15,205,270,410,446,334
15,0.5,0.86,0.23,2.2,-3.11,-3.78,200,263,418,446,334
16,0.44,0.85,0.16,24.96,-8.85,-14.28,202,268,414,441,330
17,0.44,0.88,0.08,0.43,-3.66,-2.87,202,265,415,450,333
18,0.44,0.9,0.09,0.79,-3.97,-1.4,204,263,405,447,338
19,0.47,0.9,0.11,-1.1,-0.67,0.67,199,267,416,446,332
20,0.45,0.91,0.15,-1.53,0.12,5.19,203,268,416,445,333
21,0.48,0.88,0.13,5.43,-2.38,1.4,206,266,412,449,336
22,0.5,0.84,0.11,-7.26,-2.99,-1.28,203,266,408,444,334
23,0.51,0.85,0.13,0.92,-1.46,-3.05,206,267,408,451,332
24,0.52,0.84,0.13,-2.01,-4.76,-3.54,207,269,412,444,333
25,0.5,0.86,0.12,-1.04,-1.04,-3.05,206,266,412,442,341
26,0.5,0.85,0.13,2.81,-3.11,-4.58,205,270,411,439,337
27,0.52,0.86,0.1,-2.99,-2.08,-1.83,207,270,413,447,337
28,0.52,0.81,0.13,-4.33,-2.01,-2.14,207,273,406,448,337
29,0.52,0.84,0.15,-7.2,-10.25,1.77,207,269,408,450,336
30,0.5,0.82,0.17,-2.32,-0.31,-3.17,205,269,408,444,337
31,0.54,0.84,0.17,-1.4,-5.8,-0.98,197,263,411,454,339
32,0.55,0.83,0.17,0.55,-1.4,-1.83,202,269,409,443,338
33,0.56,0.83,0.16,-1.22,-2.44,-2.93,205,273,411,458,342
34,0.56,0.83,0.16,1.4,-4.39,-0.98,206,270,409,447,338
35,0.55,0.82,0.17,-2.08,-4.15,-2.14,208,272,409,447,338
36,0.55,0.81,0.16,0.12,-1.28,-4.33,209,267,417,448,339
37,0.55,0.81,0.17,-0.12,-3.36,-1.83,208,271,407,446,339
38,0.56,0.81,0.17,1.53,-2.26,-2.2,205,272,408,450,335
39,0.54,0.83,0.18,0.37,-2.99,-2.5,203,269,411,443,340
40,0.55,0.79,0.16,1.22,-4.33,-1.46,203,269,409,444,340
41,0.55,0.81,0.16,0.73,-3.11,-2.56,207,272,410,450,335
42,0.55,0.82,0.18,1.1,-3.6,-2.32,207,262,410,445,339
43,0.55,0.81,0.17,1.46,-2.5,-2.2,208,272,411,452,341
44,0.55,0.82,0.17,3.54,-5.07,-2.14,209,269,407,451,341
45,0.5,0.83,0.19,4.76,1.89,-15.32,209,273,409,447,340
46,0.48,0.92,0.13,5.74,-7.69,-8.24,204,272,407,446,335
47,0.47,0.92,0.14,12.08,-12.51,-11.23,205,273,405,445,336
48,0.41,0.84,0.17,1.46,0.06,-5.31,226,272,407,439,334
49,0.44,0.87,0.19,-0.79,-3.17,-2.99,211,271,413,441,333
50,0.45,0.88,0.18,0.37,-1.77,-2.75,190,273,411,449,332
51,0.43,0.87,0.2,-0.92,-2.14,-2.01,214,270,411,441,337
52,0.46,0.84,0.22,-2.62,-1.4,-1.59,206,282,409,449,336
53,0.44,0.88,0.2,0.55,-2.69,-5.07,205,274,409,446,336
54,0.46,0.89,0.21,0.73,-0.12,-2.87,208,270,408,446,334
55,0.46,0.82,0.19,0.61,-2.32,2.56,209,280,415,446,332
56,0.45,0.84,0.21,2.01,-6.16,-1.71,203,273,401,446,334
57,0.44,0.88,0.22,-0.37,-1.71,-2.01,209,277,410,447,338
58,0.46,0.85,0.22,0.37,0.12,0.73,206,273,406,441,338
59,0.47,0.86,0.19,0.12,-4.82,-2.56,208,277,409,441,337
60,0.46,0.86,0.21,0.37,-4.09,-2.62,206,272,407,451,337
61,0.47,0.83,0.22,-4.15,0.18,1.04,207,278,408,448,337
62,0.46,0.85,0.22,1.59,-0.55,-1.95,208,273,409,438,338
63,0.47,0.85,0.22,-3.17,-0.31,-1.46,206,272,407,442,339
64,0.48,0.84,0.19,0.49,-4.82,-2.26,209,275,410,445,338
65,0.47,0.85,0.19,2.14,-3.17,-2.44,206,277,406,446,340
66,0.46,0.86,0.2,0.24,-2.69,-3.54,211,275,413,444,339
67,0.47,0.85,0.2,0.61,-3.97,-3.6,206,272,403,441,338
68,0.48,0.87,0.2,0.85,-1.59,-3.48,206,273,409,449,336
69,0.42,0.82,0.2,-2.87,1.4,-1.71,205,275,410,440,334
70,0.45,0.84,0.21,-0.67,-5.55,-3.54,210,273,406,449,344
71,0.47,0.88,0.22,3.05,-2.75,-3.11,208,278,407,445,335
72,0.46,0.87,0.21,1.22,-1.46,-2.26,215,271,409,445,339
73,0.45,0.86,0.21,0.0,0.43,-2.93,203,276,412,452,334
74,0.47,0.85,0.2,-0.12,-2.38,-2.26,209,273,404,451,334
75,0.5,0.86,0.19,1.53,-4.82,1.28,210,273,406,446,333
76,0.48,0.86,0.21,0.73,-1.65,-0.92,202,273,405,446,342
77,0.47,0.85,0.21,-1.04,-3.54,-2.08,207,275,406,449,332
78,0.46,0.82,0.21,-6.9,-3.23,-4.76,211,277,408,451,339
79,0.5,0.84,0.21,0.49,-5.98,0.37,211,271,410,450,338
80,0.51,0.85,0.2,2.69,-5.68,1.77,210,277,407,447,338
81,0.52,0.81,0.22,-0.98,-0.55,1.1,208,277,406,445,335
82,0.56,0.82,0.2,-4.09,-1.53,-1.1,205,274,408,440,341
83,0.55,0.82,0.2,1.04,-6.59,-1.53,206,270,408,450,336
84,0.55,0.8,0.21,-0.55,-3.17,-0.55,206,274,408,446,339
85,0.56,0.8,0.22,1.59,-0.92,-5.19,207,274,409,447,337
86,0.55,0.81,0.2,2.38,-2.56,-1.95,209,277,408,449,337
87,0.54,0.79,0.22,-2.56,0.0,-0.49,209,276,407,443,341
88,0.56,0.81,0.24,-8.06,-1.53,-0.85,204,276,408,455,339
89,0.44,0.71,0.4,-16.91,13.31,-20.39,209,272,406,446,341
90,0.53,0.68,0.4,10.25,12.57,5.07,214,277,402,444,334
91,0.47,0.83,0.44,-9.09,-10.93,4.39,209,275,405,440,337
92,0.56,0.78,0.59,6.47,-27.28,1.16,209,279,400,445,337
93,0.56,0.68,0.41,-5.43,24.11,-9.22,212,272,408,448,335
94,0.59,0.7,0.59,-8.73,-4.7,-13.43,214,275,403,443,339
95,0.5,0.75,0.61,-5.86,-23.01,-25.21,210,273,405,445,338
96,0.33,0.79,0.5,22.83,-2.93,-3.48,213,273,405,445,338
97,0.21,0.82,0.48,9.77,31.07,11.96,209,274,406,441,332
98,0.33,0.74,0.54,-1.71,-0.06,7.93,205,273,403,448,336
99,0.45,0.73,0.53,-5.25,-5.37,-1.46,208,276,404,449,334
100,0.46,0.79,0.47,-2.93,-10.56,-6.1,212,279,405,444,338
101,0.42,0.73,0.52,2.14,-5.49,-2.08,210,272,406,452,340
102,0.39,0.68,0.47,5.37,-5.62,-0.12,205,274,407,451,336
103,0.51,0.67,0.48,0.24,-8.48,-8.97,212,270,404,452,337
104,0.47,0.77,0.49,6.47,-8.36,-2.44,213,275,399,450,338
105,0.5,0.69,0.44,5.74,-0.55,-2.44,212,274,405,453,336
106,0.47,0.73,0.47,-0.49,-3.17,-4.15,209,274,405,450,340
107,0.49,0.72,0.48,5.25,-9.52,13.12,210,270,405,444,337
108,0.54,0.69,0.47,-7.32,-0.73,-8.79,211,274,405,447,336
109,0.57,0.69,0.47,2.62,-3.85,-2.14,213,274,402,450,336
110,0.56,0.67,0.47,-2.75,0.85,-3.17,213,276,405,442,340
111,0.58,0.72,0.47,-2.08,-0.85,-8.67,212,279,407,453,336
112,0.52,0.68,0.49,4.82,-5.68,2.08,210,278,404,445,337
113,0.57,0.79,0.53,-6.84,-4.27,-2.01,209,283,410,439,338
114,0.53,0.69,0.5,0.0,-4.82,-3.48,212,283,407,437,335
115,0.53,0.67,0.52,1.89,-6.41,-0.61,204,273,405,443,336
116,0.55,0.71,0.49,7.2,-0.12,-6.23,214,276,405,445,336
117,0.54,0.7,0.5,-2.62,-1.59,-4.7,212,278,406,441,335
118,0.54,0.68,0.47,0.92,-4.21,-1.71,214,278,407,442,336
119,0.56,0.69,0.48,0.31,-3.3,-2.26,209,274,405,443,337
120,0.52,0.63,0.5,-0.79,-3.66,-1.65,216,278,409,438,336
121,0.53,0.67,0.52,0.79,-5.07,0.43,212,276,407,437,337
122,0.54,0.66,0.52,0.92,-2.75,-3.17,215,281,406,449,334
123,0.5,0.65,0.53,-2.38,-2.87,-4.76,214,275,410,440,341
124,0.54,0.66,0.52,0.24,-4.03,-1.83,207,277,405,441,338
125,0.53,0.67,0.52,-0.24,-2.75,-3.54,236,276,402,440,338
126,0.54,0.68,0.51,2.38,-2.75,-2.69,215,275,407,442,338
127,0.52,0.69,0.52,0.85,-2.2,-5.62,213,269,402,445,340
128,0.49,0.7,0.53,-1.83,2.08,-1.34,217,276,407,443,337
129,0.53,0.69,0.49,-2.62,-3.6,-5.55,212,281,405,446,337
130,0.54,0.73,0.49,10.99,-5.55,-0.49,211,279,407,437,332
131,0.52,0.7,0.42,-9.64,4.64,8.0,212,278,407,435,338
132,0.49,0.64,0.46,-7.57,-12.51,12.45,215,278,406,444,338
133,0.62,0.69,0.45,-5.13,-6.65,0.24,221,281,405,443,338
134,0.6,0.64,0.5,-13.18,-16.42,7.63,216,273,412,452,334
135,0.55,0.61,0.49,-8.54,-3.78,6.71,209,274,405,436,334
136,0.62,0.6,0.53,-10.13,-14.77,3.42,213,282,404,436,341
137,0.62,0.67,0.55,0.73,10.93,-2.26,212,280,403,438,336
138,0.57,0.57,0.5,-1.95,-21.48,5.37,213,279,404,437,338
139,0.64,0.65,0.5,3.17,6.16,1.28,216,282,409,434,337
140,0.62,0.62,0.55,-9.7,-20.87,15.44,215,282,402,440,337
141,0.67,0.54,0.53,-4.27,-4.03,-4.7,207,280,404,441,337
142,0.68,0.54,0.53,-7.39,-5.37,-2.56,215,281,413,438,339
143,0.63,0.46,0.61,-17.64,13.12,-3.17,217,283,407,441,339
144,0.68,0.46,0.61,7.26,-3.72,-6.35,217,279,409,438,340
145,0.62,0.53,0.58,7.02,-0.92,-14.16,216,285,405,437,336
146,0.64,0.54,0.56,-2.38,-9.4,-5.62,213,286,406,439,338
147,0.65,0.57,0.51,2.14,-5.98,-13.61,216,284,404,435,340
148,0.61,0.63,0.52,2.69,-8.0,-9.16,216,280,403,431,338
149,0.58,0.67,0.5,2.5,8.85,-7.08,218,284,399,437,339
150,0.57,0.68,0.5,6.96,-4.58,-5.0,219,285,399,430,343
151,0.57,0.7,0.48,0.92,-1.34,-1.04,217,285,400,437,342
152,0.54,0.68,0.48,-2.32,-4.88,-2.32,219,282,397,435,340
153,0.54,0.7,0.46,-1.1,-4.15,-0.31,219,279,395,439,341
154,0.58,0.7,0.46,-2.01,-5.74,-0.61,218,283,391,433,341
155,0.58,0.66,0.48,-1.71,-2.01,-1.16,218,283,390,437,337
156,0.58,0.69,0.5,-0.61,-1.04,-3.17,219,285,395,436,341
157,0.59,0.68,0.49,0.79,-3.36,-2.32,219,284,393,428,343
158,0.57,0.66,0.48,-0.67,-2.69,-5.0,218,283,391,427,341
159,0.55,0.69,0.48,4.46,1.4,-7.39,214,283,394,432,341
160,0.56,0.69,0.47,1.59,-1.46,-5.19,219,283,394,434,337
161,0.53,0.7,0.48,2.08,-1.1,-3.78,218,279,392,434,342
162,0.53,0.72,0.48,1.77,-3.05,-3.6,216,282,391,439,343
163,0.52,0.74,0.48,0.18,-1.53,-4.64,217,285,392,436,340
164,0.51,0.73,0.46,0.92,-2.2,-2.14,220,280,394,441,339
165,0.5,0.73,0.47,-1.65,-2.99,-3.66,213,283,390,439,343
166,0.52,0.72,0.46,-1.83,-4.64,-1.95,216,283,393,437,338
167,0.5,0.71,0.46,-2.62,-1.95,0.85,219,280,394,438,339
168,0.53,0.74,0.48,-6.77,-3.78,-3.42,220,278,388,432,337
169,0.52,0.7,0.53,10.07,-5.31,-2.75,215,283,391,435,338
170,0.49,0.7,0.52,-1.89,-4.76,-3.78,217,281,393,438,339
171,0.49,0.71,0.52,-0.24,-2.56,-2.01,234,283,393,436,341
172,0.5,0.71,0.53,-0.37,-3.54,-0.43,218,283,394,432,339
173,0.49,0.7,0.52,-1.28,-1.77,-0.85,218,282,390,441,339
174,0.51,0.71,0.52,1.53,-0.18,-1.1,218,284,391,444,337
175,0.52,0.71,0.5,1.4,-5.62,1.4,217,282,393,437,343
176,0.51,0.7,0.51,-0.12,-3.48,-2.26,218,282,394,446,341
177,0.5,0.7,0.51,1.04,-0.61,-1.1,218,283,391,433,341
178,0.52,0.7,0.52,-0.85,-1.53,-0.67,222,278,391,442,344
179,0.52,0.69,0.52,0.18,-2.56,-3.17,223,286,394,452,342
180,0.51,0.7,0.51,0.73,-2.75,-2.69,219,286,390,440,342
181,0.52,0.69,0.51,0.67,-2.99,-3.23,220,282,394,432,344
182,0.53,0.71,0.5,0.18,-4.46,-1.71,221,281,393,433,341
183,0.51,0.71,0.5,-1.83,-4.52,-3.11,213,286,396,438,342
184,0.5,0.69,0.5,0.06,-1.65,-1.1,216,283,393,433,346
185,0.51,0.69,0.5,-1.71,-0.92,-1.59,221,286,392,441,342
186,0.51,0.66,0.49,-4.39,-5.74,-0.18,223,289,391,435,343
187,0.52,0.64,0.5,-5.43,-3.48,-2.5,216,286,390,435,343
188,0.55,0.68,0.51,1.53,-2.08,-2.44,222,282,396,435,343
189,0.57,0.66,0.53,5.43,-3.6,-1.65,220,288,397,432,344
190,0.57,0.66,0.52,6.29,-2.26,0.37,220,280,395,438,346
191,0.58,0.66,0.54,0.12,-4.33,-3.17,222,284,395,437,343
192,0.58,0.64,0.52,3.85,-1.16,-0.85,220,285,390,433,344
193,0.61,0.6,0.51,3.97,-1.1,-5.8,219,287,395,438,344
194,0.54,0.64,0.52,4.7,-6.84,-2.81,223,285,395,436,347
195,0.53,0.69,0.53,1.16,-2.87,-3.11,219,288,390,438,346
196,0.59,0.72,0.51,2.32,-0.37,-10.8,221,287,391,441,343
197,0.55,0.7,0.53,3.91,-10.01,1.65,219,287,390,440,344
198,0.6,0.64,0.49,-5.19,-1.16,-5.98,225,286,391,439,345
199,0.64,0.69,0.49,4.76,0.0,-2.14,216,284,402,438,341
200,0.59,0.65,0.51,1.34,-7.02,-4.03,223,288,394,437,345
201,0.57,0.65,0.5,3.42,-3.54,-0.43,235,284,394,440,342
202,0.61,0.66,0.51,3.91,-5.13,-3.66,220,291,391,436,345
203,0.57,0.65,0.5,-0.73,-2.5,-4.7,222,289,394,441,345
204,0.61,0.63,0.48,-2.5,-2.99,-1.89,220,289,392,431,346
205,0.61,0.64,0.48,1.71,-0.98,-4.94,221,284,391,431,343
206,0.61,0.62,0.49,2.69,-1.1,-4.7,221,287,391,437,343
207,0.56,0.64,0.49,1.89,-1.89,-7.87,217,284,396,436,344
208,0.56,0.68,0.5,5.37,-1.28,-14.22,223,287,394,433,348
209,0.48,0.73,0.5,-2.44,3.17,-16.78,221,288,390,440,344
210,0.46,0.75,0.48,-4.82,-3.42,-10.99,223,287,390,436,344
211,0.3,0.71,0.47,10.38,5.0,-22.16,222,287,390,434,346
212,0.27,0.75,0.56,-11.66,-3.54,-13.85,220,288,391,439,348
213,0.18,0.72,0.59,-21.79,-8.36,-4.09,219,282,393,438,345
214,0.27,0.74,0.57,-7.45,-13.67,-4.94,214,282,394,430,336
215,0.27,0.72,0.66,-4.7,-4.58,-0.43,224,282,395,433,342
216,0.27,0.78,0.64,-3.91,7.57,-8.18,216,283,393,437,343
217,0.25,0.75,0.64,5.19,-2.69,-1.22,223,281,393,438,343
218,0.27,0.76,0.61,-1.04,-3.42,-2.01,221,277,393,436,343
219,0.28,0.75,0.62,1.53,-2.93,0.0,210,277,391,436,341
220,0.27,0.75,0.62,2.69,-4.09,0.37,216,284,394,433,346
221,0.29,0.74,0.6,-1.83,-2.26,-5.0,221,283,393,440,347
222,0.29,0.74,0.62,2.26,-3.6,3.54,220,282,392,443,346
223,0.29,0.74,0.61,-0.79,-4.94,1.95,244,282,394,433,345
224,0.32,0.74,0.61,1.22,-4.39,0.31,225,282,393,435,346
225,0.31,0.73,0.61,1.1,-4.46,-2.01,224,284,394,437,344
226,0.31,0.74,0.62,-1.28,-4.15,-4.09,221,283,392,434,347
227,0.3,0.71,0.59,-5.86,-1.04,1.95,221,283,384,436,345
228,0.26,0.68,0.65,-9.22,-0.92,0.31,225,282,395,431,342
229,0.27,0.64,0.7,-8.3,-7.93,1.53,223,284,394,432,346
230,0.28,0.64,0.72,5.07,10.01,7.32,223,285,396,431,345
231,0.35,0.69,0.71,-1.28,-9.89,-2.14,223,288,394,440,347
232,0.35,0.57,0.67,-23.56,-8.61,7.69,221,287,394,436,346
233,0.36,0.58,0.78,4.52,-4.88,8.91,224,284,393,435,346
234,0.39,0.67,0.76,9.16,-6.77,6.71,222,285,393,436,348
235,0.46,0.53,0.77,-14.95,-24.41,2.75,222,287,394,436,349
236,0.24,0.52,0.8,3.48,-15.01,10.93,221,277,398,437,347
237,0.43,0.51,0.7,-17.4,-6.16,-14.28,223,284,398,426,347
238,0.37,0.55,0.77,-14.1,-33.57,9.7,226,287,394,431,347
239,0.51,0.54,0.78,-6.04,5.92,6.77,225,284,396,437,348
240,0.54,0.45,0.78,2.08,-4.46,1.53,225,285,391,435,347
241,0.55,0.44,0.74,-8.42,2.2,-15.01,224,286,391,432,348
242,0.38,0.5,0.79,5.55,11.47,-30.27,221,277,394,428,344
243,0.45,0.44,0.61,0.06,10.99,-3.36,225,282,398,431,346
244,0.55,0.43,0.64,-5.8,-29.48,-4.15,223,285,396,426,343
245,0.71,0.5,0.63,24.48,-16.6,6.96,219,283,409,428,347
246,0.43,0.39,0.59,-9.52,-15.81,8.61,220,283,394,427,342
247,0.56,0.41,0.68,-27.4,-9.58,14.34,228,284,397,431,350
248,0.66,0.6,0.76,20.02,-2.93,2.44,224,285,395,426,342
249,0.43,0.46,0.75,20.63,-32.53,10.74,224,281,396,431,346
250,0.74,0.49,0.63,-30.27,-7.14,0.43,223,287,397,427,350
251,0.68,0.48,0.66,21.18,25.15,-22.83,222,283,398,425,346
252,0.59,0.42,0.63,-5.86,-8.3,-6.04,221,286,392,431,347
253,0.6,0.45,0.69,1.46,-13.43,14.47,220,284,393,434,346
254,0.58,0.34,0.58,-6.53,8.97,-1.1,222,287,394,431,341
255,0.58,0.3,0.75,-3.23,-4.7,34.79,213,283,397,429,348
256,0.63,0.2,0.67,14.34,-21.85,8.73,221,282,396,427,351
257,0.73,0.11,0.65,0.55,-13.79,-10.68,213,282,394,426,349
258,0.48,0.2,0.75,6.9,22.71,-39.86,219,282,398,432,349
259,0.49,0.43,0.75,-8.36,-14.16,-35.03,220,281,398,434,349
260,0.4,0.44,0.69,2.62,-3.05,-7.63,215,279,397,428,345
261,0.23,0.62,0.55,70.25,28.63,9.58,215,277,403,437,345
262,0.31,0.63,0.39,39.0,14.83,13.06,214,279,405,442,346
263,0.42,0.81,0.41,29.36,10.68,13.67,218,281,402,448,343
264,0.44,0.71,0.39,2.44,2.01,2.75,217,279,405,451,342
265,0.38,0.73,0.34,6.84,-5.86,-4.27,215,281,402,452,345
266,0.35,0.8,0.34,-7.39,-24.17,-2.38,216,283,406,453,345
267,0.26,0.87,0.37,-15.08,-10.93,-17.46,214,285,408,447,342
268,0.34,0.94,0.37,-4.21,-12.15,-1.59,220,277,408,456,347
269,0.32,0.8,0.36,-0.49,1.28,13.31,218,287,405,443,344
270,0.48,0.7,0.33,-6.04,-1.34,-0.12,223,278,404,450,348
271,0.42,0.84,0.41,-9.58,-5.19,-4.03,217,285,409,447,342
272,0.36,0.88,0.5,-11.9,-4.94,-21.67,205,281,405,446,344
273,0.38,0.78,0.46,-15.2,-15.2,-9.09,215,281,407,451,336
274,0.33,0.83,0.5,4.21,3.66,-7.08,219,282,408,462,347
275,0.29,0.79,0.47,6.29,1.28,-5.62,222,282,400,444,347
276,0.34,0.83,0.44,-0.73,-5.19,-0.98,215,282,407,451,338
277,0.29,0.82,0.49,-3.42,-8.54,0.24,216,283,407,447,339
278,0.33,0.82,0.49,-5.74,-8.54,-0.67,219,281,405,449,345
279,0.36,0.82,0.49,0.43,-5.31,2.32,218,288,409,440,344
280,0.32,0.73,0.5,-3.11,-9.34,3.72,218,280,402,444,340
281,0.38,0.73,0.51,-17.33,-1.04,-15.08,216,283,408,441,344
282,0.38,0.72,0.54,-12.21,-13.85,-5.98,216,282,407,438,340
283,0.39,0.7,0.55,2.01,-1.34,-0.49,221,285,409,445,344
284,0.39,0.7,0.56,-0.18,-3.6,-5.07,219,284,408,443,339
285,0.36,0.75,0.58,-0.06,-4.03,-8.54,217,282,404,436,339
286,0.33,0.74,0.6,4.33,1.46,-5.37,216,283,409,442,344
287,0.28,0.82,0.58,12.15,8.0,-10.38,222,278,403,437,351
288,0.27,0.79,0.54,2.38,2.69,1.71,218,280,402,442,348
289,0.25,0.8,0.55,2.38,2.5,0.31,224,280,407,442,352
290,0.26,0.78,0.58,0.31,0.85,9.34,214,281,408,445,346
291,0.28,0.73,0.58,-6.96,-1.34,12.94,217,282,404,436,344
292,0.32,0.79,0.57,-4.52,0.18,-1.28,219,281,406,440,346
293,0.37,0.76,0.57,1.28,-14.71,-1.59,219,281,406,440,343
294,0.36,0.76,0.57,-3.17,1.16,-0.67,221,281,408,448,349
295,0.33,0.75,0.6,5.31,-6.84,-3.05,222,279,404,438,348
296,0.33,0.74,0.58,-3.17,-3.72,-1.22,221,284,407,442,347
297,0.33,0.76,0.62,-0.37,-3.85,-0.06,221,300,408,432,350
298,0.36,0.69,0.62,-0.06,-10.8,1.1,217,281,409,442,354
299,0.39,0.7,0.58,-0.37,-2.14,-5.55,218,284,408,446,346
300,0.47,0.74,0.61,2.75,-3.78,-5.13,219,288,406,437,349
301,0.42,0.72,0.58,-5.19,-5.07,-4.21,219,281,404,441,350
302,0.39,0.69,0.61,-3.36,-5.43,5.43,204,285,408,442,345
303,0.39,0.67,0.59,4.46,-0.06,-3.85,216,283,404,441,346
304,0.32,0.66,0.59,-3.36,7.75,-5.37,223,286,404,441,355
305,0.39,0.73,0.66,0.73,-0.92,-5.0,221,280,402,434,350
306,0.33,0.67,0.64,3.3,-4.82,-2.5,219,277,403,438,347
307,0.34,0.67,0.61,14.59,-10.93,-6.1,222,267,404,441,349
308,0.34,0.75,0.5,14.95,-3.48,-7.08,216,272,411,445,353
309,0.36,0.93,0.36,33.81,2.26,-25.02,225,282,412,445,352
310,0.12,0.93,0.19,11.11,0.85,-18.98,213,274,411,449,350
311,0.16,1.0,0.14,8.54,-6.35,-4.64,214,278,410,458,349
312,0.1,0.97,0.18,-15.87,0.06,0.37,216,280,404,452,347
313,0.09,0.95,0.16,-1.77,-1.1,-0.24,224,274,408,454,353
314,0.09,0.96,0.19,5.8,-3.3,-3.85,216,273,406,453,351
315,0.12,0.95,0.17,-3.48,-12.08,2.56,216,276,410,456,349
316,0.09,0.79,0.22,-54.99,-4.03,30.52,214,278,408,440,346
317,0.19,0.69,0.61,-72.27,21.67,-16.05,217,277,405,444,342
318,0.3,0.58,0.74,-11.11,15.08,-19.41,215,281,403,427,340
319,0.27,0.68,0.7,22.77,-8.97,8.67,216,280,401,436,340
320,0.29,0.72,0.7,-5.07,-9.16,7.2,215,280,403,443,339
321,0.25,0.67,0.71,-8.48,-8.85,-0.92,218,281,403,438,341
322,0.27,0.65,0.72,-3.48,-4.03,-6.29,218,281,404,435,340
323,0.27,0.68,0.72,1.53,-4.64,-2.14,217,281,404,435,344
324,0.28,0.67,0.72,-0.43,-3.97,-3.17,228,280,404,435,338
325,0.25,0.66,0.74,-0.61,-0.18,-3.97,219,292,405,437,342
326,0.25,0.67,0.73,2.56,0.85,-5.55,216,286,401,433,338
327,0.27,0.65,0.7,4.46,-0.49,-1.83,220,284,402,439,344
328,0.26,0.67,0.72,-2.5,-6.16,-4.03,220,282,404,436,344
329,0.29,0.65,0.7,-4.46,-2.87,-4.58,220,279,403,438,343
330,0.28,0.67,0.71,-0.18,-3.17,-3.11,219,293,402,429,339
331,0.28,0.67,0.71,-0.55,-3.36,-2.87,221,279,404,435,341
332,0.26,0.66,0.71,0.43,-2.14,-2.2,221,278,401,433,341
333,0.27,0.71,0.72,-2.62,-3.11,-2.32,219,283,395,432,340
334,0.32,0.67,0.71,-2.62,-3.97,2.87,218,276,401,438,340
335,0.32,0.67,0.73,1.59,-3.11,-4.88,216,282,400,433,344
336,0.31,0.64,0.72,-0.37,-5.13,-0.79,215,275,400,428,348
337,0.34,0.62,0.7,-1.34,-2.93,-0.06,219,280,400,434,343
338,0.31,0.59,0.71,-2.38,-3.78,1.83,220,282,415,435,339
339,0.33,0.6,0.71,-0.06,-7.26,2.5,219,277,399,437,344
340,0.36,0.61,0.72,-1.1,-3.36,-4.03,220,279,402,433,345
341,0.36,0.62,0.72,1.4,-3.3,-2.26,222,279,397,434,342
342,0.36,0.61,0.72,0.43,-3.23,-3.42,221,277,399,431,343
343,0.36,0.61,0.73,0.67,-2.56,-2.93,208,281,391,423,342
344,0.38,0.6,0.73,-0.31,1.46,-4.09,224,280,396,425,342
345,0.34,0.58,0.71,-4.46,-0.73,-0.55,219,278,388,431,343
346,0.39,0.58,0.76,1.22,-6.96,-4.27,225,279,392,429,341
347,0.44,0.65,0.76,0.24,-10.38,4.58,216,282,392,425,343
348,0.43,0.49,0.7,-0.12,-3.85,8.73,221,277,392,429,343
349,0.52,0.43,0.73,-7.32,-8.0,6.35,223,279,399,430,343
350,0.47,0.49,0.76,4.76,-2.56,14.53,217,281,394,424,344
351,0.52,0.39,0.75,-0.12,-11.47,0.43,222,271,391,424,345
352,0.49,0.44,0.77,-3.48,-3.36,-5.07,231,272,391,422,343
353,0.5,0.44,0.75,-3.36,-0.18,-8.54,221,281,397,430,346
354,0.53,0.45,0.75,5.92,-2.44,-9.4,223,282,392,420,341
355,0.42,0.46,0.74,-3.72,-11.41,-2.5,220,279,394,428,347
356,0.46,0.43,0.72,-1.59,-5.31,4.64,223,282,392,429,341
357,0.5,0.5,0.72,-1.65,1.28,7.93,214,282,392,420,343
358,0.52,0.45,0.75,-4.46,-4.27,-3.54,223,281,392,429,346
359,0.51,0.43,0.73,0.61,-6.1,0.43,220,281,397,426,342
360,0.52,0.43,0.74,0.73,-4.88,-4.15,223,279,396,425,342
361,0.53,0.44,0.74,-2.38,-2.5,-2.99,231,284,395,425,344
362,0.52,0.44,0.75,-0.55,-1.89,-3.05,224,280,395,428,345
363,0.52,0.44,0.75,0.79,-1.16,-3.78,221,279,397,431,340
364,0.51,0.46,0.73,11.9,4.39,-5.13,218,284,395,428,345
365,0.44,0.59,0.73,13.85,15.01,-9.58,221,283,398,431,345
366,0.45,0.59,0.65,4.58,-9.7,8.85,222,281,395,437,346
367,0.5,0.58,0.63,-1.16,-12.27,8.85,223,280,394,429,347
368,0.48,0.6,0.66,-2.32,-7.93,-4.39,220,283,389,431,342
369,0.5,0.57,0.67,0.79,-2.2,0.85,221,282,393,434,350
370,0.49,0.56,0.67,0.12,-4.03,-2.44,224,284,391,433,345
371,0.51,0.56,0.67,-0.18,-2.81,-3.36,223,294,389,433,349
372,0.5,0.57,0.68,0.31,-2.01,-2.93,222,283,388,430,347
373,0.5,0.54,0.68,-0.37,-2.56,-2.38,218,286,391,427,349
374,0.51,0.56,0.67,0.79,-2.69,-1.28,230,286,389,431,349
375,0.51,0.56,0.68,1.59,-1.28,-1.22,226,284,391,421,348
376,0.49,0.56,0.69,2.14,-4.03,-2.62,223,284,390,429,348
377,0.45,0.56,0.7,-3.23,0.18,-4.46,225,278,388,438,347
378,0.47,0.55,0.7,-0.18,-2.01,-3.97,225,281,389,433,347
379,0.48,0.55,0.7,-0.06,-3.05,-2.62,222,283,389,429,347
380,0.48,0.55,0.7,0.0,-4.7,-1.89,224,282,392,431,344
381,0.5,0.55,0.7,-0.98,-1.46,-1.04,223,282,385,433,343
382,0.51,0.54,0.7,0.06,-1.4,-3.6,233,283,392,430,350
383,0.47,0.55,0.7,4.58,-1.95,-3.36,234,279,388,428,348
384,0.48,0.56,0.7,1.4,-4.52,-3.54,217,280,391,429,344
385,0.49,0.56,0.7,0.92,-5.43,-1.77,222,284,391,427,346
386,0.49,0.55,0.7,0.55,-4.09,-1.83,225,278,391,430,347
387,0.49,0.56,0.7,-0.49,-3.3,-3.23,223,279,389,427,348
388,0.5,0.54,0.7,0.06,-1.34,-2.44,221,283,388,426,348
389,0.49,0.52,0.7,0.55,-2.81,-2.38,224,281,392,421,344
390,0.5,0.52,0.69,0.06,-5.43,-1.83,223,283,388,428,348
391,0.5,0.53,0.69,0.61,-3.3,-2.99,223,281,386,435,347
392,0.42,0.59,0.71,15.08,18.98,-8.48,223,281,390,428,346
393,0.35,0.61,0.72,4.64,-4.76,1.83,222,282,392,426,350
394,0.39,0.64,0.64,2.2,-1.89,-2.62,216,285,389,435,347
395,0.4,0.66,0.66,-2.56,-5.31,-0.98,223,279,385,434,347
396,0.4,0.66,0.66,-0.18,-4.09,-2.38,224,283,391,433,350
397,0.4,0.65,0.67,-0.67,-4.76,-0.55,223,284,394,441,347
398,0.43,0.64,0.65,-0.06,-2.44,-1.53,222,281,389,432,347
399,0.45,0.64,0.65,0.43,-3.23,-3.78,223,285,393,435,345
400,0.45,0.64,0.65,-0.31,-3.85,-2.08,225,279,393,438,350
401,0.45,0.64,0.65,-0.31,-2.99,-2.32,222,280,394,439,344
402,0.46,0.63,0.65,-0.49,-2.75,-2.5,221,279,390,435,347
403,0.45,0.63,0.65,0.24,-2.99,-3.54,219,285,394,430,339
404,0.45,0.63,0.66,0.18,-2.69,-4.03,223,279,393,432,345
405,0.46,0.64,0.67,-0.49,-3.23,-1.95,223,280,389,432,347
406,0.45,0.62,0.66,1.65,-1.28,-3.85,227,286,391,431,346
407,0.45,0.62,0.67,0.79,-3.78,-1.53,222,279,392,433,347
408,0.46,0.61,0.65,0.49,-3.66,-2.44,224,282,393,435,347
409,0.47,0.62,0.67,-4.33,-4.76,-0.92,219,293,385,432,342
410,0.46,0.6,0.66,0.73,-4.15,-2.93,226,284,391,430,346
411,0.45,0.62,0.68,1.16,-3.05,-2.38,226,272,393,432,348
412,0.45,0.61,0.67,-0.98,-3.36,-2.14,220,279,396,435,347
413,0.44,0.61,0.67,0.18,-2.26,-1.95,225,283,391,435,345
414,0.44,0.61,0.68,-0.49,-3.66,-2.93,222,282,392,432,348
415,0.45,0.61,0.68,-1.34,-4.21,-3.11,221,279,390,434,349
416,0.45,0.61,0.67,-1.71,1.46,-4.7,223,277,396,435,343
417,0.45,0.61,0.67,-1.71,-4.09,-2.69,223,283,392,430,340
418,0.46,0.6,0.67,1.28,-3.6,-2.08,228,282,393,435,351
419,0.45,0.6,0.68,0.43,-1.53,-2.01,224,283,392,434,348
420,0.45,0.6,0.68,-3.91,-3.48,-3.42,224,278,396,431,344
421,0.46,0.57,0.66,-2.69,-5.8,-4.52,223,283,392,431,346
422,0.46,0.59,0.68,-0.18,-3.54,-0.73,226,284,392,443,350
423,0.46,0.57,0.67,-0.55,-3.97,-1.95,225,283,393,433,352
424,0.49,0.58,0.67,0.85,-3.97,-3.05,226,282,390,436,342
425,0.5,0.59,0.68,0.73,-3.05,-1.89,225,283,392,433,348
426,0.49,0.57,0.67,0.61,-3.36,-2.08,227,282,393,437,348
427,0.48,0.58,0.68,-2.2,-4.82,-2.01,225,281,398,432,348
428,0.47,0.58,0.66,0.0,-0.98,-4.27,222,281,393,428,348
429,0.49,0.57,0.67,0.67,-2.69,-1.34,225,282,397,426,351
430,0.49,0.56,0.68,-1.71,-2.81,-2.08,224,282,388,428,349
431,0.46,0.53,0.69,-4.03,-0.98,-5.62,229,283,396,431,352
432,0.49,0.57,0.7,3.05,-2.56,-3.3,225,280,391,433,350
433,0.48,0.55,0.7,1.53,-2.38,-1.16,228,292,394,428,348
434,0.48,0.56,0.69,1.4,-2.38,-3.36,226,283,390,426,352
435,0.48,0.56,0.7,-0.67,-5.8,-1.16,225,284,394,433,351
436,0.5,0.56,0.69,-0.79,-6.16,-2.5,229,287,397,434,348
437,0.5,0.56,0.69,0.49,-3.54,-2.69,226,281,392,434,346
438,0.49,0.56,0.68,2.5,-2.93,-2.26,220,281,394,430,348
439,0.49,0.56,0.69,-2.38,-1.77,-0.92,229,282,391,436,358
440,0.49,0.56,0.67,2.69,-4.09,-1.28,224,282,387,433,349
441,0.49,0.55,0.68,-1.1,-3.72,-1.77,226,286,392,437,348
442,0.51,0.55,0.68,0.12,-3.91,-2.56,229,277,395,429,348
443,0.53,0.54,0.67,-0.06,-3.36,-3.72,224,287,387,420,350
444,0.52,0.54,0.67,1.71,-3.85,-2.99,225,284,390,435,349
445,0.51,0.55,0.68,-2.87,-2.32,-7.2,225,294,392,431,347
446,0.52,0.57,0.66,-6.47,-1.4,-7.14,223,285,394,432,348
447,0.52,0.54,0.69,-3.54,-1.34,-5.55,224,282,393,431,349
448,0.51,0.55,0.68,0.85,-3.23,-2.62,224,283,393,428,347
449,0.51,0.56,0.7,1.28,-3.23,-2.26,223,282,394,430,347
450,0.49,0.54,0.7,-0.12,-1.34,-3.78,227,286,395,430,349
451,0.51,0.53,0.69,-0.67,-2.87,-2.01,221,282,388,430,350
452,0.51,0.54,0.67,2.62,-3.78,-3.36,227,283,393,434,351
453,0.52,0.55,0.68,1.22,-2.14,-1.34,227,284,390,429,351
454,0.5,0.54,0.67,-0.61,-3.78,-6.1,223,284,390,435,351
455,0.54,0.54,0.68,-6.16,-7.14,-6.65,221,281,391,434,345
456,0.53,0.58,0.65,8.42,1.83,-17.64,222,284,392,433,349
457,0.43,0.59,0.69,2.75,-3.78,3.05,217,282,390,439,349
458,0.41,0.6,0.68,6.35,9.52,-8.54,226,280,393,431,349
459,0.49,0.6,0.7,0.55,-2.93,-1.22,222,280,399,436,347
460,0.34,0.58,0.7,-0.79,-1.95,-0.37,222,282,397,440,352
461,0.37,0.59,0.74,-2.69,-3.66,-0.98,226,278,415,438,350
462,0.38,0.59,0.74,-3.66,-3.91,-1.22,222,285,402,442,348
463,0.37,0.55,0.74,-6.84,1.4,1.1,228,284,396,445,350
464,0.37,0.53,0.73,-0.06,-7.81,-8.06,223,281,402,449,352
465,0.39,0.53,0.74,-2.38,3.85,-5.55,227,282,399,440,344
466,0.38,0.5,0.76,2.75,-5.62,1.04,224,287,395,441,350
467,0.38,0.5,0.76,-6.04,-1.83,-2.44,223,280,394,433,350
468,0.4,0.51,0.76,0.12,-4.03,-1.04,217,282,395,438,349
469,0.31,0.58,0.77,-3.11,-5.55,-6.04,220,281,394,436,348
470,0.35,0.52,0.77,1.28,-1.04,-0.24,223,288,390,435,347
471,0.38,0.52,0.78,-2.14,-5.31,-1.53,224,280,395,439,352
472,0.4,0.53,0.78,-1.71,-3.72,-4.52,225,281,390,438,349
473,0.39,0.52,0.78,-2.56,-1.1,-0.55,220,285,394,443,350
474,0.4,0.51,0.77,-0.79,-4.64,-3.48,227,274,393,442,348
475,0.42,0.53,0.78,4.46,-3.3,-1.46,227,279,396,439,349
476,0.4,0.52,0.79,-1.95,-5.0,-2.38,227,281,390,433,351
477,0.42,0.49,0.79,-1.16,-2.38,-3.54,228,277,389,438,354
478,0.43,0.5,0.8,1.65,-7.08,0.49,220,287,390,441,353
479,0.41,0.49,0.8,7.14,1.4,2.5,223,281,392,441,352
480,0.42,0.47,0.79,-0.43,-2.44,-0.67,225,283,395,438,353
481,0.45,0.48,0.77,3.91,-1.71,-5.62,222,284,398,440,354
482,0.43,0.51,0.77,3.11,-4.88,-3.11,225,279,395,441,349
483,0.43,0.51,0.76,-1.83,-2.38,-2.26,225,286,397,442,352
484,0.44,0.5,0.77,-0.37,-3.11,-1.89,225,280,394,438,351
485,0.41,0.5,0.78,0.49,-2.5,-1.89,223,284,396,440,353
486,0.42,0.49,0.77,-1.89,-3.54,-4.03,220,283,396,439,353
487,0.44,0.5,0.78,1.77,-3.72,-2.99,225,281,400,438,354
488,0.44,0.48,0.76,1.53,-0.43,-5.92,223,281,397,433,351
489,0.44,0.49,0.79,1.1,0.0,-7.63,227,285,397,436,352
490,0.45,0.48,0.77,1.83,-5.13,-1.83,225,290,394,438,353
491,0.42,0.49,0.79,-0.31,-2.08,-3.48,225,285,394,436,348
492,0.43,0.48,0.78,-2.01,-2.32,-3.23,223,282,396,437,353
493,0.44,0.49,0.78,-2.26,-1.34,-4.94,223,283,392,439,352
494,0.44,0.5,0.79,4.7,-0.85,-2.2,226,284,393,438,353
495,0.41,0.47,0.79,0.79,-4.27,-2.75,227,283,392,435,353
496,0.43,0.47,0.74,-0.73,-0.98,-1.83,230,280,398,431,348
497,0.4,0.49,0.81,7.75,-2.14,-0.12,226,286,390,432,351
498,0.4,0.5,0.78,-2.08,-0.12,-0.67,224,281,391,430,355
499,0.35,0.54,0.83,-12.02,11.78,-3.11,223,291,390,431,352
500,0.39,0.45,0.8,-4.09,-5.74,-3.23,227,283,373,434,353
501,0.37,0.48,0.84,-0.31,-5.43,0.0,218,283,380,433,352
502,0.36,0.46,0.79,1.22,-2.93,-0.55,223,279,376,433,352
503,0.39,0.5,0.82,0.06,-4.52,-3.11,221,282,377,435,354
504,0.42,0.49,0.79,2.14,-3.97,0.18,221,283,376,438,353
505,0.43,0.48,0.8,2.44,-0.85,-3.48,222,283,380,436,351
506,0.39,0.48,0.81,0.06,-1.22,-4.15,226,283,371,429,350
507,0.41,0.47,0.81,0.85,-2.87,-2.93,223,290,377,438,352
508,0.4,0.48,0.82,-3.23,-5.31,-0.79,232,283,378,430,354
509,0.42,0.46,0.82,-3.3,-5.07,-2.2,222,280,379,435,353
510,0.45,0.42,0.82,-3.3,-9.95,0.24,226,285,378,437,355
511,0.49,0.39,0.8,1.83,-6.59,-1.04,227,281,391,438,353
512,0.5,0.35,0.77,-1.83,-11.9,-4.21,225,284,374,436,353
513,0.53,0.39,0.78,-1.89,-8.36,-5.98,226,281,378,435,351
514,0.52,0.32,0.77,2.93,-10.19,-6.59,226,289,380,433,350
515,0.35,0.93,0.08,1.4,-2.62,-2.44,198,253,415,453,334
516,0.34,0.94,0.08,-4.33,-0.37,-3.66,204,259,415,451,337
517,0.33,0.94,0.09,0.43,-5.62,-2.56,201,265,416,450,335
518,0.36,0.94,0.1,-2.93,0.24,-0.18,198,255,415,449,335
519,0.38,0.95,0.11,-2.56,-3.72,3.42,199,265,411,456,335
520,0.41,0.97,0.13,-11.23,4.15,3.48,201,260,414,453,335
521,0.52,0.86,0.18,-10.86,-14.1,2.5,200,259,414,445,339
522,0.52,0.84,0.19,-7.81,-5.43,-1.77,207,264,413,450,335
523,0.47,0.83,0.21,-4.33,-7.45,1.46,199,263,409,449,335
524,0.5,0.86,0.2,5.37,-6.35,-5.37,202,264,415,443,335
525,0.46,0.86,0.21,-1.22,-0.06,-1.83,204,280,417,452,337
526,0.48,0.86,0.21,-4.15,0.24,-4.39,201,268,413,455,339
527,0.46,0.86,0.25,-4.58,1.65,0.37,199,265,421,445,334
528,0.51,0.83,0.25,0.73,-2.62,-3.11,195,265,410,443,332
529,0.48,0.83,0.24,3.42,-3.6,-4.15,205,270,410,446,334
530,0.5,0.86,0.23,2.2,-3.11,-3.78,200,263,418,446,334
531,0.44,0.85,0.16,24.96,-8.85,-14.28,202,268,414,441,330
532,0.44,0.88,0.08,0.43,-3.66,-2.87,202,265,415,450,333
533,0.44,0.9,0.09,0.79,-3.97,-1.4,204,263,405,447,338
534,0.47,0.9,0.11,-1.1,-0.67,0.67,199,267,416,446,332
535,0.45,0.91,0.15,-1.53,0.12,5.19,203,268,416,445,333
536,0.48,0.88,0.13,5.43,-2.38,1.4,206,266,412,449,336
537,0.5,0.84,0.11,-7.26,-2.99,-1.28,203,266,408,444,334
538,0.51,0.85,0.13,0.92,-1.46,-3.05,206,267,408,451,332
539,0.52,0.84,0.13,-2.01,-4.76,-3.54,207,269,412,444,333
540,0.5,0.86,0.12,-1.04,-1.04,-3.05,206,266,412,442,341
541,0.5,0.85,0.13,2.81,-3.11,-4.58,205,270,411,439,337
542,0.52,0.86,0.1,-2.99,-2.08,-1.83,207,270,413,447,337
543,0.52,0.81,0.13,-4.33,-2.01,-2.14,207,273,406,448,337
544,0.52,0.84,0.15,-7.2,-10.25,1.77,207,269,408,450,336
545,0.5,0.82,0.17,-2.32,-0.31,-3.17,205,269,408,444,337
546,0.54,0.84,0.17,-1.4,-5.8,-0.98,197,263,411,454,339
547,0.55,0.83,0.17,0.55,-1.4,-1.83,202,269,409,443,338
548,0.56,0.83,0.16,-1.22,-2.44,-2.93,205,273,411,458,342
549,0.56,0.83,0.16,1.4,-4.39,-0.98,206,270,409,447,338
550,0.55,0.82,0.17,-2.08,-4.15,-2.14,208,272,409,447,338
551,0.55,0.81,0.16,0.12,-1.28,-4.33,209,267,417,448,339
552,0.55,0.81,0.17,-0.12,-3.36,-1.83,208,271,407,446,339
553,0.56,0.81,0.17,1.53,-2.26,-2.2,205,272,408,450,335
554,0.54,0.83,0.18,0.37,-2.99,-2.5,203,269,411,443,340
555,0.55,0.79,0.16,1.22,-4.33,-1.46,203,269,409,444,340
556,0.55,0.81,0.16,0.73,-3.11,-2.56,207,272,410,450,335
557,0.55,0.82,0.18,1.1,-3.6,-2.32,207,262,410,445,339
558,0.55,0.81,0.17,1.46,-2.5,-2.2,208,272,411,452,341
559,0.55,0.82,0.17,3.54,-5.07,-2.14,209,269,407,451,341
560,0.5,0.83,0.19,4.76,1.89,-15.32,209,273,409,447,340
561,0.48,0.92,0.13,5.74,-7.69,-8.24,204,272,407,446,335
562,0.47,0.92,0.14,12.08,-12.51,-11.23,205,273,405,445,336
563,0.41,0.84,0.17,1.46,0.06,-5.31,226,272,407,439,334
564,0.44,0.87,0.19,-0.79,-3.17,-2.99,211,271,413,441,333
565,0.45,0.88,0.18,0.37,-1.77,-2.75,190,273,411,449,332
566,0.43,0.87,0.2,-0.92,-2.14,-2.01,214,270,411,441,337
567,0.46,0.84,0.22,-2.62,-1.4,-1.59,206,282,409,449,336
568,0.44,0.88,0.2,0.55,-2.69,-5.07,205,274,409,446,336
569,0.46,0.89,0.21,0.73,-0.12,-2.87,208,270,408,446,334
570,0.46,0.82,0.19,0.61,-2.32,2.56,209,280,415,446,332
571,0.45,0.84,0.21,2.01,-6.16,-1.71,203,273,401,446,334
572,0.44,0.88,0.22,-0.37,-1.71,-2.01,209,277,410,447,338
573,0.46,0.85,0.22,0.37,0.12,0.73,206,273,406,441,338
574,0.47,0.86,0.19,0.12,-4.82,-2.56,208,277,409,441,337
575,0.46,0.86,0.21,0.37,-4.09,-2.62,206,272,407,451,337
576,0.47,0.83,0.22,-4.15,0.18,1.04,207,278,408,448,337
577,0.46,0.85,0.22,1.59,-0.55,-1.95,208,273,409,438,338
578,0.47,0.85,0.22,-3.17,-0.31,-1.46,206,272,407,442,339
579,0.48,0.84,0.19,0.49,-4.82,-2.26,209,275,410,445,338
580,0.47,0.85,0.19,2.14,-3.17,-2.44,206,277,406,446,340
581,0.46,0.86,0.2,0.24,-2.69,-3.54,211,275,413,444,339
582,0.47,0.85,0.2,0.61,-3.97,-3.6,206,272,403,441,338
583,0.48,0.87,0.2,0.85,-1.59,-3.48,206,273,409,449,336
584,0.42,0.82,0.2,-2.87,1.4,-1.71,205,275,410,440,334
585,0.45,0.84,0.21,-0.67,-5.55,-3.54,210,273,406,449,344
586,0.47,0.88,0.22,3.05,-2.75,-3.11,208,278,407,445,335
587,0.46,0.87,0.21,1.22,-1.46,-2.26,215,271,409,445,339
588,0.45,0.86,0.21,0.0,0.43,-2.93,203,276,412,452,334
589,0.47,0.85,0.2,-0.12,-2.38,-2.26,209,273,404,451,334
590,0.5,0.86,0.19,1.53,-4.82,1.28,210,273,406,446,333
591,0.48,0.86,0.21,0.73,-1.65,-0.92,202,273,405,446,342
592,0.47,0.85,0.21,-1.04,-3.54,-2.08,207,275,406,449,332
593,0.46,0.82,0.21,-6.9,-3.23,-4.76,211,277,408,451,339
594,0.5,0.84,0.21,0.49,-5.98,0.37,211,271,410,450,338
595,0.51,0.85,0.2,2.69,-5.68,1.77,210,277,407,447,338
596,0.52,0.81,0.22,-0.98,-0.55,1.1,208,277,406,445,335
597,0.56,0.82,0.2,-4.09,-1.53,-1.1,205,274,408,440,341
598,0.55,0.82,0.2,1.04,-6.59,-1.53,206,270,408,450,336
599,0.55,0.8,0.21,-0.55,-3.17,-0.55,206,274,408,446,339
600,0.56,0.8,0.22,1.59,-0.92,-5.19,207,274,409,447,337
601,0.55,0.81,0.2,2.38,-2.56,-1.95,209,277,408,449,337
602,0.54,0.79,0.22,-2.56,0.0,-0.49,209,276,407,443,341
603,0.56,0.81,0.24,-8.06,-1.53,-0.85,204,276,408,455,339
604,0.44,0.71,0.4,-16.91,13.31,-20.39,209,272,406,446,341
605,0.53,0.68,0.4,10.25,12.57,5.07,214,277,402,444,334
606,0.47,0.83,0.44,-9.09,-10.93,4.39,209,275,405,440,337
607,0.56,0.78,0.59,6.47,-27.28,1.16,209,279,400,445,337
608,0.56,0.68,0.41,-5.43,24.11,-9.22,212,272,408,448,335
609,0.59,0.7,0.59,-8.73,-4.7,-13.43,214,275,403,443,339
610,0.5,0.75,0.61,-5.86,-23.01,-25.21,210,273,405,445,338
611,0.33,0.79,0.5,22.83,-2.93,-3.48,213,273,405,445,338
612,0.21,0.82,0.48,9.77,31.07,11.96,209,274,406,441,332
613,0.33,0.74,0.54,-1.71,-0.06,7.93,205,273,403,448,336
614,0.45,0.73,0.53,-5.25,-5.37,-1.46,208,276,404,449,334
615,0.46,0.79,0.47,-2.93,-10.56,-6.1,212,279,405,444,338
616,0.42,0.73,0.52,2.14,-5.49,-2.08,210,272,406,452,340
617,0.39,0.68,0.47,5.37,-5.62,-0.12,205,274,407,451,336
618,0.51,0.67,0.48,0.24,-8.48,-8.97,212,270,404,452,337
619,0.47,0.77,0.49,6.47,-8.36,-2.44,213,275,399,450,338
620,0.5,0.69,0.44,5.74,-0.55,-2.44,212,274,405,453,336
621,0.47,0.73,0.47,-0.49,-3.17,-4.15,209,274,405,450,340
622,0.49,0.72,0.48,5.25,-9.52,13.12,210,270,405,444,337
623,0.54,0.69,0.47,-7.32,-0.73,-8.79,211,274,405,447,336
624,0.57,0.69,0.47,2.62,-3.85,-2.14,213,274,402,450,336
625,0.56,0.67,0.47,-2.75,0.85,-3.17,213,276,405,442,340
626,0.58,0.72,0.47,-2.08,-0.85,-8.67,212,279,407,453,336
627,0.52,0.68,0.49,4.82,-5.68,2.08,210,278,404,445,337
628,0.57,0.79,0.53,-6.84,-4.27,-2.01,209,283,410,439,338
629,0.53,0.69,0.5,0.0,-4.82,-3.48,212,283,407,437,335
630,0.53,0.67,0.52,1.89,-6.41,-0.61,204,273,405,443,336
631,0.55,0.71,0.49,7.2,-0.12,-6.23,214,276,405,445,336
632,0.54,0.7,0.5,-2.62,-1.59,-4.7,212,278,406,441,335
633,0.54,0.68,0.47,0.92,-4.21,-1.71,214,278,407,442,336
634,0.56,0.69,0.48,0.31,-3.3,-2.26,209,274,405,443,337
635,0.52,0.63,0.5,-0.79,-3.66,-1.65,216,278,409,438,336
636,0.53,0.67,0.52,0.79,-5.07,0.43,212,276,407,437,337
637,0.54,0.66,0.52,0.92,-2.75,-3.17,215,281,406,449,334
638,0.5,0.65,0.53,-2.38,-2.87,-4.76,214,275,410,440,341
639,0.54,0.66,0.52,0.24,-4.03,-1.83,207,277,405,441,338
640,0.53,0.67,0.52,-0.24,-2.75,-3.54,236,276,402,440,338
641,0.54,0.68,0.51,2.38,-2.75,-2.69,215,275,407,442,338
642,0.52,0.69,0.52,0.85,-2.2,-5.62,213,269,402,445,340
643,0.49,0.7,0.53,-1.83,2.08,-1.34,217,276,407,443,337
644,0.53,0.69,0.49,-2.62,-3.6,-5.55,212,281,405,446,337
645,0.54,0.73,0.49,10.99,-5.55,-0.49,211,279,407,437,332
646,0.52,0.7,0.42,-9.64,4.64,8.0,212,278,407,435,338
647,0.49,0.64,0.46,-7.57,-12.51,12.45,215,278,406,444,338
648,0.62,0.69,0.45,-5.13,-6.65,0.24,221,281,405,443,338
649,0.6,0.64,0.5,-13.18,-16.42,7.63,216,273,412,452,334
650,0.55,0.61,0.49,-8.54,-3.78,6.71,209,274,405,436,334
651,0.62,0.6,0.53,-10.13,-14.77,3.42,213,282,404,436,341
652,0.62,0.67,0.55,0.73,10.93,-2.26,212,280,403,438,336
653,0.57,0.57,0.5,-1.95,-21.48,5.37,213,279,404,437,338
654,0.64,0.65,0.5,3.17,6.16,1.28,216,282,409,434,337
655,0.62,0.62,0.55,-9.7,-20.87,15.44,215,282,402,440,337
656,0.67,0.54,0.53,-4.27,-4.03,-4.7,207,280,404,441,337
657,0.68,0.54,0.53,-7.39,-5.37,-2.56,215,281,413,438,339
658,0.63,0.46,0.61,-17.64,13.12,-3.17,217,283,407,441,339
659,0.68,0.46,0.61,7.26,-3.72,-6.35,217,279,409,438,340
660,0.62,0.53,0.58,7.02,-0.92,-14.16,216,285,405,437,336
661,0.64,0.54,0.56,-2.38,-9.4,-5.62,213,286,406,439,338
662,0.65,0.57,0.51,2.14,-5.98,-13.61,216,284,404,435,340
663,0.61,0.63,0.52,2.69,-8.0,-9.16,216,280,403,431,338
664,0.58,0.67,0.5,2.5,8.85,-7.08,218,284,399,437,339
665,0.57,0.68,0.5,6.96,-4.58,-5.0,219,285,399,430,343
666,0.57,0.7,0.48,0.92,-1.34,-1.04,217,285,400,437,342
667,0.54,0.68,0.48,-2.32,-4.88,-2.32,219,282,397,435,340
668,0.54,0.7,0.46,-1.1,-4.15,-0.31,219,279,395,439,341
669,0.58,0.7,0.46,-2.01,-5.74,-0.61,218,283,391,433,341
670,0.58,0.66,0.48,-1.71,-2.01,-1.16,218,283,390,437,337
671,0.58,0.69,0.5,-0.61,-1.04,-3.17,219,285,395,436,341
672,0.59,0.68,0.49,0.79,-3.36,-2.32,219,284,393,428,343
673,0.57,0.66,0.48,-0.67,-2.69,-5.0,218,283,391,427,341
674,0.55,0.69,0.48,4.46,1.4,-7.39,214,283,394,432,341
675,0.56,0.69,0.47,1.59,-1.46,-5.19,219,283,394,434,337
676,0.53,0.7,0.48,2.08,-1.1,-3.78,218,279,392,434,342
677,0.53,0.72,0.48,1.77,-3.05,-3.6,216,282,391,439,343
678,0.52,0.74,0.48,0.18,-1.53,-4.64,217,285,392,436,340
679,0.51,0.73,0.46,0.92,-2.2,-2.14,220,280,394,441,339
680,0.5,0.73,0.47,-1.65,-2.99,-3.66,213,283,390,439,343
681,0.52,0.72,0.46,-1.83,-4.64,-1.95,216,283,393,437,338
682,0.5,0.71,0.46,-2.62,-1.95,0.85,219,280,394,438,339
683,0.53,0.74,0.48,-6.77,-3.78,-3.42,220,278,388,432,337
684,0.52,0.7,0.53,10.07,-5.31,-2.75,215,283,391,435,338
685,0.49,0.7,0.52,-1.89,-4.76,-3.78,217,281,393,438,339
686,0.49,0.71,0.52,-0.24,-2.56,-2.01,234,283,393,436,341
687,0.5,0.71,0.53,-0.37,-3.54,-0.43,218,283,394,432,339
688,0.49,0.7,0.52,-1.28,-1.77,-0.85,218,282,390,441,339
689,0.51,0.71,0.52,1.53,-0.18,-1.1,218,284,391,444,337
690,0.52,0.71,0.5,1.4,-5.62,1.4,217,282,393,437,343
691,0.51,0.7,0.51,-0.12,-3.48,-2.26,218,282,394,446,341
692,0.5,0.7,0.51,1.04,-0.61,-1.1,218,283,391,433,341
693,0.52,0.7,0.52,-0.85,-1.53,-0.67,222,278,391,442,344
694,0.52,0.69,0.52,0.18,-2.56,-3.17,223,286,394,452,342
695,0.51,0.7,0.51,0.73,-2.75,-2.69,219,286,390,440,342
696,0.52,0.69,0.51,0.67,-2.99,-3.23,220,282,394,432,344
697,0.53,0.71,0.5,0.18,-4.46,-1.71,221,281,393,433,341
698,0.51,0.71,0.5,-1.83,-4.52,-3.11,213,286,396,438,342
699,0.5,0.69,0.5,0.06,-1.65,-1.1,216,283,393,433,346
700,0.51,0.69,0.5,-1.71,-0.92,-1.59,221,286,392,441,342
701,0.51,0.66,0.49,-4.39,-5.74,-0.18,223,289,391,435,343
702,0.52,0.64,0.5,-5.43,-3.48,-2.5,216,286,390,435,343
703,0.55,0.68,0.51,1.53,-2.08,-2.44,222,282,396,435,343
704,0.57,0.66,0.53,5.43,-3.6,-1.65,220,288,397,432,344
705,0.57,0.66,0.52,6.29,-2.26,0.37,220,280,395,438,346
706,0.58,0.66,0.54,0.12,-4.33,-3.17,222,284,395,437,343
707,0.58,0.64,0.52,3.85,-1.16,-0.85,220,285,390,433,344
708,0.61,0.6,0.51,3.97,-1.1,-5.8,219,287,395,438,344
709,0.54,0.64,0.52,4.7,-6.84,-2.81,223,285,395,436,347
710,0.53,0.69,0.53,1.16,-2.87,-3.11,219,288,390,438,346
711,0.59,0.72,0.51,2.32,-0.37,-10.8,221,287,391,441,343
712,0.55,0.7,0.53,3.91,-10.01,1.65,219,287,390,440,344
713,0.6,0.64,0.49,-5.19,-1.16,-5.98,225,286,391,439,345
714,0.64,0.69,0.49,4.76,0.0,-2.14,216,284,402,438,341
715,0.59,0.65,0.51,1.34,-7.02,-4.03,223,288,394,437,345
716,0.57,0.65,0.5,3.42,-3.54,-0.43,235,284,394,440,342
717,0.61,0.66,0.51,3.91,-5.13,-3.66,220,291,391,436,345
718,0.57,0.65,0.5,-0.73,-2.5,-4.7,222,289,394,441,345
719,0.61,0.63,0.48,-2.5,-2.99,-1.89,220,289,392,431,346
720,0.61,0.64,0.48,1.71,-0.98,-4.94,221,284,391,431,343
721,0.61,0.62,0.49,2.69,-1.1,-4.7,221,287,391,437,343
722,0.56,0.64,0.49,1.89,-1.89,-7.87,217,284,396,436,344
723,0.56,0.68,0.5,5.37,-1.28,-14.22,223,287,394,433,348
724,0.48,0.73,0.5,-2.44,3.17,-16.78,221,288,390,440,344
725,0.46,0.75,0.48,-4.82,-3.42,-10.99,223,287,390,436,344
726,0.3,0.71,0.47,10.38,5.0,-22.16,222,287,390,434,346
727,0.27,0.75,0.56,-11.66,-3.54,-13.85,220,288,391,439,348
728,0.18,0.72,0.59,-21.79,-8.36,-4.09,219,282,393,438,345
729,0.27,0.74,0.57,-7.45,-13.67,-4.94,214,282,394,430,336
730,0.27,0.72,0.66,-4.7,-4.58,-0.43,224,282,395,433,342
731,0.27,0.78,0.64,-3.91,7.57,-8.18,216,283,393,437,343
732,0.25,0.75,0.64,5.19,-2.69,-1.22,223,281,393,438,343
733,0.27,0.76,0.61,-1.04,-3.42,-2.01,221,277,393,436,343
734,0.28,0.75,0.62,1.53,-2.93,0.0,210,277,391,436,341
735,0.27,0.75,0.62,2.69,-4.09,0.37,216,284,394,433,346
736,0.29,0.74,0.6,-1.83,-2.26,-5.0,221,283,393,440,347
737,0.29,0.74,0.62,2.26,-3.6,3.54,220,282,392,443,346
738,0.29,0.74,0.61,-0.79,-4.94,1.95,244,282,394,433,345
739,0.32,0.74,0.61,1.22,-4.39,0.31,225,282,393,435,346
740,0.31,0.73,0.61,1.1,-4.46,-2.01,224,284,394,437,344
741,0.31,0.74,0.62,-1.28,-4.15,-4.09,221,283,392,434,347
742,0.3,0.71,0.59,-5.86,-1.04,1.95,221,283,384,436,345
743,0.26,0.68,0.65,-9.22,-0.92,0.31,225,282,395,431,342
744,0.27,0.64,0.7,-8.3,-7.93,1.53,223,284,394,432,346
745,0.28,0.64,0.72,5.07,10.01,7.32,223,285,396,431,345
746,0.35,0.69,0.71,-1.28,-9.89,-2.14,223,288,394,440,347
747,0.35,0.57,0.67,-23.56,-8.61,7.69,221,287,394,436,346
748,0.36,0.58,0.78,4.52,-4.88,8.91,224,284,393,435,346
749,0.39,0.67,0.76,9.16,-6.77,6.71,222,285,393,436,348
750,0.46,0.53,0.77,-14.95,-24.41,2.75,222,287,394,436,349
751,0.24,0.52,0.8,3.48,-15.01,10.93,221,277,398,437,347
752,0.43,0.51,0.7,-17.4,-6.16,-14.28,223,284,398,426,347
753,0.37,0.55,0.77,-14.1,-33.57,9.7,226,287,394,431,347
754,0.51,0.54,0.78,-6.04,5.92,6.77,225,284,396,437,348
755,0.54,0.45,0.78,2.08,-4.46,1.53,225,285,391,435,347
756,0.55,0.44,0.74,-8.42,2.2,-15.01,224,286,391,432,348
757,0.38,0.5,0.79,5.55,11.47,-30.27,221,277,394,428,344
758,0.45,0.44,0.61,0.06,10.99,-3.36,225,282,398,431,346
759,0.55,0.43,0.64,-5.8,-29.48,-4.15,223,285,396,426,343
760,0.71,0.5,0.63,24.48,-16.6,6.96,219,283,409,428,347
761,0.43,0.39,0.59,-9.52,-15.81,8.61,220,283,394,427,342
762,0.56,0.41,0.68,-27.4,-9.58,14.34,228,284,397,431,350
763,0.66,0.6,0.76,20.02,-2.93,2.44,224,285,395,426,342
764,0.43,0.46,0.75,20.63,-32.53,10.74,224,281,396,431,346
765,0.74,0.49,0.63,-30.27,-7.14,0.43,223,287,397,427,350
766,0.68,0.48,0.66,21.18,25.15,-22.83,222,283,398,425,346
767,0.59,0.42,0.63,-5.86,-8.3,-6.04,221,286,392,431,347
768,0.6,0.45,0.69,1.46,-13.43,14.47,220,284,393,434,346
769,0.58,0.34,0.58,-6.53,8.97,-1.1,222,287,394,431,341
770,0.58,0.3,0.75,-3.23,-4.7,34.79,213,283,397,429,348
771,0.63,0.2,0.67,14.34,-21.85,8.73,221,282,396,427,351
772,0.73,0.11,0.65,0.55,-13.79,-10.68,213,282,394,426,349
773,0.48,0.2,0.75,6.9,22.71,-39.86,219,282,398,432,349
774,0.49,0.43,0.75,-8.36,-14.16,-35.03,220,281,398,434,349
775,0.4,0.44,0.69,2.62,-3.05,-7.63,215,279,397,428,345
776,0.23,0.62,0.55,70.25,28.63,9.58,215,277,403,437,345
777,0.31,0.63,0.39,39.0,14.83,13.06,214,279,405,442,346
778,0.42,0.81,0.41,29.36,10.68,13.67,218,281,402,448,343
779,0.44,0.71,0.39,2.44,2.01,2.75,217,279,405,451,342
780,0.38,0.73,0.34,6.84,-5.86,-4.27,215,281,402,452,345
781,0.35,0.8,0.34,-7.39,-24.17,-2.38,216,283,406,453,345
782,0.26,0.87,0.37,-15.08,-10.93,-17.46,214,285,408,447,342
783,0.34,0.94,0.37,-4.21,-12.15,-1.59,220,277,408,456,347
784,0.32,0.8,0.36,-0.49,1.28,13.31,218,287,405,443,344
785,0.48,0.7,0.33,-6.04,-1.34,-0.12,223,278,404,450,348
786,0.42,0.84,0.41,-9.58,-5.19,-4.03,217,285,409,447,342
787,0.36,0.88,0.5,-11.9,-4.94,-21.67,205,281,405,446,344
788,0.38,0.78,0.46,-15.2,-15.2,-9.09,215,281,407,451,336
789,0.33,0.83,0.5,4.21,3.66,-7.08,219,282,408,462,347
790,0.29,0.79,0.47,6.29,1.28,-5.62,222,282,400,444,347
791,0.34,0.83,0.44,-0.73,-5.19,-0.98,215,282,407,451,338
792,0.29,0.82,0.49,-3.42,-8.54,0.24,216,283,407,447,339
793,0.33,0.82,0.49,-5.74,-8.54,-0.67,219,281,405,449,345
794,0.36,0.82,0.49,0.43,-5.31,2.32,218,288,409,440,344
795,0.32,0.73,0.5,-3.11,-9.34,3.72,218,280,402,444,340
796,0.38,0.73,0.51,-17.33,-1.04,-15.08,216,283,408,441,344
797,0.38,0.72,0.54,-12.21,-13.85,-5.98,216,282,407,438,340
798,0.39,0.7,0.55,2.01,-1.34,-0.49,221,285,409,445,344
799,0.39,0.7,0.56,-0.18,-3.6,-5.07,219,284,408,443,339
800,0.36,0.75,0.58,-0.06,-4.03,-8.54,217,282,404,436,339
801,0.33,0.74,0.6,4.33,1.46,-5.37,216,283,409,442,344
802,0.28,0.82,0.58,12.15,8.0,-10.38,222,278,403,437,351
803,0.27,0.79,0.54,2.38,2.69,1.71,218,280,402,442,348
804,0.25,0.8,0.55,2.38,2.5,0.31,224,280,407,442,352
805,0.26,0.78,0.58,0.31,0.85,9.34,214,281,408,445,346
806,0.28,0.73,0.58,-6.96,-1.34,12.94,217,282,404,436,344
807,0.32,0.79,0.57,-4.52,0.18,-1.28,219,281,406,440,346
808,0.37,0.76,0.57,1.28,-14.71,-1.59,219,281,406,440,343
809,0.36,0.76,0.57,-3.17,1.16,-0.67,221,281,408,448,349
810,0.33,0.75,0.6,5.31,-6.84,-3.05,222,279,404,438,348
811,0.33,0.74,0.58,-3.17,-3.72,-1.22,221,284,407,442,347
812,0.33,0.76,0.62,-0.37,-3.85,-0.06,221,300,408,432,350
813,0.36,0.69,0.62,-0.06,-10.8,1.1,217,281,409,442,354
814,0.39,0.7,0.58,-0.37,-2.14,-5.55,218,284,408,446,346
815,0.47,0.74,0.61,2.75,-3.78,-5.13,219,288,406,437,349
816,0.42,0.72,0.58,-5.19,-5.07,-4.21,219,281,404,441,350
817,0.39,0.69,0.61,-3.36,-5.43,5.43,204,285,408,442,345
818,0.39,0.67,0.59,4.46,-0.06,-3.85,216,283,404,441,346
819,0.32,0.66,0.59,-3.36,7.75,-5.37,223,286,404,441,355
820,0.39,0.73,0.66,0.73,-0.92,-5.0,221,280,402,434,350
821,0.33,0.67,0.64,3.3,-4.82,-2.5,219,277,403,438,347
822,0.34,0.67,0.61,14.59,-10.93,-6.1,222,267,404,441,349
823,0.34,0.75,0.5,14.95,-3.48,-7.08,216,272,411,445,353
824,0.36,0.93,0.36,33.81,2.26,-25.02,225,282,412,445,352
825,0.12,0.93,0.19,11.11,0.85,-18.98,213,274,411,449,350
826,0.16,1.0,0.14,8.54,-6.35,-4.64,214,278,410,458,349
827,0.1,0.97,0.18,-15.87,0.06,0.37,216,280,404,452,347
828,0.09,0.95,0.16,-1.77,-1.1,-0.24,224,274,408,454,353
829,0.09,0.96,0.19,5.8,-3.3,-3.85,216,273,406,453,351
830,0.12,0.95,0.17,-3.48,-12.08,2.56,216,276,410,456,349
831,0.09,0.79,0.22,-54.99,-4.03,30.52,214,278,408,440,346
832,0.19,0.69,0.61,-72.27,21.67,-16.05,217,277,405,444,342
833,0.3,0.58,0.74,-11.11,15.08,-19.41,215,281,403,427,340
834,0.27,0.68,0.7,22.77,-8.97,8.67,216,280,401,436,340
835,0.29,0.72,0.7,-5.07,-9.16,7.2,215,280,403,443,339
836,0.25,0.67,0.71,-8.48,-8.85,-0.92,218,281,403,438,341
837,0.27,0.65,0.72,-3.48,-4.03,-6.29,218,281,404,435,340
838,0.27,0.68,0.72,1.53,-4.64,-2.14,217,281,404,435,344
839,0.28,0.67,0.72,-0.43,-3.97,-3.17,228,280,404,435,338
840,0.25,0.66,0.74,-0.61,-0.18,-3.97,219,292,405,437,342
841,0.25,0.67,0.73,2.56,0.85,-5.55,216,286,401,433,338
842,0.27,0.65,0.7,4.46,-0.49,-1.83,220,284,402,439,344
843,0.26,0.67,0.72,-2.5,-6.16,-4.03,220,282,404,436,344
844,0.29,0.65,0.7,-4.46,-2.87,-4.58,220,279,403,438,343
845,0.28,0.67,0.71,-0.18,-3.17,-3.11,219,293,402,429,339
846,0.28,0.67,0.71,-0.55,-3.36,-2.87,221,279,404,435,341
847,0.26,0.66,0.71,0.43,-2.14,-2.2,221,278,401,433,341
848,0.27,0.71,0.72,-2.62,-3.11,-2.32,219,283,395,432,340
849,0.32,0.67,0.71,-2.62,-3.97,2.87,218,276,401,438,340
850,0.32,0.67,0.73,1.59,-3.11,-4.88,216,282,400,433,344
851,0.31,0.64,0.72,-0.37,-5.13,-0.79,215,275,400,428,348
852,0.34,0.62,0.7,-1.34,-2.93,-0.06,219,280,400,434,343
853,0.31,0.59,0.71,-2.38,-3.78,1.83,220,282,415,435,339
854,0.33,0.6,0.71,-0.06,-7.26,2.5,219,277,399,437,344
855,0.36,0.61,0.72,-1.1,-3.36,-4.03,220,279,402,433,345
856,0.36,0.62,0.72,1.4,-3.3,-2.26,222,279,397,434,342
857,0.36,0.61,0.72,0.43,-3.23,-3.42,221,277,399,431,343
858,0.36,0.61,0.73,0.67,-2.56,-2.93,208,281,391,423,342
859,0.38,0.6,0.73,-0.31,1.46,-4.09,224,280,396,425,342
860,0.34,0.58,0.71,-4.46,-0.73,-0.55,219,278,388,431,343
861,0.39,0.58,0.76,1.22,-6.96,-4.27,225,279,392,429,341
862,0.44,0.65,0.76,0.24,-10.38,4.58,216,282,392,425,343
863,0.43,0.49,0.7,-0.12,-3.85,8.73,221,277,392,429,343
864,0.52,0.43,0.73,-7.32,-8.0,6.35,223,279,399,430,343
865,0.47,0.49,0.76,4.76,-2.56,14.53,217,281,394,424,344
866,0.52,0.39,0.75,-0.12,-11.47,0.43,222,271,391,424,345
867,0.49,0.44,0.77,-3.48,-3.36,-5.07,231,272,391,422,343
868,0.5,0.44,0.75,-3.36,-0.18,-8.54,221,281,397,430,346
869,0.53,0.45,0.75,5.92,-2.44,-9.4,223,282,392,420,341
870,0.42,0.46,0.74,-3.72,-11.41,-2.5,220,279,394,428,347
871,0.46,0.43,0.72,-1.59,-5.31,4.64,223,282,392,429,341
872,0.5,0.5,0.72,-1.65,1.28,7.93,214,282,392,420,343
873,0.52,0.45,0.75,-4.46,-4.27,-3.54,223,281,392,429,346
874,0.51,0.43,0.73,0.61,-6.1,0.43,220,281,397,426,342
875,0.52,0.43,0.74,0.73,-4.88,-4.15,223,279,396,425,342
876,0.53,0.44,0.74,-2.38,-2.5,-2.99,231,284,395,425,344
877,0.52,0.44,0.75,-0.55,-1.89,-3.05,224,280,395,428,345
878,0.52,0.44,0.75,0.79,-1.16,-3.78,221,279,397,431,340
879,0.51,0.46,0.73,11.9,4.39,-5.13,218,284,395,428,345
880,0.44,0.59,0.73,13.85,15.01,-9.58,221,283,398,431,345
881,0.45,0.59,0.65,4.58,-9.7,8.85,222,281,395,437,346
882,0.5,0.58,0.63,-1.16,-12.27,8.85,223,280,394,429,347
883,0.48,0.6,0.66,-2.32,-7.93,-4.39,220,283,389,431,342
884,0.5,0.57,0.67,0.79,-2.2,0.85,221,282,393,434,350
885,0.49,0.56,0.67,0.12,-4.03,-2.44,224,284,391,433,345
886,0.51,0.56,0.67,-0.18,-2.81,-3.36,223,294,389,433,349
887,0.5,0.57,0.68,0.31,-2.01,-2.93,222,283,388,430,347
888,0.5,0.54,0.68,-0.37,-2.56,-2.38,218,286,391,427,349
889,0.51,0.56,0.67,0.79,-2.69,-1.28,230,286,389,431,349
890,0.51,0.56,0.68,1.59,-1.28,-1.22,226,284,391,421,348
891,0.49,0.56,0.69,2.14,-4.03,-2.62,223,284,390,429,348
892,0.45,0.56,0.7,-3.23,0.18,-4.46,225,278,388,438,347
893,0.47,0.55,0.7,-0.18,-2.01,-3.97,225,281,389,433,347
894,0.48,0.55,0.7,-0.06,-3.05,-2.62,222,283,389,429,347
895,0.48,0.55,0.7,0.0,-4.7,-1.89,224,282,392,431,344
896,0.5,0.55,0.7,-0.98,-1.46,-1.04,223,282,385,433,343
897,0.51,0.54,0.7,0.06,-1.4,-3.6,233,283,392,430,350
898,0.47,0.55,0.7,4.58,-1.95,-3.36,234,279,388,428,348
899,0.48,0.56,0.7,1.4,-4.52,-3.54,217,280,391,429,344
900,0.49,0.56,0.7,0.92,-5.43,-1.77,222,284,391,427,346
901,0.49,0.55,0.7,0.55,-4.09,-1.83,225,278,391,430,347
902,0.49,0.56,0.7,-0.49,-3.3,-3.23,223,279,389,427,348
903,0.5,0.54,0.7,0.06,-1.34,-2.44,221,283,388,426,348
904,0.49,0.52,0.7,0.55,-2.81,-2.38,224,281,392,421,344
905,0.5,0.52,0.69,0.06,-5.43,-1.83,223,283,388,428,348
906,0.5,0.53,0.69,0.61,-3.3,-2.99,223,281,386,435,347
907,0.42,0.59,0.71,15.08,18.98,-8.48,223,281,390,428,346
908,0.35,0.61,0.72,4.64,-4.76,1.83,222,282,392,426,350
909,0.39,0.64,0.64,2.2,-1.89,-2.62,216,285,389,435,347
910,0.4,0.66,0.66,-2.56,-5.31,-0.98,223,279,385,434,347
911,0.4,0.66,0.66,-0.18,-4.09,-2.38,224,283,391,433,350
912,0.4,0.65,0.67,-0.67,-4.76,-0.55,223,284,394,441,347
913,0.43,0.64,0.65,-0.06,-2.44,-1.53,222,281,389,432,347
914,0.45,0.64,0.65,0.43,-3.23,-3.78,223,285,393,435,345
915,0.45,0.64,0.65,-0.31,-3.85,-2.08,225,279,393,438,350
916,0.45,0.64,0.65,-0.31,-2.99,-2.32,222,280,394,439,344
917,0.46,0.63,0.65,-0.49,-2.75,-2.5,221,279,390,435,347
918,0.45,0.63,0.65,0.24,-2.99,-3.54,219,285,394,430,339
919,0.45,0.63,0.66,0.18,-2.69,-4.03,223,279,393,432,345
920,0.46,0.64,0.67,-0.49,-3.23,-1.95,223,280,389,432,347
921,0.45,0.62,0.66,1.65,-1.28,-3.85,227,286,391,431,346
922,0.45,0.62,0.67,0.79,-3.78,-1.53,222,279,392,433,347
923,0.46,0.61,0.65,0.49,-3.66,-2.44,224,282,393,435,347
924,0.47,0.62,0.67,-4.33,-4.76,-0.92,219,293,385,432,342
925,0.46,0.6,0.66,0.73,-4.15,-2.93,226,284,391,430,346
926,0.45,0.62,0.68,1.16,-3.05,-2.38,226,272,393,432,348
927,0.45,0.61,0.67,-0.98,-3.36,-2.14,220,279,396,435,347
928,0.44,0.61,0.67,0.18,-2.26,-1.95,225,283,391,435,345
929,0.44,0.61,0.68,-0.49,-3.66,-2.93,222,282,392,432,348
930,0.45,0.61,0.68,-1.34,-4.21,-3.11,221,279,390,434,349
931,0.45,0.61,0.67,-1.71,1.46,-4.7,223,277,396,435,343
932,0.45,0.61,0.67,-1.71,-4.09,-2.69,223,283,392,430,340
933,0.46,0.6,0.67,1.28,-3.6,-2.08,228,282,393,435,351
934,0.45,0.6,0.68,0.43,-1.53,-2.01,224,283,392,434,348
935,0.45,0.6,0.68,-3.91,-3.48,-3.42,224,278,396,431,344
936,0.46,0.57,0.66,-2.69,-5.8,-4.52,223,283,392,431,346
937,0.46,0.59,0.68,-0.18,-3.54,-0.73,226,284,392,443,350
938,0.46,0.57,0.67,-0.55,-3.97,-1.95,225,283,393,433,352
939,0.49,0.58,0.67,0.85,-3.97,-3.05,226,282,390,436,342
940,0.5,0.59,0.68,0.73,-3.05,-1.89,225,283,392,433,348
941,0.49,0.57,0.67,0.61,-3.36,-2.08,227,282,393,437,348
942,0.48,0.58,0.68,-2.2,-4.82,-2.01,225,281,398,432,348
943,0.47,0.58,0.66,0.0,-0.98,-4.27,222,281,393,428,348
944,0.49,0.57,0.67,0.67,-2.69,-1.34,225,282,397,426,351
945,0.49,0.56,0.68,-1.71,-2.81,-2.08,224,282,388,428,349
946,0.46,0.53,0.69,-4.03,-0.98,-5.62,229,283,396,431,352
947,0.49,0.57,0.7,3.05,-2.56,-3.3,225,280,391,433,350
948,0.48,0.55,0.7,1.53,-2.38,-1.16,228,292,394,428,348
949,0.48,0.56,0.69,1.4,-2.38,-3.36,226,283,390,426,352
950,0.48,0.56,0.7,-0.67,-5.8,-1.16,225,284,394,433,351
951,0.5,0.56,0.69,-0.79,-6.16,-2.5,229,287,397,434,348
952,0.5,0.56,0.69,0.49,-3.54,-2.69,226,281,392,434,346
953,0.49,0.56,0.68,2.5,-2.93,-2.26,220,281,394,430,348
954,0.49,0.56,0.69,-2.38,-1.77,-0.92,229,282,391,436,358
955,0.49,0.56,0.67,2.69,-4.09,-1.28,224,282,387,433,349
956,0.49,0.55,0.68,-1.1,-3.72,-1.77,226,286,392,437,348
957,0.51,0.55,0.68,0.12,-3.91,-2.56,229,277,395,429,348
958,0.53,0.54,0.67,-0.06,-3.36,-3.72,224,287,387,420,350
959,0.52,0.54,0.67,1.71,-3.85,-2.99,225,284,390,435,349
960,0.51,0.55,0.68,-2.87,-2.32,-7.2,225,294,392,431,347
961,0.52,0.57,0.66,-6.47,-1.4,-7.14,223,285,394,432,348
962,0.52,0.54,0.69,-3.54,-1.34,-5.55,224,282,393,431,349
963,0.51,0.55,0.68,0.85,-3.23,-2.62,224,283,393,428,347
964,0.51,0.56,0.7,1.28,-3.23,-2.26,223,282,394,430,347
965,0.49,0.54,0.7,-0.12,-1.34,-3.78,227,286,395,430,349
966,0.51,0.53,0.69,-0.67,-2.87,-2.01,221,282,388,430,350
967,0.51,0.54,0.67,2.62,-3.78,-3.36,227,283,393,434,351
968,0.52,0.55,0.68,1.22,-2.14,-1.34,227,284,390,429,351
969,0.5,0.54,0.67,-0.61,-3.78,-6.1,223,284,390,435,351
970,0.54,0.54,0.68,-6.16,-7.14,-6.65,221,281,391,434,345
971,0.53,0.58,0.65,8.42,1.83,-17.64,222,284,392,433,349
972,0.43,0.59,0.69,2.75,-3.78,3.05,217,282,390,439,349
973,0.41,0.6,0.68,6.35,9.52,-8.54,226,280,393,431,349
974,0.49,0.6,0.7,0.55,-2.93,-1.22,222,280,399,436,347
975,0.34,0.58,0.7,-0.79,-1.95,-0.37,222,282,397,440,352
976,0.37,0.59,0.74,-2.69,-3.66,-0.98,226,278,415,438,350
977,0.38,0.59,0.74,-3.66,-3.91,-1.22,222,285,402,442,348
978,0.37,0.55,0.74,-6.84,1.4,1.1,228,284,396,445,350
979,0.37,0.53,0.73,-0.06,-7.81,-8.06,223,281,402,449,352
980,0.39,0.53,0.74,-2.38,3.85,-5.55,227,282,399,440,344
981,0.38,0.5,0.76,2.75,-5.62,1.04,224,287,395,441,350
982,0.38,0.5,0.76,-6.04,-1.83,-2.44,223,280,394,433,350
983,0.4,0.51,0.76,0.12,-4.03,-1.04,217,282,395,438,349
984,0.31,0.58,0.77,-3.11,-5.55,-6.04,220,281,394,436,348
985,0.35,0.52,0.77,1.28,-1.04,-0.24,223,288,390,435,347
986,0.38,0.52,0.78,-2.14,-5.31,-1.53,224,280,395,439,352
987,0.4,0.53,0.78,-1.71,-3.72,-4.52,225,281,390,438,349
988,0.39,0.52,0.78,-2.56,-1.1,-0.55,220,285,394,443,350
989,0.4,0.51,0.77,-0.79,-4.64,-3.48,227,274,393,442,348
990,0.42,0.53,0.78,4.46,-3.3,-1.46,227,279,396,439,349
991,0.4,0.52,0.79,-1.95,-5.0,-2.38,227,281,390,433,351
992,0.42,0.49,0.79,-1.16,-2.38,-3.54,228,277,389,438,354
993,0.43,0.5,0.8,1.65,-7.08,0.49,220,287,390,441,353
994,0.41,0.49,0.8,7.14,1.4,2.5,223,281,392,441,352
995,0.42,0.47,0.79,-0.43,-2.44,-0.67,225,283,395,438,353
996,0.45,0.48,0.77,3.91,-1.71,-5.62,222,284,398,440,354
997,0.43,0.51,0.77,3.11,-4.88,-3.11,225,279,395,441,349
998,0.43,0.51,0.76,-1.83,-2.38,-2.26,225,286,397,442,352
999,0.44,0.5,0.77,-0.37,-3.11,-1.89,225,280,394,438,351
1000,0.41,0.5,0.78,0.49,-2.5,-1.89,223,284,396,440,353
1001,0.42,0.49,0.77,-1.89,-3.54,-4.03,220,283,396,439,353
1002,0.44,0.5,0.78,1.77,-3.72,-2.99,225,281,400,438,354
1003,0.44,0.48,0.76,1.53,-0.43,-5.92,223,281,397,433,351
1004,0.44,0.49,0.79,1.1,0.0,-7.63,227,285,397,436,352
1005,0.45,0.48,0.77,1.83,-5.13,-1.83,225,290,394,438,353
1006,0.42,0.49,0.79,-0.31,-2.08,-3.48,225,285,394,436,348
1007,0.43,0.48,0.78,-2.01,-2.32,-3.23,223,282,396,437,353
1008,0.44,0.49,0.78,-2.26,-1.34,-4.94,223,283,392,439,352
1009,0.44,0.5,0.79,4.7,-0.85,-2.2,226,284,393,438,353
1010,0.41,0.47,0.79,0.79,-4.27,-2.75,227,283,392,435,353
1011,0.43,0.47,0.74,-0.73,-0.98,-1.83,230,280,398,431,348
1012,0.4,0.49,0.81,7.75,-2.14,-0.12,226,286,390,432,351
1013,0.4,0.5,0.78,-2.08,-0.12,-0.67,224,281,391,430,355
1014,0.35,0.54,0.83,-12.02,11.78,-3.11,223,291,390,431,352
1015,0.39,0.45,0.8,-4.09,-5.74,-3.23,227,283,373,434,353
1016,0.37,0.48,0.84,-0.31,-5.43,0.0,218,283,380,433,352
1017,0.36,0.46,0.79,1.22,-2.93,-0.55,223,279,376,433,352
1018,0.39,0.5,0.82,0.06,-4.52,-3.11,221,282,377,435,354
1019,0.42,0.49,0.79,2.14,-3.97,0.18,221,283,376,438,353
1020,0.43,0.48,0.8,2.44,-0.85,-3.48,222,283,380,436,351
1021,0.39,0.48,0.81,0.06,-1.22,-4.15,226,283,371,429,350
1022,0.41,0.47,0.81,0.85,-2.87,-2.93,223,290,377,438,352
1023,0.4,0.48,0.82,-3.23,-5.31,-0.79,232,283,378,430,354
1024,0.42,0.46,0.82,-3.3,-5.07,-2.2,222,280,379,435,353
1025,0.45,0.42,0.82,-3.3,-9.95,0.24,226,285,378,437,355
1026,0.49,0.39,0.8,1.83,-6.59,-1.04,227,281,391,438,353
1027,0.5,0.35,0.77,-1.83,-11.9,-4.21,225,284,374,436,353
1028,0.53,0.39,0.78,-1.89,-8.36,-5.98,226,281,378,435,351
1029,0.52,0.32,0.77,2.93,-10.19,-6.59,226,289,380,433,350
1030,0.35,0.93,0.08,1.4,-2.62,-2.44,198,253,415,453,334
1031,0.34,0.94,0.08,-4.33,-0.37,-3.66,204,259,415,451,337
1032,0.33,0.94,0.09,0.43,-5.62,-2.56,201,265,416,450,335
1033,0.36,0.94,0.1,-2.93,0.24,-0.18,198,255,415,449,335
1034,0.38,0.95,0.11,-2.56,-3.72,3.42,199,265,411,456,335
1035,0.41,0.97,0.13,-11.23,4.15,3.48,201,260,414,453,335
1036,0.52,0.86,0.18,-10.86,-14.1,2.5,200,259,414,445,339
1037,0.52,0.84,0.19,-7.81,-5.43,-1.77,207,264,413,450,335
1038,0.47,0.83,0.21,-4.33,-7.45,1.46,199,263,409,449,335
1039,0.5,0.86,0.2,5.37,-6.35,-5.37,202,264,415,443,335
1040,0.46,0.86,0.21,-1.22,-0.06,-1.83,204,280,417,452,337
1041,0.48,0.86,0.21,-4.15,0.24,-4.39,201,268,413,455,339
1042,0.46,0.86,0.25,-4.58,1.65,0.37,199,265,421,445,334
1043,0.51,0.83,0.25,0.73,-2.62,-3.11,195,265,410,443,332
1044,0.48,0.83,0.24,3.42,-3.6,-4.15,205,270,410,446,334
1045,0.5,0.86,0.23,2.2,-3.11,-3.78,200,263,418,446,334
1046,0.44,0.85,0.16,24.96,-8.85,-14.28,202,268,414,441,330
1047,0.44,0.88,0.08,0.43,-3.66,-2.87,202,265,415,450,333
1048,0.44,0.9,0.09,0.79,-3.97,-1.4,204,263,405,447,338
1049,0.47,0.9,0.11,-1.1,-0.67,0.67,199,267,416,446,332
1050,0.45,0.91,0.15,-1.53,0.12,5.19,203,268,416,445,333
1051,0.48,0.88,0.13,5.43,-2.38,1.4,206,266,412,449,336
1052,0.5,0.84,0.11,-7.26,-2.99,-1.28,203,266,408,444,334
1053,0.51,0.85,0.13,0.92,-1.46,-3.05,206,267,408,451,332
1054,0.52,0.84,0.13,-2.01,-4.76,-3.54,207,269,412,444,333
1055,0.5,0.86,0.12,-1.04,-1.04,-3.05,206,266,412,442,341
1056,0.5,0.85,0.13,2.81,-3.11,-4.58,205,270,411,439,337
1057,0.52,0.86,0.1,-2.99,-2.08,-1.83,207,270,413,447,337
1058,0.52,0.81,0.13,-4.33,-2.01,-2.14,207,273,406,448,337
1059,0.52,0.84,0.15,-7.2,-10.25,1.77,207,269,408,450,336
1060,0.5,0.82,0.17,-2.32,-0.31,-3.17,205,269,408,444,337
1061,0.54,0.84,0.17,-1.4,-5.8,-0.98,197,263,411,454,339
1062,0.55,0.83,0.17,0.55,-1.4,-1.83,202,269,409,443,338
1063,0.56,0.83,0.16,-1.22,-2.44,-2.93,205,273,411,458,342
1064,0.56,0.83,0.16,1.4,-4.39,-0.98,206,270,409,447,338
1065,0.55,0.82,0.17,-2.08,-4.15,-2.14,208,272,409,447,338
1066,0.55,0.81,0.16,0.12,-1.28,-4.33,209,267,417,448,339
1067,0.55,0.81,0.17,-0.12,-3.36,-1.83,208,271,407,446,339
1068,0.56,0.81,0.17,1.53,-2.26,-2.2,205,272,408,450,335
1069,0.54,0.83,0.18,0.37,-2.99,-2.5,203,269,411,443,340
1070,0.55,0.79,0.16,1.22,-4.33,-1.46,203,269,409,444,340
1071,0.55,0.81,0.16,0.73,-3.11,-2.56,207,272,410,450,335
1072,0.55,0.82,0.18,1.1,-3.6,-2.32,207,262,410,445,339
1073,0.55,0.81,0.17,1.46,-2.5,-2.2,208,272,411,452,341
1074,0.55,0.82,0.17,3.54,-5.07,-2.14,209,269,407,451,341
1075,0.5,0.83,0.19,4.76,1.89,-15.32,209,273,409,447,340
1076,0.48,0.92,0.13,5.74,-7.69,-8.24,204,272,407,446,335
1077,0.47,0.92,0.14,12.08,-12.51,-11.23,205,273,405,445,336
1078,0.41,0.84,0.17,1.46,0.06,-5.31,226,272,407,439,334
1079,0.44,0.87,0.19,-0.79,-3.17,-2.99,211,271,413,441,333
1080,0.45,0.88,0.18,0.37,-1.77,-2.75,190,273,411,449,332
1081,0.43,0.87,0.2,-0.92,-2.14,-2.01,214,270,411,441,337
1082,0.46,0.84,0.22,-2.62,-1.4,-1.59,206,282,409,449,336
1083,0.44,0.88,0.2,0.55,-2.69,-5.07,205,274,409,446,336
1084,0.46,0.89,0.21,0.73,-0.12,-2.87,208,270,408,446,334
1085,0.46,0.82,0.19,0.61,-2.32,2.56,209,280,415,446,332
1086,0.45,0.84,0.21,2.01,-6.16,-1.71,203,273,401,446,334
1087,0.44,0.88,0.22,-0.37,-1.71,-2.01,209,277,410,447,338
1088,0.46,0.85,0.22,0.37,0.12,0.73,206,273,406,441,338
1089,0.47,0.86,0.19,0.12,-4.82,-2.56,208,277,409,441,337
1090,0.46,0.86,0.21,0.37,-4.09,-2.62,206,272,407,451,337
1091,0.47,0.83,0.22,-4.15,0.18,1.04,207,278,408,448,337
1092,0.46,0.85,0.22,1.59,-0.55,-1.95,208,273,409,438,338
1093,0.47,0.85,0.22,-3.17,-0.31,-1.46,206,272,407,442,339
1094,0.48,0.84,0.19,0.49,-4.82,-2.26,209,275,410,445,338
1095,0.47,0.85,0.19,2.14,-3.17,-2.44,206,277,406,446,340
1096,0.46,0.86,0.2,0.24,-2.69,-3.54,211,275,413,444,339
1097,0.47,0.85,0.2,0.61,-3.97,-3.6,206,272,403,441,338
1098,0.48,0.87,0.2,0.85,-1.59,-3.48,206,273,409,449,336
1099,0.42,0.82,0.2,-2.87,1.4,-1.71,205,275,410,440,334
1100,0.45,0.84,0.21,-0.67,-5.55,-3.54,210,273,406,449,344
1101,0.47,0.88,0.22,3.05,-2.75,-3.11,208,278,407,445,335
1102,0.46,0.87,0.21,1.22,-1.46,-2.26,215,271,409,445,339
1103,0.45,0.86,0.21,0.0,0.43,-2.93,203,276,412,452,334
1104,0.47,0.85,0.2,-0.12,-2.38,-2.26,209,273,404,451,334
1105,0.5,0.86,0.19,1.53,-4.82,1.28,210,273,406,446,333
1106,0.48,0.86,0.21,0.73,-1.65,-0.92,202,273,405,446,342
1107,0.47,0.85,0.21,-1.04,-3.54,-2.08,207,275,406,449,332
1108,0.46,0.82,0.21,-6.9,-3.23,-4.76,211,277,408,451,339
1109,0.5,0.84,0.21,0.49,-5.98,0.37,211,271,410,450,338
1110,0.51,0.85,0.2,2.69,-5.68,1.77,210,277,407,447,338
1111,0.52,0.81,0.22,-0.98,-0.55,1.1,208,277,406,445,335
1112,0.56,0.82,0.2,-4.09,-1.53,-1.1,205,274,408,440,341
1113,0.55,0.82,0.2,1.04,-6.59,-1.53,206,270,408,450,336
1114,0.55,0.8,0.21,-0.55,-3.17,-0.55,206,274,408,446,339
1115,0.56,0.8,0.22,1.59,-0.92,-5.19,207,274,409,447,337
1116,0.55,0.81,0.2,2.38,-2.56,-1.95,209,277,408,449,337
1117,0.54,0.79,0.22,-2.56,0.0,-0.49,209,276,407,443,341
1118,0.56,0.81,0.24,-8.06,-1.53,-0.85,204,276,408,455,339
1119,0.44,0.71,0.4,-16.91,13.31,-20.39,209,272,406,446,341
1120,0.53,0.68,0.4,10.25,12.57,5.07,214,277,402,444,334
1121,0.47,0.83,0.44,-9.09,-10.93,4.39,209,275,405,440,337
1122,0.56,0.78,0.59,6.47,-27.28,1.16,209,279,400,445,337
1123,0.56,0.68,0.41,-5.43,24.11,-9.22,212,272,408,448,335
1124,0.59,0.7,0.59,-8.73,-4.7,-13.43,214,275,403,443,339
1125,0.5,0.75,0.61,-5.86,-23.01,-25.21,210,273,405,445,338
1126,0.33,0.79,0.5,22.83,-2.93,-3.48,213,273,405,445,338
1127,0.21,0.82,0.48,9.77,31.07,11.96,209,274,406,441,332
1128,0.33,0.74,0.54,-1.71,-0.06,7.93,205,273,403,448,336
1129,0.45,0.73,0.53,-5.25,-5.37,-1.46,208,276,404,449,334
1130,0.46,0.79,0.47,-2.93,-10.56,-6.1,212,279,405,444,338
1131,0.42,0.73,0.52,2.14,-5.49,-2.08,210,272,406,452,340
1132,0.39,0.68,0.47,5.37,-5.62,-0.12,205,274,407,451,336
1133,0.51,0.67,0.48,0.24,-8.48,-8.97,212,270,404,452,337
1134,0.47,0.77,0.49,6.47,-8.36,-2.44,213,275,399,450,338
1135,0.5,0.69,0.44,5.74,-0.55,-2.44,212,274,405,453,336
1136,0.47,0.73,0.47,-0.49,-3.17,-4.15,209,274,405,450,340
1137,0.49,0.72,0.48,5.25,-9.52,13.12,210,270,405,444,337
1138,0.54,0.69,0.47,-7.32,-0.73,-8.79,211,274,405,447,336
1139,0.57,0.69,0.47,2.62,-3.85,-2.14,213,274,402,450,336
1140,0.56,0.67,0.47,-2.75,0.85,-3.17,213,276,405,442,340
1141,0.58,0.72,0.47,-2.08,-0.85,-8.67,212,279,407,453,336
1142,0.52,0.68,0.49,4.82,-5.68,2.08,210,278,404,445,337
1143,0.57,0.79,0.53,-6.84,-4.27,-2.01,209,283,410,439,338
1144,0.53,0.69,0.5,0.0,-4.82,-3.48,212,283,407,437,335
1145,0.53,0.67,0.52,1.89,-6.41,-0.61,204,273,405,443,336
1146,0.55,0.71,0.49,7.2,-0.12,-6.23,214,276,405,445,336
1147,0.54,0.7,0.5,-2.62,-1.59,-4.7,212,278,406,441,335
1148,0.54,0.68,0.47,0.92,-4.21,-1.71,214,278,407,442,336
1149,0.56,0.69,0.48,0.31,-3.3,-2.26,209,274,405,443,337
1150,0.52,0.63,0.5,-0.79,-3.66,-1.65,216,278,409,438,336
1151,0.53,0.67,0.52,0.79,-5.07,0.43,212,276,407,437,337
1152,0.54,0.66,0.52,0.92,-2.75,-3.17,215,281,406,449,334
1153,0.5,0.65,0.53,-2.38,-2.87,-4.76,214,275,410,440,341
1154,0.54,0.66,0.52,0.24,-4.03,-1.83,207,277,405,441,338
1155,0.53,0.67,0.52,-0.24,-2.75,-3.54,236,276,402,440,338
1156,0.54,0.68,0.51,2.38,-2.75,-2.69,215,275,407,442,338
1157,0.52,0.69,0.52,0.85,-2.2,-5.62,213,269,402,445,340
1158,0.49,0.7,0.53,-1.83,2.08,-1.34,217,276,407,443,337
1159,0.53,0.69,0.49,-2.62,-3.6,-5.55,212,281,405,446,337
1160,0.54,0.73,0.49,10.99,-5.55,-0.49,211,279,407,437,332
1161,0.52,0.7,0.42,-9.64,4.64,8.0,212,278,407,435,338
1162,0.49,0.64,0.46,-7.57,-12.51,12.45,215,278,406,444,338
1163,0.62,0.69,0.45,-5.13,-6.65,0.24,221,281,405,443,338
1164,0.6,0.64,0.5,-13.18,-16.42,7.63,216,273,412,452,334
1165,0.55,0.61,0.49,-8.54,-3.78,6.71,209,274,405,436,334
1166,0.62,0.6,0.53,-10.13,-14.77,3.42,213,282,404,436,341
1167,0.62,0.67,0.55,0.73,10.93,-2.26,212,280,403,438,336
1168,0.57,0.57,0.5,-1.95,-21.48,5.37,213,279,404,437,338
1169,0.64,0.65,0.5,3.17,6.16,1.28,216,282,409,434,337
1170,0.62,0.62,0.55,-9.7,-20.87,15.44,215,282,402,440,337
1171,0.67,0.54,0.53,-4.27,-4.03,-4.7,207,280,404,441,337
1172,0.68,0.54,0.53,-7.39,-5.37,-2.56,215,281,413,438,339
1173,0.63,0.46,0.61,-17.64,13.12,-3.17,217,283,407,441,339
1174,0.68,0.46,0.61,7.26,-3.72,-6.35,217,279,409,438,340
1175,0.62,0.53,0.58,7.02,-0.92,-14.16,216,285,405,437,336
1176,0.64,0.54,0.56,-2.38,-9.4,-5.62,213,286,406,439,338
1177,0.65,0.57,0.51,2.14,-5.98,-13.61,216,284,404,435,340
1178,0.61,0.63,0.52,2.69,-8.0,-9.16,216,280,403,431,338
1179,0.58,0.67,0.5,2.5,8.85,-7.08,218,284,399,437,339
1180,0.57,0.68,0.5,6.96,-4.58,-5.0,219,285,399,430,343
1181,0.57,0.7,0.48,0.92,-1.34,-1.04,217,285,400,437,342
1182,0.54,0.68,0.48,-2.32,-4.88,-2.32,219,282,397,435,340
1183,0.54,0.7,0.46,-1.1,-4.15,-0.31,219,279,395,439,341
1184,0.58,0.7,0.46,-2.01,-5.74,-0.61,218,283,391,433,341
1185,0.58,0.66,0.48,-1.71,-2.01,-1.16,218,283,390,437,337
1186,0.58,0.69,0.5,-0.61,-1.04,-3.17,219,285,395,436,341
1187,0.59,0.68,0.49,0.79,-3.36,-2.32,219,284,393,428,343
1188,0.57,0.66,0.48,-0.67,-2.69,-5.0,218,283,391,427,341
1189,0.55,0.69,0.48,4.46,1.4,-7.39,214,283,394,432,341
1190,0.56,0.69,0.47,1.59,-1.46,-5.19,219,283,394,434,337
1191,0.53,0.7,0.48,2.08,-1.1,-3.78,218,279,392,434,342
1192,0.53,0.72,0.48,1.77,-3.05,-3.6,216,282,391,439,343
1193,0.52,0.74,0.48,0.18,-1.53,-4.64,217,285,392,436,340
1194,0.51,0.73,0.46,0.92,-2.2,-2.14,220,280,394,441,339
1195,0.5,0.73,0.47,-1.65,-2.99,-3.66,213,283,390,439,343
1196,0.52,0.72,0.46,-1.83,-4.64,-1.95,216,283,393,437,338
1197,0.5,0.71,0.46,-2.62,-1.95,0.85,219,280,394,438,339
1198,0.53,0.74,0.48,-6.77,-3.78,-3.42,220,278,388,432,337
1199,0.52,0.7,0.53,10.07,-5.31,-2.75,215,283,391,435,338
1200,0.49,0.7,0.52,-1.89,-4.76,-3.78,217,281,393,438,339
1201,0.49,0.71,0.52,-0.24,-2.56,-2.01,234,283,393,436,341
1202,0.5,0.71,0.53,-0.37,-3.54,-0.43,218,283,394,432,339
1203,0.49,0.7,0.52,-1.28,-1.77,-0.85,218,282,390,441,339
1204,0.51,0.71,0.52,1.53,-0.18,-1.1,218,284,391,444,337
1205,0.52,0.71,0.5,1.4,-5.62,1.4,217,282,393,437,343
1206,0.51,0.7,0.51,-0.12,-3.48,-2.26,218,282,394,446,341
1207,0.5,0.7,0.51,1.04,-0.61,-1.1,218,283,391,433,341
1208,0.52,0.7,0.52,-0.85,-1.53,-0.67,222,278,391,442,344
1209,0.52,0.69,0.52,0.18,-2.56,-3.17,223,286,394,452,342
1210,0.51,0.7,0.51,0.73,-2.75,-2.69,219,286,390,440,342
1211,0.52,0.69,0.51,0.67,-2.99,-3.23,220,282,394,432,344
1212,0.53,0.71,0.5,0.18,-4.46,-1.71,221,281,393,433,341
1213,0.51,0.71,0.5,-1.83,-4.52,-3.11,213,286,396,438,342
1214,0.5,0.69,0.5,0.06,-1.65,-1.1,216,283,393,433,346
1215,0.51,0.69,0.5,-1.71,-0.92,-1.59,221,286,392,441,342
1216,0.51,0.66,0.49,-4.39,-5.74,-0.18,223,289,391,435,343
1217,0.52,0.64,0.5,-5.43,-3.48,-2.5,216,286,390,435,343
1218,0.55,0.68,0.51,1.53,-2.08,-2.44,222,282,396,435,343
1219,0.57,0.66,0.53,5.43,-3.6,-1.65,220,288,397,432,344
1220,0.57,0.66,0.52,6.29,-2.26,0.37,220,280,395,438,346
1221,0.58,0.66,0.54,0.12,-4.33,-3.17,222,284,395,437,343
1222,0.58,0.64,0.52,3.85,-1.16,-0.85,220,285,390,433,344
1223,0.61,0.6,0.51,3.97,-1.1,-5.8,219,287,395,438,344
1224,0.54,0.64,0.52,4.7,-6.84,-2.81,223,285,395,436,347
1225,0.53,0.69,0.53,1.16,-2.87,-3.11,219,288,390,438,346
1226,0.59,0.72,0.51,2.32,-0.37,-10.8,221,287,391,441,343
1227,0.55,0.7,0.53,3.91,-10.01,1.65,219,287,390,440,344
1228,0.6,0.64,0.49,-5.19,-1.16,-5.98,225,286,391,439,345
1229,0.64,0.69,0.49,4.76,0.0,-2.14,216,284,402,438,341
1230,0.59,0.65,0.51,1.34,-7.02,-4.03,223,288,394,437,345
1231,0.57,0.65,0.5,3.42,-3.54,-0.43,235,284,394,440,342
1232,0.61,0.66,0.51,3.91,-5.13,-3.66,220,291,391,436,345
1233,0.57,0.65,0.5,-0.73,-2.5,-4.7,222,289,394,441,345
1234,0.61,0.63,0.48,-2.5,-2.99,-1.89,220,289,392,431,346
1235,0.61,0.64,0.48,1.71,-0.98,-4.94,221,284,391,431,343
1236,0.61,0.62,0.49,2.69,-1.1,-4.7,221,287,391,437,343
1237,0.56,0.64,0.49,1.89,-1.89,-7.87,217,284,396,436,344
1238,0.56,0.68,0.5,5.37,-1.28,-14.22,223,287,394,433,348
1239,0.48,0.73,0.5,-2.44,3.17,-16.78,221,288,390,440,344
1240,0.46,0.75,0.48,-4.82,-3.42,-10.99,223,287,390,436,344
1241,0.3,0.71,0.47,10.38,5.0,-22.16,222,287,390,434,346
1242,0.27,0.75,0.56,-11.66,-3.54,-13.85,220,288,391,439,348
1243,0.18,0.72,0.59,-21.79,-8.36,-4.09,219,282,393,438,345
1244,0.27,0.74,0.57,-7.45,-13.67,-4.94,214,282,394,430,336
1245,0.27,0.72,0.66,-4.7,-4.58,-0.43,224,282,395,433,342
1246,0.27,0.78,0.64,-3.91,7.57,-8.18,216,283,393,437,343
1247,0.25,0.75,0.64,5.19,-2.69,-1.22,223,281,393,438,343
1248,0.27,0.76,0.61,-1.04,-3.42,-2.01,221,277,393,436,343
1249,0.28,0.75,0.62,1.53,-2.93,0.0,210,277,391,436,341
1250,0.27,0.75,0.62,2.69,-4.09,0.37,216,284,394,433,346
1251,0.29,0.74,0.6,-1.83,-2.26,-5.0,221,283,393,440,347
1252,0.29,0.74,0.62,2.26,-3.6,3.54,220,282,392,443,346
1253,0.29,0.74,0.61,-0.79,-4.94,1.95,244,282,394,433,345
1254,0.32,0.74,0.61,1.22,-4.39,0.31,225,282,393,435,346
1255,0.31,0.73,0.61,1.1,-4.46,-2.01,224,284,394,437,344
1256,0.31,0.74,0.62,-1.28,-4.15,-4.09,221,283,392,434,347
1257,0.3,0.71,0.59,-5.86,-1.04,1.95,221,283,384,436,345
1258,0.26,0.68,0.65,-9.22,-0.92,0.31,225,282,395,431,342
1259,0.27,0.64,0.7,-8.3,-7.93,1.53,223,284,394,432,346
1260,0.28,0.64,0.72,5.07,10.01,7.32,223,285,396,431,345
1261,0.35,0.69,0.71,-1.28,-9.89,-2.14,223,288,394,440,347
1262,0.35,0.57,0.67,-23.56,-8.61,7.69,221,287,394,436,346
1263,0.36,0.58,0.78,4.52,-4.88,8.91,224,284,393,435,346
1264,0.39,0.67,0.76,9.16,-6.77,6.71,222,285,393,436,348
1265,0.46,0.53,0.77,-14.95,-24.41,2.75,222,287,394,436,349
1266,0.24,0.52,0.8,3.48,-15.01,10.93,221,277,398,437,347
1267,0.43,0.51,0.7,-17.4,-6.16,-14.28,223,284,398,426,347
1268,0.37,0.55,0.77,-14.1,-33.57,9.7,226,287,394,431,347
1269,0.51,0.54,0.78,-6.04,5.92,6.77,225,284,396,437,348
1270,0.54,0.45,0.78,2.08,-4.46,1.53,225,285,391,435,347
1271,0.55,0.44,0.74,-8.42,2.2,-15.01,224,286,391,432,348
1272,0.38,0.5,0.79,5.55,11.47,-30.27,221,277,394,428,344
1273,0.45,0.44,0.61,0.06,10.99,-3.36,225,282,398,431,346
1274,0.55,0.43,0.64,-5.8,-29.48,-4.15,223,285,396,426,343
1275,0.71,0.5,0.63,24.48,-16.6,6.96,219,283,409,428,347
1276,0.43,0.39,0.59,-9.52,-15.81,8.61,220,283,394,427,342
1277,0.56,0.41,0.68,-27.4,-9.58,14.34,228,284,397,431,350
1278,0.66,0.6,0.76,20.02,-2.93,2.44,224,285,395,426,342
1279,0.43,0.46,0.75,20.63,-32.53,10.74,224,281,396,431,346
1280,0.74,0.49,0.63,-30.27,-7.14,0.43,223,287,397,427,350
1281,0.68,0.48,0.66,21.18,25.15,-22.83,222,283,398,425,346
1282,0.59,0.42,0.63,-5.86,-8.3,-6.04,221,286,392,431,347
1283,0.6,0.45,0.69,1.46,-13.43,14.47,220,284,393,434,346
1284,0.58,0.34,0.58,-6.53,8.97,-1.1,222,287,394,431,341
1285,0.58,0.3,0.75,-3.23,-4.7,34.79,213,283,397,429,348
1286,0.63,0.2,0.67,14.34,-21.85,8.73,221,282,396,427,351
1287,0.73,0.11,0.65,0.55,-13.79,-10.68,213,282,394,426,349
1288,0.48,0.2,0.75,6.9,22.71,-39.86,219,282,398,432,349
1289,0.49,0.43,0.75,-8.36,-14.16,-35.03,220,281,398,434,349
1290,0.4,0.44,0.69,2.62,-3.05,-7.63,215,279,397,428,345
1291,0.23,0.62,0.55,70.25,28.63,9.58,215,277,403,437,345
1292,0.31,0.63,0.39,39.0,14.83,13.06,214,279,405,442,346
1293,0.42,0.81,0.41,29.36,10.68,13.67,218,281,402,448,343
1294,0.44,0.71,0.39,2.44,2.01,2.75,217,279,405,451,342
1295,0.38,0.73,0.34,6.84,-5.86,-4.27,215,281,402,452,345
1296,0.35,0.8,0.34,-7.39,-24.17,-2.38,216,283,406,453,345
1297,0.26,0.87,0.37,-15.08,-10.93,-17.46,214,285,408,447,342
1298,0.34,0.94,0.37,-4.21,-12.15,-1.59,220,277,408,456,347
1299,0.32,0.8,0.36,-0.49,1.28,13.31,218,287,405,443,344
1300,0.48,0.7,0.33,-6.04,-1.34,-0.12,223,278,404,450,348
1301,0.42,0.84,0.41,-9.58,-5.19,-4.03,217,285,409,447,342
1302,0.36,0.88,0.5,-11.9,-4.94,-21.67,205,281,405,446,344
1303,0.38,0.78,0.46,-15.2,-15.2,-9.09,215,281,407,451,336
1304,0.33,0.83,0.5,4.21,3.66,-7.08,219,282,408,462,347
1305,0.29,0.79,0.47,6.29,1.28,-5.62,222,282,400,444,347
1306,0.34,0.83,0.44,-0.73,-5.19,-0.98,215,282,407,451,338
1307,0.29,0.82,0.49,-3.42,-8.54,0.24,216,283,407,447,339
1308,0.33,0.82,0.49,-5.74,-8.54,-0.67,219,281,405,449,345
1309,0.36,0.82,0.49,0.43,-5.31,2.32,218,288,409,440,344
1310,0.32,0.73,0.5,-3.11,-9.34,3.72,218,280,402,444,340
1311,0.38,0.73,0.51,-17.33,-1.04,-15.08,216,283,408,441,344
1312,0.38,0.72,0.54,-12.21,-13.85,-5.98,216,282,407,438,340
1313,0.39,0.7,0.55,2.01,-1.34,-0.49,221,285,409,445,344
1314,0.39,0.7,0.56,-0.18,-3.6,-5.07,219,284,408,443,339
1315,0.36,0.75,0.58,-0.06,-4.03,-8.54,217,282,404,436,339
1316,0.33,0.74,0.6,4.33,1.46,-5.37,216,283,409,442,344
1317,0.28,0.82,0.58,12.15,8.0,-10.38,222,278,403,437,351
1318,0.27,0.79,0.54,2.38,2.69,1.71,218,280,402,442,348
1319,0.25,0.8,0.55,2.38,2.5,0.31,224,280,407,442,352
1320,0.26,0.78,0.58,0.31,0.85,9.34,214,281,408,445,346
1321,0.28,0.73,0.58,-6.96,-1.34,12.94,217,282,404,436,344
1322,0.32,0.79,0.57,-4.52,0.18,-1.28,219,281,406,440,346
1323,0.37,0.76,0.57,1.28,-14.71,-1.59,219,281,406,440,343
1324,0.36,0.76,0.57,-3.17,1.16,-0.67,221,281,408,448,349
1325,0.33,0.75,0.6,5.31,-6.84,-3.05,222,279,404,438,348
1326,0.33,0.74,0.58,-3.17,-3.72,-1.22,221,284,407,442,347
1327,0.33,0.76,0.62,-0.37,-3.85,-0.06,221,300,408,432,350
1328,0.36,0.69,0.62,-0.06,-10.8,1.1,217,281,409,442,354
1329,0.39,0.7,0.58,-0.37,-2.14,-5.55,218,284,408,446,346
1330,0.47,0.74,0.61,2.75,-3.78,-5.13,219,288,406,437,349
1331,0.42,0.72,0.58,-5.19,-5.07,-4.21,219,281,404,441,350
1332,0.39,0.69,0.61,-3.36,-5.43,5.43,204,285,408,442,345
1333,0.39,0.67,0.59,4.46,-0.06,-3.85,216,283,404,441,346
1334,0.32,0.66,0.59,-3.36,7.75,-5.37,223,286,404,441,355
1335,0.39,0.73,0.66,0.73,-0.92,-5.0,221,280,402,434,350
1336,0.33,0.67,0.64,3.3,-4.82,-2.5,219,277,403,438,347
1337,0.34,0.67,0.61,14.59,-10.93,-6.1,222,267,404,441,349
1338,0.34,0.75,0.5,14.95,-3.48,-7.08,216,272,411,445,353
1339,0.36,0.93,0.36,33.81,2.26,-25.02,225,282,412,445,352
1340,0.12,0.93,0.19,11.11,0.85,-18.98,213,274,411,449,350
1341,0.16,1.0,0.14,8.54,-6.35,-4.64,214,278,410,458,349
1342,0.1,0.97,0.18,-15.87,0.06,0.37,216,280,404,452,347
1343,0.09,0.95,0.16,-1.77,-1.1,-0.24,224,274,408,454,353
1344,0.09,0.96,0.19,5.8,-3.3,-3.85,216,273,406,453,351
1345,0.12,0.95,0.17,-3.48,-12.08,2.56,216,276,410,456,349
1346,0.09,0.79,0.22,-54.99,-4.03,30.52,214,278,408,440,346
1347,0.19,0.69,0.61,-72.27,21.67,-16.05,217,277,405,444,342
1348,0.3,0.58,0.74,-11.11,15.08,-19.41,215,281,403,427,340
1349,0.27,0.68,0.7,22.77,-8.97,8.67,216,280,401,436,340
1350,0.29,0.72,0.7,-5.07,-9.16,7.2,215,280,403,443,339
1351,0.25,0.67,0.71,-8.48,-8.85,-0.92,218,281,403,438,341
1352,0.27,0.65,0.72,-3.48,-4.03,-6.29,218,281,404,435,340
1353,0.27,0.68,0.72,1.53,-4.64,-2.14,217,281,404,435,344
1354,0.28,0.67,0.72,-0.43,-3.97,-3.17,228,280,404,435,338
1355,0.25,0.66,0.74,-0.61,-0.18,-3.97,219,292,405,437,342
1356,0.25,0.67,0.73,2.56,0.85,-5.55,216,286,401,433,338
1357,0.27,0.65,0.7,4.46,-0.49,-1.83,220,284,402,439,344
1358,0.26,0.67,0.72,-2.5,-6.16,-4.03,220,282,404,436,344
1359,0.29,0.65,0.7,-4.46,-2.87,-4.58,220,279,403,438,343
1360,0.28,0.67,0.71,-0.18,-3.17,-3.11,219,293,402,429,339
1361,0.28,0.67,0.71,-0.55,-3.36,-2.87,221,279,404,435,341
1362,0.26,0.66,0.71,0.43,-2.14,-2.2,221,278,401,433,341
1363,0.27,0.71,0.72,-2.62,-3.11,-2.32,219,283,395,432,340
1364,0.32,0.67,0.71,-2.62,-3.97,2.87,218,276,401,438,340
1365,0.32,0.67,0.73,1.59,-3.11,-4.88,216,282,400,433,344
1366,0.31,0.64,0.72,-0.37,-5.13,-0.79,215,275,400,428,348
1367,0.34,0.62,0.7,-1.34,-2.93,-0.06,219,280,400,434,343
1368,0.31,0.59,0.71,-2.38,-3.78,1.83,220,282,415,435,339
1369,0.33,0.6,0.71,-0.06,-7.26,2.5,219,277,399,437,344
1370,0.36,0.61,0.72,-1.1,-3.36,-4.03,220,279,402,433,345
1371,0.36,0.62,0.72,1.4,-3.3,-2.26,222,279,397,434,342
1372,0.36,0.61,0.72,0.43,-3.23,-3.42,221,277,399,431,343
1373,0.36,0.61,0.73,0.67,-2.56,-2.93,208,281,391,423,342
1374,0.38,0.6,0.73,-0.31,1.46,-4.09,224,280,396,425,342
1375,0.34,0.58,0.71,-4.46,-0.73,-0.55,219,278,388,431,343
1376,0.39,0.58,0.76,1.22,-6.96,-4.27,225,279,392,429,341
1377,0.44,0.65,0.76,0.24,-10.38,4.58,216,282,392,425,343
1378,0.43,0.49,0.7,-0.12,-3.85,8.73,221,277,392,429,343
1379,0.52,0.43,0.73,-7.32,-8.0,6.35,223,279,399,430,343
1380,0.47,0.49,0.76,4.76,-2.56,14.53,217,281,394,424,344
1381,0.52,0.39,0.75,-0.12,-11.47,0.43,222,271,391,424,345
1382,0.49,0.44,0.77,-3.48,-3.36,-5.07,231,272,391,422,343
1383,0.5,0.44,0.75,-3.36,-0.18,-8.54,221,281,397,430,346
1384,0.53,0.45,0.75,5.92,-2.44,-9.4,223,282,392,420,341
1385,0.42,0.46,0.74,-3.72,-11.41,-2.5,220,279,394,428,347
1386,0.46,0.43,0.72,-1.59,-5.31,4.64,223,282,392,429,341
1387,0.5,0.5,0.72,-1.65,1.28,7.93,214,282,392,420,343
1388,0.52,0.45,0.75,-4.46,-4.27,-3.54,223,281,392,429,346
1389,0.51,0.43,0.73,0.61,-6.1,0.43,220,281,397,426,342
1390,0.52,0.43,0.74,0.73,-4.88,-4.15,223,279,396,425,342
1391,0.53,0.44,0.74,-2.38,-2.5,-2.99,231,284,395,425,344
1392,0.52,0.44,0.75,-0.55,-1.89,-3.05,224,280,395,428,345
1393,0.52,0.44,0.75,0.79,-1.16,-3.78,221,279,397,431,340
1394,0.51,0.46,0.73,11.9,4.39,-5.13,218,284,395,428,345
1395,0.44,0.59,0.73,13.85,15.01,-9.58,221,283,398,431,345
1396,0.45,0.59,0.65,4.58,-9.7,8.85,222,281,395,437,346
1397,0.5,0.58,0.63,-1.16,-12.27,8.85,223,280,394,429,347
1398,0.48,0.6,0.66,-2.32,-7.93,-4.39,220,283,389,431,342
1399,0.5,0.57,0.67,0.79,-2.2,0.85,221,282,393,434,350
1400,0.49,0.56,0.67,0.12,-4.03,-2.44,224,284,391,433,345
1401,0.51,0.56,0.67,-0.18,-2.81,-3.36,223,294,389,433,349
1402,0.5,0.57,0.68,0.31,-2.01,-2.93,222,283,388,430,347
1403,0.5,0.54,0.68,-0.37,-2.56,-2.38,218,286,391,427,349
1404,0.51,0.56,0.67,0.79,-2.69,-1.28,230,286,389,431,349
1405,0.51,0.56,0.68,1.59,-1.28,-1.22,226,284,391,421,348
1406,0.49,0.56,0.69,2.14,-4.03,-2.62,223,284,390,429,348
1407,0.45,0.56,0.7,-3.23,0.18,-4.46,225,278,388,438,347
1408,0.47,0.55,0.7,-0.18,-2.01,-3.97,225,281,389,433,347
1409,0.48,0.55,0.7,-0.06,-3.05,-2.62,222,283,389,429,347
1410,0.48,0.55,0.7,0.0,-4.7,-1.89,224,282,392,431,344
1411,0.5,0.55,0.7,-0.98,-1.46,-1.04,223,282,385,433,343
1412,0.51,0.54,0.7,0.06,-1.4,-3.6,233,283,392,430,350
1413,0.47,0.55,0.7,4.58,-1.95,-3.36,234,279,388,428,348
1414,0.48,0.56,0.7,1.4,-4.52,-3.54,217,280,391,429,344
1415,0.49,0.56,0.7,0.92,-5.43,-1.77,222,284,391,427,346
1416,0.49,0.55,0.7,0.55,-4.09,-1.83,225,278,391,430,347
1417,0.49,0.56,0.7,-0.49,-3.3,-3.23,223,279,389,427,348
1418,0.5,0.54,0.7,0.06,-1.34,-2.44,221,283,388,426,348
1419,0.49,0.52,0.7,0.55,-2.81,-2.38,224,281,392,421,344
1420,0.5,0.52,0.69,0.06,-5.43,-1.83,223,283,388,428,348
1421,0.5,0.53,0.69,0.61,-3.3,-2.99,223,281,386,435,347
1422,0.42,0.59,0.71,15.08,18.98,-8.48,223,281,390,428,346
1423,0.35,0.61,0.72,4.64,-4.76,1.83,222,282,392,426,350
1424,0.39,0.64,0.64,2.2,-1.89,-2.62,216,285,389,435,347
1425,0.4,0.66,0.66,-2.56,-5.31,-0.98,223,279,385,434,347
1426,0.4,0.66,0.66,-0.18,-4.09,-2.38,224,283,391,433,350
1427,0.4,0.65,0.67,-0.67,-4.76,-0.55,223,284,394,441,347
1428,0.43,0.64,0.65,-0.06,-2.44,-1.53,222,281,389,432,347
1429,0.45,0.64,0.65,0.43,-3.23,-3.78,223,285,393,435,345
1430,0.45,0.64,0.65,-0.31,-3.85,-2.08,225,279,393,438,350
1431,0.45,0.64,0.65,-0.31,-2.99,-2.32,222,280,394,439,344
1432,0.46,0.63,0.65,-0.49,-2.75,-2.5,221,279,390,435,347
1433,0.45,0.63,0.65,0.24,-2.99,-3.54,219,285,394,430,339
1434,0.45,0.63,0.66,0.18,-2.69,-4.03,223,279,393,432,345
1435,0.46,0.64,0.67,-0.49,-3.23,-1.95,223,280,389,432,347
1436,0.45,0.62,0.66,1.65,-1.28,-3.85,227,286,391,431,346
1437,0.45,0.62,0.67,0.79,-3.78,-1.53,222,279,392,433,347
1438,0.46,0.61,0.65,0.49,-3.66,-2.44,224,282,393,435,347
1439,0.47,0.62,0.67,-4.33,-4.76,-0.92,219,293,385,432,342
1440,0.46,0.6,0.66,0.73,-4.15,-2.93,226,284,391,430,346
1441,0.45,0.62,0.68,1.16,-3.05,-2.38,226,272,393,432,348
1442,0.45,0.61,0.67,-0.98,-3.36,-2.14,220,279,396,435,347
1443,0.44,0.61,0.67,0.18,-2.26,-1.95,225,283,391,435,345
1444,0.44,0.61,0.68,-0.49,-3.66,-2.93,222,282,392,432,348
1445,0.45,0.61,0.68,-1.34,-4.21,-3.11,221,279,390,434,349
1446,0.45,0.61,0.67,-1.71,1.46,-4.7,223,277,396,435,343
1447,0.45,0.61,0.67,-1.71,-4.09,-2.69,223,283,392,430,340
1448,0.46,0.6,0.67,1.28,-3.6,-2.08,228,282,393,435,351
1449,0.45,0.6,0.68,0.43,-1.53,-2.01,224,283,392,434,348
1450,0.45,0.6,0.68,-3.91,-3.48,-3.42,224,278,396,431,344
1451,0.46,0.57,0.66,-2.69,-5.8,-4.52,223,283,392,431,346
1452,0.46,0.59,0.68,-0.18,-3.54,-0.73,226,284,392,443,350
1453,0.46,0.57,0.67,-0.55,-3.97,-1.95,225,283,393,433,352
1454,0.49,0.58,0.67,0.85,-3.97,-3.05,226,282,390,436,342
1455,0.5,0.59,0.68,0.73,-3.05,-1.89,225,283,392,433,348
1456,0.49,0.57,0.67,0.61,-3.36,-2.08,227,282,393,437,348
1457,0.48,0.58,0.68,-2.2,-4.82,-2.01,225,281,398,432,348
1458,0.47,0.58,0.66,0.0,-0.98,-4.27,222,281,393,428,348
1459,0.49,0.57,0.67,0.67,-2.69,-1.34,225,282,397,426,351
1460,0.49,0.56,0.68,-1.71,-2.81,-2.08,224,282,388,428,349
1461,0.46,0.53,0.69,-4.03,-0.98,-5.62,229,283,396,431,352
1462,0.49,0.57,0.7,3.05,-2.56,-3.3,225,280,391,433,350
1463,0.48,0.55,0.7,1.53,-2.38,-1.16,228,292,394,428,348
1464,0.48,0.56,0.69,1.4,-2.38,-3.36,226,283,390,426,352
1465,0.48,0.56,0.7,-0.67,-5.8,-1.16,225,284,394,433,351
1466,0.5,0.56,0.69,-0.79,-6.16,-2.5,229,287,397,434,348
1467,0.5,0.56,0.69,0.49,-3.54,-2.69,226,281,392,434,346
1468,0.49,0.56,0.68,2.5,-2.93,-2.26,220,281,394,430,348
1469,0.49,0.56,0.69,-2.38,-1.77,-0.92,229,282,391,436,358
1470,0.49,0.56,0.67,2.69,-4.09,-1.28,224,282,387,433,349
1471,0.49,0.55,0.68,-1.1,-3.72,-1.77,226,286,392,437,348
1472,0.51,0.55,0.68,0.12,-3.91,-2.56,229,277,395,429,348
1473,0.53,0.54,0.67,-0.06,-3.36,-3.72,224,287,387,420,350
1474,0.52,0.54,0.67,1.71,-3.85,-2.99,225,284,390,435,349
1475,0.51,0.55,0.68,-2.87,-2.32,-7.2,225,294,392,431,347
1476,0.52,0.57,0.66,-6.47,-1.4,-7.14,223,285,394,432,348
1477,0.52,0.54,0.69,-3.54,-1.34,-5.55,224,282,393,431,349
1478,0.51,0.55,0.68,0.85,-3.23,-2.62,224,283,393,428,347
1479,0.51,0.56,0.7,1.28,-3.23,-2.26,223,282,394,430,347
1480,0.49,0.54,0.7,-0.12,-1.34,-3.78,227,286,395,430,349
1481,0.51,0.53,0.69,-0.67,-2.87,-2.01,221,282,388,430,350
1482,0.51,0.54,0.67,2.62,-3.78,-3.36,227,283,393,434,351
1483,0.52,0.55,0.68,1.22,-2.14,-1.34,227,284,390,429,351
1484,0.5,0.54,0.67,-0.61,-3.78,-6.1,223,284,390,435,351
1485,0.54,0.54,0.68,-6.16,-7.14,-6.65,221,281,391,434,345
1486,0.53,0.58,0.65,8.42,1.83,-17.64,222,284,392,433,349
1487,0.43,0.59,0.69,2.75,-3.78,3.05,217,282,390,439,349
1488,0.41,0.6,0.68,6.35,9.52,-8.54,226,280,393,431,349
1489,0.49,0.6,0.7,0.55,-2.93,-1.22,222,280,399,436,347
1490,0.34,0.58,0.7,-0.79,-1.95,-0.37,222,282,397,440,352
1491,0.37,0.59,0.74,-2.69,-3.66,-0.98,226,278,415,438,350
1492,0.38,0.59,0.74,-3.66,-3.91,-1.22,222,285,402,442,348
1493,0.37,0.55,0.74,-6.84,1.4,1.1,228,284,396,445,350
1494,0.37,0.53,0.73,-0.06,-7.81,-8.06,223,281,402,449,352
1495,0.39,0.53,0.74,-2.38,3.85,-5.55,227,282,399,440,344
1496,0.38,0.5,0.76,2.75,-5.62,1.04,224,287,395,441,350
1497,0.38,0.5,0.76,-6.04,-1.83,-2.44,223,280,394,433,350
1498,0.4,0.51,0.76,0.12,-4.03,-1.04,217,282,395,438,349
1499,0.31,0.58,0.77,-3.11,-5.55,-6.04,220,281,394,436,348
1500,0.35,0.52,0.77,1.28,-1.04,-0.24,223,288,390,435,347
1501,0.38,0.52,0.78,-2.14,-5.31,-1.53,224,280,395,439,352
1502,0.4,0.53,0.78,-1.71,-3.72,-4.52,225,281,390,438,349
1503,0.39,0.52,0.78,-2.56,-1.1,-0.55,220,285,394,443,350
1504,0.4,0.51,0.77,-0.79,-4.64,-3.48,227,274,393,442,348
1505,0.42,0.53,0.78,4.46,-3.3,-1.46,227,279,396,439,349
1506,0.4,0.52,0.79,-1.95,-5.0,-2.38,227,281,390,433,351
1507,0.42,0.49,0.79,-1.16,-2.38,-3.54,228,277,389,438,354
1508,0.43,0.5,0.8,1.65,-7.08,0.49,220,287,390,441,353
1509,0.41,0.49,0.8,7.14,1.4,2.5,223,281,392,441,352
1510,0.42,0.47,0.79,-0.43,-2.44,-0.67,225,283,395,438,353
1511,0.45,0.48,0.77,3.91,-1.71,-5.62,222,284,398,440,354
1512,0.43,0.51,0.77,3.11,-4.88,-3.11,225,279,395,441,349
1513,0.43,0.51,0.76,-1.83,-2.38,-2.26,225,286,397,442,352
1514,0.44,0.5,0.77,-0.37,-3.11,-1.89,225,280,394,438,351
1515,0.41,0.5,0.78,0.49,-2.5,-1.89,223,284,396,440,353
1516,0.42,0.49,0.77,-1.89,-3.54,-4.03,220,283,396,439,353
1517,0.44,0.5,0.78,1.77,-3.72,-2.99,225,281,400,438,354
1518,0.44,0.48,0.76,1.53,-0.43,-5.92,223,281,397,433,351
1519,0.44,0.49,0.79,1.1,0.0,-7.63,227,285,397,436,352
1520,0.45,0.48,0.77,1.83,-5.13,-1.83,225,290,394,438,353
1521,0.42,0.49,0.79,-0.31,-2.08,-3.48,225,285,394,436,348
1522,0.43,0.48,0.78,-2.01,-2.32,-3.23,223,282,396,437,353
1523,0.44,0.49,0.78,-2.26,-1.34,-4.94,223,283,392,439,352
1524,0.44,0.5,0.79,4.7,-0.85,-2.2,226,284,393,438,353
1525,0.41,0.47,0.79,0.79,-4.27,-2.75,227,283,392,435,353
1526,0.43,0.47,0.74,-0.73,-0.98,-1.83,230,280,398,431,348
1527,0.4,0.49,0.81,7.75,-2.14,-0.12,226,286,390,432,351
1528,0.4,0.5,0.78,-2.08,-0.12,-0.67,224,281,391,430,355
1529,0.35,0.54,0.83,-12.02,11.78,-3.11,223,291,390,431,352
1530,0.39,0.45,0.8,-4.09,-5.74,-3.23,227,283,373,434,353
1531,0.37,0.48,0.84,-0.31,-5.43,0.0,218,283,380,433,352
1532,0.36,0.46,0.79,1.22,-2.93,-0.55,223,279,376,433,352
1533,0.39,0.5,0.82,0.06,-4.52,-3.11,221,282,377,435,354
1534,0.42,0.49,0.79,2.14,-3.97,0.18,221,283,376,438,353
1535,0.43,0.48,0.8,2.44,-0.85,-3.48,222,283,380,436,351
1536,0.39,0.48,0.81,0.06,-1.22,-4.15,226,283,371,429,350
1537,0.41,0.47,0.81,0.85,-2.87,-2.93,223,290,377,438,352
1538,0.4,0.48,0.82,-3.23,-5.31,-0.79,232,283,378,430,354
1539,0.42,0.46,0.82,-3.3,-5.07,-2.2,222,280,379,435,353
1540,0.45,0.42,0.82,-3.3,-9.95,0.24,226,285,378,437,355
1541,0.49,0.39,0.8,1.83,-6.59,-1.04,227,281,391,438,353
1542,0.5,0.35,0.77,-1.83,-11.9,-4.21,225,284,374,436,353
1543,0.53,0.39,0.78,-1.89,-8.36,-5.98,226,281,378,435,351
1544,0.52,0.32,0.77,2.93,-10.19,-6.59,226,289,380,433,350
1545,0.35,0.93,0.08,1.4,-2.62,-2.44,198,253,415,453,334
1546,0.34,0.94,0.08,-4.33,-0.37,-3.66,204,259,415,451,337
1547,0.33,0.94,0.09,0.43,-5.62,-2.56,201,265,416,450,335
1548,0.36,0.94,0.1,-2.93,0.24,-0.18,198,255,415,449,335
1549,0.38,0.95,0.11,-2.56,-3.72,3.42,199,265,411,456,335
1550,0.41,0.97,0.13,-11.23,4.15,3.48,201,260,414,453,335
1551,0.52,0.86,0.18,-10.86,-14.1,2.5,200,259,414,445,339
1552,0.52,0.84,0.19,-7.81,-5.43,-1.77,207,264,413,450,335
1553,0.47,0.83,0.21,-4.33,-7.45,1.46,199,263,409,449,335
1554,0.5,0.86,0.2,5.37,-6.35,-5.37,202,264,415,443,335
1555,0.46,0.86,0.21,-1.22,-0.06,-1.83,204,280,417,452,337
1556,0.48,0.86,0.21,-4.15,0.24,-4.39,201,268,413,455,339
1557,0.46,0.86,0.25,-4.58,1.65,0.37,199,265,421,445,334
1558,0.51,0.83,0.25,0.73,-2.62,-3.11,195,265,410,443,332
1559,0.48,0.83,0.24,3.42,-3.6,-4.15,205,270,410,446,334
1560,0.5,0.86,0.23,2.2,-3.11,-3.78,200,263,418,446,334
1561,0.44,0.85,0.16,24.96,-8.85,-14.28,202,268,414,441,330
1562,0.44,0.88,0.08,0.43,-3.66,-2.87,202,265,415,450,333
1563,0.44,0.9,0.09,0.79,-3.97,-1.4,204,263,405,447,338
1564,0.47,0.9,0.11,-1.1,-0.67,0.67,199,267,416,446,332
1565,0.45,0.91,0.15,-1.53,0.12,5.19,203,268,416,445,333
1566,0.48,0.88,0.13,5.43,-2.38,1.4,206,266,412,449,336
1567,0.5,0.84,0.11,-7.26,-2.99,-1.28,203,266,408,444,334
1568,0.51,0.85,0.13,0.92,-1.46,-3.05,206,267,408,451,332
1569,0.52,0.84,0.13,-2.01,-4.76,-3.54,207,269,412,444,333
1570,0.5,0.86,0.12,-1.04,-1.04,-3.05,206,266,412,442,341
1571,0.5,0.85,0.13,2.81,-3.11,-4.58,205,270,411,439,337
1572,0.52,0.86,0.1,-2.99,-2.08,-1.83,207,270,413,447,337
1573,0.52,0.81,0.13,-4.33,-2.01,-2.14,207,273,406,448,337
1574,0.52,0.84,0.15,-7.2,-10.25,1.77,207,269,408,450,336
1575,0.5,0.82,0.17,-2.32,-0.31,-3.17,205,269,408,444,337
1576,0.54,0.84,0.17,-1.4,-5.8,-0.98,197,263,411,454,339
1577,0.55,0.83,0.17,0.55,-1.4,-1.83,202,269,409,443,338
1578,0.56,0.83,0.16,-1.22,-2.44,-2.93,205,273,411,458,342
1579,0.56,0.83,0.16,1.4,-4.39,-0.98,206,270,409,447,338
1580,0.55,0.82,0.17,-2.08,-4.15,-2.14,208,272,409,447,338
1581,0.55,0.81,0.16,0.12,-1.28,-4.33,209,267,417,448,339
1582,0.55,0.81,0.17,-0.12,-3.36,-1.83,208,271,407,446,339
1583,0.56,0.81,0.17,1.53,-2.26,-2.2,205,272,408,450,335
1584,0.54,0.83,0.18,0.37,-2.99,-2.5,203,269,411,443,340
1585,0.55,0.79,0.16,1.22,-4.33,-1.46,203,269,409,444,340
1586,0.55,0.81,0.16,0.73,-3.11,-2.56,207,272,410,450,335
1587,0.55,0.82,0.18,1.1,-3.6,-2.32,207,262,410,445,339
1588,0.55,0.81,0.17,1.46,-2.5,-2.2,208,272,411,452,341
1589,0.55,0.82,0.17,3.54,-5.07,-2.14,209,269,407,451,341
1590,0.5,0.83,0.19,4.76,1.89,-15.32,209,273,409,447,340
1591,0.48,0.92,0.13,5.74,-7.69,-8.24,204,272,407,446,335
1592,0.47,0.92,0.14,12.08,-12.51,-11.23,205,273,405,445,336
1593,0.41,0.84,0.17,1.46,0.06,-5.31,226,272,407,439,334
1594,0.44,0.87,0.19,-0.79,-3.17,-2.99,211,271,413,441,333
1595,0.45,0.88,0.18,0.37,-1.77,-2.75,190,273,411,449,332
1596,0.43,0.87,0.2,-0.92,-2.14,-2.01,214,270,411,441,337
1597,0.46,0.84,0.22,-2.62,-1.4,-1.59,206,282,409,449,336
1598,0.44,0.88,0.2,0.55,-2.69,-5.07,205,274,409,446,336
1599,0.46,0.89,0.21,0.73,-0.12,-2.87,208,270,408,446,334
1600,0.46,0.82,0.19,0.61,-2.32,2.56,209,280,415,446,332
1601,0.45,0.84,0.21,2.01,-6.16,-1.71,203,273,401,446,334
1602,0.44,0.88,0.22,-0.37,-1.71,-2.01,209,277,410,447,338
1603,0.46,0.85,0.22,0.37,0.12,0.73,206,273,406,441,338
1604,0.47,0.86,0.19,0.12,-4.82,-2.56,208,277,409,441,337
1605,0.46,0.86,0.21,0.37,-4.09,-2.62,206,272,407,451,337
1606,0.47,0.83,0.22,-4.15,0.18,1.04,207,278,408,448,337
1607,0.46,0.85,0.22,1.59,-0.55,-1.95,208,273,409,438,338
1608,0.47,0.85,0.22,-3.17,-0.31,-1.46,206,272,407,442,339
1609,0.48,0.84,0.19,0.49,-4.82,-2.26,209,275,410,445,338
1610,0.47,0.85,0.19,2.14,-3.17,-2.44,206,277,406,446,340
1611,0.46,0.86,0.2,0.24,-2.69,-3.54,211,275,413,444,339
1612,0.47,0.85,0.2,0.61,-3.97,-3.6,206,272,403,441,338
1613,0.48,0.87,0.2,0.85,-1.59,-3.48,206,273,409,449,336
1614,0.42,0.82,0.2,-2.87,1.4,-1.71,205,275,410,440,334
1615,0.45,0.84,0.21,-0.67,-5.55,-3.54,210,273,406,449,344
1616,0.47,0.88,0.22,3.05,-2.75,-3.11,208,278,407,445,335
1617,0.46,0.87,0.21,1.22,-1.46,-2.26,215,271,409,445,339
1618,0.45,0.86,0.21,0.0,0.43,-2.93,203,276,412,452,334
1619,0.47,0.85,0.2,-0.12,-2.38,-2.26,209,273,404,451,334
1620,0.5,0.86,0.19,1.53,-4.82,1.28,210,273,406,446,333
1621,0.48,0.86,0.21,0.73,-1.65,-0.92,202,273,405,446,342
1622,0.47,0.85,0.21,-1.04,-3.54,-2.08,207,275,406,449,332
1623,0.46,0.82,0.21,-6.9,-3.23,-4.76,211,277,408,451,339
1624,0.5,0.84,0.21,0.49,-5.98,0.37,211,271,410,450,338
1625,0.51,0.85,0.2,2.69,-5.68,1.77,210,277,407,447,338
1626,0.52,0.81,0.22,-0.98,-0.55,1.1,208,277,406,445,335
1627,0.56,0.82,0.2,-4.09,-1.53,-1.1,205,274,408,440,341
1628,0.55,0.82,0.2,1.04,-6.59,-1.53,206,270,408,450,336
1629,0.55,0.8,0.21,-0.55,-3.17,-0.55,206,274,408,446,339
1630,0.56,0.8,0.22,1.59,-0.92,-5.19,207,274,409,447,337
1631,0.55,0.81,0.2,2.38,-2.56,-1.95,209,277,408,449,337
1632,0.54,0.79,0.22,-2.56,0.0,-0.49,209,276,407,443,341
1633,0.56,0.81,0.24,-8.06,-1.53,-0.85,204,276,408,455,339
1634,0.44,0.71,0.4,-16.91,13.31,-20.39,209,272,406,446,341
1635,0.53,0.68,0.4,10.25,12.57,5.07,214,277,402,444,334
1636,0.47,0.83,0.44,-9.09,-10.93,4.39,209,275,405,440,337
1637,0.56,0.78,0.59,6.47,-27.28,1.16,209,279,400,445,337
1638,0.56,0.68,0.41,-5.43,24.11,-9.22,212,272,408,448,335
1639,0.59,0.7,0.59,-8.73,-4.7,-13.43,214,275,403,443,339
1640,0.5,0.75,0.61,-5.86,-23.01,-25.21,210,273,405,445,338
1641,0.33,0.79,0.5,22.83,-2.93,-3.48,213,273,405,445,338
1642,0.21,0.82,0.48,9.77,31.07,11.96,209,274,406,441,332
1643,0.33,0.74,0.54,-1.71,-0.06,7.93,205,273,403,448,336
1644,0.45,0.73,0.53,-5.25,-5.37,-1.46,208,276,404,449,334
1645,0.46,0.79,0.47,-2.93,-10.56,-6.1,212,279,405,444,338
1646,0.42,0.73,0.52,2.14,-5.49,-2.08,210,272,406,452,340
1647,0.39,0.68,0.47,5.37,-5.62,-0.12,205,274,407,451,336
1648,0.51,0.67,0.48,0.24,-8.48,-8.97,212,270,404,452,337
1649,0.47,0.77,0.49,6.47,-8.36,-2.44,213,275,399,450,338
1650,0.5,0.69,0.44,5.74,-0.55,-2.44,212,274,405,453,336
1651,0.47,0.73,0.47,-0.49,-3.17,-4.15,209,274,405,450,340
1652,0.49,0.72,0.48,5.25,-9.52,13.12,210,270,405,444,337
1653,0.54,0.69,0.47,-7.32,-0.73,-8.79,211,274,405,447,336
1654,0.57,0.69,0.47,2.62,-3.85,-2.14,213,274,402,450,336
1655,0.56,0.67,0.47,-2.75,0.85,-3.17,213,276,405,442,340
1656,0.58,0.72,0.47,-2.08,-0.85,-8.67,212,279,407,453,336
1657,0.52,0.68,0.49,4.82,-5.68,2.08,210,278,404,445,337
1658,0.57,0.79,0.53,-6.84,-4.27,-2.01,209,283,410,439,338
1659,0.53,0.69,0.5,0.0,-4.82,-3.48,212,283,407,437,335
1660,0.53,0.67,0.52,1.89,-6.41,-0.61,204,273,405,443,336
1661,0.55,0.71,0.49,7.2,-0.12,-6.23,214,276,405,445,336
1662,0.54,0.7,0.5,-2.62,-1.59,-4.7,212,278,406,441,335
1663,0.54,0.68,0.47,0.92,-4.21,-1.71,214,278,407,442,336
1664,0.56,0.69,0.48,0.31,-3.3,-2.26,209,274,405,443,337
1665,0.52,0.63,0.5,-0.79,-3.66,-1.65,216,278,409,438,336
1666,0.53,0.67,0.52,0.79,-5.07,0.43,212,276,407,437,337
1667,0.54,0.66,0.52,0.92,-2.75,-3.17,215,281,406,449,334
1668,0.5,0.65,0.53,-2.38,-2.87,-4.76,214,275,410,440,341
1669,0.54,0.66,0.52,0.24,-4.03,-1.83,207,277,405,441,338
1670,0.53,0.67,0.52,-0.24,-2.75,-3.54,236,276,402,440,338
1671,0.54,0.68,0.51,2.38,-2.75,-2.69,215,275,407,442,338
1672,0.52,0.69,0.52,0.85,-2.2,-5.62,213,269,402,445,340
1673,0.49,0.7,0.53,-1.83,2.08,-1.34,217,276,407,443,337
1674,0.53,0.69,0.49,-2.62,-3.6,-5.55,212,281,405,446,337
1675,0.54,0.73,0.49,10.99,-5.55,-0.49,211,279,407,437,332
1676,0.52,0.7,0.42,-9.64,4.64,8.0,212,278,407,435,338
1677,0.49,0.64,0.46,-7.57,-12.51,12.45,215,278,406,444,338
1678,0.62,0.69,0.45,-5.13,-6.65,0.24,221,281,405,443,338
1679,0.6,0.64,0.5,-13.18,-16.42,7.63,216,273,412,452,334
1680,0.55,0.61,0.49,-8.54,-3.78,6.71,209,274,405,436,334
1681,0.62,0.6,0.53,-10.13,-14.77,3.42,213,282,404,436,341
1682,0.62,0.67,0.55,0.73,10.93,-2.26,212,280,403,438,336
1683,0.57,0.57,0.5,-1.95,-21.48,5.37,213,279,404,437,338
1684,0.64,0.65,0.5,3.17,6.16,1.28,216,282,409,434,337
1685,0.62,0.62,0.55,-9.7,-20.87,15.44,215,282,402,440,337
1686,0.67,0.54,0.53,-4.27,-4.03,-4.7,207,280,404,441,337
1687,0.68,0.54,0.53,-7.39,-5.37,-2.56,215,281,413,438,339
1688,0.63,0.46,0.61,-17.64,13.12,-3.17,217,283,407,441,339
1689,0.68,0.46,0.61,7.26,-3.72,-6.35,217,279,409,438,340
1690,0.62,0.53,0.58,7.02,-0.92,-14.16,216,285,405,437,336
1691,0.64,0.54,0.56,-2.38,-9.4,-5.62,213,286,406,439,338
1692,0.65,0.57,0.51,2.14,-5.98,-13.61,216,284,404,435,340
1693,0.61,0.63,0.52,2.69,-8.0,-9.16,216,280,403,431,338
1694,0.58,0.67,0.5,2.5,8.85,-7.08,218,284,399,437,339
1695,0.57,0.68,0.5,6.96,-4.58,-5.0,219,285,399,430,343
1696,0.57,0.7,0.48,0.92,-1.34,-1.04,217,285,400,437,342
1697,0.54,0.68,0.48,-2.32,-4.88,-2.32,219,282,397,435,340
1698,0.54,0.7,0.46,-1.1,-4.15,-0.31,219,279,395,439,341
1699,0.58,0.7,0.46,-2.01,-5.74,-0.61,218,283,391,433,341
1700,0.58,0.66,0.48,-1.71,-2.01,-1.16,218,283,390,437,337
1701,0.58,0.69,0.5,-0.61,-1.04,-3.17,219,285,395,436,341
1702,0.59,0.68,0.49,0.79,-3.36,-2.32,219,284,393,428,343
1703,0.57,0.66,0.48,-0.67,-2.69,-5.0,218,283,391,427,341
1704,0.55,0.69,0.48,4.46,1.4,-7.39,214,283,394,432,341
1705,0.56,0.69,0.47,1.59,-1.46,-5.19,219,283,394,434,337
1706,0.53,0.7,0.48,2.08,-1.1,-3.78,218,279,392,434,342
1707,0.53,0.72,0.48,1.77,-3.05,-3.6,216,282,391,439,343
1708,0.52,0.74,0.48,0.18,-1.53,-4.64,217,285,392,436,340
1709,0.51,0.73,0.46,0.92,-2.2,-2.14,220,280,394,441,339
1710,0.5,0.73,0.47,-1.65,-2.99,-3.66,213,283,390,439,343
1711,0.52,0.72,0.46,-1.83,-4.64,-1.95,216,283,393,437,338
1712,0.5,0.71,0.46,-2.62,-1.95,0.85,219,280,394,438,339
1713,0.53,0.74,0.48,-6.77,-3.78,-3.42,220,278,388,432,337
1714,0.52,0.7,0.53,10.07,-5.31,-2.75,215,283,391,435,338
1715,0.49,0.7,0.52,-1.89,-4.76,-3.78,217,281,393,438,339
1716,0.49,0.71,0.52,-0.24,-2.56,-2.01,234,283,393,436,341
1717,0.5,0.71,0.53,-0.37,-3.54,-0.43,218,283,394,432,339
1718,0.49,0.7,0.52,-1.28,-1.77,-0.85,218,282,390,441,339
1719,0.51,0.71,0.52,1.53,-0.18,-1.1,218,284,391,444,337
1720,0.52,0.71,0.5,1.4,-5.62,1.4,217,282,393,437,343
1721,0.51,0.7,0.51,-0.12,-3.48,-2.26,218,282,394,446,341
1722,0.5,0.7,0.51,1.04,-0.61,-1.1,218,283,391,433,341
1723,0.52,0.7,0.52,-0.85,-1.53,-0.67,222,278,391,442,344
1724,0.52,0.69,0.52,0.18,-2.56,-3.17,223,286,394,452,342
1725,0.51,0.7,0.51,0.73,-2.75,-2.69,219,286,390,440,342
1726,0.52,0.69,0.51,0.67,-2.99,-3.23,220,282,394,432,344
1727,0.53,0.71,0.5,0.18,-4.46,-1.71,221,281,393,433,341
1728,0.51,0.71,0.5,-1.83,-4.52,-3.11,213,286,396,438,342
1729,0.5,0.69,0.5,0.06,-1.65,-1.1,216,283,393,433,346
1730,0.51,0.69,0.5,-1.71,-0.92,-1.59,221,286,392,441,342
1731,0.51,0.66,0.49,-4.39,-5.74,-0.18,223,289,391,435,343
1732,0.52,0.64,0.5,-5.43,-3.48,-2.5,216,286,390,435,343
1733,0.55,0.68,0.51,1.53,-2.08,-2.44,222,282,396,435,343
1734,0.57,0.66,0.53,5.43,-3.6,-1.65,220,288,397,432,344
1735,0.57,0.66,0.52,6.29,-2.26,0.37,220,280,395,438,346
1736,0.58,0.66,0.54,0.12,-4.33,-3.17,222,284,395,437,343
1737,0.58,0.64,0.52,3.85,-1.16,-0.85,220,285,390,433,344
1738,0.61,0.6,0.51,3.97,-1.1,-5.8,219,287,395,438,344
1739,0.54,0.64,0.52,4.7,-6.84,-2.81,223,285,395,436,347
1740,0.53,0.69,0.53,1.16,-2.87,-3.11,219,288,390,438,346
1741,0.59,0.72,0.51,2.32,-0.37,-10.8,221,287,391,441,343
1742,0.55,0.7,0.53,3.91,-10.01,1.65,219,287,390,440,344
1743,0.6,0.64,0.49,-5.19,-1.16,-5.98,225,286,391,439,345
1744,0.64,0.69,0.49,4.76,0.0,-2.14,216,284,402,438,341
1745,0.59,0.65,0.51,1.34,-7.02,-4.03,223,288,394,437,345
1746,0.57,0.65,0.5,3.42,-3.54,-0.43,235,284,394,440,342
1747,0.61,0.66,0.51,3.91,-5.13,-3.66,220,291,391,436,345
1748,0.57,0.65,0.5,-0.73,-2.5,-4.7,222,289,394,441,345
1749,0.61,0.63,0.48,-2.5,-2.99,-1.89,220,289,392,431,346
1750,0.61,0.64,0.48,1.71,-0.98,-4.94,221,284,391,431,343
1751,0.61,0.62,0.49,2.69,-1.1,-4.7,221,287,391,437,343
1752,0.56,0.64,0.49,1.89,-1.89,-7.87,217,284,396,436,344
1753,0.56,0.68,0.5,5.37,-1.28,-14.22,223,287,394,433,348
1754,0.48,0.73,0.5,-2.44,3.17,-16.78,221,288,390,440,344
1755,0.46,0.75,0.48,-4.82,-3.42,-10.99,223,287,390,436,344
1756,0.3,0.71,0.47,10.38,5.0,-22.16,222,287,390,434,346
1757,0.27,0.75,0.56,-11.66,-3.54,-13.85,220,288,391,439,348
1758,0.18,0.72,0.59,-21.79,-8.36,-4.09,219,282,393,438,345
1759,0.27,0.74,0.57,-7.45,-13.67,-4.94,214,282,394,430,336
1760,0.27,0.72,0.66,-4.7,-4.58,-0.43,224,282,395,433,342
1761,0.27,0.78,0.64,-3.91,7.57,-8.18,216,283,393,437,343
1762,0.25,0.75,0.64,5.19,-2.69,-1.22,223,281,393,438,343
1763,0.27,0.76,0.61,-1.04,-3.42,-2.01,221,277,393,436,343
1764,0.28,0.75,0.62,1.53,-2.93,0.0,210,277,391,436,341
1765,0.27,0.75,0.62,2.69,-4.09,0.37,216,284,394,433,346
1766,0.29,0.74,0.6,-1.83,-2.26,-5.0,221,283,393,440,347
1767,0.29,0.74,0.62,2.26,-3.6,3.54,220,282,392,443,346
1768,0.29,0.74,0.61,-0.79,-4.94,1.95,244,282,394,433,345
1769,0.32,0.74,0.61,1.22,-4.39,0.31,225,282,393,435,346
1770,0.31,0.73,0.61,1.1,-4.46,-2.01,224,284,394,437,344
1771,0.31,0.74,0.62,-1.28,-4.15,-4.09,221,283,392,434,347
1772,0.3,0.71,0.59,-5.86,-1.04,1.95,221,283,384,436,345
1773,0.26,0.68,0.65,-9.22,-0.92,0.31,225,282,395,431,342
1774,0.27,0.64,0.7,-8.3,-7.93,1.53,223,284,394,432,346
1775,0.28,0.64,0.72,5.07,10.01,7.32,223,285,396,431,345
1776,0.35,0.69,0.71,-1.28,-9.89,-2.14,223,288,394,440,347
1777,0.35,0.57,0.67,-23.56,-8.61,7.69,221,287,394,436,346
1778,0.36,0.58,0.78,4.52,-4.88,8.91,224,284,393,435,346
1779,0.39,0.67,0.76,9.16,-6.77,6.71,222,285,393,436,348
1780,0.46,0.53,0.77,-14.95,-24.41,2.75,222,287,394,436,349
1781,0.24,0.52,0.8,3.48,-15.01,10.93,221,277,398,437,347
1782,0.43,0.51,0.7,-17.4,-6.16,-14.28,223,284,398,426,347
1783,0.37,0.55,0.77,-14.1,-33.57,9.7,226,287,394,431,347
1784,0.51,0.54,0.78,-6.04,5.92,6.77,225,284,396,437,348
1785,0.54,0.45,0.78,2.08,-4.46,1.53,225,285,391,435,347
1786,0.55,0.44,0.74,-8.42,2.2,-15.01,224,286,391,432,348
1787,0.38,0.5,0.79,5.55,11.47,-30.27,221,277,394,428,344
1788,0.45,0.44,0.61,0.06,10.99,-3.36,225,282,398,431,346
1789,0.55,0.43,0.64,-5.8,-29.48,-4.15,223,285,396,426,343
1790,0.71,0.5,0.63,24.48,-16.6,6.96,219,283,409,428,347
1791,0.43,0.39,0.59,-9.52,-15.81,8.61,220,283,394,427,342
1792,0.56,0.41,0.68,-27.4,-9.58,14.34,228,284,397,431,350
1793,0.66,0.6,0.76,20.02,-2.93,2.44,224,285,395,426,342
1794,0.43,0.46,0.75,20.63,-32.53,10.74,224,281,396,431,346
1795,0.74,0.49,0.63,-30.27,-7.14,0.43,223,287,397,427,350
1796,0.68,0.48,0.66,21.18,25.15,-22.83,222,283,398,425,346
1797,0.59,0.42,0.63,-5.86,-8.3,-6.04,221,286,392,431,347
1798,0.6,0.45,0.69,1.46,-13.43,14.47,220,284,393,434,346
1799,0.58,0.34,0.58,-6.53,8.97,-1.1,222,287,394,431,341
1800,0.58,0.3,0.75,-3.23,-4.7,34.79,213,283,397,429,348
1801,0.63,0.2,0.67,14.34,-21.85,8.73,221,282,396,427,351
1802,0.73,0.11,0.65,0.55,-13.79,-10.68,213,282,394,426,349
1803,0.48,0.2,0.75,6.9,22.71,-39.86,219,282,398,432,349
1804,0.49,0.43,0.75,-8.36,-14.16,-35.03,220,281,398,434,349
1805,0.4,0.44,0.69,2.62,-3.05,-7.63,215,279,397,428,345
1806,0.23,0.62,0.55,70.25,28.63,9.58,215,277,403,437,345
1807,0.31,0.63,0.39,39.0,14.83,13.06,214,279,405,442,346
1808,0.42,0.81,0.41,29.36,10.68,13.67,218,281,402,448,343
1809,0.44,0.71,0.39,2.44,2.01,2.75,217,279,405,451,342
1810,0.38,0.73,0.34,6.84,-5.86,-4.27,215,281,402,452,345
1811,0.35,0.8,0.34,-7.39,-24.17,-2.38,216,283,406,453,345
1812,0.26,0.87,0.37,-15.08,-10.93,-17.46,214,285,408,447,342
1813,0.34,0.94,0.37,-4.21,-12.15,-1.59,220,277,408,456,347
1814,0.32,0.8,0.36,-0.49,1.28,13.31,218,287,405,443,344
1815,0.48,0.7,0.33,-6.04,-1.34,-0.12,223,278,404,450,348
1816,0.42,0.84,0.41,-9.58,-5.19,-4.03,217,285,409,447,342
1817,0.36,0.88,0.5,-11.9,-4.94,-21.67,205,281,405,446,344
1818,0.38,0.78,0.46,-15.2,-15.2,-9.09,215,281,407,451,336
1819,0.33,0.83,0.5,4.21,3.66,-7.08,219,282,408,462,347
1820,0.29,0.79,0.47,6.29,1.28,-5.62,222,282,400,444,347
1821,0.34,0.83,0.44,-0.73,-5.19,-0.98,215,282,407,451,338
1822,0.29,0.82,0.49,-3.42,-8.54,0.24,216,283,407,447,339
1823,0.33,0.82,0.49,-5.74,-8.54,-0.67,219,281,405,449,345
1824,0.36,0.82,0.49,0.43,-5.31,2.32,218,288,409,440,344
1825,0.32,0.73,0.5,-3.11,-9.34,3.72,218,280,402,444,340
1826,0.38,0.73,0.51,-17.33,-1.04,-15.08,216,283,408,441,344
1827,0.38,0.72,0.54,-12.21,-13.85,-5.98,216,282,407,438,340
1828,0.39,0.7,0.55,2.01,-1.34,-0.49,221,285,409,445,344
1829,0.39,0.7,0.56,-0.18,-3.6,-5.07,219,284,408,443,339
1830,0.36,0.75,0.58,-0.06,-4.03,-8.54,217,282,404,436,339
1831,0.33,0.74,0.6,4.33,1.46,-5.37,216,283,409,442,344
1832,0.28,0.82,0.58,12.15,8.0,-10.38,222,278,403,437,351
1833,0.27,0.79,0.54,2.38,2.69,1.71,218,280,402,442,348
1834,0.25,0.8,0.55,2.38,2.5,0.31,224,280,407,442,352
1835,0.26,0.78,0.58,0.31,0.85,9.34,214,281,408,445,346
1836,0.28,0.73,0.58,-6.96,-1.34,12.94,217,282,404,436,344
1837,0.32,0.79,0.57,-4.52,0.18,-1.28,219,281,406,440,346
1838,0.37,0.76,0.57,1.28,-14.71,-1.59,219,281,406,440,343
1839,0.36,0.76,0.57,-3.17,1.16,-0.67,221,281,408,448,349
1840,0.33,0.75,0.6,5.31,-6.84,-3.05,222,279,404,438,348
1841,0.33,0.74,0.58,-3.17,-3.72,-1.22,221,284,407,442,347
1842,0.33,0.76,0.62,-0.37,-3.85,-0.06,221,300,408,432,350
1843,0.36,0.69,0.62,-0.06,-10.8,1.1,217,281,409,442,354
1844,0.39,0.7,0.58,-0.37,-2.14,-5.55,218,284,408,446,346
1845,0.47,0.74,0.61,2.75,-3.78,-5.13,219,288,406,437,349
1846,0.42,0.72,0.58,-5.19,-5.07,-4.21,219,281,404,441,350
1847,0.39,0.69,0.61,-3.36,-5.43,5.43,204,285,408,442,345
1848,0.39,0.67,0.59,4.46,-0.06,-3.85,216,283,404,441,346
1849,0.32,0.66,0.59,-3.36,7.75,-5.37,223,286,404,441,355
1850,0.39,0.73,0.66,0.73,-0.92,-5.0,221,280,402,434,350
1851,0.33,0.67,0.64,3.3,-4.82,-2.5,219,277,403,438,347
1852,0.34,0.67,0.61,14.59,-10.93,-6.1,222,267,404,441,349
1853,0.34,0.75,0.5,14.95,-3.48,-7.08,216,272,411,445,353
1854,0.36,0.93,0.36,33.81,2.26,-25.02,225,282,412,445,352
1855,0.12,0.93,0.19,11.11,0.85,-18.98,213,274,411,449,350
1856,0.16,1.0,0.14,8.54,-6.35,-4.64,214,278,410,458,349
1857,0.1,0.97,0.18,-15.87,0.06,0.37,216,280,404,452,347
1858,0.09,0.95,0.16,-1.77,-1.1,-0.24,224,274,408,454,353
1859,0.09,0.96,0.19,5.8,-3.3,-3.85,216,273,406,453,351
1860,0.12,0.95,0.17,-3.48,-12.08,2.56,216,276,410,456,349
1861,0.09,0.79,0.22,-54.99,-4.03,30.52,214,278,408,440,346
1862,0.19,0.69,0.61,-72.27,21.67,-16.05,217,277,405,444,342
1863,0.3,0.58,0.74,-11.11,15.08,-19.41,215,281,403,427,340
1864,0.27,0.68,0.7,22.77,-8.97,8.67,216,280,401,436,340
1865,0.29,0.72,0.7,-5.07,-9.16,7.2,215,280,403,443,339
1866,0.25,0.67,0.71,-8.48,-8.85,-0.92,218,281,403,438,341
1867,0.27,0.65,0.72,-3.48,-4.03,-6.29,218,281,404,435,340
1868,0.27,0.68,0.72,1.53,-4.64,-2.14,217,281,404,435,344
1869,0.28,0.67,0.72,-0.43,-3.97,-3.17,228,280,404,435,338
1870,0.25,0.66,0.74,-0.61,-0.18,-3.97,219,292,405,437,342
1871,0.25,0.67,0.73,2.56,0.85,-5.55,216,286,401,433,338
1872,0.27,0.65,0.7,4.46,-0.49,-1.83,220,284,402,439,344
1873,0.26,0.67,0.72,-2.5,-6.16,-4.03,220,282,404,436,344
1874,0.29,0.65,0.7,-4.46,-2.87,-4.58,220,279,403,438,343
1875,0.28,0.67,0.71,-0.18,-3.17,-3.11,219,293,402,429,339
1876,0.28,0.67,0.71,-0.55,-3.36,-2.87,221,279,404,435,341
1877,0.26,0.66,0.71,0.43,-2.14,-2.2,221,278,401,433,341
1878,0.27,0.71,0.72,-2.62,-3.11,-2.32,219,283,395,432,340
1879,0.32,0.67,0.71,-2.62,-3.97,2.87,218,276,401,438,340
1880,0.32,0.67,0.73,1.59,-3.11,-4.88,216,282,400,433,344
1881,0.31,0.64,0.72,-0.37,-5.13,-0.79,215,275,400,428,348
1882,0.34,0.62,0.7,-1.34,-2.93,-0.06,219,280,400,434,343
1883,0.31,0.59,0.71,-2.38,-3.78,1.83,220,282,415,435,339
1884,0.33,0.6,0.71,-0.06,-7.26,2.5,219,277,399,437,344
1885,0.36,0.61,0.72,-1.1,-3.36,-4.03,220,279,402,433,345
1886,0.36,0.62,0.72,1.4,-3.3,-2.26,222,279,397,434,342
1887,0.36,0.61,0.72,0.43,-3.23,-3.42,221,277,399,431,343
1888,0.36,0.61,0.73,0.67,-2.56,-2.93,208,281,391,423,342
1889,0.38,0.6,0.73,-0.31,1.46,-4.09,224,280,396,425,342
1890,0.34,0.58,0.71,-4.46,-0.73,-0.55,219,278,388,431,343
1891,0.39,0.58,0.76,1.22,-6.96,-4.27,225,279,392,429,341
1892,0.44,0.65,0.76,0.24,-10.38,4.58,216,282,392,425,343
1893,0.43,0.49,0.7,-0.12,-3.85,8.73,221,277,392,429,343
1894,0.52,0.43,0.73,-7.32,-8.0,6.35,223,279,399,430,343
1895,0.47,0.49,0.76,4.76,-2.56,14.53,217,281,394,424,344
1896,0.52,0.39,0.75,-0.12,-11.47,0.43,222,271,391,424,345
1897,0.49,0.44,0.77,-3.48,-3.36,-5.07,231,272,391,422,343
1898,0.5,0.44,0.75,-3.36,-0.18,-8.54,221,281,397,430,346
1899,0.53,0.45,0.75,5.92,-2.44,-9.4,223,282,392,420,341
1900,0.42,0.46,0.74,-3.72,-11.41,-2.5,220,279,394,428,347
1901,0.46,0.43,0.72,-1.59,-5.31,4.64,223,282,392,429,341
1902,0.5,0.5,0.72,-1.65,1.28,7.93,214,282,392,420,343
1903,0.52,0.45,0.75,-4.46,-4.27,-3.54,223,281,392,429,346
1904,0.51,0.43,0.73,0.61,-6.1,0.43,220,281,397,426,342
1905,0.52,0.43,0.74,0.73,-4.88,-4.15,223,279,396,425,342
1906,0.53,0.44,0.74,-2.38,-2.5,-2.99,231,284,395,425,344
1907,0.52,0.44,0.75,-0.55,-1.89,-3.05,224,280,395,428,345
1908,0.52,0.44,0.75,0.79,-1.16,-3.78,221,279,397,431,340
1909,0.51,0.46,0.73,11.9,4.39,-5.13,218,284,395,428,345
1910,0.44,0.59,0.73,13.85,15.01,-9.58,221,283,398,431,345
1911,0.45,0.59,0.65,4.58,-9.7,8.85,222,281,395,437,346
1912,0.5,0.58,0.63,-1.16,-12.27,8.85,223,280,394,429,347
1913,0.48,0.6,0.66,-2.32,-7.93,-4.39,220,283,389,431,342
1914,0.5,0.57,0.67,0.79,-2.2,0.85,221,282,393,434,350
1915,0.49,0.56,0.67,0.12,-4.03,-2.44,224,284,391,433,345
1916,0.51,0.56,0.67,-0.18,-2.81,-3.36,223,294,389,433,349
1917,0.5,0.57,0.68,0.31,-2.01,-2.93,222,283,388,430,347
1918,0.5,0.54,0.68,-0.37,-2.56,-2.38,218,286,391,427,349
1919,0.51,0.56,0.67,0.79,-2.69,-1.28,230,286,389,431,349
1920,0.51,0.56,0.68,1.59,-1.28,-1.22,226,284,391,421,348
1921,0.49,0.56,0.69,2.14,-4.03,-2.62,223,284,390,429,348
1922,0.45,0.56,0.7,-3.23,0.18,-4.46,225,278,388,438,347
1923,0.47,0.55,0.7,-0.18,-2.01,-3.97,225,281,389,433,347
1924,0.48,0.55,0.7,-0.06,-3.05,-2.62,222,283,389,429,347
1925,0.48,0.55,0.7,0.0,-4.7,-1.89,224,282,392,431,344
1926,0.5,0.55,0.7,-0.98,-1.46,-1.04,223,282,385,433,343
1927,0.51,0.54,0.7,0.06,-1.4,-3.6,233,283,392,430,350
1928,0.47,0.55,0.7,4.58,-1.95,-3.36,234,279,388,428,348
1929,0.48,0.56,0.7,1.4,-4.52,-3.54,217,280,391,429,344
1930,0.49,0.56,0.7,0.92,-5.43,-1.77,222,284,391,427,346
1931,0.49,0.55,0.7,0.55,-4.09,-1.83,225,278,391,430,347
1932,0.49,0.56,0.7,-0.49,-3.3,-3.23,223,279,389,427,348
1933,0.5,0.54,0.7,0.06,-1.34,-2.44,221,283,388,426,348
1934,0.49,0.52,0.7,0.55,-2.81,-2.38,224,281,392,421,344
1935,0.5,0.52,0.69,0.06,-5.43,-1.83,223,283,388,428,348
1936,0.5,0.53,0.69,0.61,-3.3,-2.99,223,281,386,435,347
1937,0.42,0.59,0.71,15.08,18.98,-8.48,223,281,390,428,346
1938,0.35,0.61,0.72,4.64,-4.76,1.83,222,282,392,426,350
1939,0.39,0.64,0.64,2.2,-1.89,-2.62,216,285,389,435,347
1940,0.4,0.66,0.66,-2.56,-5.31,-0.98,223,279,385,434,347
1941,0.4,0.66,0.66,-0.18,-4.09,-2.38,224,283,391,433,350
1942,0.4,0.65,0.67,-0.67,-4.76,-0.55,223,284,394,441,347
1943,0.43,0.64,0.65,-0.06,-2.44,-1.53,222,281,389,432,347
1944,0.45,0.64,0.65,0.43,-3.23,-3.78,223,285,393,435,345
1945,0.45,0.64,0.65,-0.31,-3.85,-2.08,225,279,393,438,350
1946,0.45,0.64,0.65,-0.31,-2.99,-2.32,222,280,394,439,344
1947,0.46,0.63,0.65,-0.49,-2.75,-2.5,221,279,390,435,347
1948,0.45,0.63,0.65,0.24,-2.99,-3.54,219,285,394,430,339
1949,0.45,0.63,0.66,0.18,-2.69,-4.03,223,279,393,432,345
1950,0.46,0.64,0.67,-0.49,-3.23,-1.95,223,280,389,432,347
1951,0.45,0.62,0.66,1.65,-1.28,-3.85,227,286,391,431,346
1952,0.45,0.62,0.67,0.79,-3.78,-1.53,222,279,392,433,347
1953,0.46,0.61,0.65,0.49,-3.66,-2.44,224,282,393,435,347
1954,0.47,0.62,0.67,-4.33,-4.76,-0.92,219,293,385,432,342
1955,0.46,0.6,0.66,0.73,-4.15,-2.93,226,284,391,430,346
1956,0.45,0.62,0.68,1.16,-3.05,-2.38,226,272,393,432,348
1957,0.45,0.61,0.67,-0.98,-3.36,-2.14,220,279,396,435,347
1958,0.44,0.61,0.67,0.18,-2.26,-1.95,225,283,391,435,345
1959,0.44,0.61,0.68,-0.49,-3.66,-2.93,222,282,392,432,348
1960,0.45,0.61,0.68,-1.34,-4.21,-3.11,221,279,390,434,349
1961,0.45,0.61,0.67,-1.71,1.46,-4.7,223,277,396,435,343
1962,0.45,0.61,0.67,-1.71,-4.09,-2.69,223,283,392,430,340
1963,0.46,0.6,0.67,1.28,-3.6,-2.08,228,282,393,435,351
1964,0.45,0.6,0.68,0.43,-1.53,-2.01,224,283,392,434,348
1965,0.45,0.6,0.68,-3.91,-3.48,-3.42,224,278,396,431,344
1966,0.46,0.57,0.66,-2.69,-5.8,-4.52,223,283,392,431,346
1967,0.46,0.59,0.68,-0.18,-3.54,-0.73,226,284,392,443,350
1968,0.46,0.57,0.67,-0.55,-3.97,-1.95,225,283,393,433,352
1969,0.49,0.58,0.67,0.85,-3.97,-3.05,226,282,390,436,342
1970,0.5,0.59,0.68,0.73,-3.05,-1.89,225,283,392,433,348
1971,0.49,0.57,0.67,0.61,-3.36,-2.08,227,282,393,437,348
1972,0.48,0.58,0.68,-2.2,-4.82,-2.01,225,281,398,432,348
1973,0.47,0.58,0.66,0.0,-0.98,-4.27,222,281,393,428,348
1974,0.49,0.57,0.67,0.67,-2.69,-1.34,225,282,397,426,351
1975,0.49,0.56,0.68,-1.71,-2.81,-2.08,224,282,388,428,349
1976,0.46,0.53,0.69,-4.03,-0.98,-5.62,229,283,396,431,352
1977,0.49,0.57,0.7,3.05,-2.56,-3.3,225,280,391,433,350
1978,0.48,0.55,0.7,1.53,-2.38,-1.16,228,292,394,428,348
1979,0.48,0.56,0.69,1.4,-2.38,-3.36,226,283,390,426,352
1980,0.48,0.56,0.7,-0.67,-5.8,-1.16,225,284,394,433,351
1981,0.5,0.56,0.69,-0.79,-6.16,-2.5,229,287,397,434,348
1982,0.5,0.56,0.69,0.49,-3.54,-2.69,226,281,392,434,346
1983,0.49,0.56,0.68,2.5,-2.93,-2.26,220,281,394,430,348
1984,0.49,0.56,0.69,-2.38,-1.77,-0.92,229,282,391,436,358
1985,0.49,0.56,0.67,2.69,-4.09,-1.28,224,282,387,433,349
1986,0.49,0.55,0.68,-1.1,-3.72,-1.77,226,286,392,437,348
1987,0.51,0.55,0.68,0.12,-3.91,-2.56,229,277,395,429,348
1988,0.53,0.54,0.67,-0.06,-3.36,-3.72,224,287,387,420,350
1989,0.52,0.54,0.67,1.71,-3.85,-2.99,225,284,390,435,349
1990,0.51,0.55,0.68,-2.87,-2.32,-7.2,225,294,392,431,347
1991,0.52,0.57,0.66,-6.47,-1.4,-7.14,223,285,394,432,348
1992,0.52,0.54,0.69,-3.54,-1.34,-5.55,224,282,393,431,349
1993,0.51,0.55,0.68,0.85,-3.23,-2.62,224,283,393,428,347
1994,0.51,0.56,0.7,1.28,-3.23,-2.26,223,282,394,430,347
1995,0.49,0.54,0.7,-0.12,-1.34,-3.78,227,286,395,430,349
1996,0.51,0.53,0.69,-0.67,-2.87,-2.01,221,282,388,430,350
1997,0.51,0.54,0.67,2.62,-3.78,-3.36,227,283,393,434,351
1998,0.52,0.55,0.68,1.22,-2.14,-1.34,227,284,390,429,351
1999,0.5,0.54,0.67,-0.61,-3.78,-6.1,223,284,390,435,351
2000,0.54,0.54,0.68,-6.16,-7.14,-6.65,221,281,391,434,345
2001,0.53,0.58,0.65,8.42,1.83,-17.64,222,284,392,433,349
2002,0.43,0.59,0.69,2.75,-3.78,3.05,217,282,390,439,349
2003,0.41,0.6,0.68,6.35,9.52,-8.54,226,280,393,431,349
2004,0.49,0.6,0.7,0.55,-2.93,-1.22,222,280,399,436,347
2005,0.34,0.58,0.7,-0.79,-1.95,-0.37,222,282,397,440,352
2006,0.37,0.59,0.74,-2.69,-3.66,-0.98,226,278,415,438,350
2007,0.38,0.59,0.74,-3.66,-3.91,-1.22,222,285,402,442,348
2008,0.37,0.55,0.74,-6.84,1.4,1.1,228,284,396,445,350
2009,0.37,0.53,0.73,-0.06,-7.81,-8.06,223,281,402,449,352
2010,0.39,0.53,0.74,-2.38,3.85,-5.55,227,282,399,440,344
2011,0.38,0.5,0.76,2.75,-5.62,1.04,224,287,395,441,350
2012,0.38,0.5,0.76,-6.04,-1.83,-2.44,223,280,394,433,350
2013,0.4,0.51,0.76,0.12,-4.03,-1.04,217,282,395,438,349
2014,0.31,0.58,0.77,-3.11,-5.55,-6.04,220,281,394,436,348
2015,0.35,0.52,0.77,1.28,-1.04,-0.24,223,288,390,435,347
2016,0.38,0.52,0.78,-2.14,-5.31,-1.53,224,280,395,439,352
2017,0.4,0.53,0.78,-1.71,-3.72,-4.52,225,281,390,438,349
2018,0.39,0.52,0.78,-2.56,-1.1,-0.55,220,285,394,443,350
2019,0.4,0.51,0.77,-0.79,-4.64,-3.48,227,274,393,442,348
2020,0.42,0.53,0.78,4.46,-3.3,-1.46,227,279,396,439,349
2021,0.4,0.52,0.79,-1.95,-5.0,-2.38,227,281,390,433,351
2022,0.42,0.49,0.79,-1.16,-2.38,-3.54,228,277,389,438,354
2023,0.43,0.5,0.8,1.65,-7.08,0.49,220,287,390,441,353
2024,0.41,0.49,0.8,7.14,1.4,2.5,223,281,392,441,352
2025,0.42,0.47,0.79,-0.43,-2.44,-0.67,225,283,395,438,353
2026,0.45,0.48,0.77,3.91,-1.71,-5.62,222,284,398,440,354
2027,0.43,0.51,0.77,3.11,-4.88,-3.11,225,279,395,441,349
2028,0.43,0.51,0.76,-1.83,-2.38,-2.26,225,286,397,442,352
2029,0.44,0.5,0.77,-0.37,-3.11,-1.89,225,280,394,438,351
2030,0.41,0.5,0.78,0.49,-2.5,-1.89,223,284,396,440,353
2031,0.42,0.49,0.77,-1.89,-3.54,-4.03,220,283,396,439,353
2032,0.44,0.5,0.78,1.77,-3.72,-2.99,225,281,400,438,354
2033,0.44,0.48,0.76,1.53,-0.43,-5.92,223,281,397,433,351
2034,0.44,0.49,0.79,1.1,0.0,-7.63,227,285,397,436,352
2035,0.45,0.48,0.77,1.83,-5.13,-1.83,225,290,394,438,353
2036,0.42,0.49,0.79,-0.31,-2.08,-3.48,225,285,394,436,348
2037,0.43,0.48,0.78,-2.01,-2.32,-3.23,223,282,396,437,353
2038,0.44,0.49,0.78,-2.26,-1.34,-4.94,223,283,392,439,352
2039,0.44,0.5,0.79,4.7,-0.85,-2.2,226,284,393,438,353
2040,0.41,0.47,0.79,0.79,-4.27,-2.75,227,283,392,435,353
2041,0.43,0.47,0.74,-0.73,-0.98,-1.83,230,280,398,431,348
2042,0.4,0.49,0.81,7.75,-2.14,-0.12,226,286,390,432,351
2043,0.4,0.5,0.78,-2.08,-0.12,-0.67,224,281,391,430,355
2044,0.35,0.54,0.83,-12.02,11.78,-3.11,223,291,390,431,352
2045,0.39,0.45,0.8,-4.09,-5.74,-3.23,227,283,373,434,353
2046,0.37,0.48,0.84,-0.31,-5.43,0.0,218,283,380,433,352
2047,0.36,0.46,0.79,1.22,-2.93,-0.55,223,279,376,433,352
2048,0.39,0.5,0.82,0.06,-4.52,-3.11,221,282,377,435,354
2049,0.42,0.49,0.79,2.14,-3.97,0.18,221,283,376,438,353
2050,0.43,0.48,0.8,2.44,-0.85,-3.48,222,283,380,436,351
2051,0.39,0.48,0.81,0.06,-1.22,-4.15,226,283,371,429,350
2052,0.41,0.47,0.81,0.85,-2.87,-2.93,223,290,377,438,352
2053,0.4,0.48,0.82,-3.23,-5.31,-0.79,232,283,378,430,354
2054,0.42,0.46,0.82,-3.3,-5.07,-2.2,222,280,379,435,353
2055,0.45,0.42,0.82,-3.3,-9.95,0.24,226,285,378,437,355
2056,0.49,0.39,0.8,1.83,-6.59,-1.04,227,281,391,438,353
2057,0.5,0.35,0.77,-1.83,-11.9,-4.21,225,284,374,436,353
2058,0.53,0.39,0.78,-1.89,-8.36,-5.98,226,281,378,435,351
2059,0.52,0.32,0.77,2.93,-10.19,-6.59,226,289,380,433,350
