,aX,aY,aZ,gX,gY,gZ,little,ring,middle,index,thumb
0,1.0,-0.3,-0.33,28.08,-8.85,-8.12,228,247,165,411,356
1,0.79,-0.38,-0.49,64.27,-43.46,-5.43,405,262,159,428,319
2,0.78,-0.46,-0.4,27.1,-4.39,-3.42,410,259,154,433,333
3,0.82,-0.49,-0.4,7.45,-3.36,-6.9,408,261,158,435,336
4,0.77,-0.49,-0.38,0.49,-8.97,2.81,406,259,161,441,339
5,0.78,-0.47,-0.4,-1.1,-4.09,-2.26,403,259,164,442,342
6,0.77,-0.48,-0.39,3.42,-2.08,-2.26,399,262,168,434,343
7,0.77,-0.49,-0.4,0.43,-3.54,-1.95,427,261,162,441,340
8,0.77,-0.48,-0.42,1.22,-2.99,-2.93,394,260,165,446,344
9,0.75,-0.48,-0.41,-2.01,-1.53,-4.27,394,259,166,435,345
10,0.76,-0.48,-0.42,1.16,-2.32,-1.16,395,260,168,438,344
11,0.77,-0.48,-0.41,-0.49,-1.95,-1.46,392,261,166,444,340
12,0.77,-0.47,-0.42,-1.71,-3.23,-1.53,385,258,168,441,342
13,0.77,-0.48,-0.42,-0.98,-2.2,-3.48,388,259,168,443,346
14,0.77,-0.47,-0.42,0.49,-3.6,-2.81,388,261,169,441,345
15,0.76,-0.47,-0.42,-0.37,-3.11,-1.77,387,262,169,442,346
16,0.77,-0.48,-0.43,0.24,-1.83,-3.97,387,259,168,442,342
17,0.77,-0.46,-0.41,2.44,-1.1,-1.89,387,260,172,443,347
18,0.78,-0.48,-0.42,2.14,-2.93,-2.32,387,258,168,440,346
19,0.77,-0.47,-0.4,0.92,-2.81,-3.42,383,259,174,441,349
20,0.78,-0.48,-0.4,0.0,-3.42,-2.5,387,259,173,441,348
21,0.78,-0.49,-0.39,-1.53,-2.81,-3.11,379,259,174,442,346
22,0.78,-0.48,-0.4,0.73,-2.93,-1.77,384,260,174,446,342
23,0.77,-0.48,-0.4,0.31,-2.5,-2.93,385,260,174,442,348
24,0.79,-0.47,-0.39,-0.43,-2.32,-2.75,383,261,172,442,348
25,0.79,-0.47,-0.41,0.55,-2.69,-2.56,384,259,171,445,344
26,0.78,-0.47,-0.4,2.01,-1.77,-3.3,381,260,174,444,347
27,0.78,-0.47,-0.4,0.67,-2.62,-2.81,384,260,171,443,347
28,0.79,-0.46,-0.39,0.43,-2.08,-2.14,387,264,171,446,346
29,0.78,-0.47,-0.39,0.98,-3.17,-2.69,384,258,175,446,343
30,0.79,-0.47,-0.39,0.49,-3.17,-3.54,380,259,175,442,348
31,0.79,-0.48,-0.4,-1.89,-2.2,-2.87,384,261,174,439,351
32,0.79,-0.47,-0.4,1.04,-3.36,-3.17,381,264,171,447,346
33,0.79,-0.47,-0.4,-0.49,-3.85,-3.05,385,260,173,445,347
34,0.83,-0.48,-0.45,0.31,-2.2,-3.23,385,263,176,444,347
35,0.79,-0.47,-0.4,0.61,-1.46,-3.85,385,262,179,437,351
36,0.78,-0.47,-0.39,1.34,-3.17,-2.14,383,261,173,443,351
37,0.79,-0.46,-0.39,0.06,-2.2,-2.87,386,260,177,445,350
38,0.79,-0.47,-0.4,0.85,-2.81,-2.32,387,262,177,442,351
39,0.78,-0.46,-0.39,0.85,-2.5,-1.95,385,262,176,443,354
40,0.78,-0.47,-0.37,-1.53,-1.65,-3.91,387,261,177,445,350
41,0.8,-0.47,-0.41,0.67,-2.2,-2.99,381,257,180,438,350
42,0.8,-0.46,-0.4,0.18,-2.01,-2.62,385,263,179,441,353
43,0.8,-0.45,-0.39,0.24,-2.62,-2.56,381,264,179,444,353
44,0.8,-0.45,-0.38,1.04,-2.44,-2.99,384,269,179,444,355
45,0.8,-0.46,-0.38,0.79,-2.62,-2.99,383,262,182,441,355
46,0.81,-0.49,-0.39,-0.24,-2.2,-3.05,379,267,177,444,355
47,0.8,-0.46,-0.39,0.24,-2.87,-2.62,382,262,180,445,354
48,0.8,-0.46,-0.39,-0.37,-3.6,-2.56,380,261,180,447,353
49,0.79,-0.45,-0.39,0.31,-3.54,-2.56,381,264,182,443,354
50,0.79,-0.45,-0.4,0.49,-2.26,-3.17,380,262,178,453,353
51,0.79,-0.44,-0.39,0.92,-2.81,-1.77,378,267,179,440,354
52,0.8,-0.46,-0.38,-1.65,-2.44,-3.05,379,264,179,439,349
53,0.8,-0.45,-0.4,1.65,-3.11,-2.44,388,264,179,446,353
54,0.8,-0.45,-0.38,-0.55,-2.87,-2.81,378,260,180,444,353
55,0.8,-0.46,-0.39,-1.77,-3.48,-3.54,379,262,183,444,353
56,0.79,-0.47,-0.38,0.0,0.98,-4.27,380,261,181,456,355
57,0.78,-0.47,-0.39,3.85,-2.44,-2.62,380,263,185,443,352
58,0.82,-0.49,-0.41,0.12,-0.85,-0.98,377,262,182,448,355
59,0.81,-0.48,-0.39,-0.49,0.61,-12.76,381,263,183,444,355
60,0.81,-0.44,-0.41,-3.72,-2.93,-3.85,382,263,185,443,353
61,0.8,-0.45,-0.42,-2.2,-3.97,-1.46,381,265,184,442,354
62,0.8,-0.43,-0.4,11.11,-5.55,-5.37,381,264,183,438,350
63,0.8,-0.42,-0.37,-2.38,-0.12,-1.83,381,264,182,446,353
64,0.8,-0.39,-0.35,-5.62,3.6,-6.16,380,264,185,445,355
65,0.8,-0.41,-0.36,-1.83,-3.23,0.06,381,264,181,440,353
66,0.83,-0.43,-0.42,1.04,-2.99,-1.53,381,261,180,446,351
67,0.81,-0.43,-0.39,0.67,-2.26,-0.85,382,262,185,442,354
68,0.81,-0.43,-0.39,0.24,-2.08,-1.46,381,262,183,442,353
69,0.81,-0.42,-0.37,-1.59,-3.05,-3.17,383,265,185,438,355
70,0.8,-0.42,-0.37,0.79,-2.81,-1.59,383,263,183,444,352
71,0.82,-0.43,-0.39,-0.24,-1.77,-3.48,379,266,181,445,348
72,0.83,-0.43,-0.39,-0.73,-3.97,-5.0,387,266,183,445,354
73,0.82,-0.41,-0.39,0.92,-4.46,-3.23,381,266,183,442,353
74,0.83,-0.42,-0.39,4.27,-2.08,0.06,376,264,185,441,353
75,0.82,-0.42,-0.38,-0.85,-3.54,-3.3,383,265,183,442,352
76,0.81,-0.42,-0.37,-2.26,-3.42,-1.83,381,264,186,445,353
77,0.83,-0.41,-0.38,0.06,-1.59,-2.14,380,265,183,438,354
78,0.82,-0.4,-0.37,-1.95,-2.69,-0.79,380,266,183,442,351
79,0.82,-0.41,-0.38,-0.12,-1.77,-2.08,379,266,185,438,354
80,0.81,-0.41,-0.35,-2.44,-6.96,-2.81,382,265,185,445,357
81,0.86,-0.39,-0.36,-1.77,-6.77,-6.59,382,264,181,445,356
82,0.81,-0.41,-0.41,-0.98,-2.26,-5.31,375,268,183,444,355
83,0.79,-0.41,-0.44,-12.08,2.32,-0.55,377,270,187,440,353
84,0.79,-0.44,-0.42,-0.24,-3.48,-5.86,374,262,188,437,353
85,0.85,-0.4,-0.38,0.43,2.26,1.46,374,265,184,438,355
86,0.85,-0.41,-0.42,-13.67,1.65,-7.45,376,267,183,441,353
87,0.82,-0.46,-0.44,1.89,-0.98,-1.16,376,265,183,446,355
88,0.82,-0.42,-0.32,2.87,-2.75,3.66,375,267,184,445,354
89,0.85,-0.42,-0.34,1.83,-2.08,-1.77,375,263,185,440,353
90,0.85,-0.43,-0.34,0.31,-2.93,-2.14,373,268,184,444,355
91,0.83,-0.42,-0.32,0.92,-1.4,-2.5,375,265,186,439,353
92,0.82,-0.44,-0.32,-0.12,-4.82,-3.72,378,266,185,442,354
93,0.84,-0.43,-0.35,1.34,-1.34,-4.03,373,269,184,441,353
94,0.84,-0.42,-0.33,0.73,-3.23,-3.36,375,265,187,437,356
95,0.85,-0.43,-0.34,2.14,-3.48,-3.54,374,264,186,441,354
96,0.85,-0.43,-0.33,1.83,-3.48,-3.6,376,268,186,444,354
97,0.86,-0.44,-0.38,-0.06,-0.37,-3.91,375,265,187,445,353
98,0.84,-0.42,-0.31,-0.49,-4.21,-1.59,377,265,188,445,353
99,0.86,-0.43,-0.33,3.23,-2.62,-3.42,375,267,183,441,354
100,0.84,-0.43,-0.32,-0.98,-3.78,-2.75,375,270,185,442,351
101,0.84,-0.43,-0.32,0.18,-3.91,-2.75,378,267,189,442,354
102,0.84,-0.43,-0.32,-0.55,-1.95,-3.48,375,265,195,445,353
103,0.84,-0.43,-0.31,0.0,-2.32,-2.69,376,265,196,441,354
104,0.84,-0.43,-0.31,0.92,-2.44,-2.75,377,265,187,439,357
105,0.85,-0.43,-0.31,0.0,-3.36,-3.23,376,269,187,441,351
106,0.82,-0.44,-0.31,-1.53,-4.39,-1.95,377,265,187,453,355
107,0.78,-0.44,-0.31,7.08,-2.62,-4.7,374,260,191,441,354
108,0.83,-0.43,-0.27,-0.18,0.18,-2.5,374,268,190,456,355
109,0.83,-0.44,-0.34,-2.44,-1.4,2.2,372,266,189,442,355
110,0.84,-0.42,-0.31,-1.77,-1.34,-3.11,376,266,200,441,353
111,0.85,-0.42,-0.3,0.37,-3.48,-1.89,376,266,188,439,356
112,0.86,-0.42,-0.3,3.05,-2.14,-2.44,378,267,191,445,352
113,0.89,-0.44,-0.31,0.12,-2.81,-3.3,376,267,189,445,354
114,0.86,-0.42,-0.3,1.59,-5.0,-1.28,372,269,186,439,355
115,0.86,-0.42,-0.3,1.46,-2.2,-3.48,378,265,183,442,350
116,0.85,-0.43,-0.3,2.44,-2.75,-3.17,378,265,188,442,355
117,0.85,-0.42,-0.3,0.0,-3.66,-3.17,376,268,185,442,352
118,0.85,-0.42,-0.29,0.85,-2.01,-2.87,376,264,189,443,355
119,0.85,-0.43,-0.29,1.04,-2.69,-2.93,375,265,188,436,347
120,0.84,-0.43,-0.29,1.04,-6.16,-2.62,379,266,189,443,353
121,0.85,-0.42,-0.3,-0.37,-2.32,-1.22,378,266,190,445,356
122,0.85,-0.42,-0.3,-0.55,-3.42,-2.75,378,266,191,443,351
123,0.85,-0.43,-0.31,1.1,-3.66,-3.97,377,265,188,436,351
124,0.84,-0.42,-0.31,0.73,-2.69,-2.01,376,269,186,442,355
125,0.83,-0.43,-0.31,-1.83,-2.44,-1.59,378,266,188,442,354
126,0.84,-0.43,-0.29,-1.59,-2.93,-2.69,376,264,184,436,353
127,0.84,-0.47,-0.31,-0.18,-4.82,-6.9,374,269,186,445,352
128,0.88,-0.42,-0.31,0.61,-2.99,-2.93,379,268,197,438,356
129,0.87,-0.42,-0.31,0.49,-3.3,-2.81,375,269,191,442,356
130,0.85,-0.42,-0.29,1.95,-0.79,-0.85,377,268,190,445,355
131,0.84,-0.42,-0.28,1.71,-2.2,0.79,378,265,192,442,355
132,0.87,-0.42,-0.31,-1.04,0.61,-0.18,379,265,186,440,355
133,0.87,-0.42,-0.32,0.85,-3.85,-3.17,376,265,190,450,365
134,0.87,-0.42,-0.31,-1.71,-2.01,-3.42,379,265,188,441,356
135,0.86,-0.42,-0.3,-0.61,-2.81,-2.01,378,265,190,454,354
136,0.85,-0.42,-0.3,-1.46,-2.69,-2.2,375,268,191,443,352
137,0.8,-0.44,-0.28,-1.89,-2.62,-2.08,379,265,188,440,354
138,0.85,-0.44,-0.34,-0.79,-3.3,-3.48,378,264,189,444,350
139,0.85,-0.43,-0.31,-4.03,-2.81,-0.06,378,269,187,442,354
140,0.84,-0.43,-0.3,-3.78,-3.85,1.16,378,263,193,442,353
141,0.85,-0.43,-0.3,-2.56,-5.55,0.61,375,268,189,447,353
142,0.86,-0.44,-0.3,3.11,1.53,-0.24,376,266,193,438,354
143,0.83,-0.45,-0.3,-2.56,-3.3,-4.76,377,268,189,446,357
144,0.81,-0.44,-0.29,1.34,-4.58,-4.33,377,266,192,445,353
145,0.83,-0.44,-0.31,-0.43,-4.52,-2.56,378,266,189,445,350
146,0.83,-0.44,-0.31,-3.6,-2.69,-3.42,379,268,188,441,350
147,0.86,-0.45,-0.34,0.73,-2.87,-2.5,380,270,191,438,352
148,0.86,-0.43,-0.31,-0.67,-3.05,-4.09,375,268,193,443,353
149,0.87,-0.43,-0.32,0.37,0.12,-3.42,380,266,189,438,354
150,0.86,-0.43,-0.3,0.85,-2.32,-2.69,372,266,190,441,355
151,0.86,-0.43,-0.29,0.18,-2.5,-2.99,378,268,190,442,352
152,0.85,-0.43,-0.3,-0.92,-3.54,-2.62,383,269,187,442,353
153,0.86,-0.44,-0.29,-0.24,-2.99,-2.56,396,266,187,437,355
154,0.85,-0.44,-0.3,-1.4,-4.64,-1.59,379,270,192,447,347
155,0.84,-0.44,-0.3,-0.73,-3.78,-1.95,381,263,185,442,355
156,0.84,-0.43,-0.29,-0.55,-2.14,-2.69,377,268,190,437,352
157,0.84,-0.44,-0.29,1.53,-2.2,-2.99,378,266,190,443,353
158,0.85,-0.44,-0.29,0.85,-2.44,-3.42,375,265,193,442,353
159,0.85,-0.44,-0.29,1.04,-2.75,-3.05,382,264,190,442,357
160,0.85,-0.44,-0.29,-0.06,-3.17,-2.38,378,267,190,437,353
161,0.85,-0.44,-0.3,0.06,-2.62,-3.3,377,265,194,442,354
162,0.85,-0.43,-0.3,0.92,-3.23,-2.81,374,266,194,442,352
163,0.85,-0.43,-0.3,-0.06,-3.48,-3.17,376,268,194,442,355
164,0.85,-0.43,-0.31,1.53,-1.04,-3.17,373,267,193,443,353
165,0.85,-0.42,-0.3,2.01,-2.5,-2.14,377,266,195,437,347
166,0.87,-0.42,-0.3,2.93,-0.73,-2.01,378,267,193,441,354
167,0.86,-0.42,-0.29,0.85,-1.71,-1.71,377,268,193,442,355
168,0.86,-0.43,-0.29,1.89,-3.11,-2.26,378,266,193,437,351
169,0.87,-0.42,-0.29,0.55,-3.97,-2.99,373,267,193,443,353
170,0.86,-0.42,-0.3,1.1,-4.09,-3.23,374,267,191,440,353
171,0.86,-0.42,-0.31,1.53,-0.85,-3.54,374,267,201,444,352
172,0.86,-0.42,-0.3,-0.12,-2.38,-3.6,363,267,192,442,351
173,0.87,-0.42,-0.3,0.85,-2.81,-1.53,376,267,193,442,354
174,0.87,-0.42,-0.31,0.92,-2.81,-4.09,373,266,192,451,351
175,0.86,-0.42,-0.29,1.34,-3.3,-3.23,373,267,192,444,351
176,0.85,-0.42,-0.29,0.12,-3.3,-3.3,373,267,192,442,352
177,0.85,-0.42,-0.31,-0.67,-4.39,-3.05,374,269,194,443,355
178,0.85,-0.41,-0.31,0.18,-3.3,-2.32,375,267,190,447,352
179,0.85,-0.42,-0.31,0.24,-2.62,-2.32,374,269,191,457,354
180,0.85,-0.42,-0.31,1.89,-2.01,-2.14,375,266,189,446,352
181,0.85,-0.41,-0.3,-0.43,-2.56,-2.44,376,270,192,448,353
182,0.86,-0.41,-0.3,0.12,-3.23,-1.71,375,269,195,445,351
183,0.85,-0.41,-0.3,0.43,-3.05,-2.01,373,267,192,445,354
184,0.85,-0.42,-0.3,0.61,-3.05,-2.32,376,271,193,442,354
185,0.85,-0.41,-0.3,1.04,-4.09,-2.62,377,269,193,442,353
186,0.86,-0.41,-0.32,1.59,-2.93,-2.32,376,269,191,445,353
187,0.88,-0.43,-0.33,-0.31,-2.5,-3.78,373,268,192,443,352
188,0.86,-0.41,-0.32,1.59,-3.05,-2.69,373,268,192,446,351
189,0.85,-0.41,-0.3,1.4,-1.89,-2.99,375,269,191,442,352
190,0.86,-0.41,-0.3,0.85,-2.75,-2.75,375,269,195,441,354
191,0.86,-0.41,-0.32,1.95,-3.54,-2.14,375,268,193,442,350
192,0.87,-0.41,-0.32,-0.06,-4.09,-2.5,375,268,193,444,354
193,0.86,-0.41,-0.32,0.92,-4.21,-2.69,372,270,193,443,354
194,0.86,-0.41,-0.32,1.59,-2.2,-2.44,376,269,193,446,350
195,0.87,-0.41,-0.31,1.16,-2.5,-2.62,377,267,190,455,354
196,0.86,-0.41,-0.3,-0.24,-2.69,-2.62,383,269,194,442,354
197,0.86,-0.41,-0.31,-0.61,-2.38,-2.62,377,267,190,448,355
198,0.84,-0.39,-0.3,1.89,-2.2,-2.56,375,267,192,442,349
199,0.86,-0.4,-0.31,0.73,-3.23,-2.93,374,270,195,442,352
200,0.86,-0.4,-0.31,1.53,-4.52,-2.62,375,267,196,446,353
201,0.86,-0.4,-0.32,1.65,-3.23,-2.38,374,270,190,445,352
202,0.86,-0.41,-0.31,0.73,-2.01,-2.5,376,268,189,443,348
203,0.86,-0.41,-0.31,0.18,-2.87,-2.87,388,268,190,442,355
204,0.85,-0.41,-0.31,0.24,-2.44,-2.08,374,268,192,446,357
205,0.85,-0.41,-0.3,1.95,-2.32,-2.14,377,278,196,440,353
206,0.84,-0.41,-0.31,-1.28,-4.21,-1.34,379,267,192,440,355
207,0.85,-0.41,-0.31,-0.43,-3.85,-2.32,377,268,196,442,352
208,0.86,-0.41,-0.31,-0.98,-2.32,-2.08,374,280,193,441,355
209,0.86,-0.41,-0.31,0.0,-1.59,-2.01,377,268,190,438,353
210,0.85,-0.41,-0.31,2.32,-2.56,-2.32,382,270,193,444,352
211,0.86,-0.41,-0.3,1.71,-2.38,-2.32,378,269,194,443,353
212,0.86,-0.42,-0.32,-0.18,-4.58,-4.88,380,272,192,442,351
213,0.86,-0.41,-0.31,0.43,-4.58,-3.48,390,272,192,445,353
214,0.84,-0.41,-0.3,-2.44,-6.1,-5.13,387,272,193,440,355
215,0.85,-0.4,-0.3,-0.79,-3.85,-2.99,387,275,196,445,353
216,0.87,-0.4,-0.31,2.62,-1.59,-2.99,384,272,197,437,354
217,0.86,-0.41,-0.3,1.89,-2.69,-2.99,387,269,192,440,354
218,0.86,-0.41,-0.31,1.34,-2.56,-2.99,386,273,193,441,353
219,0.86,-0.4,-0.3,-0.37,-3.6,-1.89,386,274,193,442,352
220,0.86,-0.41,-0.31,-0.12,-3.54,-3.42,383,270,194,444,353
221,0.86,-0.4,-0.3,-1.22,-4.09,-2.69,393,276,192,438,353
222,0.85,-0.4,-0.31,0.31,-2.5,-1.16,386,272,193,443,352
223,0.86,-0.4,-0.31,0.06,-1.89,-2.62,390,274,197,441,353
224,0.86,-0.4,-0.3,0.92,-1.83,-1.89,386,274,195,446,352
225,0.87,-0.39,-0.3,-0.06,-2.62,-1.22,384,273,194,437,353
226,0.87,-0.4,-0.3,0.31,-3.6,-1.89,386,271,194,443,351
227,0.87,-0.4,-0.32,-1.4,-2.93,-3.85,386,274,194,454,354
228,0.87,-0.39,-0.32,0.92,-5.25,-1.22,388,276,196,447,351
229,0.85,-0.39,-0.33,-0.85,-3.3,-2.32,388,275,194,446,351
230,0.85,-0.39,-0.32,0.12,-1.83,-2.56,385,272,194,441,355
231,0.86,-0.39,-0.31,0.0,-4.27,-3.54,386,272,196,442,354
232,0.86,-0.39,-0.3,-1.65,-2.32,-2.38,386,269,192,443,352
233,0.86,-0.39,-0.31,-0.37,-2.99,-2.75,385,272,196,444,354
234,0.85,-0.39,-0.29,0.43,-2.38,-2.93,386,275,194,442,354
235,0.85,-0.39,-0.3,0.24,-2.69,-2.87,386,279,195,445,354
236,0.86,-0.39,-0.31,1.95,-2.2,-2.93,386,269,195,443,353
237,0.86,-0.39,-0.31,0.37,-2.26,-2.5,384,272,194,439,356
238,0.86,-0.4,-0.31,0.18,-3.42,-1.95,384,274,191,442,349
239,0.86,-0.4,-0.31,-0.49,-3.17,-2.44,385,273,194,441,353
240,0.86,-0.39,-0.31,-0.49,-4.15,-2.01,385,273,195,447,353
241,0.86,-0.39,-0.31,0.37,-2.81,-2.26,384,272,195,442,352
242,0.87,-0.39,-0.32,0.37,-2.01,-2.5,385,273,196,442,349
243,0.86,-0.39,-0.31,-0.49,-2.87,-2.32,387,273,195,444,353
244,0.85,-0.4,-0.32,0.18,-1.34,-2.87,387,271,194,437,353
245,0.86,-0.4,-0.32,1.28,-2.32,-2.87,383,276,193,442,354
246,0.89,-0.39,-0.31,-0.73,-2.81,-2.93,385,273,197,441,355
247,0.86,-0.39,-0.32,-1.95,-4.46,-3.05,384,273,198,440,351
248,0.86,-0.39,-0.33,-1.59,-3.11,-3.05,385,275,195,441,353
249,0.86,-0.39,-0.3,0.06,-2.69,-2.2,383,271,193,438,354
250,0.86,-0.4,-0.31,0.61,-3.05,-2.56,387,272,201,443,352
251,0.86,-0.39,-0.31,0.55,-2.26,-2.99,380,274,193,441,353
252,0.86,-0.39,-0.3,0.43,-2.5,-2.99,385,270,195,441,353
253,0.86,-0.4,-0.31,0.73,-2.69,-2.69,385,276,191,445,353
254,0.86,-0.39,-0.31,0.43,-3.11,-1.95,386,273,198,442,351
255,0.86,-0.39,-0.3,-0.31,-3.36,-2.5,386,275,193,438,353
256,0.86,-0.39,-0.31,-1.04,-4.21,-2.32,384,275,198,443,352
257,0.85,-0.39,-0.32,-0.73,-3.11,-2.99,384,270,195,440,352
258,0.86,-0.39,-0.32,0.37,-2.81,-2.81,379,272,197,441,350
259,0.86,-0.39,-0.32,1.34,-2.56,-2.01,384,279,194,442,355
260,0.86,-0.39,-0.31,0.67,-2.08,-3.23,379,272,195,442,355
261,0.86,-0.39,-0.32,1.65,-2.93,-1.71,375,276,198,437,352
262,0.87,-0.4,-0.33,0.85,-3.54,-1.89,379,275,190,439,355
263,0.97,-0.42,-0.43,3.85,-9.16,1.95,383,275,195,441,352
264,0.85,-0.39,-0.31,0.49,-2.87,-2.87,381,274,198,436,353
265,0.87,-0.39,-0.31,0.55,-3.05,-2.62,381,275,194,444,350
266,0.86,-0.39,-0.32,-0.12,-3.72,-1.77,381,275,196,440,354
267,0.86,-0.39,-0.32,-0.31,-3.48,-2.56,379,276,196,441,353
268,0.86,-0.4,-0.32,-0.24,-2.14,-2.26,381,276,198,444,353
269,0.86,-0.39,-0.32,1.28,-2.5,-2.26,379,274,197,439,350
270,0.86,-0.39,-0.31,0.85,-2.87,-2.32,382,277,193,437,355
271,0.86,-0.39,-0.31,-1.83,-2.56,-2.5,378,275,196,440,351
272,0.86,-0.4,-0.28,-0.85,-2.08,-2.38,380,275,192,444,354
273,0.89,-0.41,-0.32,3.36,-4.58,-0.73,386,275,193,438,354
274,0.86,-0.38,-0.3,1.89,-3.91,-1.89,380,274,195,436,354
275,0.87,-0.39,-0.32,0.55,-4.09,-2.01,380,274,198,440,351
276,0.86,-0.4,-0.33,-0.98,-1.77,-3.78,378,274,196,440,345
277,0.86,-0.38,-0.31,-0.06,-2.62,-2.01,378,277,196,441,356
278,0.86,-0.39,-0.3,1.22,-2.14,-2.5,378,276,196,438,355
279,0.86,-0.39,-0.3,0.06,-2.44,-2.81,378,276,198,440,352
280,0.87,-0.4,-0.32,-0.61,-2.75,-2.56,378,277,195,442,354
281,0.86,-0.39,-0.31,-0.18,-2.44,-2.08,378,272,196,442,353
282,0.87,-0.39,-0.31,0.98,-3.23,-2.56,377,273,196,441,353
283,0.86,-0.39,-0.31,-0.06,-3.3,-1.83,377,274,195,437,354
284,0.86,-0.39,-0.31,0.73,-3.66,-2.38,376,276,196,445,351
285,0.87,-0.39,-0.33,1.4,-4.64,-1.59,378,275,201,441,354
286,0.86,-0.38,-0.31,2.38,-1.22,-2.62,378,277,195,444,354
287,0.86,-0.39,-0.32,1.71,-1.53,-2.93,379,274,198,442,354
288,0.88,-0.41,-0.31,0.06,-2.99,-2.69,380,275,196,441,354
289,0.86,-0.4,-0.31,-2.01,-2.62,-2.38,380,273,194,435,352
290,0.87,-0.4,-0.32,-0.67,-3.6,-2.87,386,274,200,444,352
291,0.87,-0.4,-0.32,1.16,-2.99,-2.93,379,272,192,438,354
292,0.86,-0.4,-0.31,1.46,-2.32,-2.81,381,275,194,442,351
293,0.86,-0.39,-0.31,1.22,-2.93,-1.89,375,274,196,437,356
294,0.85,-0.39,-0.31,-0.55,-3.36,-2.81,380,282,196,442,354
295,0.86,-0.4,-0.31,1.22,-2.75,-1.95,383,275,200,442,354
296,0.87,-0.4,-0.32,-0.98,-2.69,-3.48,379,274,194,441,354
297,0.87,-0.4,-0.31,0.49,-2.2,-3.3,379,273,196,438,354
298,0.87,-0.4,-0.31,-0.43,-3.54,-3.6,380,277,195,444,358
299,0.87,-0.39,-0.3,0.12,-2.56,-2.75,380,274,196,441,350
300,0.86,-0.39,-0.3,0.0,-4.33,-2.75,376,286,198,442,353
301,0.86,-0.39,-0.33,-0.67,-2.99,-2.26,391,273,195,441,353
302,0.86,-0.39,-0.33,1.46,-1.22,-2.75,381,275,196,444,354
303,0.86,-0.38,-0.31,1.83,-1.59,-2.32,380,278,198,440,354
304,0.87,-0.39,-0.32,0.85,-1.77,-3.05,378,277,199,440,354
305,0.86,-0.39,-0.31,2.44,-2.81,-2.2,375,273,199,444,355
306,0.87,-0.39,-0.31,1.59,-2.62,-2.99,376,274,197,442,356
307,0.86,-0.39,-0.31,-0.55,-2.75,-2.08,378,275,199,441,356
308,0.86,-0.39,-0.31,1.04,-2.69,-1.4,378,288,197,441,351
309,0.86,-0.39,-0.3,-0.06,-3.48,-2.75,377,275,197,440,357
310,0.86,-0.39,-0.31,0.12,-4.21,-2.56,376,279,195,440,351
311,0.85,-0.38,-0.31,-0.73,-3.6,-2.44,376,276,195,440,351
312,0.86,-0.38,-0.33,-0.31,-2.56,-2.81,380,275,196,437,352
313,0.86,-0.38,-0.32,-0.18,-2.81,-2.87,380,279,197,444,354
314,0.86,-0.38,-0.32,-0.18,-2.81,-2.93,376,274,196,442,355
315,0.86,-0.38,-0.32,2.08,-2.38,-2.08,371,276,196,436,354
316,0.87,-0.39,-0.32,0.61,-2.44,-2.69,398,277,196,439,352
317,0.87,-0.39,-0.32,-0.49,-2.5,-3.23,379,278,201,441,353
318,0.86,-0.38,-0.31,2.2,-2.44,-3.05,378,275,195,437,352
319,0.87,-0.38,-0.32,1.59,-3.72,-3.3,376,277,198,441,355
320,0.86,-0.38,-0.32,-0.92,-3.66,-2.75,377,272,196,441,355
321,0.86,-0.38,-0.32,-0.92,-3.42,-2.38,378,291,195,441,353
322,0.87,-0.38,-0.34,1.53,-1.71,-3.72,376,278,200,445,354
323,0.87,-0.39,-0.33,-0.24,-1.77,-2.75,377,275,197,439,354
324,0.87,-0.38,-0.33,0.43,-2.75,-1.95,378,275,198,437,353
325,0.86,-0.38,-0.31,0.49,-2.2,-2.87,378,275,200,443,353
326,0.86,-0.39,-0.32,0.24,-2.75,-2.93,374,278,201,443,353
327,0.86,-0.38,-0.31,0.24,-2.87,-2.14,378,275,200,441,353
328,0.86,-0.38,-0.31,-0.43,-2.44,-2.08,379,274,198,440,349
329,0.86,-0.38,-0.31,-0.55,-3.36,-2.5,374,276,197,441,353
330,0.86,-0.38,-0.32,-0.92,-4.33,-2.62,377,279,200,442,354
331,0.87,-0.38,-0.33,-0.06,-3.91,-3.42,378,276,200,445,352
332,0.87,-0.38,-0.34,-0.85,-1.89,-2.81,382,275,197,440,354
333,0.87,-0.38,-0.32,0.31,-1.28,-2.01,383,271,197,436,354
334,0.87,-0.38,-0.31,2.2,-3.3,-1.83,372,276,200,436,356
335,0.87,-0.38,-0.32,1.34,-3.17,-2.44,378,275,201,438,356
336,0.86,-0.39,-0.32,-0.49,-2.56,-2.08,375,272,202,442,354
337,0.87,-0.38,-0.32,0.55,-3.85,-3.11,374,275,200,441,353
338,0.87,-0.38,-0.32,-0.55,-3.72,-2.99,377,275,195,444,351
339,0.86,-0.38,-0.33,-0.31,-3.6,-2.44,415,275,198,445,355
340,0.86,-0.38,-0.33,-0.18,-2.2,-2.44,378,274,199,441,351
341,0.86,-0.38,-0.32,1.65,-2.32,-2.75,374,275,201,442,356
342,0.87,-0.38,-0.31,0.67,-2.14,-2.44,378,278,197,440,351
343,0.87,-0.38,-0.32,-0.37,-2.26,-2.2,377,276,200,442,351
344,0.87,-0.38,-0.31,0.18,-4.27,-3.23,377,271,196,436,352
345,0.86,-0.38,-0.32,0.92,-3.91,-3.23,378,276,195,440,355
346,0.86,-0.37,-0.33,-1.77,-2.56,-2.44,375,278,195,444,354
347,0.86,-0.38,-0.33,0.24,-2.26,-2.69,377,274,198,442,354
348,0.87,-0.37,-0.31,1.4,-2.99,-2.14,377,277,200,444,351
349,0.87,-0.37,-0.32,1.59,-1.95,-2.75,378,275,201,442,355
350,0.87,-0.37,-0.32,-0.37,-2.87,-1.95,374,276,195,438,353
351,0.87,-0.37,-0.32,1.16,-3.36,-2.56,378,278,196,443,350
352,0.87,-0.37,-0.31,1.04,-3.17,-2.93,379,279,200,438,352
353,0.87,-0.37,-0.32,-0.92,-3.97,-2.69,390,275,201,442,353
354,0.87,-0.37,-0.34,0.55,-4.03,-2.38,372,278,199,442,350
355,0.87,-0.37,-0.33,1.16,-2.56,-1.89,375,275,198,440,354
356,0.86,-0.37,-0.33,0.61,-2.5,-2.44,379,277,204,444,355
357,0.86,-0.37,-0.32,-0.55,-2.56,-2.99,379,276,198,439,352
358,0.87,-0.37,-0.32,-0.79,-2.99,-2.38,377,279,197,442,355
359,0.87,-0.37,-0.33,0.49,-3.11,-2.2,375,275,200,444,360
360,0.87,-0.38,-0.34,1.22,-3.23,-2.26,379,277,201,444,354
361,0.87,-0.37,-0.34,-0.37,-3.91,-2.81,379,276,201,441,351
362,0.87,-0.37,-0.34,-0.49,-4.03,-3.17,376,277,198,442,355
363,0.87,-0.37,-0.34,0.85,-2.44,-2.75,378,275,197,457,354
364,0.86,-0.37,-0.32,0.55,-2.2,-2.44,376,278,198,446,354
365,0.87,-0.37,-0.33,0.98,-1.95,-2.14,379,276,198,446,350
366,0.87,-0.37,-0.32,0.12,-2.26,-1.95,378,278,202,443,355
367,0.86,-0.38,-0.33,0.67,-2.32,-2.69,374,276,198,446,353
368,0.86,-0.37,-0.32,-0.73,-5.13,-4.15,380,275,196,440,351
369,0.87,-0.36,-0.32,-0.31,-3.78,-3.17,378,277,200,456,352
370,0.87,-0.36,-0.33,1.22,-3.91,-2.62,379,276,201,446,354
371,0.87,-0.37,-0.33,0.06,-2.38,-2.14,377,279,199,441,357
372,0.86,-0.37,-0.33,-0.98,-3.17,-2.26,379,279,202,440,355
373,0.87,-0.37,-0.33,0.43,-2.5,-2.38,377,276,193,438,355
374,0.87,-0.37,-0.33,0.55,-2.62,-2.81,376,277,198,450,354
375,0.87,-0.37,-0.33,-0.92,-2.56,-2.87,377,282,201,441,355
376,0.87,-0.37,-0.33,1.83,-2.93,-3.42,376,277,199,437,354
377,0.87,-0.37,-0.34,-0.18,-3.72,-2.62,376,278,198,443,354
378,0.87,-0.37,-0.33,0.06,-2.93,-2.75,376,275,198,440,356
379,0.87,-0.37,-0.33,1.1,-1.53,-3.05,377,278,202,440,353
380,0.87,-0.36,-0.32,1.22,-2.2,-1.89,377,278,198,438,353
381,0.88,-0.37,-0.33,0.98,-2.14,-2.62,376,279,199,436,352
382,0.87,-0.37,-0.33,0.49,-2.81,-2.62,375,276,201,445,350
383,0.87,-0.37,-0.32,0.61,-2.75,-2.69,376,286,202,436,353
384,0.87,-0.37,-0.32,0.67,-2.81,-3.05,376,279,203,441,353
385,0.87,-0.36,-0.33,2.14,-3.72,-2.32,377,277,197,437,353
386,0.87,-0.36,-0.31,0.55,-3.17,-2.01,402,277,205,443,354
387,0.87,-0.36,-0.33,1.83,-1.46,-3.54,374,276,201,436,351
388,0.87,-0.37,-0.32,1.77,-1.53,-2.62,374,278,201,436,355
389,0.87,-0.37,-0.32,-0.49,-2.14,-2.32,373,276,201,440,348
390,0.87,-0.37,-0.32,-0.18,-2.75,-1.95,377,275,201,440,354
391,0.87,-0.37,-0.32,-0.12,-2.2,-2.93,374,278,202,445,355
392,0.87,-0.38,-0.33,2.14,-2.26,-2.69,375,274,198,446,353
393,0.88,-0.37,-0.32,1.04,-3.66,-2.62,375,277,199,441,352
394,0.88,-0.37,-0.33,-0.79,-3.36,-3.23,374,276,200,442,351
395,0.86,-0.37,-0.33,-1.22,-1.53,-3.42,375,279,203,444,353
396,0.87,-0.37,-0.33,-1.53,-2.44,-2.32,377,278,199,441,355
397,0.87,-0.37,-0.33,-0.18,-2.56,-2.01,376,278,203,436,354
398,0.87,-0.37,-0.32,0.85,-2.14,-2.2,374,276,199,441,353
399,0.87,-0.37,-0.32,1.71,-2.87,-1.95,377,277,202,443,352
400,0.87,-0.36,-0.31,0.55,-2.01,-2.56,375,276,202,444,354
401,0.86,-0.37,-0.32,1.1,-3.42,-3.11,379,277,197,440,355
402,0.91,-0.38,-0.34,-0.55,-5.49,-3.11,374,279,202,441,352
403,0.87,-0.38,-0.35,-1.04,-3.78,-2.75,372,279,201,439,351
404,0.87,-0.37,-0.32,1.4,-1.22,-2.99,377,280,203,435,353
405,0.89,-0.37,-0.32,1.04,-2.5,-3.66,378,278,202,441,352
406,0.88,-0.39,-0.32,-1.16,-1.89,-3.11,379,280,198,439,353
407,0.86,-0.38,-0.29,1.4,-0.73,0.49,376,276,199,441,352
408,0.87,-0.38,-0.31,-1.04,-2.62,-1.28,379,276,201,443,353
409,0.88,-0.38,-0.32,1.89,-4.03,-1.77,377,277,199,442,354
410,0.85,-0.38,-0.32,2.5,-3.42,-1.89,375,280,200,442,357
411,0.86,-0.37,-0.33,0.24,-3.97,-2.93,379,279,199,439,354
412,0.86,-0.37,-0.34,2.75,-1.28,-1.04,397,279,201,442,354
413,0.88,-0.37,-0.34,2.2,-2.26,-2.87,378,278,199,440,355
414,0.87,-0.37,-0.33,2.38,-1.89,-1.95,377,276,216,442,355
415,0.85,-0.36,-0.29,3.91,2.56,-1.83,372,277,203,436,355
416,0.86,-0.37,-0.31,-0.79,-1.95,-1.4,378,279,199,445,354
417,0.88,-0.36,-0.3,-0.49,-2.5,-2.08,380,276,202,442,354
418,0.87,-0.37,-0.33,0.79,-3.97,-3.23,377,274,201,445,354
419,0.87,-0.37,-0.34,0.0,-4.33,-3.17,376,274,198,435,354
420,0.87,-0.37,-0.34,-0.12,-4.27,-2.5,379,279,199,444,355
421,0.87,-0.37,-0.33,-0.61,-2.5,-2.2,375,277,198,441,354
422,0.87,-0.37,-0.32,-0.31,-2.69,-2.2,380,278,201,444,354
423,0.88,-0.36,-0.33,-0.06,-1.83,-3.42,376,278,203,445,354
424,0.88,-0.38,-0.34,0.67,-3.72,-4.46,377,277,202,441,353
425,0.88,-0.37,-0.34,14.89,-4.76,-6.9,379,278,202,437,356
426,0.88,-0.36,-0.32,0.92,-3.72,-2.01,379,281,191,440,354
427,0.88,-0.36,-0.31,1.53,-2.75,-2.2,379,279,199,444,349
428,0.89,-0.37,-0.34,-3.36,-6.41,-7.69,376,279,201,452,357
429,0.87,-0.37,-0.35,-9.7,1.71,-6.16,378,276,200,436,353
430,0.86,-0.38,-0.28,8.61,-2.93,0.61,379,276,203,444,348
431,0.88,-0.38,-0.29,-0.31,-2.69,-1.59,377,277,207,436,352
432,0.88,-0.36,-0.28,1.89,-4.82,-0.49,379,276,199,445,353
433,0.85,-0.38,-0.28,6.59,-2.56,-0.79,377,279,199,440,354
434,0.86,-0.39,-0.32,-2.99,-2.75,-0.37,377,277,203,446,352
435,0.86,-0.39,-0.3,-1.22,-2.5,-1.77,380,277,202,441,356
436,0.87,-0.38,-0.29,0.06,-3.42,-3.42,376,277,203,441,353
437,0.87,-0.39,-0.31,-1.95,-3.23,-3.17,380,280,198,441,352
438,0.87,-0.39,-0.31,0.85,-3.23,-2.69,379,279,199,442,352
439,0.87,-0.39,-0.31,0.18,-3.42,-1.95,377,276,198,442,355
440,0.87,-0.39,-0.31,1.4,-2.81,-2.75,377,276,203,443,353
441,0.84,-0.4,-0.29,0.98,-1.77,-3.72,378,277,201,436,352
442,0.87,-0.38,-0.3,-1.77,-2.62,-2.32,375,278,201,445,352
443,0.86,-0.36,-0.28,2.62,-3.36,-2.93,381,279,200,441,358
444,0.88,-0.37,-0.3,1.22,-3.66,-1.83,377,276,200,441,351
445,0.88,-0.37,-0.31,0.98,-4.09,-1.53,385,277,200,442,355
446,0.87,-0.37,-0.32,-1.59,-3.36,-2.01,381,280,203,440,359
447,0.86,-0.36,-0.31,0.98,-4.88,-3.23,380,280,201,436,350
448,0.88,-0.37,-0.31,-0.61,-2.38,-3.17,379,279,202,438,354
449,0.88,-0.38,-0.31,-2.56,-1.71,-3.36,374,277,201,440,355
450,0.88,-0.37,-0.32,-0.85,-2.08,-2.62,378,278,201,440,350
451,0.88,-0.36,-0.31,-0.73,-3.3,-2.69,378,284,201,440,354
452,0.88,-0.35,-0.3,-0.67,-2.75,-1.59,375,280,200,443,354
453,0.87,-0.37,-0.3,-2.32,-2.08,-1.77,379,278,199,440,357
454,0.88,-0.37,-0.32,-2.08,-2.93,-1.77,379,279,204,444,354
455,0.88,-0.37,-0.3,-2.81,-2.87,-1.95,378,281,200,441,355
456,0.88,-0.36,-0.31,0.85,-2.69,-1.77,372,275,204,445,355
457,0.88,-0.36,-0.31,-0.37,-3.48,-1.89,383,279,197,439,351
458,0.88,-0.36,-0.31,0.61,-3.48,-2.32,377,277,204,445,354
459,0.87,-0.36,-0.3,-1.4,-3.17,-2.32,377,277,202,437,354
460,0.88,-0.36,-0.31,0.18,-2.87,-2.69,374,276,202,439,351
461,0.88,-0.36,-0.31,1.16,-2.87,-2.62,377,279,200,444,356
462,0.88,-0.35,-0.31,0.98,-3.23,-2.62,378,275,203,437,354
463,0.88,-0.35,-0.31,-0.37,-4.09,-2.62,382,278,202,440,353
464,0.88,-0.36,-0.32,-2.01,-1.65,-4.15,379,276,203,444,353
465,0.88,-0.35,-0.32,-0.49,-2.5,-2.75,382,277,199,442,354
466,0.88,-0.36,-0.32,1.46,-2.08,-2.14,379,278,201,439,352
467,0.88,-0.35,-0.31,0.55,-1.95,-3.17,377,281,204,440,354
468,0.88,-0.36,-0.32,-0.55,-2.62,-2.38,378,280,200,447,356
469,0.87,-0.35,-0.3,-0.12,-2.81,-2.08,377,277,200,445,349
470,0.88,-0.36,-0.31,0.98,-2.56,-2.69,379,272,201,446,358
471,0.88,-0.36,-0.31,0.31,-3.48,-2.69,385,277,201,444,358
472,0.89,-0.35,-0.32,-0.06,-3.97,-2.87,373,279,201,440,354
473,0.88,-0.35,-0.32,0.85,-3.91,-2.99,377,277,199,446,355
474,0.88,-0.36,-0.33,-0.49,-2.44,-2.62,376,282,201,440,357
475,0.87,-0.34,-0.31,0.98,-3.05,-1.77,375,277,204,441,353
476,0.88,-0.35,-0.31,1.04,-2.38,-2.2,376,275,204,443,352
477,0.87,-0.35,-0.3,0.85,-1.28,-1.83,373,277,201,444,350
478,0.88,-0.35,-0.31,1.04,-3.17,-2.08,373,278,204,441,350
479,0.87,-0.35,-0.31,0.61,-2.62,-1.89,376,276,203,440,353
480,0.87,-0.35,-0.31,-0.73,-4.94,-2.87,376,280,203,438,354
481,0.89,-0.36,-0.33,-0.73,-3.66,-3.17,388,278,205,443,357
482,0.88,-0.35,-0.33,0.67,-3.6,-3.23,376,276,202,437,360
483,0.88,-0.38,-0.3,-1.46,-0.61,-3.72,376,278,200,437,354
484,0.87,-0.35,-0.32,-0.31,-0.79,-3.6,378,276,204,441,355
485,0.87,-0.34,-0.3,0.61,-3.48,-1.65,372,278,203,445,355
486,0.88,-0.35,-0.32,0.73,-1.89,-2.38,376,280,200,440,354
487,0.86,-0.34,-0.27,0.73,0.0,-0.73,376,277,200,441,347
488,0.89,-0.34,-0.31,-1.16,-2.56,-3.97,377,276,202,438,355
489,0.88,-0.35,-0.31,-2.14,-1.83,-4.27,376,277,204,443,357
490,0.89,-0.35,-0.33,-0.31,-2.99,-2.62,377,276,202,455,355
491,0.88,-0.34,-0.32,0.73,-2.69,-2.5,377,277,206,435,355
492,0.89,-0.35,-0.32,0.98,-2.5,-1.77,379,277,201,444,355
493,0.89,-0.35,-0.32,0.98,-3.3,-2.93,377,277,202,438,357
494,0.88,-0.35,-0.33,1.28,-3.42,-2.87,374,277,201,437,356
495,0.88,-0.35,-0.32,1.16,-2.93,-2.81,378,277,203,441,352
496,0.9,-0.35,-0.33,0.61,-2.26,0.24,378,274,203,441,352
497,0.89,-0.37,-0.31,2.69,-1.16,-2.75,376,276,202,430,348
498,0.86,-0.36,-0.27,-3.23,-3.48,-2.62,377,277,202,441,355
499,0.89,-0.37,-0.29,-0.31,-1.34,-1.04,376,280,206,445,354
500,0.89,-0.36,-0.29,-0.31,-3.97,-5.31,375,278,203,443,355
501,0.89,-0.34,-0.28,2.75,-2.14,-3.42,372,279,204,445,356
502,0.89,-0.35,-0.32,-0.24,-4.39,-2.62,375,276,203,442,354
503,0.88,-0.36,-0.31,1.77,-2.62,-1.65,374,280,201,438,356
504,0.88,-0.36,-0.3,0.67,-2.62,-1.77,377,280,202,444,360
505,0.87,-0.37,-0.3,-0.61,-3.05,-2.2,376,289,199,439,356
506,0.87,-0.36,-0.27,2.81,-2.5,-1.71,380,275,202,438,354
507,0.9,-0.35,-0.29,0.43,-2.56,-2.99,378,278,208,442,354
508,0.89,-0.37,-0.32,0.37,-2.69,-2.26,379,276,203,441,354
509,0.87,-0.37,-0.31,0.55,-3.17,-2.44,378,277,208,442,354
510,0.88,-0.37,-0.31,-0.06,-2.87,-1.4,405,292,204,437,352
511,0.87,-0.38,-0.31,-0.06,-2.26,-1.4,380,279,205,441,354
512,0.88,-0.38,-0.3,0.0,-3.48,-3.72,379,281,201,439,355
513,1.0,-0.3,-0.33,28.08,-8.85,-8.12,228,247,165,411,356
514,0.79,-0.38,-0.49,64.27,-43.46,-5.43,405,262,159,428,319
515,0.78,-0.46,-0.4,27.1,-4.39,-3.42,410,259,154,433,333
516,0.82,-0.49,-0.4,7.45,-3.36,-6.9,408,261,158,435,336
517,0.77,-0.49,-0.38,0.49,-8.97,2.81,406,259,161,441,339
518,0.78,-0.47,-0.4,-1.1,-4.09,-2.26,403,259,164,442,342
519,0.77,-0.48,-0.39,3.42,-2.08,-2.26,399,262,168,434,343
520,0.77,-0.49,-0.4,0.43,-3.54,-1.95,427,261,162,441,340
521,0.77,-0.48,-0.42,1.22,-2.99,-2.93,394,260,165,446,344
522,0.75,-0.48,-0.41,-2.01,-1.53,-4.27,394,259,166,435,345
523,0.76,-0.48,-0.42,1.16,-2.32,-1.16,395,260,168,438,344
524,0.77,-0.48,-0.41,-0.49,-1.95,-1.46,392,261,166,444,340
525,0.77,-0.47,-0.42,-1.71,-3.23,-1.53,385,258,168,441,342
526,0.77,-0.48,-0.42,-0.98,-2.2,-3.48,388,259,168,443,346
527,0.77,-0.47,-0.42,0.49,-3.6,-2.81,388,261,169,441,345
528,0.76,-0.47,-0.42,-0.37,-3.11,-1.77,387,262,169,442,346
529,0.77,-0.48,-0.43,0.24,-1.83,-3.97,387,259,168,442,342
530,0.77,-0.46,-0.41,2.44,-1.1,-1.89,387,260,172,443,347
531,0.78,-0.48,-0.42,2.14,-2.93,-2.32,387,258,168,440,346
532,0.77,-0.47,-0.4,0.92,-2.81,-3.42,383,259,174,441,349
533,0.78,-0.48,-0.4,0.0,-3.42,-2.5,387,259,173,441,348
534,0.78,-0.49,-0.39,-1.53,-2.81,-3.11,379,259,174,442,346
535,0.78,-0.48,-0.4,0.73,-2.93,-1.77,384,260,174,446,342
536,0.77,-0.48,-0.4,0.31,-2.5,-2.93,385,260,174,442,348
537,0.79,-0.47,-0.39,-0.43,-2.32,-2.75,383,261,172,442,348
538,0.79,-0.47,-0.41,0.55,-2.69,-2.56,384,259,171,445,344
539,0.78,-0.47,-0.4,2.01,-1.77,-3.3,381,260,174,444,347
540,0.78,-0.47,-0.4,0.67,-2.62,-2.81,384,260,171,443,347
541,0.79,-0.46,-0.39,0.43,-2.08,-2.14,387,264,171,446,346
542,0.78,-0.47,-0.39,0.98,-3.17,-2.69,384,258,175,446,343
543,0.79,-0.47,-0.39,0.49,-3.17,-3.54,380,259,175,442,348
544,0.79,-0.48,-0.4,-1.89,-2.2,-2.87,384,261,174,439,351
545,0.79,-0.47,-0.4,1.04,-3.36,-3.17,381,264,171,447,346
546,0.79,-0.47,-0.4,-0.49,-3.85,-3.05,385,260,173,445,347
547,0.83,-0.48,-0.45,0.31,-2.2,-3.23,385,263,176,444,347
548,0.79,-0.47,-0.4,0.61,-1.46,-3.85,385,262,179,437,351
549,0.78,-0.47,-0.39,1.34,-3.17,-2.14,383,261,173,443,351
550,0.79,-0.46,-0.39,0.06,-2.2,-2.87,386,260,177,445,350
551,0.79,-0.47,-0.4,0.85,-2.81,-2.32,387,262,177,442,351
552,0.78,-0.46,-0.39,0.85,-2.5,-1.95,385,262,176,443,354
553,0.78,-0.47,-0.37,-1.53,-1.65,-3.91,387,261,177,445,350
554,0.8,-0.47,-0.41,0.67,-2.2,-2.99,381,257,180,438,350
555,0.8,-0.46,-0.4,0.18,-2.01,-2.62,385,263,179,441,353
556,0.8,-0.45,-0.39,0.24,-2.62,-2.56,381,264,179,444,353
557,0.8,-0.45,-0.38,1.04,-2.44,-2.99,384,269,179,444,355
558,0.8,-0.46,-0.38,0.79,-2.62,-2.99,383,262,182,441,355
559,0.81,-0.49,-0.39,-0.24,-2.2,-3.05,379,267,177,444,355
560,0.8,-0.46,-0.39,0.24,-2.87,-2.62,382,262,180,445,354
561,0.8,-0.46,-0.39,-0.37,-3.6,-2.56,380,261,180,447,353
562,0.79,-0.45,-0.39,0.31,-3.54,-2.56,381,264,182,443,354
563,0.79,-0.45,-0.4,0.49,-2.26,-3.17,380,262,178,453,353
564,0.79,-0.44,-0.39,0.92,-2.81,-1.77,378,267,179,440,354
565,0.8,-0.46,-0.38,-1.65,-2.44,-3.05,379,264,179,439,349
566,0.8,-0.45,-0.4,1.65,-3.11,-2.44,388,264,179,446,353
567,0.8,-0.45,-0.38,-0.55,-2.87,-2.81,378,260,180,444,353
568,0.8,-0.46,-0.39,-1.77,-3.48,-3.54,379,262,183,444,353
569,0.79,-0.47,-0.38,0.0,0.98,-4.27,380,261,181,456,355
570,0.78,-0.47,-0.39,3.85,-2.44,-2.62,380,263,185,443,352
571,0.82,-0.49,-0.41,0.12,-0.85,-0.98,377,262,182,448,355
572,0.81,-0.48,-0.39,-0.49,0.61,-12.76,381,263,183,444,355
573,0.81,-0.44,-0.41,-3.72,-2.93,-3.85,382,263,185,443,353
574,0.8,-0.45,-0.42,-2.2,-3.97,-1.46,381,265,184,442,354
575,0.8,-0.43,-0.4,11.11,-5.55,-5.37,381,264,183,438,350
576,0.8,-0.42,-0.37,-2.38,-0.12,-1.83,381,264,182,446,353
577,0.8,-0.39,-0.35,-5.62,3.6,-6.16,380,264,185,445,355
578,0.8,-0.41,-0.36,-1.83,-3.23,0.06,381,264,181,440,353
579,0.83,-0.43,-0.42,1.04,-2.99,-1.53,381,261,180,446,351
580,0.81,-0.43,-0.39,0.67,-2.26,-0.85,382,262,185,442,354
581,0.81,-0.43,-0.39,0.24,-2.08,-1.46,381,262,183,442,353
582,0.81,-0.42,-0.37,-1.59,-3.05,-3.17,383,265,185,438,355
583,0.8,-0.42,-0.37,0.79,-2.81,-1.59,383,263,183,444,352
584,0.82,-0.43,-0.39,-0.24,-1.77,-3.48,379,266,181,445,348
585,0.83,-0.43,-0.39,-0.73,-3.97,-5.0,387,266,183,445,354
586,0.82,-0.41,-0.39,0.92,-4.46,-3.23,381,266,183,442,353
587,0.83,-0.42,-0.39,4.27,-2.08,0.06,376,264,185,441,353
588,0.82,-0.42,-0.38,-0.85,-3.54,-3.3,383,265,183,442,352
589,0.81,-0.42,-0.37,-2.26,-3.42,-1.83,381,264,186,445,353
590,0.83,-0.41,-0.38,0.06,-1.59,-2.14,380,265,183,438,354
591,0.82,-0.4,-0.37,-1.95,-2.69,-0.79,380,266,183,442,351
592,0.82,-0.41,-0.38,-0.12,-1.77,-2.08,379,266,185,438,354
593,0.81,-0.41,-0.35,-2.44,-6.96,-2.81,382,265,185,445,357
594,0.86,-0.39,-0.36,-1.77,-6.77,-6.59,382,264,181,445,356
595,0.81,-0.41,-0.41,-0.98,-2.26,-5.31,375,268,183,444,355
596,0.79,-0.41,-0.44,-12.08,2.32,-0.55,377,270,187,440,353
597,0.79,-0.44,-0.42,-0.24,-3.48,-5.86,374,262,188,437,353
598,0.85,-0.4,-0.38,0.43,2.26,1.46,374,265,184,438,355
599,0.85,-0.41,-0.42,-13.67,1.65,-7.45,376,267,183,441,353
600,0.82,-0.46,-0.44,1.89,-0.98,-1.16,376,265,183,446,355
601,0.82,-0.42,-0.32,2.87,-2.75,3.66,375,267,184,445,354
602,0.85,-0.42,-0.34,1.83,-2.08,-1.77,375,263,185,440,353
603,0.85,-0.43,-0.34,0.31,-2.93,-2.14,373,268,184,444,355
604,0.83,-0.42,-0.32,0.92,-1.4,-2.5,375,265,186,439,353
605,0.82,-0.44,-0.32,-0.12,-4.82,-3.72,378,266,185,442,354
606,0.84,-0.43,-0.35,1.34,-1.34,-4.03,373,269,184,441,353
607,0.84,-0.42,-0.33,0.73,-3.23,-3.36,375,265,187,437,356
608,0.85,-0.43,-0.34,2.14,-3.48,-3.54,374,264,186,441,354
609,0.85,-0.43,-0.33,1.83,-3.48,-3.6,376,268,186,444,354
610,0.86,-0.44,-0.38,-0.06,-0.37,-3.91,375,265,187,445,353
611,0.84,-0.42,-0.31,-0.49,-4.21,-1.59,377,265,188,445,353
612,0.86,-0.43,-0.33,3.23,-2.62,-3.42,375,267,183,441,354
613,0.84,-0.43,-0.32,-0.98,-3.78,-2.75,375,270,185,442,351
614,0.84,-0.43,-0.32,0.18,-3.91,-2.75,378,267,189,442,354
615,0.84,-0.43,-0.32,-0.55,-1.95,-3.48,375,265,195,445,353
616,0.84,-0.43,-0.31,0.0,-2.32,-2.69,376,265,196,441,354
617,0.84,-0.43,-0.31,0.92,-2.44,-2.75,377,265,187,439,357
618,0.85,-0.43,-0.31,0.0,-3.36,-3.23,376,269,187,441,351
619,0.82,-0.44,-0.31,-1.53,-4.39,-1.95,377,265,187,453,355
620,0.78,-0.44,-0.31,7.08,-2.62,-4.7,374,260,191,441,354
621,0.83,-0.43,-0.27,-0.18,0.18,-2.5,374,268,190,456,355
622,0.83,-0.44,-0.34,-2.44,-1.4,2.2,372,266,189,442,355
623,0.84,-0.42,-0.31,-1.77,-1.34,-3.11,376,266,200,441,353
624,0.85,-0.42,-0.3,0.37,-3.48,-1.89,376,266,188,439,356
625,0.86,-0.42,-0.3,3.05,-2.14,-2.44,378,267,191,445,352
626,0.89,-0.44,-0.31,0.12,-2.81,-3.3,376,267,189,445,354
627,0.86,-0.42,-0.3,1.59,-5.0,-1.28,372,269,186,439,355
628,0.86,-0.42,-0.3,1.46,-2.2,-3.48,378,265,183,442,350
629,0.85,-0.43,-0.3,2.44,-2.75,-3.17,378,265,188,442,355
630,0.85,-0.42,-0.3,0.0,-3.66,-3.17,376,268,185,442,352
631,0.85,-0.42,-0.29,0.85,-2.01,-2.87,376,264,189,443,355
632,0.85,-0.43,-0.29,1.04,-2.69,-2.93,375,265,188,436,347
633,0.84,-0.43,-0.29,1.04,-6.16,-2.62,379,266,189,443,353
634,0.85,-0.42,-0.3,-0.37,-2.32,-1.22,378,266,190,445,356
635,0.85,-0.42,-0.3,-0.55,-3.42,-2.75,378,266,191,443,351
636,0.85,-0.43,-0.31,1.1,-3.66,-3.97,377,265,188,436,351
637,0.84,-0.42,-0.31,0.73,-2.69,-2.01,376,269,186,442,355
638,0.83,-0.43,-0.31,-1.83,-2.44,-1.59,378,266,188,442,354
639,0.84,-0.43,-0.29,-1.59,-2.93,-2.69,376,264,184,436,353
640,0.84,-0.47,-0.31,-0.18,-4.82,-6.9,374,269,186,445,352
641,0.88,-0.42,-0.31,0.61,-2.99,-2.93,379,268,197,438,356
642,0.87,-0.42,-0.31,0.49,-3.3,-2.81,375,269,191,442,356
643,0.85,-0.42,-0.29,1.95,-0.79,-0.85,377,268,190,445,355
644,0.84,-0.42,-0.28,1.71,-2.2,0.79,378,265,192,442,355
645,0.87,-0.42,-0.31,-1.04,0.61,-0.18,379,265,186,440,355
646,0.87,-0.42,-0.32,0.85,-3.85,-3.17,376,265,190,450,365
647,0.87,-0.42,-0.31,-1.71,-2.01,-3.42,379,265,188,441,356
648,0.86,-0.42,-0.3,-0.61,-2.81,-2.01,378,265,190,454,354
649,0.85,-0.42,-0.3,-1.46,-2.69,-2.2,375,268,191,443,352
650,0.8,-0.44,-0.28,-1.89,-2.62,-2.08,379,265,188,440,354
651,0.85,-0.44,-0.34,-0.79,-3.3,-3.48,378,264,189,444,350
652,0.85,-0.43,-0.31,-4.03,-2.81,-0.06,378,269,187,442,354
653,0.84,-0.43,-0.3,-3.78,-3.85,1.16,378,263,193,442,353
654,0.85,-0.43,-0.3,-2.56,-5.55,0.61,375,268,189,447,353
655,0.86,-0.44,-0.3,3.11,1.53,-0.24,376,266,193,438,354
656,0.83,-0.45,-0.3,-2.56,-3.3,-4.76,377,268,189,446,357
657,0.81,-0.44,-0.29,1.34,-4.58,-4.33,377,266,192,445,353
658,0.83,-0.44,-0.31,-0.43,-4.52,-2.56,378,266,189,445,350
659,0.83,-0.44,-0.31,-3.6,-2.69,-3.42,379,268,188,441,350
660,0.86,-0.45,-0.34,0.73,-2.87,-2.5,380,270,191,438,352
661,0.86,-0.43,-0.31,-0.67,-3.05,-4.09,375,268,193,443,353
662,0.87,-0.43,-0.32,0.37,0.12,-3.42,380,266,189,438,354
663,0.86,-0.43,-0.3,0.85,-2.32,-2.69,372,266,190,441,355
664,0.86,-0.43,-0.29,0.18,-2.5,-2.99,378,268,190,442,352
665,0.85,-0.43,-0.3,-0.92,-3.54,-2.62,383,269,187,442,353
666,0.86,-0.44,-0.29,-0.24,-2.99,-2.56,396,266,187,437,355
667,0.85,-0.44,-0.3,-1.4,-4.64,-1.59,379,270,192,447,347
668,0.84,-0.44,-0.3,-0.73,-3.78,-1.95,381,263,185,442,355
669,0.84,-0.43,-0.29,-0.55,-2.14,-2.69,377,268,190,437,352
670,0.84,-0.44,-0.29,1.53,-2.2,-2.99,378,266,190,443,353
671,0.85,-0.44,-0.29,0.85,-2.44,-3.42,375,265,193,442,353
672,0.85,-0.44,-0.29,1.04,-2.75,-3.05,382,264,190,442,357
673,0.85,-0.44,-0.29,-0.06,-3.17,-2.38,378,267,190,437,353
674,0.85,-0.44,-0.3,0.06,-2.62,-3.3,377,265,194,442,354
675,0.85,-0.43,-0.3,0.92,-3.23,-2.81,374,266,194,442,352
676,0.85,-0.43,-0.3,-0.06,-3.48,-3.17,376,268,194,442,355
677,0.85,-0.43,-0.31,1.53,-1.04,-3.17,373,267,193,443,353
678,0.85,-0.42,-0.3,2.01,-2.5,-2.14,377,266,195,437,347
679,0.87,-0.42,-0.3,2.93,-0.73,-2.01,378,267,193,441,354
680,0.86,-0.42,-0.29,0.85,-1.71,-1.71,377,268,193,442,355
681,0.86,-0.43,-0.29,1.89,-3.11,-2.26,378,266,193,437,351
682,0.87,-0.42,-0.29,0.55,-3.97,-2.99,373,267,193,443,353
683,0.86,-0.42,-0.3,1.1,-4.09,-3.23,374,267,191,440,353
684,0.86,-0.42,-0.31,1.53,-0.85,-3.54,374,267,201,444,352
685,0.86,-0.42,-0.3,-0.12,-2.38,-3.6,363,267,192,442,351
686,0.87,-0.42,-0.3,0.85,-2.81,-1.53,376,267,193,442,354
687,0.87,-0.42,-0.31,0.92,-2.81,-4.09,373,266,192,451,351
688,0.86,-0.42,-0.29,1.34,-3.3,-3.23,373,267,192,444,351
689,0.85,-0.42,-0.29,0.12,-3.3,-3.3,373,267,192,442,352
690,0.85,-0.42,-0.31,-0.67,-4.39,-3.05,374,269,194,443,355
691,0.85,-0.41,-0.31,0.18,-3.3,-2.32,375,267,190,447,352
692,0.85,-0.42,-0.31,0.24,-2.62,-2.32,374,269,191,457,354
693,0.85,-0.42,-0.31,1.89,-2.01,-2.14,375,266,189,446,352
694,0.85,-0.41,-0.3,-0.43,-2.56,-2.44,376,270,192,448,353
695,0.86,-0.41,-0.3,0.12,-3.23,-1.71,375,269,195,445,351
696,0.85,-0.41,-0.3,0.43,-3.05,-2.01,373,267,192,445,354
697,0.85,-0.42,-0.3,0.61,-3.05,-2.32,376,271,193,442,354
698,0.85,-0.41,-0.3,1.04,-4.09,-2.62,377,269,193,442,353
699,0.86,-0.41,-0.32,1.59,-2.93,-2.32,376,269,191,445,353
700,0.88,-0.43,-0.33,-0.31,-2.5,-3.78,373,268,192,443,352
701,0.86,-0.41,-0.32,1.59,-3.05,-2.69,373,268,192,446,351
702,0.85,-0.41,-0.3,1.4,-1.89,-2.99,375,269,191,442,352
703,0.86,-0.41,-0.3,0.85,-2.75,-2.75,375,269,195,441,354
704,0.86,-0.41,-0.32,1.95,-3.54,-2.14,375,268,193,442,350
705,0.87,-0.41,-0.32,-0.06,-4.09,-2.5,375,268,193,444,354
706,0.86,-0.41,-0.32,0.92,-4.21,-2.69,372,270,193,443,354
707,0.86,-0.41,-0.32,1.59,-2.2,-2.44,376,269,193,446,350
708,0.87,-0.41,-0.31,1.16,-2.5,-2.62,377,267,190,455,354
709,0.86,-0.41,-0.3,-0.24,-2.69,-2.62,383,269,194,442,354
710,0.86,-0.41,-0.31,-0.61,-2.38,-2.62,377,267,190,448,355
711,0.84,-0.39,-0.3,1.89,-2.2,-2.56,375,267,192,442,349
712,0.86,-0.4,-0.31,0.73,-3.23,-2.93,374,270,195,442,352
713,0.86,-0.4,-0.31,1.53,-4.52,-2.62,375,267,196,446,353
714,0.86,-0.4,-0.32,1.65,-3.23,-2.38,374,270,190,445,352
715,0.86,-0.41,-0.31,0.73,-2.01,-2.5,376,268,189,443,348
716,0.86,-0.41,-0.31,0.18,-2.87,-2.87,388,268,190,442,355
717,0.85,-0.41,-0.31,0.24,-2.44,-2.08,374,268,192,446,357
718,0.85,-0.41,-0.3,1.95,-2.32,-2.14,377,278,196,440,353
719,0.84,-0.41,-0.31,-1.28,-4.21,-1.34,379,267,192,440,355
720,0.85,-0.41,-0.31,-0.43,-3.85,-2.32,377,268,196,442,352
721,0.86,-0.41,-0.31,-0.98,-2.32,-2.08,374,280,193,441,355
722,0.86,-0.41,-0.31,0.0,-1.59,-2.01,377,268,190,438,353
723,0.85,-0.41,-0.31,2.32,-2.56,-2.32,382,270,193,444,352
724,0.86,-0.41,-0.3,1.71,-2.38,-2.32,378,269,194,443,353
725,0.86,-0.42,-0.32,-0.18,-4.58,-4.88,380,272,192,442,351
726,0.86,-0.41,-0.31,0.43,-4.58,-3.48,390,272,192,445,353
727,0.84,-0.41,-0.3,-2.44,-6.1,-5.13,387,272,193,440,355
728,0.85,-0.4,-0.3,-0.79,-3.85,-2.99,387,275,196,445,353
729,0.87,-0.4,-0.31,2.62,-1.59,-2.99,384,272,197,437,354
730,0.86,-0.41,-0.3,1.89,-2.69,-2.99,387,269,192,440,354
731,0.86,-0.41,-0.31,1.34,-2.56,-2.99,386,273,193,441,353
732,0.86,-0.4,-0.3,-0.37,-3.6,-1.89,386,274,193,442,352
733,0.86,-0.41,-0.31,-0.12,-3.54,-3.42,383,270,194,444,353
734,0.86,-0.4,-0.3,-1.22,-4.09,-2.69,393,276,192,438,353
735,0.85,-0.4,-0.31,0.31,-2.5,-1.16,386,272,193,443,352
736,0.86,-0.4,-0.31,0.06,-1.89,-2.62,390,274,197,441,353
737,0.86,-0.4,-0.3,0.92,-1.83,-1.89,386,274,195,446,352
738,0.87,-0.39,-0.3,-0.06,-2.62,-1.22,384,273,194,437,353
739,0.87,-0.4,-0.3,0.31,-3.6,-1.89,386,271,194,443,351
740,0.87,-0.4,-0.32,-1.4,-2.93,-3.85,386,274,194,454,354
741,0.87,-0.39,-0.32,0.92,-5.25,-1.22,388,276,196,447,351
742,0.85,-0.39,-0.33,-0.85,-3.3,-2.32,388,275,194,446,351
743,0.85,-0.39,-0.32,0.12,-1.83,-2.56,385,272,194,441,355
744,0.86,-0.39,-0.31,0.0,-4.27,-3.54,386,272,196,442,354
745,0.86,-0.39,-0.3,-1.65,-2.32,-2.38,386,269,192,443,352
746,0.86,-0.39,-0.31,-0.37,-2.99,-2.75,385,272,196,444,354
747,0.85,-0.39,-0.29,0.43,-2.38,-2.93,386,275,194,442,354
748,0.85,-0.39,-0.3,0.24,-2.69,-2.87,386,279,195,445,354
749,0.86,-0.39,-0.31,1.95,-2.2,-2.93,386,269,195,443,353
750,0.86,-0.39,-0.31,0.37,-2.26,-2.5,384,272,194,439,356
751,0.86,-0.4,-0.31,0.18,-3.42,-1.95,384,274,191,442,349
752,0.86,-0.4,-0.31,-0.49,-3.17,-2.44,385,273,194,441,353
753,0.86,-0.39,-0.31,-0.49,-4.15,-2.01,385,273,195,447,353
754,0.86,-0.39,-0.31,0.37,-2.81,-2.26,384,272,195,442,352
755,0.87,-0.39,-0.32,0.37,-2.01,-2.5,385,273,196,442,349
756,0.86,-0.39,-0.31,-0.49,-2.87,-2.32,387,273,195,444,353
757,0.85,-0.4,-0.32,0.18,-1.34,-2.87,387,271,194,437,353
758,0.86,-0.4,-0.32,1.28,-2.32,-2.87,383,276,193,442,354
759,0.89,-0.39,-0.31,-0.73,-2.81,-2.93,385,273,197,441,355
760,0.86,-0.39,-0.32,-1.95,-4.46,-3.05,384,273,198,440,351
761,0.86,-0.39,-0.33,-1.59,-3.11,-3.05,385,275,195,441,353
762,0.86,-0.39,-0.3,0.06,-2.69,-2.2,383,271,193,438,354
763,0.86,-0.4,-0.31,0.61,-3.05,-2.56,387,272,201,443,352
764,0.86,-0.39,-0.31,0.55,-2.26,-2.99,380,274,193,441,353
765,0.86,-0.39,-0.3,0.43,-2.5,-2.99,385,270,195,441,353
766,0.86,-0.4,-0.31,0.73,-2.69,-2.69,385,276,191,445,353
767,0.86,-0.39,-0.31,0.43,-3.11,-1.95,386,273,198,442,351
768,0.86,-0.39,-0.3,-0.31,-3.36,-2.5,386,275,193,438,353
769,0.86,-0.39,-0.31,-1.04,-4.21,-2.32,384,275,198,443,352
770,0.85,-0.39,-0.32,-0.73,-3.11,-2.99,384,270,195,440,352
771,0.86,-0.39,-0.32,0.37,-2.81,-2.81,379,272,197,441,350
772,0.86,-0.39,-0.32,1.34,-2.56,-2.01,384,279,194,442,355
773,0.86,-0.39,-0.31,0.67,-2.08,-3.23,379,272,195,442,355
774,0.86,-0.39,-0.32,1.65,-2.93,-1.71,375,276,198,437,352
775,0.87,-0.4,-0.33,0.85,-3.54,-1.89,379,275,190,439,355
776,0.97,-0.42,-0.43,3.85,-9.16,1.95,383,275,195,441,352
777,0.85,-0.39,-0.31,0.49,-2.87,-2.87,381,274,198,436,353
778,0.87,-0.39,-0.31,0.55,-3.05,-2.62,381,275,194,444,350
779,0.86,-0.39,-0.32,-0.12,-3.72,-1.77,381,275,196,440,354
780,0.86,-0.39,-0.32,-0.31,-3.48,-2.56,379,276,196,441,353
781,0.86,-0.4,-0.32,-0.24,-2.14,-2.26,381,276,198,444,353
782,0.86,-0.39,-0.32,1.28,-2.5,-2.26,379,274,197,439,350
783,0.86,-0.39,-0.31,0.85,-2.87,-2.32,382,277,193,437,355
784,0.86,-0.39,-0.31,-1.83,-2.56,-2.5,378,275,196,440,351
785,0.86,-0.4,-0.28,-0.85,-2.08,-2.38,380,275,192,444,354
786,0.89,-0.41,-0.32,3.36,-4.58,-0.73,386,275,193,438,354
787,0.86,-0.38,-0.3,1.89,-3.91,-1.89,380,274,195,436,354
788,0.87,-0.39,-0.32,0.55,-4.09,-2.01,380,274,198,440,351
789,0.86,-0.4,-0.33,-0.98,-1.77,-3.78,378,274,196,440,345
790,0.86,-0.38,-0.31,-0.06,-2.62,-2.01,378,277,196,441,356
791,0.86,-0.39,-0.3,1.22,-2.14,-2.5,378,276,196,438,355
792,0.86,-0.39,-0.3,0.06,-2.44,-2.81,378,276,198,440,352
793,0.87,-0.4,-0.32,-0.61,-2.75,-2.56,378,277,195,442,354
794,0.86,-0.39,-0.31,-0.18,-2.44,-2.08,378,272,196,442,353
795,0.87,-0.39,-0.31,0.98,-3.23,-2.56,377,273,196,441,353
796,0.86,-0.39,-0.31,-0.06,-3.3,-1.83,377,274,195,437,354
797,0.86,-0.39,-0.31,0.73,-3.66,-2.38,376,276,196,445,351
798,0.87,-0.39,-0.33,1.4,-4.64,-1.59,378,275,201,441,354
799,0.86,-0.38,-0.31,2.38,-1.22,-2.62,378,277,195,444,354
800,0.86,-0.39,-0.32,1.71,-1.53,-2.93,379,274,198,442,354
801,0.88,-0.41,-0.31,0.06,-2.99,-2.69,380,275,196,441,354
802,0.86,-0.4,-0.31,-2.01,-2.62,-2.38,380,273,194,435,352
803,0.87,-0.4,-0.32,-0.67,-3.6,-2.87,386,274,200,444,352
804,0.87,-0.4,-0.32,1.16,-2.99,-2.93,379,272,192,438,354
805,0.86,-0.4,-0.31,1.46,-2.32,-2.81,381,275,194,442,351
806,0.86,-0.39,-0.31,1.22,-2.93,-1.89,375,274,196,437,356
807,0.85,-0.39,-0.31,-0.55,-3.36,-2.81,380,282,196,442,354
808,0.86,-0.4,-0.31,1.22,-2.75,-1.95,383,275,200,442,354
809,0.87,-0.4,-0.32,-0.98,-2.69,-3.48,379,274,194,441,354
810,0.87,-0.4,-0.31,0.49,-2.2,-3.3,379,273,196,438,354
811,0.87,-0.4,-0.31,-0.43,-3.54,-3.6,380,277,195,444,358
812,0.87,-0.39,-0.3,0.12,-2.56,-2.75,380,274,196,441,350
813,0.86,-0.39,-0.3,0.0,-4.33,-2.75,376,286,198,442,353
814,0.86,-0.39,-0.33,-0.67,-2.99,-2.26,391,273,195,441,353
815,0.86,-0.39,-0.33,1.46,-1.22,-2.75,381,275,196,444,354
816,0.86,-0.38,-0.31,1.83,-1.59,-2.32,380,278,198,440,354
817,0.87,-0.39,-0.32,0.85,-1.77,-3.05,378,277,199,440,354
818,0.86,-0.39,-0.31,2.44,-2.81,-2.2,375,273,199,444,355
819,0.87,-0.39,-0.31,1.59,-2.62,-2.99,376,274,197,442,356
820,0.86,-0.39,-0.31,-0.55,-2.75,-2.08,378,275,199,441,356
821,0.86,-0.39,-0.31,1.04,-2.69,-1.4,378,288,197,441,351
822,0.86,-0.39,-0.3,-0.06,-3.48,-2.75,377,275,197,440,357
823,0.86,-0.39,-0.31,0.12,-4.21,-2.56,376,279,195,440,351
824,0.85,-0.38,-0.31,-0.73,-3.6,-2.44,376,276,195,440,351
825,0.86,-0.38,-0.33,-0.31,-2.56,-2.81,380,275,196,437,352
826,0.86,-0.38,-0.32,-0.18,-2.81,-2.87,380,279,197,444,354
827,0.86,-0.38,-0.32,-0.18,-2.81,-2.93,376,274,196,442,355
828,0.86,-0.38,-0.32,2.08,-2.38,-2.08,371,276,196,436,354
829,0.87,-0.39,-0.32,0.61,-2.44,-2.69,398,277,196,439,352
830,0.87,-0.39,-0.32,-0.49,-2.5,-3.23,379,278,201,441,353
831,0.86,-0.38,-0.31,2.2,-2.44,-3.05,378,275,195,437,352
832,0.87,-0.38,-0.32,1.59,-3.72,-3.3,376,277,198,441,355
833,0.86,-0.38,-0.32,-0.92,-3.66,-2.75,377,272,196,441,355
834,0.86,-0.38,-0.32,-0.92,-3.42,-2.38,378,291,195,441,353
835,0.87,-0.38,-0.34,1.53,-1.71,-3.72,376,278,200,445,354
836,0.87,-0.39,-0.33,-0.24,-1.77,-2.75,377,275,197,439,354
837,0.87,-0.38,-0.33,0.43,-2.75,-1.95,378,275,198,437,353
838,0.86,-0.38,-0.31,0.49,-2.2,-2.87,378,275,200,443,353
839,0.86,-0.39,-0.32,0.24,-2.75,-2.93,374,278,201,443,353
840,0.86,-0.38,-0.31,0.24,-2.87,-2.14,378,275,200,441,353
841,0.86,-0.38,-0.31,-0.43,-2.44,-2.08,379,274,198,440,349
842,0.86,-0.38,-0.31,-0.55,-3.36,-2.5,374,276,197,441,353
843,0.86,-0.38,-0.32,-0.92,-4.33,-2.62,377,279,200,442,354
844,0.87,-0.38,-0.33,-0.06,-3.91,-3.42,378,276,200,445,352
845,0.87,-0.38,-0.34,-0.85,-1.89,-2.81,382,275,197,440,354
846,0.87,-0.38,-0.32,0.31,-1.28,-2.01,383,271,197,436,354
847,0.87,-0.38,-0.31,2.2,-3.3,-1.83,372,276,200,436,356
848,0.87,-0.38,-0.32,1.34,-3.17,-2.44,378,275,201,438,356
849,0.86,-0.39,-0.32,-0.49,-2.56,-2.08,375,272,202,442,354
850,0.87,-0.38,-0.32,0.55,-3.85,-3.11,374,275,200,441,353
851,0.87,-0.38,-0.32,-0.55,-3.72,-2.99,377,275,195,444,351
852,0.86,-0.38,-0.33,-0.31,-3.6,-2.44,415,275,198,445,355
853,0.86,-0.38,-0.33,-0.18,-2.2,-2.44,378,274,199,441,351
854,0.86,-0.38,-0.32,1.65,-2.32,-2.75,374,275,201,442,356
855,0.87,-0.38,-0.31,0.67,-2.14,-2.44,378,278,197,440,351
856,0.87,-0.38,-0.32,-0.37,-2.26,-2.2,377,276,200,442,351
857,0.87,-0.38,-0.31,0.18,-4.27,-3.23,377,271,196,436,352
858,0.86,-0.38,-0.32,0.92,-3.91,-3.23,378,276,195,440,355
859,0.86,-0.37,-0.33,-1.77,-2.56,-2.44,375,278,195,444,354
860,0.86,-0.38,-0.33,0.24,-2.26,-2.69,377,274,198,442,354
861,0.87,-0.37,-0.31,1.4,-2.99,-2.14,377,277,200,444,351
862,0.87,-0.37,-0.32,1.59,-1.95,-2.75,378,275,201,442,355
863,0.87,-0.37,-0.32,-0.37,-2.87,-1.95,374,276,195,438,353
864,0.87,-0.37,-0.32,1.16,-3.36,-2.56,378,278,196,443,350
865,0.87,-0.37,-0.31,1.04,-3.17,-2.93,379,279,200,438,352
866,0.87,-0.37,-0.32,-0.92,-3.97,-2.69,390,275,201,442,353
867,0.87,-0.37,-0.34,0.55,-4.03,-2.38,372,278,199,442,350
868,0.87,-0.37,-0.33,1.16,-2.56,-1.89,375,275,198,440,354
869,0.86,-0.37,-0.33,0.61,-2.5,-2.44,379,277,204,444,355
870,0.86,-0.37,-0.32,-0.55,-2.56,-2.99,379,276,198,439,352
871,0.87,-0.37,-0.32,-0.79,-2.99,-2.38,377,279,197,442,355
872,0.87,-0.37,-0.33,0.49,-3.11,-2.2,375,275,200,444,360
873,0.87,-0.38,-0.34,1.22,-3.23,-2.26,379,277,201,444,354
874,0.87,-0.37,-0.34,-0.37,-3.91,-2.81,379,276,201,441,351
875,0.87,-0.37,-0.34,-0.49,-4.03,-3.17,376,277,198,442,355
876,0.87,-0.37,-0.34,0.85,-2.44,-2.75,378,275,197,457,354
877,0.86,-0.37,-0.32,0.55,-2.2,-2.44,376,278,198,446,354
878,0.87,-0.37,-0.33,0.98,-1.95,-2.14,379,276,198,446,350
879,0.87,-0.37,-0.32,0.12,-2.26,-1.95,378,278,202,443,355
880,0.86,-0.38,-0.33,0.67,-2.32,-2.69,374,276,198,446,353
881,0.86,-0.37,-0.32,-0.73,-5.13,-4.15,380,275,196,440,351
882,0.87,-0.36,-0.32,-0.31,-3.78,-3.17,378,277,200,456,352
883,0.87,-0.36,-0.33,1.22,-3.91,-2.62,379,276,201,446,354
884,0.87,-0.37,-0.33,0.06,-2.38,-2.14,377,279,199,441,357
885,0.86,-0.37,-0.33,-0.98,-3.17,-2.26,379,279,202,440,355
886,0.87,-0.37,-0.33,0.43,-2.5,-2.38,377,276,193,438,355
887,0.87,-0.37,-0.33,0.55,-2.62,-2.81,376,277,198,450,354
888,0.87,-0.37,-0.33,-0.92,-2.56,-2.87,377,282,201,441,355
889,0.87,-0.37,-0.33,1.83,-2.93,-3.42,376,277,199,437,354
890,0.87,-0.37,-0.34,-0.18,-3.72,-2.62,376,278,198,443,354
891,0.87,-0.37,-0.33,0.06,-2.93,-2.75,376,275,198,440,356
892,0.87,-0.37,-0.33,1.1,-1.53,-3.05,377,278,202,440,353
893,0.87,-0.36,-0.32,1.22,-2.2,-1.89,377,278,198,438,353
894,0.88,-0.37,-0.33,0.98,-2.14,-2.62,376,279,199,436,352
895,0.87,-0.37,-0.33,0.49,-2.81,-2.62,375,276,201,445,350
896,0.87,-0.37,-0.32,0.61,-2.75,-2.69,376,286,202,436,353
897,0.87,-0.37,-0.32,0.67,-2.81,-3.05,376,279,203,441,353
898,0.87,-0.36,-0.33,2.14,-3.72,-2.32,377,277,197,437,353
899,0.87,-0.36,-0.31,0.55,-3.17,-2.01,402,277,205,443,354
900,0.87,-0.36,-0.33,1.83,-1.46,-3.54,374,276,201,436,351
901,0.87,-0.37,-0.32,1.77,-1.53,-2.62,374,278,201,436,355
902,0.87,-0.37,-0.32,-0.49,-2.14,-2.32,373,276,201,440,348
903,0.87,-0.37,-0.32,-0.18,-2.75,-1.95,377,275,201,440,354
904,0.87,-0.37,-0.32,-0.12,-2.2,-2.93,374,278,202,445,355
905,0.87,-0.38,-0.33,2.14,-2.26,-2.69,375,274,198,446,353
906,0.88,-0.37,-0.32,1.04,-3.66,-2.62,375,277,199,441,352
907,0.88,-0.37,-0.33,-0.79,-3.36,-3.23,374,276,200,442,351
908,0.86,-0.37,-0.33,-1.22,-1.53,-3.42,375,279,203,444,353
909,0.87,-0.37,-0.33,-1.53,-2.44,-2.32,377,278,199,441,355
910,0.87,-0.37,-0.33,-0.18,-2.56,-2.01,376,278,203,436,354
911,0.87,-0.37,-0.32,0.85,-2.14,-2.2,374,276,199,441,353
912,0.87,-0.37,-0.32,1.71,-2.87,-1.95,377,277,202,443,352
913,0.87,-0.36,-0.31,0.55,-2.01,-2.56,375,276,202,444,354
914,0.86,-0.37,-0.32,1.1,-3.42,-3.11,379,277,197,440,355
915,0.91,-0.38,-0.34,-0.55,-5.49,-3.11,374,279,202,441,352
916,0.87,-0.38,-0.35,-1.04,-3.78,-2.75,372,279,201,439,351
917,0.87,-0.37,-0.32,1.4,-1.22,-2.99,377,280,203,435,353
918,0.89,-0.37,-0.32,1.04,-2.5,-3.66,378,278,202,441,352
919,0.88,-0.39,-0.32,-1.16,-1.89,-3.11,379,280,198,439,353
920,0.86,-0.38,-0.29,1.4,-0.73,0.49,376,276,199,441,352
921,0.87,-0.38,-0.31,-1.04,-2.62,-1.28,379,276,201,443,353
922,0.88,-0.38,-0.32,1.89,-4.03,-1.77,377,277,199,442,354
923,0.85,-0.38,-0.32,2.5,-3.42,-1.89,375,280,200,442,357
924,0.86,-0.37,-0.33,0.24,-3.97,-2.93,379,279,199,439,354
925,0.86,-0.37,-0.34,2.75,-1.28,-1.04,397,279,201,442,354
926,0.88,-0.37,-0.34,2.2,-2.26,-2.87,378,278,199,440,355
927,0.87,-0.37,-0.33,2.38,-1.89,-1.95,377,276,216,442,355
928,0.85,-0.36,-0.29,3.91,2.56,-1.83,372,277,203,436,355
929,0.86,-0.37,-0.31,-0.79,-1.95,-1.4,378,279,199,445,354
930,0.88,-0.36,-0.3,-0.49,-2.5,-2.08,380,276,202,442,354
931,0.87,-0.37,-0.33,0.79,-3.97,-3.23,377,274,201,445,354
932,0.87,-0.37,-0.34,0.0,-4.33,-3.17,376,274,198,435,354
933,0.87,-0.37,-0.34,-0.12,-4.27,-2.5,379,279,199,444,355
934,0.87,-0.37,-0.33,-0.61,-2.5,-2.2,375,277,198,441,354
935,0.87,-0.37,-0.32,-0.31,-2.69,-2.2,380,278,201,444,354
936,0.88,-0.36,-0.33,-0.06,-1.83,-3.42,376,278,203,445,354
937,0.88,-0.38,-0.34,0.67,-3.72,-4.46,377,277,202,441,353
938,0.88,-0.37,-0.34,14.89,-4.76,-6.9,379,278,202,437,356
939,0.88,-0.36,-0.32,0.92,-3.72,-2.01,379,281,191,440,354
940,0.88,-0.36,-0.31,1.53,-2.75,-2.2,379,279,199,444,349
941,0.89,-0.37,-0.34,-3.36,-6.41,-7.69,376,279,201,452,357
942,0.87,-0.37,-0.35,-9.7,1.71,-6.16,378,276,200,436,353
943,0.86,-0.38,-0.28,8.61,-2.93,0.61,379,276,203,444,348
944,0.88,-0.38,-0.29,-0.31,-2.69,-1.59,377,277,207,436,352
945,0.88,-0.36,-0.28,1.89,-4.82,-0.49,379,276,199,445,353
946,0.85,-0.38,-0.28,6.59,-2.56,-0.79,377,279,199,440,354
947,0.86,-0.39,-0.32,-2.99,-2.75,-0.37,377,277,203,446,352
948,0.86,-0.39,-0.3,-1.22,-2.5,-1.77,380,277,202,441,356
949,0.87,-0.38,-0.29,0.06,-3.42,-3.42,376,277,203,441,353
950,0.87,-0.39,-0.31,-1.95,-3.23,-3.17,380,280,198,441,352
951,0.87,-0.39,-0.31,0.85,-3.23,-2.69,379,279,199,442,352
952,0.87,-0.39,-0.31,0.18,-3.42,-1.95,377,276,198,442,355
953,0.87,-0.39,-0.31,1.4,-2.81,-2.75,377,276,203,443,353
954,0.84,-0.4,-0.29,0.98,-1.77,-3.72,378,277,201,436,352
955,0.87,-0.38,-0.3,-1.77,-2.62,-2.32,375,278,201,445,352
956,0.86,-0.36,-0.28,2.62,-3.36,-2.93,381,279,200,441,358
957,0.88,-0.37,-0.3,1.22,-3.66,-1.83,377,276,200,441,351
958,0.88,-0.37,-0.31,0.98,-4.09,-1.53,385,277,200,442,355
959,0.87,-0.37,-0.32,-1.59,-3.36,-2.01,381,280,203,440,359
960,0.86,-0.36,-0.31,0.98,-4.88,-3.23,380,280,201,436,350
961,0.88,-0.37,-0.31,-0.61,-2.38,-3.17,379,279,202,438,354
962,0.88,-0.38,-0.31,-2.56,-1.71,-3.36,374,277,201,440,355
963,0.88,-0.37,-0.32,-0.85,-2.08,-2.62,378,278,201,440,350
964,0.88,-0.36,-0.31,-0.73,-3.3,-2.69,378,284,201,440,354
965,0.88,-0.35,-0.3,-0.67,-2.75,-1.59,375,280,200,443,354
966,0.87,-0.37,-0.3,-2.32,-2.08,-1.77,379,278,199,440,357
967,0.88,-0.37,-0.32,-2.08,-2.93,-1.77,379,279,204,444,354
968,0.88,-0.37,-0.3,-2.81,-2.87,-1.95,378,281,200,441,355
969,0.88,-0.36,-0.31,0.85,-2.69,-1.77,372,275,204,445,355
970,0.88,-0.36,-0.31,-0.37,-3.48,-1.89,383,279,197,439,351
971,0.88,-0.36,-0.31,0.61,-3.48,-2.32,377,277,204,445,354
972,0.87,-0.36,-0.3,-1.4,-3.17,-2.32,377,277,202,437,354
973,0.88,-0.36,-0.31,0.18,-2.87,-2.69,374,276,202,439,351
974,0.88,-0.36,-0.31,1.16,-2.87,-2.62,377,279,200,444,356
975,0.88,-0.35,-0.31,0.98,-3.23,-2.62,378,275,203,437,354
976,0.88,-0.35,-0.31,-0.37,-4.09,-2.62,382,278,202,440,353
977,0.88,-0.36,-0.32,-2.01,-1.65,-4.15,379,276,203,444,353
978,0.88,-0.35,-0.32,-0.49,-2.5,-2.75,382,277,199,442,354
979,0.88,-0.36,-0.32,1.46,-2.08,-2.14,379,278,201,439,352
980,0.88,-0.35,-0.31,0.55,-1.95,-3.17,377,281,204,440,354
981,0.88,-0.36,-0.32,-0.55,-2.62,-2.38,378,280,200,447,356
982,0.87,-0.35,-0.3,-0.12,-2.81,-2.08,377,277,200,445,349
983,0.88,-0.36,-0.31,0.98,-2.56,-2.69,379,272,201,446,358
984,0.88,-0.36,-0.31,0.31,-3.48,-2.69,385,277,201,444,358
985,0.89,-0.35,-0.32,-0.06,-3.97,-2.87,373,279,201,440,354
986,0.88,-0.35,-0.32,0.85,-3.91,-2.99,377,277,199,446,355
987,0.88,-0.36,-0.33,-0.49,-2.44,-2.62,376,282,201,440,357
988,0.87,-0.34,-0.31,0.98,-3.05,-1.77,375,277,204,441,353
989,0.88,-0.35,-0.31,1.04,-2.38,-2.2,376,275,204,443,352
990,0.87,-0.35,-0.3,0.85,-1.28,-1.83,373,277,201,444,350
991,0.88,-0.35,-0.31,1.04,-3.17,-2.08,373,278,204,441,350
992,0.87,-0.35,-0.31,0.61,-2.62,-1.89,376,276,203,440,353
993,0.87,-0.35,-0.31,-0.73,-4.94,-2.87,376,280,203,438,354
994,0.89,-0.36,-0.33,-0.73,-3.66,-3.17,388,278,205,443,357
995,0.88,-0.35,-0.33,0.67,-3.6,-3.23,376,276,202,437,360
996,0.88,-0.38,-0.3,-1.46,-0.61,-3.72,376,278,200,437,354
997,0.87,-0.35,-0.32,-0.31,-0.79,-3.6,378,276,204,441,355
998,0.87,-0.34,-0.3,0.61,-3.48,-1.65,372,278,203,445,355
999,0.88,-0.35,-0.32,0.73,-1.89,-2.38,376,280,200,440,354
1000,0.86,-0.34,-0.27,0.73,0.0,-0.73,376,277,200,441,347
1001,0.89,-0.34,-0.31,-1.16,-2.56,-3.97,377,276,202,438,355
1002,0.88,-0.35,-0.31,-2.14,-1.83,-4.27,376,277,204,443,357
1003,0.89,-0.35,-0.33,-0.31,-2.99,-2.62,377,276,202,455,355
1004,0.88,-0.34,-0.32,0.73,-2.69,-2.5,377,277,206,435,355
1005,0.89,-0.35,-0.32,0.98,-2.5,-1.77,379,277,201,444,355
1006,0.89,-0.35,-0.32,0.98,-3.3,-2.93,377,277,202,438,357
1007,0.88,-0.35,-0.33,1.28,-3.42,-2.87,374,277,201,437,356
1008,0.88,-0.35,-0.32,1.16,-2.93,-2.81,378,277,203,441,352
1009,0.9,-0.35,-0.33,0.61,-2.26,0.24,378,274,203,441,352
1010,0.89,-0.37,-0.31,2.69,-1.16,-2.75,376,276,202,430,348
1011,0.86,-0.36,-0.27,-3.23,-3.48,-2.62,377,277,202,441,355
1012,0.89,-0.37,-0.29,-0.31,-1.34,-1.04,376,280,206,445,354
1013,0.89,-0.36,-0.29,-0.31,-3.97,-5.31,375,278,203,443,355
1014,0.89,-0.34,-0.28,2.75,-2.14,-3.42,372,279,204,445,356
1015,0.89,-0.35,-0.32,-0.24,-4.39,-2.62,375,276,203,442,354
1016,0.88,-0.36,-0.31,1.77,-2.62,-1.65,374,280,201,438,356
1017,0.88,-0.36,-0.3,0.67,-2.62,-1.77,377,280,202,444,360
1018,0.87,-0.37,-0.3,-0.61,-3.05,-2.2,376,289,199,439,356
1019,0.87,-0.36,-0.27,2.81,-2.5,-1.71,380,275,202,438,354
1020,0.9,-0.35,-0.29,0.43,-2.56,-2.99,378,278,208,442,354
1021,0.89,-0.37,-0.32,0.37,-2.69,-2.26,379,276,203,441,354
1022,0.87,-0.37,-0.31,0.55,-3.17,-2.44,378,277,208,442,354
1023,0.88,-0.37,-0.31,-0.06,-2.87,-1.4,405,292,204,437,352
1024,0.87,-0.38,-0.31,-0.06,-2.26,-1.4,380,279,205,441,354
1025,0.88,-0.38,-0.3,0.0,-3.48,-3.72,379,281,201,439,355
1026,1.0,-0.3,-0.33,28.08,-8.85,-8.12,228,247,165,411,356
1027,0.79,-0.38,-0.49,64.27,-43.46,-5.43,405,262,159,428,319
1028,0.78,-0.46,-0.4,27.1,-4.39,-3.42,410,259,154,433,333
1029,0.82,-0.49,-0.4,7.45,-3.36,-6.9,408,261,158,435,336
1030,0.77,-0.49,-0.38,0.49,-8.97,2.81,406,259,161,441,339
1031,0.78,-0.47,-0.4,-1.1,-4.09,-2.26,403,259,164,442,342
1032,0.77,-0.48,-0.39,3.42,-2.08,-2.26,399,262,168,434,343
1033,0.77,-0.49,-0.4,0.43,-3.54,-1.95,427,261,162,441,340
1034,0.77,-0.48,-0.42,1.22,-2.99,-2.93,394,260,165,446,344
1035,0.75,-0.48,-0.41,-2.01,-1.53,-4.27,394,259,166,435,345
1036,0.76,-0.48,-0.42,1.16,-2.32,-1.16,395,260,168,438,344
1037,0.77,-0.48,-0.41,-0.49,-1.95,-1.46,392,261,166,444,340
1038,0.77,-0.47,-0.42,-1.71,-3.23,-1.53,385,258,168,441,342
1039,0.77,-0.48,-0.42,-0.98,-2.2,-3.48,388,259,168,443,346
1040,0.77,-0.47,-0.42,0.49,-3.6,-2.81,388,261,169,441,345
1041,0.76,-0.47,-0.42,-0.37,-3.11,-1.77,387,262,169,442,346
1042,0.77,-0.48,-0.43,0.24,-1.83,-3.97,387,259,168,442,342
1043,0.77,-0.46,-0.41,2.44,-1.1,-1.89,387,260,172,443,347
1044,0.78,-0.48,-0.42,2.14,-2.93,-2.32,387,258,168,440,346
1045,0.77,-0.47,-0.4,0.92,-2.81,-3.42,383,259,174,441,349
1046,0.78,-0.48,-0.4,0.0,-3.42,-2.5,387,259,173,441,348
1047,0.78,-0.49,-0.39,-1.53,-2.81,-3.11,379,259,174,442,346
1048,0.78,-0.48,-0.4,0.73,-2.93,-1.77,384,260,174,446,342
1049,0.77,-0.48,-0.4,0.31,-2.5,-2.93,385,260,174,442,348
1050,0.79,-0.47,-0.39,-0.43,-2.32,-2.75,383,261,172,442,348
1051,0.79,-0.47,-0.41,0.55,-2.69,-2.56,384,259,171,445,344
1052,0.78,-0.47,-0.4,2.01,-1.77,-3.3,381,260,174,444,347
1053,0.78,-0.47,-0.4,0.67,-2.62,-2.81,384,260,171,443,347
1054,0.79,-0.46,-0.39,0.43,-2.08,-2.14,387,264,171,446,346
1055,0.78,-0.47,-0.39,0.98,-3.17,-2.69,384,258,175,446,343
1056,0.79,-0.47,-0.39,0.49,-3.17,-3.54,380,259,175,442,348
1057,0.79,-0.48,-0.4,-1.89,-2.2,-2.87,384,261,174,439,351
1058,0.79,-0.47,-0.4,1.04,-3.36,-3.17,381,264,171,447,346
1059,0.79,-0.47,-0.4,-0.49,-3.85,-3.05,385,260,173,445,347
1060,0.83,-0.48,-0.45,0.31,-2.2,-3.23,385,263,176,444,347
1061,0.79,-0.47,-0.4,0.61,-1.46,-3.85,385,262,179,437,351
1062,0.78,-0.47,-0.39,1.34,-3.17,-2.14,383,261,173,443,351
1063,0.79,-0.46,-0.39,0.06,-2.2,-2.87,386,260,177,445,350
1064,0.79,-0.47,-0.4,0.85,-2.81,-2.32,387,262,177,442,351
1065,0.78,-0.46,-0.39,0.85,-2.5,-1.95,385,262,176,443,354
1066,0.78,-0.47,-0.37,-1.53,-1.65,-3.91,387,261,177,445,350
1067,0.8,-0.47,-0.41,0.67,-2.2,-2.99,381,257,180,438,350
1068,0.8,-0.46,-0.4,0.18,-2.01,-2.62,385,263,179,441,353
1069,0.8,-0.45,-0.39,0.24,-2.62,-2.56,381,264,179,444,353
1070,0.8,-0.45,-0.38,1.04,-2.44,-2.99,384,269,179,444,355
1071,0.8,-0.46,-0.38,0.79,-2.62,-2.99,383,262,182,441,355
1072,0.81,-0.49,-0.39,-0.24,-2.2,-3.05,379,267,177,444,355
1073,0.8,-0.46,-0.39,0.24,-2.87,-2.62,382,262,180,445,354
1074,0.8,-0.46,-0.39,-0.37,-3.6,-2.56,380,261,180,447,353
1075,0.79,-0.45,-0.39,0.31,-3.54,-2.56,381,264,182,443,354
1076,0.79,-0.45,-0.4,0.49,-2.26,-3.17,380,262,178,453,353
1077,0.79,-0.44,-0.39,0.92,-2.81,-1.77,378,267,179,440,354
1078,0.8,-0.46,-0.38,-1.65,-2.44,-3.05,379,264,179,439,349
1079,0.8,-0.45,-0.4,1.65,-3.11,-2.44,388,264,179,446,353
1080,0.8,-0.45,-0.38,-0.55,-2.87,-2.81,378,260,180,444,353
1081,0.8,-0.46,-0.39,-1.77,-3.48,-3.54,379,262,183,444,353
1082,0.79,-0.47,-0.38,0.0,0.98,-4.27,380,261,181,456,355
1083,0.78,-0.47,-0.39,3.85,-2.44,-2.62,380,263,185,443,352
1084,0.82,-0.49,-0.41,0.12,-0.85,-0.98,377,262,182,448,355
1085,0.81,-0.48,-0.39,-0.49,0.61,-12.76,381,263,183,444,355
1086,0.81,-0.44,-0.41,-3.72,-2.93,-3.85,382,263,185,443,353
1087,0.8,-0.45,-0.42,-2.2,-3.97,-1.46,381,265,184,442,354
1088,0.8,-0.43,-0.4,11.11,-5.55,-5.37,381,264,183,438,350
1089,0.8,-0.42,-0.37,-2.38,-0.12,-1.83,381,264,182,446,353
1090,0.8,-0.39,-0.35,-5.62,3.6,-6.16,380,264,185,445,355
1091,0.8,-0.41,-0.36,-1.83,-3.23,0.06,381,264,181,440,353
1092,0.83,-0.43,-0.42,1.04,-2.99,-1.53,381,261,180,446,351
1093,0.81,-0.43,-0.39,0.67,-2.26,-0.85,382,262,185,442,354
1094,0.81,-0.43,-0.39,0.24,-2.08,-1.46,381,262,183,442,353
1095,0.81,-0.42,-0.37,-1.59,-3.05,-3.17,383,265,185,438,355
1096,0.8,-0.42,-0.37,0.79,-2.81,-1.59,383,263,183,444,352
1097,0.82,-0.43,-0.39,-0.24,-1.77,-3.48,379,266,181,445,348
1098,0.83,-0.43,-0.39,-0.73,-3.97,-5.0,387,266,183,445,354
1099,0.82,-0.41,-0.39,0.92,-4.46,-3.23,381,266,183,442,353
1100,0.83,-0.42,-0.39,4.27,-2.08,0.06,376,264,185,441,353
1101,0.82,-0.42,-0.38,-0.85,-3.54,-3.3,383,265,183,442,352
1102,0.81,-0.42,-0.37,-2.26,-3.42,-1.83,381,264,186,445,353
1103,0.83,-0.41,-0.38,0.06,-1.59,-2.14,380,265,183,438,354
1104,0.82,-0.4,-0.37,-1.95,-2.69,-0.79,380,266,183,442,351
1105,0.82,-0.41,-0.38,-0.12,-1.77,-2.08,379,266,185,438,354
1106,0.81,-0.41,-0.35,-2.44,-6.96,-2.81,382,265,185,445,357
1107,0.86,-0.39,-0.36,-1.77,-6.77,-6.59,382,264,181,445,356
1108,0.81,-0.41,-0.41,-0.98,-2.26,-5.31,375,268,183,444,355
1109,0.79,-0.41,-0.44,-12.08,2.32,-0.55,377,270,187,440,353
1110,0.79,-0.44,-0.42,-0.24,-3.48,-5.86,374,262,188,437,353
1111,0.85,-0.4,-0.38,0.43,2.26,1.46,374,265,184,438,355
1112,0.85,-0.41,-0.42,-13.67,1.65,-7.45,376,267,183,441,353
1113,0.82,-0.46,-0.44,1.89,-0.98,-1.16,376,265,183,446,355
1114,0.82,-0.42,-0.32,2.87,-2.75,3.66,375,267,184,445,354
1115,0.85,-0.42,-0.34,1.83,-2.08,-1.77,375,263,185,440,353
1116,0.85,-0.43,-0.34,0.31,-2.93,-2.14,373,268,184,444,355
1117,0.83,-0.42,-0.32,0.92,-1.4,-2.5,375,265,186,439,353
1118,0.82,-0.44,-0.32,-0.12,-4.82,-3.72,378,266,185,442,354
1119,0.84,-0.43,-0.35,1.34,-1.34,-4.03,373,269,184,441,353
1120,0.84,-0.42,-0.33,0.73,-3.23,-3.36,375,265,187,437,356
1121,0.85,-0.43,-0.34,2.14,-3.48,-3.54,374,264,186,441,354
1122,0.85,-0.43,-0.33,1.83,-3.48,-3.6,376,268,186,444,354
1123,0.86,-0.44,-0.38,-0.06,-0.37,-3.91,375,265,187,445,353
1124,0.84,-0.42,-0.31,-0.49,-4.21,-1.59,377,265,188,445,353
1125,0.86,-0.43,-0.33,3.23,-2.62,-3.42,375,267,183,441,354
1126,0.84,-0.43,-0.32,-0.98,-3.78,-2.75,375,270,185,442,351
1127,0.84,-0.43,-0.32,0.18,-3.91,-2.75,378,267,189,442,354
1128,0.84,-0.43,-0.32,-0.55,-1.95,-3.48,375,265,195,445,353
1129,0.84,-0.43,-0.31,0.0,-2.32,-2.69,376,265,196,441,354
1130,0.84,-0.43,-0.31,0.92,-2.44,-2.75,377,265,187,439,357
1131,0.85,-0.43,-0.31,0.0,-3.36,-3.23,376,269,187,441,351
1132,0.82,-0.44,-0.31,-1.53,-4.39,-1.95,377,265,187,453,355
1133,0.78,-0.44,-0.31,7.08,-2.62,-4.7,374,260,191,441,354
1134,0.83,-0.43,-0.27,-0.18,0.18,-2.5,374,268,190,456,355
1135,0.83,-0.44,-0.34,-2.44,-1.4,2.2,372,266,189,442,355
1136,0.84,-0.42,-0.31,-1.77,-1.34,-3.11,376,266,200,441,353
1137,0.85,-0.42,-0.3,0.37,-3.48,-1.89,376,266,188,439,356
1138,0.86,-0.42,-0.3,3.05,-2.14,-2.44,378,267,191,445,352
1139,0.89,-0.44,-0.31,0.12,-2.81,-3.3,376,267,189,445,354
1140,0.86,-0.42,-0.3,1.59,-5.0,-1.28,372,269,186,439,355
1141,0.86,-0.42,-0.3,1.46,-2.2,-3.48,378,265,183,442,350
1142,0.85,-0.43,-0.3,2.44,-2.75,-3.17,378,265,188,442,355
1143,0.85,-0.42,-0.3,0.0,-3.66,-3.17,376,268,185,442,352
1144,0.85,-0.42,-0.29,0.85,-2.01,-2.87,376,264,189,443,355
1145,0.85,-0.43,-0.29,1.04,-2.69,-2.93,375,265,188,436,347
1146,0.84,-0.43,-0.29,1.04,-6.16,-2.62,379,266,189,443,353
1147,0.85,-0.42,-0.3,-0.37,-2.32,-1.22,378,266,190,445,356
1148,0.85,-0.42,-0.3,-0.55,-3.42,-2.75,378,266,191,443,351
1149,0.85,-0.43,-0.31,1.1,-3.66,-3.97,377,265,188,436,351
1150,0.84,-0.42,-0.31,0.73,-2.69,-2.01,376,269,186,442,355
1151,0.83,-0.43,-0.31,-1.83,-2.44,-1.59,378,266,188,442,354
1152,0.84,-0.43,-0.29,-1.59,-2.93,-2.69,376,264,184,436,353
1153,0.84,-0.47,-0.31,-0.18,-4.82,-6.9,374,269,186,445,352
1154,0.88,-0.42,-0.31,0.61,-2.99,-2.93,379,268,197,438,356
1155,0.87,-0.42,-0.31,0.49,-3.3,-2.81,375,269,191,442,356
1156,0.85,-0.42,-0.29,1.95,-0.79,-0.85,377,268,190,445,355
1157,0.84,-0.42,-0.28,1.71,-2.2,0.79,378,265,192,442,355
1158,0.87,-0.42,-0.31,-1.04,0.61,-0.18,379,265,186,440,355
1159,0.87,-0.42,-0.32,0.85,-3.85,-3.17,376,265,190,450,365
1160,0.87,-0.42,-0.31,-1.71,-2.01,-3.42,379,265,188,441,356
1161,0.86,-0.42,-0.3,-0.61,-2.81,-2.01,378,265,190,454,354
1162,0.85,-0.42,-0.3,-1.46,-2.69,-2.2,375,268,191,443,352
1163,0.8,-0.44,-0.28,-1.89,-2.62,-2.08,379,265,188,440,354
1164,0.85,-0.44,-0.34,-0.79,-3.3,-3.48,378,264,189,444,350
1165,0.85,-0.43,-0.31,-4.03,-2.81,-0.06,378,269,187,442,354
1166,0.84,-0.43,-0.3,-3.78,-3.85,1.16,378,263,193,442,353
1167,0.85,-0.43,-0.3,-2.56,-5.55,0.61,375,268,189,447,353
1168,0.86,-0.44,-0.3,3.11,1.53,-0.24,376,266,193,438,354
1169,0.83,-0.45,-0.3,-2.56,-3.3,-4.76,377,268,189,446,357
1170,0.81,-0.44,-0.29,1.34,-4.58,-4.33,377,266,192,445,353
1171,0.83,-0.44,-0.31,-0.43,-4.52,-2.56,378,266,189,445,350
1172,0.83,-0.44,-0.31,-3.6,-2.69,-3.42,379,268,188,441,350
1173,0.86,-0.45,-0.34,0.73,-2.87,-2.5,380,270,191,438,352
1174,0.86,-0.43,-0.31,-0.67,-3.05,-4.09,375,268,193,443,353
1175,0.87,-0.43,-0.32,0.37,0.12,-3.42,380,266,189,438,354
1176,0.86,-0.43,-0.3,0.85,-2.32,-2.69,372,266,190,441,355
1177,0.86,-0.43,-0.29,0.18,-2.5,-2.99,378,268,190,442,352
1178,0.85,-0.43,-0.3,-0.92,-3.54,-2.62,383,269,187,442,353
1179,0.86,-0.44,-0.29,-0.24,-2.99,-2.56,396,266,187,437,355
1180,0.85,-0.44,-0.3,-1.4,-4.64,-1.59,379,270,192,447,347
1181,0.84,-0.44,-0.3,-0.73,-3.78,-1.95,381,263,185,442,355
1182,0.84,-0.43,-0.29,-0.55,-2.14,-2.69,377,268,190,437,352
1183,0.84,-0.44,-0.29,1.53,-2.2,-2.99,378,266,190,443,353
1184,0.85,-0.44,-0.29,0.85,-2.44,-3.42,375,265,193,442,353
1185,0.85,-0.44,-0.29,1.04,-2.75,-3.05,382,264,190,442,357
1186,0.85,-0.44,-0.29,-0.06,-3.17,-2.38,378,267,190,437,353
1187,0.85,-0.44,-0.3,0.06,-2.62,-3.3,377,265,194,442,354
1188,0.85,-0.43,-0.3,0.92,-3.23,-2.81,374,266,194,442,352
1189,0.85,-0.43,-0.3,-0.06,-3.48,-3.17,376,268,194,442,355
1190,0.85,-0.43,-0.31,1.53,-1.04,-3.17,373,267,193,443,353
1191,0.85,-0.42,-0.3,2.01,-2.5,-2.14,377,266,195,437,347
1192,0.87,-0.42,-0.3,2.93,-0.73,-2.01,378,267,193,441,354
1193,0.86,-0.42,-0.29,0.85,-1.71,-1.71,377,268,193,442,355
1194,0.86,-0.43,-0.29,1.89,-3.11,-2.26,378,266,193,437,351
1195,0.87,-0.42,-0.29,0.55,-3.97,-2.99,373,267,193,443,353
1196,0.86,-0.42,-0.3,1.1,-4.09,-3.23,374,267,191,440,353
1197,0.86,-0.42,-0.31,1.53,-0.85,-3.54,374,267,201,444,352
1198,0.86,-0.42,-0.3,-0.12,-2.38,-3.6,363,267,192,442,351
1199,0.87,-0.42,-0.3,0.85,-2.81,-1.53,376,267,193,442,354
1200,0.87,-0.42,-0.31,0.92,-2.81,-4.09,373,266,192,451,351
1201,0.86,-0.42,-0.29,1.34,-3.3,-3.23,373,267,192,444,351
1202,0.85,-0.42,-0.29,0.12,-3.3,-3.3,373,267,192,442,352
1203,0.85,-0.42,-0.31,-0.67,-4.39,-3.05,374,269,194,443,355
1204,0.85,-0.41,-0.31,0.18,-3.3,-2.32,375,267,190,447,352
1205,0.85,-0.42,-0.31,0.24,-2.62,-2.32,374,269,191,457,354
1206,0.85,-0.42,-0.31,1.89,-2.01,-2.14,375,266,189,446,352
1207,0.85,-0.41,-0.3,-0.43,-2.56,-2.44,376,270,192,448,353
1208,0.86,-0.41,-0.3,0.12,-3.23,-1.71,375,269,195,445,351
1209,0.85,-0.41,-0.3,0.43,-3.05,-2.01,373,267,192,445,354
1210,0.85,-0.42,-0.3,0.61,-3.05,-2.32,376,271,193,442,354
1211,0.85,-0.41,-0.3,1.04,-4.09,-2.62,377,269,193,442,353
1212,0.86,-0.41,-0.32,1.59,-2.93,-2.32,376,269,191,445,353
1213,0.88,-0.43,-0.33,-0.31,-2.5,-3.78,373,268,192,443,352
1214,0.86,-0.41,-0.32,1.59,-3.05,-2.69,373,268,192,446,351
1215,0.85,-0.41,-0.3,1.4,-1.89,-2.99,375,269,191,442,352
1216,0.86,-0.41,-0.3,0.85,-2.75,-2.75,375,269,195,441,354
1217,0.86,-0.41,-0.32,1.95,-3.54,-2.14,375,268,193,442,350
1218,0.87,-0.41,-0.32,-0.06,-4.09,-2.5,375,268,193,444,354
1219,0.86,-0.41,-0.32,0.92,-4.21,-2.69,372,270,193,443,354
1220,0.86,-0.41,-0.32,1.59,-2.2,-2.44,376,269,193,446,350
1221,0.87,-0.41,-0.31,1.16,-2.5,-2.62,377,267,190,455,354
1222,0.86,-0.41,-0.3,-0.24,-2.69,-2.62,383,269,194,442,354
1223,0.86,-0.41,-0.31,-0.61,-2.38,-2.62,377,267,190,448,355
1224,0.84,-0.39,-0.3,1.89,-2.2,-2.56,375,267,192,442,349
1225,0.86,-0.4,-0.31,0.73,-3.23,-2.93,374,270,195,442,352
1226,0.86,-0.4,-0.31,1.53,-4.52,-2.62,375,267,196,446,353
1227,0.86,-0.4,-0.32,1.65,-3.23,-2.38,374,270,190,445,352
1228,0.86,-0.41,-0.31,0.73,-2.01,-2.5,376,268,189,443,348
1229,0.86,-0.41,-0.31,0.18,-2.87,-2.87,388,268,190,442,355
1230,0.85,-0.41,-0.31,0.24,-2.44,-2.08,374,268,192,446,357
1231,0.85,-0.41,-0.3,1.95,-2.32,-2.14,377,278,196,440,353
1232,0.84,-0.41,-0.31,-1.28,-4.21,-1.34,379,267,192,440,355
1233,0.85,-0.41,-0.31,-0.43,-3.85,-2.32,377,268,196,442,352
1234,0.86,-0.41,-0.31,-0.98,-2.32,-2.08,374,280,193,441,355
1235,0.86,-0.41,-0.31,0.0,-1.59,-2.01,377,268,190,438,353
1236,0.85,-0.41,-0.31,2.32,-2.56,-2.32,382,270,193,444,352
1237,0.86,-0.41,-0.3,1.71,-2.38,-2.32,378,269,194,443,353
1238,0.86,-0.42,-0.32,-0.18,-4.58,-4.88,380,272,192,442,351
1239,0.86,-0.41,-0.31,0.43,-4.58,-3.48,390,272,192,445,353
1240,0.84,-0.41,-0.3,-2.44,-6.1,-5.13,387,272,193,440,355
1241,0.85,-0.4,-0.3,-0.79,-3.85,-2.99,387,275,196,445,353
1242,0.87,-0.4,-0.31,2.62,-1.59,-2.99,384,272,197,437,354
1243,0.86,-0.41,-0.3,1.89,-2.69,-2.99,387,269,192,440,354
1244,0.86,-0.41,-0.31,1.34,-2.56,-2.99,386,273,193,441,353
1245,0.86,-0.4,-0.3,-0.37,-3.6,-1.89,386,274,193,442,352
1246,0.86,-0.41,-0.31,-0.12,-3.54,-3.42,383,270,194,444,353
1247,0.86,-0.4,-0.3,-1.22,-4.09,-2.69,393,276,192,438,353
1248,0.85,-0.4,-0.31,0.31,-2.5,-1.16,386,272,193,443,352
1249,0.86,-0.4,-0.31,0.06,-1.89,-2.62,390,274,197,441,353
1250,0.86,-0.4,-0.3,0.92,-1.83,-1.89,386,274,195,446,352
1251,0.87,-0.39,-0.3,-0.06,-2.62,-1.22,384,273,194,437,353
1252,0.87,-0.4,-0.3,0.31,-3.6,-1.89,386,271,194,443,351
1253,0.87,-0.4,-0.32,-1.4,-2.93,-3.85,386,274,194,454,354
1254,0.87,-0.39,-0.32,0.92,-5.25,-1.22,388,276,196,447,351
1255,0.85,-0.39,-0.33,-0.85,-3.3,-2.32,388,275,194,446,351
1256,0.85,-0.39,-0.32,0.12,-1.83,-2.56,385,272,194,441,355
1257,0.86,-0.39,-0.31,0.0,-4.27,-3.54,386,272,196,442,354
1258,0.86,-0.39,-0.3,-1.65,-2.32,-2.38,386,269,192,443,352
1259,0.86,-0.39,-0.31,-0.37,-2.99,-2.75,385,272,196,444,354
1260,0.85,-0.39,-0.29,0.43,-2.38,-2.93,386,275,194,442,354
1261,0.85,-0.39,-0.3,0.24,-2.69,-2.87,386,279,195,445,354
1262,0.86,-0.39,-0.31,1.95,-2.2,-2.93,386,269,195,443,353
1263,0.86,-0.39,-0.31,0.37,-2.26,-2.5,384,272,194,439,356
1264,0.86,-0.4,-0.31,0.18,-3.42,-1.95,384,274,191,442,349
1265,0.86,-0.4,-0.31,-0.49,-3.17,-2.44,385,273,194,441,353
1266,0.86,-0.39,-0.31,-0.49,-4.15,-2.01,385,273,195,447,353
1267,0.86,-0.39,-0.31,0.37,-2.81,-2.26,384,272,195,442,352
1268,0.87,-0.39,-0.32,0.37,-2.01,-2.5,385,273,196,442,349
1269,0.86,-0.39,-0.31,-0.49,-2.87,-2.32,387,273,195,444,353
1270,0.85,-0.4,-0.32,0.18,-1.34,-2.87,387,271,194,437,353
1271,0.86,-0.4,-0.32,1.28,-2.32,-2.87,383,276,193,442,354
1272,0.89,-0.39,-0.31,-0.73,-2.81,-2.93,385,273,197,441,355
1273,0.86,-0.39,-0.32,-1.95,-4.46,-3.05,384,273,198,440,351
1274,0.86,-0.39,-0.33,-1.59,-3.11,-3.05,385,275,195,441,353
1275,0.86,-0.39,-0.3,0.06,-2.69,-2.2,383,271,193,438,354
1276,0.86,-0.4,-0.31,0.61,-3.05,-2.56,387,272,201,443,352
1277,0.86,-0.39,-0.31,0.55,-2.26,-2.99,380,274,193,441,353
1278,0.86,-0.39,-0.3,0.43,-2.5,-2.99,385,270,195,441,353
1279,0.86,-0.4,-0.31,0.73,-2.69,-2.69,385,276,191,445,353
1280,0.86,-0.39,-0.31,0.43,-3.11,-1.95,386,273,198,442,351
1281,0.86,-0.39,-0.3,-0.31,-3.36,-2.5,386,275,193,438,353
1282,0.86,-0.39,-0.31,-1.04,-4.21,-2.32,384,275,198,443,352
1283,0.85,-0.39,-0.32,-0.73,-3.11,-2.99,384,270,195,440,352
1284,0.86,-0.39,-0.32,0.37,-2.81,-2.81,379,272,197,441,350
1285,0.86,-0.39,-0.32,1.34,-2.56,-2.01,384,279,194,442,355
1286,0.86,-0.39,-0.31,0.67,-2.08,-3.23,379,272,195,442,355
1287,0.86,-0.39,-0.32,1.65,-2.93,-1.71,375,276,198,437,352
1288,0.87,-0.4,-0.33,0.85,-3.54,-1.89,379,275,190,439,355
1289,0.97,-0.42,-0.43,3.85,-9.16,1.95,383,275,195,441,352
1290,0.85,-0.39,-0.31,0.49,-2.87,-2.87,381,274,198,436,353
1291,0.87,-0.39,-0.31,0.55,-3.05,-2.62,381,275,194,444,350
1292,0.86,-0.39,-0.32,-0.12,-3.72,-1.77,381,275,196,440,354
1293,0.86,-0.39,-0.32,-0.31,-3.48,-2.56,379,276,196,441,353
1294,0.86,-0.4,-0.32,-0.24,-2.14,-2.26,381,276,198,444,353
1295,0.86,-0.39,-0.32,1.28,-2.5,-2.26,379,274,197,439,350
1296,0.86,-0.39,-0.31,0.85,-2.87,-2.32,382,277,193,437,355
1297,0.86,-0.39,-0.31,-1.83,-2.56,-2.5,378,275,196,440,351
1298,0.86,-0.4,-0.28,-0.85,-2.08,-2.38,380,275,192,444,354
1299,0.89,-0.41,-0.32,3.36,-4.58,-0.73,386,275,193,438,354
1300,0.86,-0.38,-0.3,1.89,-3.91,-1.89,380,274,195,436,354
1301,0.87,-0.39,-0.32,0.55,-4.09,-2.01,380,274,198,440,351
1302,0.86,-0.4,-0.33,-0.98,-1.77,-3.78,378,274,196,440,345
1303,0.86,-0.38,-0.31,-0.06,-2.62,-2.01,378,277,196,441,356
1304,0.86,-0.39,-0.3,1.22,-2.14,-2.5,378,276,196,438,355
1305,0.86,-0.39,-0.3,0.06,-2.44,-2.81,378,276,198,440,352
1306,0.87,-0.4,-0.32,-0.61,-2.75,-2.56,378,277,195,442,354
1307,0.86,-0.39,-0.31,-0.18,-2.44,-2.08,378,272,196,442,353
1308,0.87,-0.39,-0.31,0.98,-3.23,-2.56,377,273,196,441,353
1309,0.86,-0.39,-0.31,-0.06,-3.3,-1.83,377,274,195,437,354
1310,0.86,-0.39,-0.31,0.73,-3.66,-2.38,376,276,196,445,351
1311,0.87,-0.39,-0.33,1.4,-4.64,-1.59,378,275,201,441,354
1312,0.86,-0.38,-0.31,2.38,-1.22,-2.62,378,277,195,444,354
1313,0.86,-0.39,-0.32,1.71,-1.53,-2.93,379,274,198,442,354
1314,0.88,-0.41,-0.31,0.06,-2.99,-2.69,380,275,196,441,354
1315,0.86,-0.4,-0.31,-2.01,-2.62,-2.38,380,273,194,435,352
1316,0.87,-0.4,-0.32,-0.67,-3.6,-2.87,386,274,200,444,352
1317,0.87,-0.4,-0.32,1.16,-2.99,-2.93,379,272,192,438,354
1318,0.86,-0.4,-0.31,1.46,-2.32,-2.81,381,275,194,442,351
1319,0.86,-0.39,-0.31,1.22,-2.93,-1.89,375,274,196,437,356
1320,0.85,-0.39,-0.31,-0.55,-3.36,-2.81,380,282,196,442,354
1321,0.86,-0.4,-0.31,1.22,-2.75,-1.95,383,275,200,442,354
1322,0.87,-0.4,-0.32,-0.98,-2.69,-3.48,379,274,194,441,354
1323,0.87,-0.4,-0.31,0.49,-2.2,-3.3,379,273,196,438,354
1324,0.87,-0.4,-0.31,-0.43,-3.54,-3.6,380,277,195,444,358
1325,0.87,-0.39,-0.3,0.12,-2.56,-2.75,380,274,196,441,350
1326,0.86,-0.39,-0.3,0.0,-4.33,-2.75,376,286,198,442,353
1327,0.86,-0.39,-0.33,-0.67,-2.99,-2.26,391,273,195,441,353
1328,0.86,-0.39,-0.33,1.46,-1.22,-2.75,381,275,196,444,354
1329,0.86,-0.38,-0.31,1.83,-1.59,-2.32,380,278,198,440,354
1330,0.87,-0.39,-0.32,0.85,-1.77,-3.05,378,277,199,440,354
1331,0.86,-0.39,-0.31,2.44,-2.81,-2.2,375,273,199,444,355
1332,0.87,-0.39,-0.31,1.59,-2.62,-2.99,376,274,197,442,356
1333,0.86,-0.39,-0.31,-0.55,-2.75,-2.08,378,275,199,441,356
1334,0.86,-0.39,-0.31,1.04,-2.69,-1.4,378,288,197,441,351
1335,0.86,-0.39,-0.3,-0.06,-3.48,-2.75,377,275,197,440,357
1336,0.86,-0.39,-0.31,0.12,-4.21,-2.56,376,279,195,440,351
1337,0.85,-0.38,-0.31,-0.73,-3.6,-2.44,376,276,195,440,351
1338,0.86,-0.38,-0.33,-0.31,-2.56,-2.81,380,275,196,437,352
1339,0.86,-0.38,-0.32,-0.18,-2.81,-2.87,380,279,197,444,354
1340,0.86,-0.38,-0.32,-0.18,-2.81,-2.93,376,274,196,442,355
1341,0.86,-0.38,-0.32,2.08,-2.38,-2.08,371,276,196,436,354
1342,0.87,-0.39,-0.32,0.61,-2.44,-2.69,398,277,196,439,352
1343,0.87,-0.39,-0.32,-0.49,-2.5,-3.23,379,278,201,441,353
1344,0.86,-0.38,-0.31,2.2,-2.44,-3.05,378,275,195,437,352
1345,0.87,-0.38,-0.32,1.59,-3.72,-3.3,376,277,198,441,355
1346,0.86,-0.38,-0.32,-0.92,-3.66,-2.75,377,272,196,441,355
1347,0.86,-0.38,-0.32,-0.92,-3.42,-2.38,378,291,195,441,353
1348,0.87,-0.38,-0.34,1.53,-1.71,-3.72,376,278,200,445,354
1349,0.87,-0.39,-0.33,-0.24,-1.77,-2.75,377,275,197,439,354
1350,0.87,-0.38,-0.33,0.43,-2.75,-1.95,378,275,198,437,353
1351,0.86,-0.38,-0.31,0.49,-2.2,-2.87,378,275,200,443,353
1352,0.86,-0.39,-0.32,0.24,-2.75,-2.93,374,278,201,443,353
1353,0.86,-0.38,-0.31,0.24,-2.87,-2.14,378,275,200,441,353
1354,0.86,-0.38,-0.31,-0.43,-2.44,-2.08,379,274,198,440,349
1355,0.86,-0.38,-0.31,-0.55,-3.36,-2.5,374,276,197,441,353
1356,0.86,-0.38,-0.32,-0.92,-4.33,-2.62,377,279,200,442,354
1357,0.87,-0.38,-0.33,-0.06,-3.91,-3.42,378,276,200,445,352
1358,0.87,-0.38,-0.34,-0.85,-1.89,-2.81,382,275,197,440,354
1359,0.87,-0.38,-0.32,0.31,-1.28,-2.01,383,271,197,436,354
1360,0.87,-0.38,-0.31,2.2,-3.3,-1.83,372,276,200,436,356
1361,0.87,-0.38,-0.32,1.34,-3.17,-2.44,378,275,201,438,356
1362,0.86,-0.39,-0.32,-0.49,-2.56,-2.08,375,272,202,442,354
1363,0.87,-0.38,-0.32,0.55,-3.85,-3.11,374,275,200,441,353
1364,0.87,-0.38,-0.32,-0.55,-3.72,-2.99,377,275,195,444,351
1365,0.86,-0.38,-0.33,-0.31,-3.6,-2.44,415,275,198,445,355
1366,0.86,-0.38,-0.33,-0.18,-2.2,-2.44,378,274,199,441,351
1367,0.86,-0.38,-0.32,1.65,-2.32,-2.75,374,275,201,442,356
1368,0.87,-0.38,-0.31,0.67,-2.14,-2.44,378,278,197,440,351
1369,0.87,-0.38,-0.32,-0.37,-2.26,-2.2,377,276,200,442,351
1370,0.87,-0.38,-0.31,0.18,-4.27,-3.23,377,271,196,436,352
1371,0.86,-0.38,-0.32,0.92,-3.91,-3.23,378,276,195,440,355
1372,0.86,-0.37,-0.33,-1.77,-2.56,-2.44,375,278,195,444,354
1373,0.86,-0.38,-0.33,0.24,-2.26,-2.69,377,274,198,442,354
1374,0.87,-0.37,-0.31,1.4,-2.99,-2.14,377,277,200,444,351
1375,0.87,-0.37,-0.32,1.59,-1.95,-2.75,378,275,201,442,355
1376,0.87,-0.37,-0.32,-0.37,-2.87,-1.95,374,276,195,438,353
1377,0.87,-0.37,-0.32,1.16,-3.36,-2.56,378,278,196,443,350
1378,0.87,-0.37,-0.31,1.04,-3.17,-2.93,379,279,200,438,352
1379,0.87,-0.37,-0.32,-0.92,-3.97,-2.69,390,275,201,442,353
1380,0.87,-0.37,-0.34,0.55,-4.03,-2.38,372,278,199,442,350
1381,0.87,-0.37,-0.33,1.16,-2.56,-1.89,375,275,198,440,354
1382,0.86,-0.37,-0.33,0.61,-2.5,-2.44,379,277,204,444,355
1383,0.86,-0.37,-0.32,-0.55,-2.56,-2.99,379,276,198,439,352
1384,0.87,-0.37,-0.32,-0.79,-2.99,-2.38,377,279,197,442,355
1385,0.87,-0.37,-0.33,0.49,-3.11,-2.2,375,275,200,444,360
1386,0.87,-0.38,-0.34,1.22,-3.23,-2.26,379,277,201,444,354
1387,0.87,-0.37,-0.34,-0.37,-3.91,-2.81,379,276,201,441,351
1388,0.87,-0.37,-0.34,-0.49,-4.03,-3.17,376,277,198,442,355
1389,0.87,-0.37,-0.34,0.85,-2.44,-2.75,378,275,197,457,354
1390,0.86,-0.37,-0.32,0.55,-2.2,-2.44,376,278,198,446,354
1391,0.87,-0.37,-0.33,0.98,-1.95,-2.14,379,276,198,446,350
1392,0.87,-0.37,-0.32,0.12,-2.26,-1.95,378,278,202,443,355
1393,0.86,-0.38,-0.33,0.67,-2.32,-2.69,374,276,198,446,353
1394,0.86,-0.37,-0.32,-0.73,-5.13,-4.15,380,275,196,440,351
1395,0.87,-0.36,-0.32,-0.31,-3.78,-3.17,378,277,200,456,352
1396,0.87,-0.36,-0.33,1.22,-3.91,-2.62,379,276,201,446,354
1397,0.87,-0.37,-0.33,0.06,-2.38,-2.14,377,279,199,441,357
1398,0.86,-0.37,-0.33,-0.98,-3.17,-2.26,379,279,202,440,355
1399,0.87,-0.37,-0.33,0.43,-2.5,-2.38,377,276,193,438,355
1400,0.87,-0.37,-0.33,0.55,-2.62,-2.81,376,277,198,450,354
1401,0.87,-0.37,-0.33,-0.92,-2.56,-2.87,377,282,201,441,355
1402,0.87,-0.37,-0.33,1.83,-2.93,-3.42,376,277,199,437,354
1403,0.87,-0.37,-0.34,-0.18,-3.72,-2.62,376,278,198,443,354
1404,0.87,-0.37,-0.33,0.06,-2.93,-2.75,376,275,198,440,356
1405,0.87,-0.37,-0.33,1.1,-1.53,-3.05,377,278,202,440,353
1406,0.87,-0.36,-0.32,1.22,-2.2,-1.89,377,278,198,438,353
1407,0.88,-0.37,-0.33,0.98,-2.14,-2.62,376,279,199,436,352
1408,0.87,-0.37,-0.33,0.49,-2.81,-2.62,375,276,201,445,350
1409,0.87,-0.37,-0.32,0.61,-2.75,-2.69,376,286,202,436,353
1410,0.87,-0.37,-0.32,0.67,-2.81,-3.05,376,279,203,441,353
1411,0.87,-0.36,-0.33,2.14,-3.72,-2.32,377,277,197,437,353
1412,0.87,-0.36,-0.31,0.55,-3.17,-2.01,402,277,205,443,354
1413,0.87,-0.36,-0.33,1.83,-1.46,-3.54,374,276,201,436,351
1414,0.87,-0.37,-0.32,1.77,-1.53,-2.62,374,278,201,436,355
1415,0.87,-0.37,-0.32,-0.49,-2.14,-2.32,373,276,201,440,348
1416,0.87,-0.37,-0.32,-0.18,-2.75,-1.95,377,275,201,440,354
1417,0.87,-0.37,-0.32,-0.12,-2.2,-2.93,374,278,202,445,355
1418,0.87,-0.38,-0.33,2.14,-2.26,-2.69,375,274,198,446,353
1419,0.88,-0.37,-0.32,1.04,-3.66,-2.62,375,277,199,441,352
1420,0.88,-0.37,-0.33,-0.79,-3.36,-3.23,374,276,200,442,351
1421,0.86,-0.37,-0.33,-1.22,-1.53,-3.42,375,279,203,444,353
1422,0.87,-0.37,-0.33,-1.53,-2.44,-2.32,377,278,199,441,355
1423,0.87,-0.37,-0.33,-0.18,-2.56,-2.01,376,278,203,436,354
1424,0.87,-0.37,-0.32,0.85,-2.14,-2.2,374,276,199,441,353
1425,0.87,-0.37,-0.32,1.71,-2.87,-1.95,377,277,202,443,352
1426,0.87,-0.36,-0.31,0.55,-2.01,-2.56,375,276,202,444,354
1427,0.86,-0.37,-0.32,1.1,-3.42,-3.11,379,277,197,440,355
1428,0.91,-0.38,-0.34,-0.55,-5.49,-3.11,374,279,202,441,352
1429,0.87,-0.38,-0.35,-1.04,-3.78,-2.75,372,279,201,439,351
1430,0.87,-0.37,-0.32,1.4,-1.22,-2.99,377,280,203,435,353
1431,0.89,-0.37,-0.32,1.04,-2.5,-3.66,378,278,202,441,352
1432,0.88,-0.39,-0.32,-1.16,-1.89,-3.11,379,280,198,439,353
1433,0.86,-0.38,-0.29,1.4,-0.73,0.49,376,276,199,441,352
1434,0.87,-0.38,-0.31,-1.04,-2.62,-1.28,379,276,201,443,353
1435,0.88,-0.38,-0.32,1.89,-4.03,-1.77,377,277,199,442,354
1436,0.85,-0.38,-0.32,2.5,-3.42,-1.89,375,280,200,442,357
1437,0.86,-0.37,-0.33,0.24,-3.97,-2.93,379,279,199,439,354
1438,0.86,-0.37,-0.34,2.75,-1.28,-1.04,397,279,201,442,354
1439,0.88,-0.37,-0.34,2.2,-2.26,-2.87,378,278,199,440,355
1440,0.87,-0.37,-0.33,2.38,-1.89,-1.95,377,276,216,442,355
1441,0.85,-0.36,-0.29,3.91,2.56,-1.83,372,277,203,436,355
1442,0.86,-0.37,-0.31,-0.79,-1.95,-1.4,378,279,199,445,354
1443,0.88,-0.36,-0.3,-0.49,-2.5,-2.08,380,276,202,442,354
1444,0.87,-0.37,-0.33,0.79,-3.97,-3.23,377,274,201,445,354
1445,0.87,-0.37,-0.34,0.0,-4.33,-3.17,376,274,198,435,354
1446,0.87,-0.37,-0.34,-0.12,-4.27,-2.5,379,279,199,444,355
1447,0.87,-0.37,-0.33,-0.61,-2.5,-2.2,375,277,198,441,354
1448,0.87,-0.37,-0.32,-0.31,-2.69,-2.2,380,278,201,444,354
1449,0.88,-0.36,-0.33,-0.06,-1.83,-3.42,376,278,203,445,354
1450,0.88,-0.38,-0.34,0.67,-3.72,-4.46,377,277,202,441,353
1451,0.88,-0.37,-0.34,14.89,-4.76,-6.9,379,278,202,437,356
1452,0.88,-0.36,-0.32,0.92,-3.72,-2.01,379,281,191,440,354
1453,0.88,-0.36,-0.31,1.53,-2.75,-2.2,379,279,199,444,349
1454,0.89,-0.37,-0.34,-3.36,-6.41,-7.69,376,279,201,452,357
1455,0.87,-0.37,-0.35,-9.7,1.71,-6.16,378,276,200,436,353
1456,0.86,-0.38,-0.28,8.61,-2.93,0.61,379,276,203,444,348
1457,0.88,-0.38,-0.29,-0.31,-2.69,-1.59,377,277,207,436,352
1458,0.88,-0.36,-0.28,1.89,-4.82,-0.49,379,276,199,445,353
1459,0.85,-0.38,-0.28,6.59,-2.56,-0.79,377,279,199,440,354
1460,0.86,-0.39,-0.32,-2.99,-2.75,-0.37,377,277,203,446,352
1461,0.86,-0.39,-0.3,-1.22,-2.5,-1.77,380,277,202,441,356
1462,0.87,-0.38,-0.29,0.06,-3.42,-3.42,376,277,203,441,353
1463,0.87,-0.39,-0.31,-1.95,-3.23,-3.17,380,280,198,441,352
1464,0.87,-0.39,-0.31,0.85,-3.23,-2.69,379,279,199,442,352
1465,0.87,-0.39,-0.31,0.18,-3.42,-1.95,377,276,198,442,355
1466,0.87,-0.39,-0.31,1.4,-2.81,-2.75,377,276,203,443,353
1467,0.84,-0.4,-0.29,0.98,-1.77,-3.72,378,277,201,436,352
1468,0.87,-0.38,-0.3,-1.77,-2.62,-2.32,375,278,201,445,352
1469,0.86,-0.36,-0.28,2.62,-3.36,-2.93,381,279,200,441,358
1470,0.88,-0.37,-0.3,1.22,-3.66,-1.83,377,276,200,441,351
1471,0.88,-0.37,-0.31,0.98,-4.09,-1.53,385,277,200,442,355
1472,0.87,-0.37,-0.32,-1.59,-3.36,-2.01,381,280,203,440,359
1473,0.86,-0.36,-0.31,0.98,-4.88,-3.23,380,280,201,436,350
1474,0.88,-0.37,-0.31,-0.61,-2.38,-3.17,379,279,202,438,354
1475,0.88,-0.38,-0.31,-2.56,-1.71,-3.36,374,277,201,440,355
1476,0.88,-0.37,-0.32,-0.85,-2.08,-2.62,378,278,201,440,350
1477,0.88,-0.36,-0.31,-0.73,-3.3,-2.69,378,284,201,440,354
1478,0.88,-0.35,-0.3,-0.67,-2.75,-1.59,375,280,200,443,354
1479,0.87,-0.37,-0.3,-2.32,-2.08,-1.77,379,278,199,440,357
1480,0.88,-0.37,-0.32,-2.08,-2.93,-1.77,379,279,204,444,354
1481,0.88,-0.37,-0.3,-2.81,-2.87,-1.95,378,281,200,441,355
1482,0.88,-0.36,-0.31,0.85,-2.69,-1.77,372,275,204,445,355
1483,0.88,-0.36,-0.31,-0.37,-3.48,-1.89,383,279,197,439,351
1484,0.88,-0.36,-0.31,0.61,-3.48,-2.32,377,277,204,445,354
1485,0.87,-0.36,-0.3,-1.4,-3.17,-2.32,377,277,202,437,354
1486,0.88,-0.36,-0.31,0.18,-2.87,-2.69,374,276,202,439,351
1487,0.88,-0.36,-0.31,1.16,-2.87,-2.62,377,279,200,444,356
1488,0.88,-0.35,-0.31,0.98,-3.23,-2.62,378,275,203,437,354
1489,0.88,-0.35,-0.31,-0.37,-4.09,-2.62,382,278,202,440,353
1490,0.88,-0.36,-0.32,-2.01,-1.65,-4.15,379,276,203,444,353
1491,0.88,-0.35,-0.32,-0.49,-2.5,-2.75,382,277,199,442,354
1492,0.88,-0.36,-0.32,1.46,-2.08,-2.14,379,278,201,439,352
1493,0.88,-0.35,-0.31,0.55,-1.95,-3.17,377,281,204,440,354
1494,0.88,-0.36,-0.32,-0.55,-2.62,-2.38,378,280,200,447,356
1495,0.87,-0.35,-0.3,-0.12,-2.81,-2.08,377,277,200,445,349
1496,0.88,-0.36,-0.31,0.98,-2.56,-2.69,379,272,201,446,358
1497,0.88,-0.36,-0.31,0.31,-3.48,-2.69,385,277,201,444,358
1498,0.89,-0.35,-0.32,-0.06,-3.97,-2.87,373,279,201,440,354
1499,0.88,-0.35,-0.32,0.85,-3.91,-2.99,377,277,199,446,355
1500,0.88,-0.36,-0.33,-0.49,-2.44,-2.62,376,282,201,440,357
1501,0.87,-0.34,-0.31,0.98,-3.05,-1.77,375,277,204,441,353
1502,0.88,-0.35,-0.31,1.04,-2.38,-2.2,376,275,204,443,352
1503,0.87,-0.35,-0.3,0.85,-1.28,-1.83,373,277,201,444,350
1504,0.88,-0.35,-0.31,1.04,-3.17,-2.08,373,278,204,441,350
1505,0.87,-0.35,-0.31,0.61,-2.62,-1.89,376,276,203,440,353
1506,0.87,-0.35,-0.31,-0.73,-4.94,-2.87,376,280,203,438,354
1507,0.89,-0.36,-0.33,-0.73,-3.66,-3.17,388,278,205,443,357
1508,0.88,-0.35,-0.33,0.67,-3.6,-3.23,376,276,202,437,360
1509,0.88,-0.38,-0.3,-1.46,-0.61,-3.72,376,278,200,437,354
1510,0.87,-0.35,-0.32,-0.31,-0.79,-3.6,378,276,204,441,355
1511,0.87,-0.34,-0.3,0.61,-3.48,-1.65,372,278,203,445,355
1512,0.88,-0.35,-0.32,0.73,-1.89,-2.38,376,280,200,440,354
1513,0.86,-0.34,-0.27,0.73,0.0,-0.73,376,277,200,441,347
1514,0.89,-0.34,-0.31,-1.16,-2.56,-3.97,377,276,202,438,355
1515,0.88,-0.35,-0.31,-2.14,-1.83,-4.27,376,277,204,443,357
1516,0.89,-0.35,-0.33,-0.31,-2.99,-2.62,377,276,202,455,355
1517,0.88,-0.34,-0.32,0.73,-2.69,-2.5,377,277,206,435,355
1518,0.89,-0.35,-0.32,0.98,-2.5,-1.77,379,277,201,444,355
1519,0.89,-0.35,-0.32,0.98,-3.3,-2.93,377,277,202,438,357
1520,0.88,-0.35,-0.33,1.28,-3.42,-2.87,374,277,201,437,356
1521,0.88,-0.35,-0.32,1.16,-2.93,-2.81,378,277,203,441,352
1522,0.9,-0.35,-0.33,0.61,-2.26,0.24,378,274,203,441,352
1523,0.89,-0.37,-0.31,2.69,-1.16,-2.75,376,276,202,430,348
1524,0.86,-0.36,-0.27,-3.23,-3.48,-2.62,377,277,202,441,355
1525,0.89,-0.37,-0.29,-0.31,-1.34,-1.04,376,280,206,445,354
1526,0.89,-0.36,-0.29,-0.31,-3.97,-5.31,375,278,203,443,355
1527,0.89,-0.34,-0.28,2.75,-2.14,-3.42,372,279,204,445,356
1528,0.89,-0.35,-0.32,-0.24,-4.39,-2.62,375,276,203,442,354
1529,0.88,-0.36,-0.31,1.77,-2.62,-1.65,374,280,201,438,356
1530,0.88,-0.36,-0.3,0.67,-2.62,-1.77,377,280,202,444,360
1531,0.87,-0.37,-0.3,-0.61,-3.05,-2.2,376,289,199,439,356
1532,0.87,-0.36,-0.27,2.81,-2.5,-1.71,380,275,202,438,354
1533,0.9,-0.35,-0.29,0.43,-2.56,-2.99,378,278,208,442,354
1534,0.89,-0.37,-0.32,0.37,-2.69,-2.26,379,276,203,441,354
1535,0.87,-0.37,-0.31,0.55,-3.17,-2.44,378,277,208,442,354
1536,0.88,-0.37,-0.31,-0.06,-2.87,-1.4,405,292,204,437,352
1537,0.87,-0.38,-0.31,-0.06,-2.26,-1.4,380,279,205,441,354
1538,0.88,-0.38,-0.3,0.0,-3.48,-3.72,379,281,201,439,355
1539,1.0,-0.3,-0.33,28.08,-8.85,-8.12,228,247,165,411,356
1540,0.79,-0.38,-0.49,64.27,-43.46,-5.43,405,262,159,428,319
1541,0.78,-0.46,-0.4,27.1,-4.39,-3.42,410,259,154,433,333
1542,0.82,-0.49,-0.4,7.45,-3.36,-6.9,408,261,158,435,336
1543,0.77,-0.49,-0.38,0.49,-8.97,2.81,406,259,161,441,339
1544,0.78,-0.47,-0.4,-1.1,-4.09,-2.26,403,259,164,442,342
1545,0.77,-0.48,-0.39,3.42,-2.08,-2.26,399,262,168,434,343
1546,0.77,-0.49,-0.4,0.43,-3.54,-1.95,427,261,162,441,340
1547,0.77,-0.48,-0.42,1.22,-2.99,-2.93,394,260,165,446,344
1548,0.75,-0.48,-0.41,-2.01,-1.53,-4.27,394,259,166,435,345
1549,0.76,-0.48,-0.42,1.16,-2.32,-1.16,395,260,168,438,344
1550,0.77,-0.48,-0.41,-0.49,-1.95,-1.46,392,261,166,444,340
1551,0.77,-0.47,-0.42,-1.71,-3.23,-1.53,385,258,168,441,342
1552,0.77,-0.48,-0.42,-0.98,-2.2,-3.48,388,259,168,443,346
1553,0.77,-0.47,-0.42,0.49,-3.6,-2.81,388,261,169,441,345
1554,0.76,-0.47,-0.42,-0.37,-3.11,-1.77,387,262,169,442,346
1555,0.77,-0.48,-0.43,0.24,-1.83,-3.97,387,259,168,442,342
1556,0.77,-0.46,-0.41,2.44,-1.1,-1.89,387,260,172,443,347
1557,0.78,-0.48,-0.42,2.14,-2.93,-2.32,387,258,168,440,346
1558,0.77,-0.47,-0.4,0.92,-2.81,-3.42,383,259,174,441,349
1559,0.78,-0.48,-0.4,0.0,-3.42,-2.5,387,259,173,441,348
1560,0.78,-0.49,-0.39,-1.53,-2.81,-3.11,379,259,174,442,346
1561,0.78,-0.48,-0.4,0.73,-2.93,-1.77,384,260,174,446,342
1562,0.77,-0.48,-0.4,0.31,-2.5,-2.93,385,260,174,442,348
1563,0.79,-0.47,-0.39,-0.43,-2.32,-2.75,383,261,172,442,348
1564,0.79,-0.47,-0.41,0.55,-2.69,-2.56,384,259,171,445,344
1565,0.78,-0.47,-0.4,2.01,-1.77,-3.3,381,260,174,444,347
1566,0.78,-0.47,-0.4,0.67,-2.62,-2.81,384,260,171,443,347
1567,0.79,-0.46,-0.39,0.43,-2.08,-2.14,387,264,171,446,346
1568,0.78,-0.47,-0.39,0.98,-3.17,-2.69,384,258,175,446,343
1569,0.79,-0.47,-0.39,0.49,-3.17,-3.54,380,259,175,442,348
1570,0.79,-0.48,-0.4,-1.89,-2.2,-2.87,384,261,174,439,351
1571,0.79,-0.47,-0.4,1.04,-3.36,-3.17,381,264,171,447,346
1572,0.79,-0.47,-0.4,-0.49,-3.85,-3.05,385,260,173,445,347
1573,0.83,-0.48,-0.45,0.31,-2.2,-3.23,385,263,176,444,347
1574,0.79,-0.47,-0.4,0.61,-1.46,-3.85,385,262,179,437,351
1575,0.78,-0.47,-0.39,1.34,-3.17,-2.14,383,261,173,443,351
1576,0.79,-0.46,-0.39,0.06,-2.2,-2.87,386,260,177,445,350
1577,0.79,-0.47,-0.4,0.85,-2.81,-2.32,387,262,177,442,351
1578,0.78,-0.46,-0.39,0.85,-2.5,-1.95,385,262,176,443,354
1579,0.78,-0.47,-0.37,-1.53,-1.65,-3.91,387,261,177,445,350
1580,0.8,-0.47,-0.41,0.67,-2.2,-2.99,381,257,180,438,350
1581,0.8,-0.46,-0.4,0.18,-2.01,-2.62,385,263,179,441,353
1582,0.8,-0.45,-0.39,0.24,-2.62,-2.56,381,264,179,444,353
1583,0.8,-0.45,-0.38,1.04,-2.44,-2.99,384,269,179,444,355
1584,0.8,-0.46,-0.38,0.79,-2.62,-2.99,383,262,182,441,355
1585,0.81,-0.49,-0.39,-0.24,-2.2,-3.05,379,267,177,444,355
1586,0.8,-0.46,-0.39,0.24,-2.87,-2.62,382,262,180,445,354
1587,0.8,-0.46,-0.39,-0.37,-3.6,-2.56,380,261,180,447,353
1588,0.79,-0.45,-0.39,0.31,-3.54,-2.56,381,264,182,443,354
1589,0.79,-0.45,-0.4,0.49,-2.26,-3.17,380,262,178,453,353
1590,0.79,-0.44,-0.39,0.92,-2.81,-1.77,378,267,179,440,354
1591,0.8,-0.46,-0.38,-1.65,-2.44,-3.05,379,264,179,439,349
1592,0.8,-0.45,-0.4,1.65,-3.11,-2.44,388,264,179,446,353
1593,0.8,-0.45,-0.38,-0.55,-2.87,-2.81,378,260,180,444,353
1594,0.8,-0.46,-0.39,-1.77,-3.48,-3.54,379,262,183,444,353
1595,0.79,-0.47,-0.38,0.0,0.98,-4.27,380,261,181,456,355
1596,0.78,-0.47,-0.39,3.85,-2.44,-2.62,380,263,185,443,352
1597,0.82,-0.49,-0.41,0.12,-0.85,-0.98,377,262,182,448,355
1598,0.81,-0.48,-0.39,-0.49,0.61,-12.76,381,263,183,444,355
1599,0.81,-0.44,-0.41,-3.72,-2.93,-3.85,382,263,185,443,353
1600,0.8,-0.45,-0.42,-2.2,-3.97,-1.46,381,265,184,442,354
1601,0.8,-0.43,-0.4,11.11,-5.55,-5.37,381,264,183,438,350
1602,0.8,-0.42,-0.37,-2.38,-0.12,-1.83,381,264,182,446,353
1603,0.8,-0.39,-0.35,-5.62,3.6,-6.16,380,264,185,445,355
1604,0.8,-0.41,-0.36,-1.83,-3.23,0.06,381,264,181,440,353
1605,0.83,-0.43,-0.42,1.04,-2.99,-1.53,381,261,180,446,351
1606,0.81,-0.43,-0.39,0.67,-2.26,-0.85,382,262,185,442,354
1607,0.81,-0.43,-0.39,0.24,-2.08,-1.46,381,262,183,442,353
1608,0.81,-0.42,-0.37,-1.59,-3.05,-3.17,383,265,185,438,355
1609,0.8,-0.42,-0.37,0.79,-2.81,-1.59,383,263,183,444,352
1610,0.82,-0.43,-0.39,-0.24,-1.77,-3.48,379,266,181,445,348
1611,0.83,-0.43,-0.39,-0.73,-3.97,-5.0,387,266,183,445,354
1612,0.82,-0.41,-0.39,0.92,-4.46,-3.23,381,266,183,442,353
1613,0.83,-0.42,-0.39,4.27,-2.08,0.06,376,264,185,441,353
1614,0.82,-0.42,-0.38,-0.85,-3.54,-3.3,383,265,183,442,352
1615,0.81,-0.42,-0.37,-2.26,-3.42,-1.83,381,264,186,445,353
1616,0.83,-0.41,-0.38,0.06,-1.59,-2.14,380,265,183,438,354
1617,0.82,-0.4,-0.37,-1.95,-2.69,-0.79,380,266,183,442,351
1618,0.82,-0.41,-0.38,-0.12,-1.77,-2.08,379,266,185,438,354
1619,0.81,-0.41,-0.35,-2.44,-6.96,-2.81,382,265,185,445,357
1620,0.86,-0.39,-0.36,-1.77,-6.77,-6.59,382,264,181,445,356
1621,0.81,-0.41,-0.41,-0.98,-2.26,-5.31,375,268,183,444,355
1622,0.79,-0.41,-0.44,-12.08,2.32,-0.55,377,270,187,440,353
1623,0.79,-0.44,-0.42,-0.24,-3.48,-5.86,374,262,188,437,353
1624,0.85,-0.4,-0.38,0.43,2.26,1.46,374,265,184,438,355
1625,0.85,-0.41,-0.42,-13.67,1.65,-7.45,376,267,183,441,353
1626,0.82,-0.46,-0.44,1.89,-0.98,-1.16,376,265,183,446,355
1627,0.82,-0.42,-0.32,2.87,-2.75,3.66,375,267,184,445,354
1628,0.85,-0.42,-0.34,1.83,-2.08,-1.77,375,263,185,440,353
1629,0.85,-0.43,-0.34,0.31,-2.93,-2.14,373,268,184,444,355
1630,0.83,-0.42,-0.32,0.92,-1.4,-2.5,375,265,186,439,353
1631,0.82,-0.44,-0.32,-0.12,-4.82,-3.72,378,266,185,442,354
1632,0.84,-0.43,-0.35,1.34,-1.34,-4.03,373,269,184,441,353
1633,0.84,-0.42,-0.33,0.73,-3.23,-3.36,375,265,187,437,356
1634,0.85,-0.43,-0.34,2.14,-3.48,-3.54,374,264,186,441,354
1635,0.85,-0.43,-0.33,1.83,-3.48,-3.6,376,268,186,444,354
1636,0.86,-0.44,-0.38,-0.06,-0.37,-3.91,375,265,187,445,353
1637,0.84,-0.42,-0.31,-0.49,-4.21,-1.59,377,265,188,445,353
1638,0.86,-0.43,-0.33,3.23,-2.62,-3.42,375,267,183,441,354
1639,0.84,-0.43,-0.32,-0.98,-3.78,-2.75,375,270,185,442,351
1640,0.84,-0.43,-0.32,0.18,-3.91,-2.75,378,267,189,442,354
1641,0.84,-0.43,-0.32,-0.55,-1.95,-3.48,375,265,195,445,353
1642,0.84,-0.43,-0.31,0.0,-2.32,-2.69,376,265,196,441,354
1643,0.84,-0.43,-0.31,0.92,-2.44,-2.75,377,265,187,439,357
1644,0.85,-0.43,-0.31,0.0,-3.36,-3.23,376,269,187,441,351
1645,0.82,-0.44,-0.31,-1.53,-4.39,-1.95,377,265,187,453,355
1646,0.78,-0.44,-0.31,7.08,-2.62,-4.7,374,260,191,441,354
1647,0.83,-0.43,-0.27,-0.18,0.18,-2.5,374,268,190,456,355
1648,0.83,-0.44,-0.34,-2.44,-1.4,2.2,372,266,189,442,355
1649,0.84,-0.42,-0.31,-1.77,-1.34,-3.11,376,266,200,441,353
1650,0.85,-0.42,-0.3,0.37,-3.48,-1.89,376,266,188,439,356
1651,0.86,-0.42,-0.3,3.05,-2.14,-2.44,378,267,191,445,352
1652,0.89,-0.44,-0.31,0.12,-2.81,-3.3,376,267,189,445,354
1653,0.86,-0.42,-0.3,1.59,-5.0,-1.28,372,269,186,439,355
1654,0.86,-0.42,-0.3,1.46,-2.2,-3.48,378,265,183,442,350
1655,0.85,-0.43,-0.3,2.44,-2.75,-3.17,378,265,188,442,355
1656,0.85,-0.42,-0.3,0.0,-3.66,-3.17,376,268,185,442,352
1657,0.85,-0.42,-0.29,0.85,-2.01,-2.87,376,264,189,443,355
1658,0.85,-0.43,-0.29,1.04,-2.69,-2.93,375,265,188,436,347
1659,0.84,-0.43,-0.29,1.04,-6.16,-2.62,379,266,189,443,353
1660,0.85,-0.42,-0.3,-0.37,-2.32,-1.22,378,266,190,445,356
1661,0.85,-0.42,-0.3,-0.55,-3.42,-2.75,378,266,191,443,351
1662,0.85,-0.43,-0.31,1.1,-3.66,-3.97,377,265,188,436,351
1663,0.84,-0.42,-0.31,0.73,-2.69,-2.01,376,269,186,442,355
1664,0.83,-0.43,-0.31,-1.83,-2.44,-1.59,378,266,188,442,354
1665,0.84,-0.43,-0.29,-1.59,-2.93,-2.69,376,264,184,436,353
1666,0.84,-0.47,-0.31,-0.18,-4.82,-6.9,374,269,186,445,352
1667,0.88,-0.42,-0.31,0.61,-2.99,-2.93,379,268,197,438,356
1668,0.87,-0.42,-0.31,0.49,-3.3,-2.81,375,269,191,442,356
1669,0.85,-0.42,-0.29,1.95,-0.79,-0.85,377,268,190,445,355
1670,0.84,-0.42,-0.28,1.71,-2.2,0.79,378,265,192,442,355
1671,0.87,-0.42,-0.31,-1.04,0.61,-0.18,379,265,186,440,355
1672,0.87,-0.42,-0.32,0.85,-3.85,-3.17,376,265,190,450,365
1673,0.87,-0.42,-0.31,-1.71,-2.01,-3.42,379,265,188,441,356
1674,0.86,-0.42,-0.3,-0.61,-2.81,-2.01,378,265,190,454,354
1675,0.85,-0.42,-0.3,-1.46,-2.69,-2.2,375,268,191,443,352
1676,0.8,-0.44,-0.28,-1.89,-2.62,-2.08,379,265,188,440,354
1677,0.85,-0.44,-0.34,-0.79,-3.3,-3.48,378,264,189,444,350
1678,0.85,-0.43,-0.31,-4.03,-2.81,-0.06,378,269,187,442,354
1679,0.84,-0.43,-0.3,-3.78,-3.85,1.16,378,263,193,442,353
1680,0.85,-0.43,-0.3,-2.56,-5.55,0.61,375,268,189,447,353
1681,0.86,-0.44,-0.3,3.11,1.53,-0.24,376,266,193,438,354
1682,0.83,-0.45,-0.3,-2.56,-3.3,-4.76,377,268,189,446,357
1683,0.81,-0.44,-0.29,1.34,-4.58,-4.33,377,266,192,445,353
1684,0.83,-0.44,-0.31,-0.43,-4.52,-2.56,378,266,189,445,350
1685,0.83,-0.44,-0.31,-3.6,-2.69,-3.42,379,268,188,441,350
1686,0.86,-0.45,-0.34,0.73,-2.87,-2.5,380,270,191,438,352
1687,0.86,-0.43,-0.31,-0.67,-3.05,-4.09,375,268,193,443,353
1688,0.87,-0.43,-0.32,0.37,0.12,-3.42,380,266,189,438,354
1689,0.86,-0.43,-0.3,0.85,-2.32,-2.69,372,266,190,441,355
1690,0.86,-0.43,-0.29,0.18,-2.5,-2.99,378,268,190,442,352
1691,0.85,-0.43,-0.3,-0.92,-3.54,-2.62,383,269,187,442,353
1692,0.86,-0.44,-0.29,-0.24,-2.99,-2.56,396,266,187,437,355
1693,0.85,-0.44,-0.3,-1.4,-4.64,-1.59,379,270,192,447,347
1694,0.84,-0.44,-0.3,-0.73,-3.78,-1.95,381,263,185,442,355
1695,0.84,-0.43,-0.29,-0.55,-2.14,-2.69,377,268,190,437,352
1696,0.84,-0.44,-0.29,1.53,-2.2,-2.99,378,266,190,443,353
1697,0.85,-0.44,-0.29,0.85,-2.44,-3.42,375,265,193,442,353
1698,0.85,-0.44,-0.29,1.04,-2.75,-3.05,382,264,190,442,357
1699,0.85,-0.44,-0.29,-0.06,-3.17,-2.38,378,267,190,437,353
1700,0.85,-0.44,-0.3,0.06,-2.62,-3.3,377,265,194,442,354
1701,0.85,-0.43,-0.3,0.92,-3.23,-2.81,374,266,194,442,352
1702,0.85,-0.43,-0.3,-0.06,-3.48,-3.17,376,268,194,442,355
1703,0.85,-0.43,-0.31,1.53,-1.04,-3.17,373,267,193,443,353
1704,0.85,-0.42,-0.3,2.01,-2.5,-2.14,377,266,195,437,347
1705,0.87,-0.42,-0.3,2.93,-0.73,-2.01,378,267,193,441,354
1706,0.86,-0.42,-0.29,0.85,-1.71,-1.71,377,268,193,442,355
1707,0.86,-0.43,-0.29,1.89,-3.11,-2.26,378,266,193,437,351
1708,0.87,-0.42,-0.29,0.55,-3.97,-2.99,373,267,193,443,353
1709,0.86,-0.42,-0.3,1.1,-4.09,-3.23,374,267,191,440,353
1710,0.86,-0.42,-0.31,1.53,-0.85,-3.54,374,267,201,444,352
1711,0.86,-0.42,-0.3,-0.12,-2.38,-3.6,363,267,192,442,351
1712,0.87,-0.42,-0.3,0.85,-2.81,-1.53,376,267,193,442,354
1713,0.87,-0.42,-0.31,0.92,-2.81,-4.09,373,266,192,451,351
1714,0.86,-0.42,-0.29,1.34,-3.3,-3.23,373,267,192,444,351
1715,0.85,-0.42,-0.29,0.12,-3.3,-3.3,373,267,192,442,352
1716,0.85,-0.42,-0.31,-0.67,-4.39,-3.05,374,269,194,443,355
1717,0.85,-0.41,-0.31,0.18,-3.3,-2.32,375,267,190,447,352
1718,0.85,-0.42,-0.31,0.24,-2.62,-2.32,374,269,191,457,354
1719,0.85,-0.42,-0.31,1.89,-2.01,-2.14,375,266,189,446,352
1720,0.85,-0.41,-0.3,-0.43,-2.56,-2.44,376,270,192,448,353
1721,0.86,-0.41,-0.3,0.12,-3.23,-1.71,375,269,195,445,351
1722,0.85,-0.41,-0.3,0.43,-3.05,-2.01,373,267,192,445,354
1723,0.85,-0.42,-0.3,0.61,-3.05,-2.32,376,271,193,442,354
1724,0.85,-0.41,-0.3,1.04,-4.09,-2.62,377,269,193,442,353
1725,0.86,-0.41,-0.32,1.59,-2.93,-2.32,376,269,191,445,353
1726,0.88,-0.43,-0.33,-0.31,-2.5,-3.78,373,268,192,443,352
1727,0.86,-0.41,-0.32,1.59,-3.05,-2.69,373,268,192,446,351
1728,0.85,-0.41,-0.3,1.4,-1.89,-2.99,375,269,191,442,352
1729,0.86,-0.41,-0.3,0.85,-2.75,-2.75,375,269,195,441,354
1730,0.86,-0.41,-0.32,1.95,-3.54,-2.14,375,268,193,442,350
1731,0.87,-0.41,-0.32,-0.06,-4.09,-2.5,375,268,193,444,354
1732,0.86,-0.41,-0.32,0.92,-4.21,-2.69,372,270,193,443,354
1733,0.86,-0.41,-0.32,1.59,-2.2,-2.44,376,269,193,446,350
1734,0.87,-0.41,-0.31,1.16,-2.5,-2.62,377,267,190,455,354
1735,0.86,-0.41,-0.3,-0.24,-2.69,-2.62,383,269,194,442,354
1736,0.86,-0.41,-0.31,-0.61,-2.38,-2.62,377,267,190,448,355
1737,0.84,-0.39,-0.3,1.89,-2.2,-2.56,375,267,192,442,349
1738,0.86,-0.4,-0.31,0.73,-3.23,-2.93,374,270,195,442,352
1739,0.86,-0.4,-0.31,1.53,-4.52,-2.62,375,267,196,446,353
1740,0.86,-0.4,-0.32,1.65,-3.23,-2.38,374,270,190,445,352
1741,0.86,-0.41,-0.31,0.73,-2.01,-2.5,376,268,189,443,348
1742,0.86,-0.41,-0.31,0.18,-2.87,-2.87,388,268,190,442,355
1743,0.85,-0.41,-0.31,0.24,-2.44,-2.08,374,268,192,446,357
1744,0.85,-0.41,-0.3,1.95,-2.32,-2.14,377,278,196,440,353
1745,0.84,-0.41,-0.31,-1.28,-4.21,-1.34,379,267,192,440,355
1746,0.85,-0.41,-0.31,-0.43,-3.85,-2.32,377,268,196,442,352
1747,0.86,-0.41,-0.31,-0.98,-2.32,-2.08,374,280,193,441,355
1748,0.86,-0.41,-0.31,0.0,-1.59,-2.01,377,268,190,438,353
1749,0.85,-0.41,-0.31,2.32,-2.56,-2.32,382,270,193,444,352
1750,0.86,-0.41,-0.3,1.71,-2.38,-2.32,378,269,194,443,353
1751,0.86,-0.42,-0.32,-0.18,-4.58,-4.88,380,272,192,442,351
1752,0.86,-0.41,-0.31,0.43,-4.58,-3.48,390,272,192,445,353
1753,0.84,-0.41,-0.3,-2.44,-6.1,-5.13,387,272,193,440,355
1754,0.85,-0.4,-0.3,-0.79,-3.85,-2.99,387,275,196,445,353
1755,0.87,-0.4,-0.31,2.62,-1.59,-2.99,384,272,197,437,354
1756,0.86,-0.41,-0.3,1.89,-2.69,-2.99,387,269,192,440,354
1757,0.86,-0.41,-0.31,1.34,-2.56,-2.99,386,273,193,441,353
1758,0.86,-0.4,-0.3,-0.37,-3.6,-1.89,386,274,193,442,352
1759,0.86,-0.41,-0.31,-0.12,-3.54,-3.42,383,270,194,444,353
1760,0.86,-0.4,-0.3,-1.22,-4.09,-2.69,393,276,192,438,353
1761,0.85,-0.4,-0.31,0.31,-2.5,-1.16,386,272,193,443,352
1762,0.86,-0.4,-0.31,0.06,-1.89,-2.62,390,274,197,441,353
1763,0.86,-0.4,-0.3,0.92,-1.83,-1.89,386,274,195,446,352
1764,0.87,-0.39,-0.3,-0.06,-2.62,-1.22,384,273,194,437,353
1765,0.87,-0.4,-0.3,0.31,-3.6,-1.89,386,271,194,443,351
1766,0.87,-0.4,-0.32,-1.4,-2.93,-3.85,386,274,194,454,354
1767,0.87,-0.39,-0.32,0.92,-5.25,-1.22,388,276,196,447,351
1768,0.85,-0.39,-0.33,-0.85,-3.3,-2.32,388,275,194,446,351
1769,0.85,-0.39,-0.32,0.12,-1.83,-2.56,385,272,194,441,355
1770,0.86,-0.39,-0.31,0.0,-4.27,-3.54,386,272,196,442,354
1771,0.86,-0.39,-0.3,-1.65,-2.32,-2.38,386,269,192,443,352
1772,0.86,-0.39,-0.31,-0.37,-2.99,-2.75,385,272,196,444,354
1773,0.85,-0.39,-0.29,0.43,-2.38,-2.93,386,275,194,442,354
1774,0.85,-0.39,-0.3,0.24,-2.69,-2.87,386,279,195,445,354
1775,0.86,-0.39,-0.31,1.95,-2.2,-2.93,386,269,195,443,353
1776,0.86,-0.39,-0.31,0.37,-2.26,-2.5,384,272,194,439,356
1777,0.86,-0.4,-0.31,0.18,-3.42,-1.95,384,274,191,442,349
1778,0.86,-0.4,-0.31,-0.49,-3.17,-2.44,385,273,194,441,353
1779,0.86,-0.39,-0.31,-0.49,-4.15,-2.01,385,273,195,447,353
1780,0.86,-0.39,-0.31,0.37,-2.81,-2.26,384,272,195,442,352
1781,0.87,-0.39,-0.32,0.37,-2.01,-2.5,385,273,196,442,349
1782,0.86,-0.39,-0.31,-0.49,-2.87,-2.32,387,273,195,444,353
1783,0.85,-0.4,-0.32,0.18,-1.34,-2.87,387,271,194,437,353
1784,0.86,-0.4,-0.32,1.28,-2.32,-2.87,383,276,193,442,354
1785,0.89,-0.39,-0.31,-0.73,-2.81,-2.93,385,273,197,441,355
1786,0.86,-0.39,-0.32,-1.95,-4.46,-3.05,384,273,198,440,351
1787,0.86,-0.39,-0.33,-1.59,-3.11,-3.05,385,275,195,441,353
1788,0.86,-0.39,-0.3,0.06,-2.69,-2.2,383,271,193,438,354
1789,0.86,-0.4,-0.31,0.61,-3.05,-2.56,387,272,201,443,352
1790,0.86,-0.39,-0.31,0.55,-2.26,-2.99,380,274,193,441,353
1791,0.86,-0.39,-0.3,0.43,-2.5,-2.99,385,270,195,441,353
1792,0.86,-0.4,-0.31,0.73,-2.69,-2.69,385,276,191,445,353
1793,0.86,-0.39,-0.31,0.43,-3.11,-1.95,386,273,198,442,351
1794,0.86,-0.39,-0.3,-0.31,-3.36,-2.5,386,275,193,438,353
1795,0.86,-0.39,-0.31,-1.04,-4.21,-2.32,384,275,198,443,352
1796,0.85,-0.39,-0.32,-0.73,-3.11,-2.99,384,270,195,440,352
1797,0.86,-0.39,-0.32,0.37,-2.81,-2.81,379,272,197,441,350
1798,0.86,-0.39,-0.32,1.34,-2.56,-2.01,384,279,194,442,355
1799,0.86,-0.39,-0.31,0.67,-2.08,-3.23,379,272,195,442,355
1800,0.86,-0.39,-0.32,1.65,-2.93,-1.71,375,276,198,437,352
1801,0.87,-0.4,-0.33,0.85,-3.54,-1.89,379,275,190,439,355
1802,0.97,-0.42,-0.43,3.85,-9.16,1.95,383,275,195,441,352
1803,0.85,-0.39,-0.31,0.49,-2.87,-2.87,381,274,198,436,353
1804,0.87,-0.39,-0.31,0.55,-3.05,-2.62,381,275,194,444,350
1805,0.86,-0.39,-0.32,-0.12,-3.72,-1.77,381,275,196,440,354
1806,0.86,-0.39,-0.32,-0.31,-3.48,-2.56,379,276,196,441,353
1807,0.86,-0.4,-0.32,-0.24,-2.14,-2.26,381,276,198,444,353
1808,0.86,-0.39,-0.32,1.28,-2.5,-2.26,379,274,197,439,350
1809,0.86,-0.39,-0.31,0.85,-2.87,-2.32,382,277,193,437,355
1810,0.86,-0.39,-0.31,-1.83,-2.56,-2.5,378,275,196,440,351
1811,0.86,-0.4,-0.28,-0.85,-2.08,-2.38,380,275,192,444,354
1812,0.89,-0.41,-0.32,3.36,-4.58,-0.73,386,275,193,438,354
1813,0.86,-0.38,-0.3,1.89,-3.91,-1.89,380,274,195,436,354
1814,0.87,-0.39,-0.32,0.55,-4.09,-2.01,380,274,198,440,351
1815,0.86,-0.4,-0.33,-0.98,-1.77,-3.78,378,274,196,440,345
1816,0.86,-0.38,-0.31,-0.06,-2.62,-2.01,378,277,196,441,356
1817,0.86,-0.39,-0.3,1.22,-2.14,-2.5,378,276,196,438,355
1818,0.86,-0.39,-0.3,0.06,-2.44,-2.81,378,276,198,440,352
1819,0.87,-0.4,-0.32,-0.61,-2.75,-2.56,378,277,195,442,354
1820,0.86,-0.39,-0.31,-0.18,-2.44,-2.08,378,272,196,442,353
1821,0.87,-0.39,-0.31,0.98,-3.23,-2.56,377,273,196,441,353
1822,0.86,-0.39,-0.31,-0.06,-3.3,-1.83,377,274,195,437,354
1823,0.86,-0.39,-0.31,0.73,-3.66,-2.38,376,276,196,445,351
1824,0.87,-0.39,-0.33,1.4,-4.64,-1.59,378,275,201,441,354
1825,0.86,-0.38,-0.31,2.38,-1.22,-2.62,378,277,195,444,354
1826,0.86,-0.39,-0.32,1.71,-1.53,-2.93,379,274,198,442,354
1827,0.88,-0.41,-0.31,0.06,-2.99,-2.69,380,275,196,441,354
1828,0.86,-0.4,-0.31,-2.01,-2.62,-2.38,380,273,194,435,352
1829,0.87,-0.4,-0.32,-0.67,-3.6,-2.87,386,274,200,444,352
1830,0.87,-0.4,-0.32,1.16,-2.99,-2.93,379,272,192,438,354
1831,0.86,-0.4,-0.31,1.46,-2.32,-2.81,381,275,194,442,351
1832,0.86,-0.39,-0.31,1.22,-2.93,-1.89,375,274,196,437,356
1833,0.85,-0.39,-0.31,-0.55,-3.36,-2.81,380,282,196,442,354
1834,0.86,-0.4,-0.31,1.22,-2.75,-1.95,383,275,200,442,354
1835,0.87,-0.4,-0.32,-0.98,-2.69,-3.48,379,274,194,441,354
1836,0.87,-0.4,-0.31,0.49,-2.2,-3.3,379,273,196,438,354
1837,0.87,-0.4,-0.31,-0.43,-3.54,-3.6,380,277,195,444,358
1838,0.87,-0.39,-0.3,0.12,-2.56,-2.75,380,274,196,441,350
1839,0.86,-0.39,-0.3,0.0,-4.33,-2.75,376,286,198,442,353
1840,0.86,-0.39,-0.33,-0.67,-2.99,-2.26,391,273,195,441,353
1841,0.86,-0.39,-0.33,1.46,-1.22,-2.75,381,275,196,444,354
1842,0.86,-0.38,-0.31,1.83,-1.59,-2.32,380,278,198,440,354
1843,0.87,-0.39,-0.32,0.85,-1.77,-3.05,378,277,199,440,354
1844,0.86,-0.39,-0.31,2.44,-2.81,-2.2,375,273,199,444,355
1845,0.87,-0.39,-0.31,1.59,-2.62,-2.99,376,274,197,442,356
1846,0.86,-0.39,-0.31,-0.55,-2.75,-2.08,378,275,199,441,356
1847,0.86,-0.39,-0.31,1.04,-2.69,-1.4,378,288,197,441,351
1848,0.86,-0.39,-0.3,-0.06,-3.48,-2.75,377,275,197,440,357
1849,0.86,-0.39,-0.31,0.12,-4.21,-2.56,376,279,195,440,351
1850,0.85,-0.38,-0.31,-0.73,-3.6,-2.44,376,276,195,440,351
1851,0.86,-0.38,-0.33,-0.31,-2.56,-2.81,380,275,196,437,352
1852,0.86,-0.38,-0.32,-0.18,-2.81,-2.87,380,279,197,444,354
1853,0.86,-0.38,-0.32,-0.18,-2.81,-2.93,376,274,196,442,355
1854,0.86,-0.38,-0.32,2.08,-2.38,-2.08,371,276,196,436,354
1855,0.87,-0.39,-0.32,0.61,-2.44,-2.69,398,277,196,439,352
1856,0.87,-0.39,-0.32,-0.49,-2.5,-3.23,379,278,201,441,353
1857,0.86,-0.38,-0.31,2.2,-2.44,-3.05,378,275,195,437,352
1858,0.87,-0.38,-0.32,1.59,-3.72,-3.3,376,277,198,441,355
1859,0.86,-0.38,-0.32,-0.92,-3.66,-2.75,377,272,196,441,355
1860,0.86,-0.38,-0.32,-0.92,-3.42,-2.38,378,291,195,441,353
1861,0.87,-0.38,-0.34,1.53,-1.71,-3.72,376,278,200,445,354
1862,0.87,-0.39,-0.33,-0.24,-1.77,-2.75,377,275,197,439,354
1863,0.87,-0.38,-0.33,0.43,-2.75,-1.95,378,275,198,437,353
1864,0.86,-0.38,-0.31,0.49,-2.2,-2.87,378,275,200,443,353
1865,0.86,-0.39,-0.32,0.24,-2.75,-2.93,374,278,201,443,353
1866,0.86,-0.38,-0.31,0.24,-2.87,-2.14,378,275,200,441,353
1867,0.86,-0.38,-0.31,-0.43,-2.44,-2.08,379,274,198,440,349
1868,0.86,-0.38,-0.31,-0.55,-3.36,-2.5,374,276,197,441,353
1869,0.86,-0.38,-0.32,-0.92,-4.33,-2.62,377,279,200,442,354
1870,0.87,-0.38,-0.33,-0.06,-3.91,-3.42,378,276,200,445,352
1871,0.87,-0.38,-0.34,-0.85,-1.89,-2.81,382,275,197,440,354
1872,0.87,-0.38,-0.32,0.31,-1.28,-2.01,383,271,197,436,354
1873,0.87,-0.38,-0.31,2.2,-3.3,-1.83,372,276,200,436,356
1874,0.87,-0.38,-0.32,1.34,-3.17,-2.44,378,275,201,438,356
1875,0.86,-0.39,-0.32,-0.49,-2.56,-2.08,375,272,202,442,354
1876,0.87,-0.38,-0.32,0.55,-3.85,-3.11,374,275,200,441,353
1877,0.87,-0.38,-0.32,-0.55,-3.72,-2.99,377,275,195,444,351
1878,0.86,-0.38,-0.33,-0.31,-3.6,-2.44,415,275,198,445,355
1879,0.86,-0.38,-0.33,-0.18,-2.2,-2.44,378,274,199,441,351
1880,0.86,-0.38,-0.32,1.65,-2.32,-2.75,374,275,201,442,356
1881,0.87,-0.38,-0.31,0.67,-2.14,-2.44,378,278,197,440,351
1882,0.87,-0.38,-0.32,-0.37,-2.26,-2.2,377,276,200,442,351
1883,0.87,-0.38,-0.31,0.18,-4.27,-3.23,377,271,196,436,352
1884,0.86,-0.38,-0.32,0.92,-3.91,-3.23,378,276,195,440,355
1885,0.86,-0.37,-0.33,-1.77,-2.56,-2.44,375,278,195,444,354
1886,0.86,-0.38,-0.33,0.24,-2.26,-2.69,377,274,198,442,354
1887,0.87,-0.37,-0.31,1.4,-2.99,-2.14,377,277,200,444,351
1888,0.87,-0.37,-0.32,1.59,-1.95,-2.75,378,275,201,442,355
1889,0.87,-0.37,-0.32,-0.37,-2.87,-1.95,374,276,195,438,353
1890,0.87,-0.37,-0.32,1.16,-3.36,-2.56,378,278,196,443,350
1891,0.87,-0.37,-0.31,1.04,-3.17,-2.93,379,279,200,438,352
1892,0.87,-0.37,-0.32,-0.92,-3.97,-2.69,390,275,201,442,353
1893,0.87,-0.37,-0.34,0.55,-4.03,-2.38,372,278,199,442,350
1894,0.87,-0.37,-0.33,1.16,-2.56,-1.89,375,275,198,440,354
1895,0.86,-0.37,-0.33,0.61,-2.5,-2.44,379,277,204,444,355
1896,0.86,-0.37,-0.32,-0.55,-2.56,-2.99,379,276,198,439,352
1897,0.87,-0.37,-0.32,-0.79,-2.99,-2.38,377,279,197,442,355
1898,0.87,-0.37,-0.33,0.49,-3.11,-2.2,375,275,200,444,360
1899,0.87,-0.38,-0.34,1.22,-3.23,-2.26,379,277,201,444,354
1900,0.87,-0.37,-0.34,-0.37,-3.91,-2.81,379,276,201,441,351
1901,0.87,-0.37,-0.34,-0.49,-4.03,-3.17,376,277,198,442,355
1902,0.87,-0.37,-0.34,0.85,-2.44,-2.75,378,275,197,457,354
1903,0.86,-0.37,-0.32,0.55,-2.2,-2.44,376,278,198,446,354
1904,0.87,-0.37,-0.33,0.98,-1.95,-2.14,379,276,198,446,350
1905,0.87,-0.37,-0.32,0.12,-2.26,-1.95,378,278,202,443,355
1906,0.86,-0.38,-0.33,0.67,-2.32,-2.69,374,276,198,446,353
1907,0.86,-0.37,-0.32,-0.73,-5.13,-4.15,380,275,196,440,351
1908,0.87,-0.36,-0.32,-0.31,-3.78,-3.17,378,277,200,456,352
1909,0.87,-0.36,-0.33,1.22,-3.91,-2.62,379,276,201,446,354
1910,0.87,-0.37,-0.33,0.06,-2.38,-2.14,377,279,199,441,357
1911,0.86,-0.37,-0.33,-0.98,-3.17,-2.26,379,279,202,440,355
1912,0.87,-0.37,-0.33,0.43,-2.5,-2.38,377,276,193,438,355
1913,0.87,-0.37,-0.33,0.55,-2.62,-2.81,376,277,198,450,354
1914,0.87,-0.37,-0.33,-0.92,-2.56,-2.87,377,282,201,441,355
1915,0.87,-0.37,-0.33,1.83,-2.93,-3.42,376,277,199,437,354
1916,0.87,-0.37,-0.34,-0.18,-3.72,-2.62,376,278,198,443,354
1917,0.87,-0.37,-0.33,0.06,-2.93,-2.75,376,275,198,440,356
1918,0.87,-0.37,-0.33,1.1,-1.53,-3.05,377,278,202,440,353
1919,0.87,-0.36,-0.32,1.22,-2.2,-1.89,377,278,198,438,353
1920,0.88,-0.37,-0.33,0.98,-2.14,-2.62,376,279,199,436,352
1921,0.87,-0.37,-0.33,0.49,-2.81,-2.62,375,276,201,445,350
1922,0.87,-0.37,-0.32,0.61,-2.75,-2.69,376,286,202,436,353
1923,0.87,-0.37,-0.32,0.67,-2.81,-3.05,376,279,203,441,353
1924,0.87,-0.36,-0.33,2.14,-3.72,-2.32,377,277,197,437,353
1925,0.87,-0.36,-0.31,0.55,-3.17,-2.01,402,277,205,443,354
1926,0.87,-0.36,-0.33,1.83,-1.46,-3.54,374,276,201,436,351
1927,0.87,-0.37,-0.32,1.77,-1.53,-2.62,374,278,201,436,355
1928,0.87,-0.37,-0.32,-0.49,-2.14,-2.32,373,276,201,440,348
1929,0.87,-0.37,-0.32,-0.18,-2.75,-1.95,377,275,201,440,354
1930,0.87,-0.37,-0.32,-0.12,-2.2,-2.93,374,278,202,445,355
1931,0.87,-0.38,-0.33,2.14,-2.26,-2.69,375,274,198,446,353
1932,0.88,-0.37,-0.32,1.04,-3.66,-2.62,375,277,199,441,352
1933,0.88,-0.37,-0.33,-0.79,-3.36,-3.23,374,276,200,442,351
1934,0.86,-0.37,-0.33,-1.22,-1.53,-3.42,375,279,203,444,353
1935,0.87,-0.37,-0.33,-1.53,-2.44,-2.32,377,278,199,441,355
1936,0.87,-0.37,-0.33,-0.18,-2.56,-2.01,376,278,203,436,354
1937,0.87,-0.37,-0.32,0.85,-2.14,-2.2,374,276,199,441,353
1938,0.87,-0.37,-0.32,1.71,-2.87,-1.95,377,277,202,443,352
1939,0.87,-0.36,-0.31,0.55,-2.01,-2.56,375,276,202,444,354
1940,0.86,-0.37,-0.32,1.1,-3.42,-3.11,379,277,197,440,355
1941,0.91,-0.38,-0.34,-0.55,-5.49,-3.11,374,279,202,441,352
1942,0.87,-0.38,-0.35,-1.04,-3.78,-2.75,372,279,201,439,351
1943,0.87,-0.37,-0.32,1.4,-1.22,-2.99,377,280,203,435,353
1944,0.89,-0.37,-0.32,1.04,-2.5,-3.66,378,278,202,441,352
1945,0.88,-0.39,-0.32,-1.16,-1.89,-3.11,379,280,198,439,353
1946,0.86,-0.38,-0.29,1.4,-0.73,0.49,376,276,199,441,352
1947,0.87,-0.38,-0.31,-1.04,-2.62,-1.28,379,276,201,443,353
1948,0.88,-0.38,-0.32,1.89,-4.03,-1.77,377,277,199,442,354
1949,0.85,-0.38,-0.32,2.5,-3.42,-1.89,375,280,200,442,357
1950,0.86,-0.37,-0.33,0.24,-3.97,-2.93,379,279,199,439,354
1951,0.86,-0.37,-0.34,2.75,-1.28,-1.04,397,279,201,442,354
1952,0.88,-0.37,-0.34,2.2,-2.26,-2.87,378,278,199,440,355
1953,0.87,-0.37,-0.33,2.38,-1.89,-1.95,377,276,216,442,355
1954,0.85,-0.36,-0.29,3.91,2.56,-1.83,372,277,203,436,355
1955,0.86,-0.37,-0.31,-0.79,-1.95,-1.4,378,279,199,445,354
1956,0.88,-0.36,-0.3,-0.49,-2.5,-2.08,380,276,202,442,354
1957,0.87,-0.37,-0.33,0.79,-3.97,-3.23,377,274,201,445,354
1958,0.87,-0.37,-0.34,0.0,-4.33,-3.17,376,274,198,435,354
1959,0.87,-0.37,-0.34,-0.12,-4.27,-2.5,379,279,199,444,355
1960,0.87,-0.37,-0.33,-0.61,-2.5,-2.2,375,277,198,441,354
1961,0.87,-0.37,-0.32,-0.31,-2.69,-2.2,380,278,201,444,354
1962,0.88,-0.36,-0.33,-0.06,-1.83,-3.42,376,278,203,445,354
1963,0.88,-0.38,-0.34,0.67,-3.72,-4.46,377,277,202,441,353
1964,0.88,-0.37,-0.34,14.89,-4.76,-6.9,379,278,202,437,356
1965,0.88,-0.36,-0.32,0.92,-3.72,-2.01,379,281,191,440,354
1966,0.88,-0.36,-0.31,1.53,-2.75,-2.2,379,279,199,444,349
1967,0.89,-0.37,-0.34,-3.36,-6.41,-7.69,376,279,201,452,357
1968,0.87,-0.37,-0.35,-9.7,1.71,-6.16,378,276,200,436,353
1969,0.86,-0.38,-0.28,8.61,-2.93,0.61,379,276,203,444,348
1970,0.88,-0.38,-0.29,-0.31,-2.69,-1.59,377,277,207,436,352
1971,0.88,-0.36,-0.28,1.89,-4.82,-0.49,379,276,199,445,353
1972,0.85,-0.38,-0.28,6.59,-2.56,-0.79,377,279,199,440,354
1973,0.86,-0.39,-0.32,-2.99,-2.75,-0.37,377,277,203,446,352
1974,0.86,-0.39,-0.3,-1.22,-2.5,-1.77,380,277,202,441,356
1975,0.87,-0.38,-0.29,0.06,-3.42,-3.42,376,277,203,441,353
1976,0.87,-0.39,-0.31,-1.95,-3.23,-3.17,380,280,198,441,352
1977,0.87,-0.39,-0.31,0.85,-3.23,-2.69,379,279,199,442,352
1978,0.87,-0.39,-0.31,0.18,-3.42,-1.95,377,276,198,442,355
1979,0.87,-0.39,-0.31,1.4,-2.81,-2.75,377,276,203,443,353
1980,0.84,-0.4,-0.29,0.98,-1.77,-3.72,378,277,201,436,352
1981,0.87,-0.38,-0.3,-1.77,-2.62,-2.32,375,278,201,445,352
1982,0.86,-0.36,-0.28,2.62,-3.36,-2.93,381,279,200,441,358
1983,0.88,-0.37,-0.3,1.22,-3.66,-1.83,377,276,200,441,351
1984,0.88,-0.37,-0.31,0.98,-4.09,-1.53,385,277,200,442,355
1985,0.87,-0.37,-0.32,-1.59,-3.36,-2.01,381,280,203,440,359
1986,0.86,-0.36,-0.31,0.98,-4.88,-3.23,380,280,201,436,350
1987,0.88,-0.37,-0.31,-0.61,-2.38,-3.17,379,279,202,438,354
1988,0.88,-0.38,-0.31,-2.56,-1.71,-3.36,374,277,201,440,355
1989,0.88,-0.37,-0.32,-0.85,-2.08,-2.62,378,278,201,440,350
1990,0.88,-0.36,-0.31,-0.73,-3.3,-2.69,378,284,201,440,354
1991,0.88,-0.35,-0.3,-0.67,-2.75,-1.59,375,280,200,443,354
1992,0.87,-0.37,-0.3,-2.32,-2.08,-1.77,379,278,199,440,357
1993,0.88,-0.37,-0.32,-2.08,-2.93,-1.77,379,279,204,444,354
1994,0.88,-0.37,-0.3,-2.81,-2.87,-1.95,378,281,200,441,355
1995,0.88,-0.36,-0.31,0.85,-2.69,-1.77,372,275,204,445,355
1996,0.88,-0.36,-0.31,-0.37,-3.48,-1.89,383,279,197,439,351
1997,0.88,-0.36,-0.31,0.61,-3.48,-2.32,377,277,204,445,354
1998,0.87,-0.36,-0.3,-1.4,-3.17,-2.32,377,277,202,437,354
1999,0.88,-0.36,-0.31,0.18,-2.87,-2.69,374,276,202,439,351
2000,0.88,-0.36,-0.31,1.16,-2.87,-2.62,377,279,200,444,356
2001,0.88,-0.35,-0.31,0.98,-3.23,-2.62,378,275,203,437,354
2002,0.88,-0.35,-0.31,-0.37,-4.09,-2.62,382,278,202,440,353
2003,0.88,-0.36,-0.32,-2.01,-1.65,-4.15,379,276,203,444,353
2004,0.88,-0.35,-0.32,-0.49,-2.5,-2.75,382,277,199,442,354
2005,0.88,-0.36,-0.32,1.46,-2.08,-2.14,379,278,201,439,352
2006,0.88,-0.35,-0.31,0.55,-1.95,-3.17,377,281,204,440,354
2007,0.88,-0.36,-0.32,-0.55,-2.62,-2.38,378,280,200,447,356
2008,0.87,-0.35,-0.3,-0.12,-2.81,-2.08,377,277,200,445,349
2009,0.88,-0.36,-0.31,0.98,-2.56,-2.69,379,272,201,446,358
2010,0.88,-0.36,-0.31,0.31,-3.48,-2.69,385,277,201,444,358
2011,0.89,-0.35,-0.32,-0.06,-3.97,-2.87,373,279,201,440,354
2012,0.88,-0.35,-0.32,0.85,-3.91,-2.99,377,277,199,446,355
2013,0.88,-0.36,-0.33,-0.49,-2.44,-2.62,376,282,201,440,357
2014,0.87,-0.34,-0.31,0.98,-3.05,-1.77,375,277,204,441,353
2015,0.88,-0.35,-0.31,1.04,-2.38,-2.2,376,275,204,443,352
2016,0.87,-0.35,-0.3,0.85,-1.28,-1.83,373,277,201,444,350
2017,0.88,-0.35,-0.31,1.04,-3.17,-2.08,373,278,204,441,350
2018,0.87,-0.35,-0.31,0.61,-2.62,-1.89,376,276,203,440,353
2019,0.87,-0.35,-0.31,-0.73,-4.94,-2.87,376,280,203,438,354
2020,0.89,-0.36,-0.33,-0.73,-3.66,-3.17,388,278,205,443,357
2021,0.88,-0.35,-0.33,0.67,-3.6,-3.23,376,276,202,437,360
2022,0.88,-0.38,-0.3,-1.46,-0.61,-3.72,376,278,200,437,354
2023,0.87,-0.35,-0.32,-0.31,-0.79,-3.6,378,276,204,441,355
2024,0.87,-0.34,-0.3,0.61,-3.48,-1.65,372,278,203,445,355
2025,0.88,-0.35,-0.32,0.73,-1.89,-2.38,376,280,200,440,354
2026,0.86,-0.34,-0.27,0.73,0.0,-0.73,376,277,200,441,347
2027,0.89,-0.34,-0.31,-1.16,-2.56,-3.97,377,276,202,438,355
2028,0.88,-0.35,-0.31,-2.14,-1.83,-4.27,376,277,204,443,357
2029,0.89,-0.35,-0.33,-0.31,-2.99,-2.62,377,276,202,455,355
2030,0.88,-0.34,-0.32,0.73,-2.69,-2.5,377,277,206,435,355
2031,0.89,-0.35,-0.32,0.98,-2.5,-1.77,379,277,201,444,355
2032,0.89,-0.35,-0.32,0.98,-3.3,-2.93,377,277,202,438,357
2033,0.88,-0.35,-0.33,1.28,-3.42,-2.87,374,277,201,437,356
2034,0.88,-0.35,-0.32,1.16,-2.93,-2.81,378,277,203,441,352
2035,0.9,-0.35,-0.33,0.61,-2.26,0.24,378,274,203,441,352
2036,0.89,-0.37,-0.31,2.69,-1.16,-2.75,376,276,202,430,348
2037,0.86,-0.36,-0.27,-3.23,-3.48,-2.62,377,277,202,441,355
2038,0.89,-0.37,-0.29,-0.31,-1.34,-1.04,376,280,206,445,354
2039,0.89,-0.36,-0.29,-0.31,-3.97,-5.31,375,278,203,443,355
2040,0.89,-0.34,-0.28,2.75,-2.14,-3.42,372,279,204,445,356
2041,0.89,-0.35,-0.32,-0.24,-4.39,-2.62,375,276,203,442,354
2042,0.88,-0.36,-0.31,1.77,-2.62,-1.65,374,280,201,438,356
2043,0.88,-0.36,-0.3,0.67,-2.62,-1.77,377,280,202,444,360
2044,0.87,-0.37,-0.3,-0.61,-3.05,-2.2,376,289,199,439,356
2045,0.87,-0.36,-0.27,2.81,-2.5,-1.71,380,275,202,438,354
2046,0.9,-0.35,-0.29,0.43,-2.56,-2.99,378,278,208,442,354
2047,0.89,-0.37,-0.32,0.37,-2.69,-2.26,379,276,203,441,354
2048,0.87,-0.37,-0.31,0.55,-3.17,-2.44,378,277,208,442,354
2049,0.88,-0.37,-0.31,-0.06,-2.87,-1.4,405,292,204,437,352
2050,0.87,-0.38,-0.31,-0.06,-2.26,-1.4,380,279,205,441,354
2051,0.88,-0.38,-0.3,0.0,-3.48,-3.72,379,281,201,439,355
