,aX,aY,aZ,gX,gY,gZ,index,middle,ring,little,thumb,Character
0,0.58,0.74,0.41,1.77,-2.26,-6.71,310,236,468,413,219,0.0
1,0.58,0.74,0.39,2.93,1.77,-8.3,309,236,464,413,220,0.0
2,0.53,0.73,0.41,-5.25,-5.68,-4.82,310,235,467,412,223,0.0
3,0.57,0.75,0.39,2.44,-6.41,-1.83,312,238,459,412,228,0.0
4,0.57,0.76,0.39,-1.59,-3.17,-4.39,309,238,465,416,220,0.0
5,0.51,0.74,0.41,-1.16,-5.0,-1.1,310,238,464,413,219,0.0
6,0.55,0.74,0.42,-4.21,-2.14,3.91,311,236,467,413,223,0.0
7,0.59,0.76,0.39,7.45,-3.23,-2.81,309,236,465,413,223,0.0
8,0.55,0.71,0.42,-4.15,-3.42,-0.98,312,238,465,414,226,0.0
9,0.58,0.75,0.4,2.26,-2.93,-3.11,311,246,465,413,223,0.0
10,0.52,0.69,0.44,-2.14,-0.61,-3.17,308,239,464,412,222,0.0
11,0.5,0.77,0.46,7.81,1.71,-7.39,311,240,461,413,224,0.0
12,0.5,0.71,0.44,2.08,-2.5,-1.28,309,240,459,417,225,0.0
13,0.45,0.83,0.47,2.32,2.08,-2.87,305,237,471,414,224,0.0
14,0.45,0.82,0.43,-3.48,-3.85,4.39,307,235,463,415,224,0.0
15,0.46,0.83,0.42,4.52,-1.16,-3.05,312,239,460,414,224,0.0
16,0.44,0.8,0.43,3.48,0.49,-2.62,308,240,465,414,228,0.0
17,0.45,0.79,0.42,1.04,-6.35,1.16,311,241,469,413,226,0.0
18,0.46,0.81,0.44,-0.61,-3.3,-2.08,315,242,466,412,228,0.0
19,0.46,0.77,0.42,1.04,-3.42,-0.98,310,242,466,414,226,0.0
20,0.46,0.79,0.42,-0.73,-1.95,-1.28,313,237,468,411,227,0.0
21,0.46,0.77,0.42,-1.53,-2.81,-3.17,314,241,467,412,228,0.0
22,0.48,0.77,0.41,1.16,-3.97,-2.01,315,240,466,415,229,0.0
23,0.48,0.79,0.41,0.24,-1.4,-2.44,311,239,467,410,227,0.0
24,0.47,0.79,0.42,-2.32,-2.69,-3.85,309,242,468,416,227,0.0
25,0.47,0.8,0.43,-2.32,-2.08,-2.14,313,241,466,415,228,0.0
26,0.46,0.77,0.42,1.71,-0.24,-4.09,310,243,467,415,227,0.0
27,0.47,0.79,0.42,0.12,-2.2,-2.5,311,241,474,410,268,0.0
28,0.46,0.79,0.43,1.34,-2.81,-3.17,314,239,473,415,226,0.0
29,0.46,0.8,0.42,0.73,-2.5,-3.48,317,242,471,415,229,0.0
30,0.48,0.79,0.42,1.65,-2.56,-3.42,310,241,468,416,229,0.0
31,0.46,0.78,0.43,1.04,-1.4,-1.95,311,240,463,413,231,0.0
32,0.47,0.79,0.43,-0.37,-3.36,-2.32,311,237,470,409,227,0.0
33,0.45,0.78,0.42,2.14,-1.04,-2.81,312,247,467,412,229,0.0
34,0.46,0.79,0.43,-1.04,-2.44,-4.21,312,240,465,413,231,0.0
35,0.47,0.8,0.4,5.19,-2.75,-2.56,308,236,471,413,228,0.0
36,0.47,0.77,0.4,2.14,-2.14,-2.32,309,237,464,414,234,0.0
37,0.48,0.79,0.39,-0.12,-3.17,-1.22,309,240,465,414,226,0.0
38,0.47,0.79,0.39,1.77,-3.17,-2.2,309,239,468,412,266,0.0
39,0.48,0.79,0.39,2.44,-5.62,0.24,312,237,464,414,229,0.0
40,0.48,0.78,0.39,-0.18,-5.0,1.71,308,237,467,417,226,0.0
41,0.49,0.79,0.38,2.14,-5.19,-1.77,310,240,468,410,229,0.0
42,0.48,0.79,0.39,0.61,-3.11,-1.89,311,239,467,414,228,0.0
43,0.49,0.79,0.38,2.26,-2.62,-2.93,308,242,469,415,226,0.0
44,0.49,0.8,0.39,0.43,-2.87,-2.32,312,238,468,416,229,0.0
45,0.49,0.8,0.38,1.22,-2.26,-0.43,311,237,471,411,228,0.0
46,0.49,0.8,0.39,0.31,-2.99,-4.46,311,238,471,417,227,0.0
47,0.48,0.79,0.39,2.81,-3.42,-3.54,309,239,472,413,231,0.0
48,0.47,0.8,0.38,4.03,-4.76,-2.01,310,237,470,412,228,0.0
49,0.48,0.8,0.38,0.79,-4.09,-3.3,309,236,467,414,232,0.0
50,0.49,0.79,0.37,1.28,-2.5,-1.22,312,237,466,416,231,0.0
51,0.49,0.79,0.37,2.2,-2.56,-0.55,311,238,481,415,227,0.0
52,0.49,0.78,0.38,1.28,-2.69,-2.99,310,238,462,414,229,0.0
53,0.48,0.8,0.4,1.34,-2.01,-4.82,319,239,463,415,229,0.0
54,0.49,0.8,0.38,0.31,-2.75,-1.71,308,241,470,412,225,0.0
55,0.48,0.78,0.38,0.61,-2.81,-0.24,313,237,472,412,232,0.0
56,0.49,0.8,0.38,2.75,-2.44,-2.81,312,238,469,414,231,0.0
57,0.49,0.79,0.37,-0.31,-3.48,-3.11,311,238,467,411,229,0.0
58,0.47,0.81,0.38,-1.65,-3.23,-4.58,312,240,470,416,233,0.0
59,0.49,0.79,0.36,0.92,-4.09,-1.83,315,241,471,415,225,0.0
60,0.5,0.81,0.36,-1.53,-4.03,-0.67,313,240,471,414,223,0.0
61,0.5,0.8,0.37,3.66,-3.91,-2.32,315,244,468,411,228,0.0
62,0.5,0.78,0.36,1.28,-2.44,-1.04,313,243,467,413,244,0.0
63,0.5,0.78,0.37,2.26,-4.39,-1.4,313,243,466,415,231,0.0
64,0.49,0.79,0.36,-2.08,-2.99,-2.93,313,239,471,412,231,0.0
65,0.49,0.79,0.36,-1.22,-2.93,-3.66,317,240,470,415,227,0.0
66,0.48,0.8,0.38,0.37,-2.2,-3.42,313,244,465,417,232,0.0
67,0.49,0.77,0.37,-1.71,-2.44,-2.08,313,241,473,415,231,0.0
68,0.46,0.79,0.36,-3.36,-4.82,-4.82,314,238,468,410,231,0.0
69,0.49,0.79,0.36,-0.43,-3.05,-1.34,313,240,470,415,232,0.0
70,0.49,0.8,0.37,0.61,-2.81,-2.81,317,245,468,415,229,0.0
71,0.48,0.8,0.37,1.4,-1.28,-4.27,312,239,481,415,232,0.0
72,0.49,0.8,0.37,1.89,-2.69,-3.11,317,246,473,411,231,0.0
73,0.48,0.79,0.38,-0.12,-1.65,-3.23,314,243,468,415,230,0.0
74,0.49,0.79,0.36,0.0,-2.44,-3.05,311,244,482,415,230,0.0
75,0.5,0.8,0.37,-0.49,-3.6,-0.24,315,240,462,416,229,0.0
76,0.49,0.78,0.36,-0.18,-2.81,-2.44,314,241,464,416,228,0.0
77,0.5,0.79,0.38,-0.06,-3.23,-2.93,314,241,470,415,231,0.0
78,0.46,0.79,0.37,-0.61,-2.38,-3.23,322,242,468,416,231,0.0
79,0.49,0.79,0.39,2.26,-1.71,-4.33,314,241,469,414,226,0.0
80,0.48,0.8,0.38,-0.79,-2.93,-2.44,312,241,463,412,234,0.0
81,0.49,0.78,0.39,-0.06,-3.54,-2.01,312,242,473,414,234,0.0
82,0.48,0.8,0.37,0.49,-4.21,-2.93,318,240,461,415,233,0.0
83,0.48,0.79,0.38,-0.49,-1.71,-2.38,310,242,467,414,231,0.0
84,0.48,0.79,0.37,-1.83,-2.44,-2.38,316,239,467,416,231,0.0
85,0.49,0.81,0.38,-0.67,-2.69,-3.72,316,242,466,415,231,0.0
86,0.46,0.8,0.39,-1.4,-0.67,-4.46,316,241,470,418,233,0.0
87,0.44,0.84,0.37,-3.3,-16.24,-9.58,316,239,471,416,232,0.0
88,0.46,0.8,0.4,-1.22,-11.84,-10.38,313,240,466,415,231,0.0
89,0.45,0.77,0.38,-4.21,-1.71,5.19,315,245,467,417,231,0.0
90,0.49,0.78,0.36,-0.12,3.66,5.98,317,244,464,417,234,0.0
91,0.48,0.75,0.36,2.32,3.66,10.99,318,240,468,416,232,0.0
92,0.47,0.82,0.42,-0.06,6.1,-2.75,316,242,468,412,230,0.0
93,0.49,0.8,0.39,2.5,-4.27,-1.53,318,242,471,415,234,0.0
94,0.44,0.78,0.42,1.4,-0.18,1.53,315,238,469,419,233,0.0
95,0.49,0.77,0.4,-0.06,-4.82,-2.26,316,242,467,414,233,0.0
96,0.48,0.78,0.4,0.79,-4.03,-2.62,316,241,468,416,233,0.0
97,0.5,0.8,0.4,0.49,-1.53,-3.17,316,246,478,414,233,0.0
98,0.5,0.8,0.41,2.32,-1.28,-2.81,318,243,467,419,251,0.0
99,0.49,0.77,0.39,0.31,-2.08,-0.79,317,244,468,414,227,0.0
100,0.5,0.78,0.39,0.24,-3.42,-2.14,316,244,468,417,232,0.0
101,0.5,0.78,0.4,0.24,-3.6,-2.01,316,247,471,417,272,0.0
102,0.51,0.78,0.39,-0.73,-3.23,-1.53,316,243,466,415,231,0.0
103,0.5,0.78,0.39,1.28,-2.5,-3.91,319,240,469,416,241,0.0
104,0.51,0.77,0.39,-1.16,-2.62,-2.56,316,243,467,416,235,0.0
105,0.5,0.77,0.39,-0.18,-4.39,-3.72,317,243,463,417,233,0.0
106,0.51,0.76,0.39,-0.31,-4.27,-0.37,317,241,463,418,233,0.0
107,0.5,0.77,0.39,-1.04,-2.56,-1.89,318,241,464,416,231,0.0
108,0.51,0.78,0.39,0.37,-4.03,-2.08,317,242,470,417,228,0.0
109,0.52,0.78,0.39,-1.34,-3.97,-0.98,317,243,468,417,235,0.0
110,0.52,0.78,0.39,-1.04,-3.91,-2.93,318,241,465,416,233,0.0
111,0.49,0.78,0.4,-1.59,-0.98,-4.76,317,241,470,417,231,0.0
112,0.49,0.78,0.39,0.06,-4.46,-2.93,320,245,466,417,231,0.0
113,0.48,0.77,0.38,-0.31,-5.49,0.12,320,243,475,417,232,0.0
114,0.51,0.78,0.4,-5.86,-10.68,-1.46,321,246,468,418,234,0.0
115,0.47,0.71,0.4,-4.64,-2.26,14.34,320,245,467,416,234,0.0
116,0.56,0.73,0.39,-3.72,-3.6,-1.53,317,249,467,416,237,0.0
117,0.53,0.73,0.41,-3.05,-3.72,0.43,317,244,470,417,244,0.0
118,0.55,0.77,0.43,0.43,-2.62,-3.72,317,246,471,417,234,0.0
119,0.53,0.76,0.41,0.73,-3.11,1.1,317,243,474,419,233,0.0
120,0.53,0.75,0.41,0.73,-4.58,-3.91,319,245,468,415,231,0.0
121,0.52,0.73,0.4,-0.18,-3.36,-1.71,318,245,471,417,236,0.0
122,0.53,0.77,0.4,2.2,0.73,-7.87,318,244,471,418,233,0.0
123,0.54,0.77,0.42,3.23,-3.97,-2.32,322,243,478,416,236,0.0
124,0.53,0.75,0.41,0.92,-2.26,-2.99,319,243,462,417,236,0.0
125,0.54,0.75,0.4,1.1,-3.36,-1.83,321,245,466,418,234,0.0
126,0.53,0.74,0.41,-2.2,-3.3,-2.44,318,245,473,417,237,0.0
127,0.54,0.76,0.41,-2.26,-2.75,-1.34,319,245,471,413,234,0.0
128,0.52,0.74,0.41,1.04,-3.78,-3.42,316,245,467,412,231,0.0
129,0.52,0.76,0.41,-0.73,-2.44,-2.69,320,246,469,417,236,0.0
130,0.53,0.74,0.41,-0.06,-4.46,-2.26,316,249,472,416,236,0.0
131,0.52,0.76,0.41,-0.85,-1.28,-1.89,321,241,468,417,236,0.0
132,0.51,0.76,0.42,1.83,-2.75,-4.46,319,244,467,418,235,0.0
133,0.5,0.76,0.42,0.98,-1.22,-2.75,321,244,467,414,246,0.0
134,0.53,0.76,0.41,2.56,-4.03,-1.95,324,246,462,417,237,0.0
135,0.51,0.75,0.41,0.49,-2.81,-2.44,317,243,470,418,231,0.0
136,0.51,0.75,0.41,0.55,-3.05,-1.77,327,244,471,419,234,0.0
137,0.51,0.74,0.41,-1.22,-3.36,-2.44,322,244,467,417,230,0.0
138,0.51,0.76,0.4,0.67,-2.93,-2.81,317,242,467,418,237,0.0
139,0.52,0.74,0.4,0.0,-3.23,-2.32,325,245,468,413,233,0.0
140,0.52,0.76,0.42,0.55,-1.83,-2.93,321,244,471,419,234,0.0
141,0.51,0.76,0.42,0.49,-2.38,-3.05,319,246,469,418,233,0.0
142,0.51,0.77,0.41,3.97,-1.46,-3.72,319,242,472,418,233,0.0
143,0.5,0.74,0.4,0.85,-2.81,-2.93,319,245,467,419,230,0.0
144,0.51,0.75,0.41,2.32,-2.87,-0.67,318,242,470,417,235,0.0
145,0.51,0.77,0.42,0.55,-3.91,3.17,321,249,470,413,234,0.0
146,0.53,0.75,0.39,0.49,-4.64,-1.95,320,243,467,416,234,0.0
147,0.55,0.74,0.42,-1.83,0.12,1.16,318,243,470,416,235,0.0
148,0.52,0.73,0.43,2.99,0.55,1.28,319,243,468,415,235,0.0
149,0.54,0.73,0.42,1.4,-1.22,-2.93,322,260,463,420,234,0.0
150,0.52,0.72,0.42,2.08,-1.95,-5.86,322,247,468,418,238,0.0
151,0.53,0.78,0.41,0.24,-3.3,-0.85,320,244,464,414,235,0.0
152,0.55,0.75,0.42,4.27,-4.46,0.06,319,246,463,419,235,0.0
153,0.57,0.71,0.4,-2.5,-2.93,-0.85,320,247,468,419,237,0.0
154,0.56,0.71,0.44,0.55,-5.0,-4.09,317,244,462,420,234,0.0
155,0.55,0.73,0.43,0.49,-3.91,-4.39,317,244,464,418,230,0.0
156,0.57,0.69,0.39,-0.79,-3.36,-0.18,323,246,462,418,237,0.0
157,0.57,0.73,0.43,-2.75,-3.6,-5.37,323,250,468,417,235,0.0
158,0.55,0.69,0.41,-1.16,-3.85,-2.32,322,243,464,418,245,0.0
159,0.57,0.7,0.42,0.12,-2.5,-0.85,323,242,470,419,239,0.0
160,0.59,0.68,0.43,4.39,-8.97,-8.61,326,247,463,416,238,0.0
161,0.58,0.68,0.41,1.4,1.22,-4.46,323,245,474,416,236,0.0
162,0.56,0.74,0.44,0.98,0.31,-4.58,320,245,466,417,237,0.0
163,0.56,0.72,0.44,2.93,-0.37,-4.03,320,248,471,416,266,0.0
164,0.55,0.74,0.45,1.59,-3.11,-2.99,321,248,468,418,236,0.0
165,0.54,0.71,0.46,-1.04,-2.75,0.73,318,245,471,419,237,0.0
166,0.55,0.71,0.45,-1.95,-2.87,-2.69,322,249,471,419,239,0.0
167,0.58,0.71,0.44,0.43,-3.54,-2.87,326,249,467,418,236,0.0
168,0.56,0.71,0.44,-0.73,1.04,-5.62,322,243,465,418,240,0.0
169,0.57,0.7,0.47,-0.49,-4.58,-3.11,323,245,467,418,235,0.0
170,0.55,0.7,0.46,3.23,-3.48,-2.38,323,248,471,418,242,0.0
171,0.56,0.71,0.47,0.0,-3.48,-2.81,325,246,466,416,236,0.0
172,0.54,0.71,0.44,-0.92,-0.61,-4.94,323,245,471,418,242,0.0
173,0.52,0.71,0.47,-1.22,-2.87,-3.78,326,243,471,418,236,0.0
174,0.55,0.72,0.47,0.85,-3.54,-2.5,324,261,470,420,239,0.0
175,0.53,0.71,0.46,1.16,-2.14,-3.66,324,248,466,416,238,0.0
176,0.53,0.72,0.46,0.12,-2.56,-2.38,325,246,461,419,236,0.0
177,0.52,0.72,0.45,0.92,-4.21,-1.65,324,248,462,416,253,0.0
178,0.56,0.73,0.45,4.64,-0.37,-3.23,323,248,482,418,233,0.0
179,0.51,0.75,0.45,1.28,-3.72,-0.73,326,247,469,428,260,0.0
180,0.51,0.71,0.44,-0.92,-3.05,-1.34,325,249,463,418,236,0.0
181,0.53,0.75,0.45,2.62,-3.6,-6.04,320,247,467,415,236,0.0
182,0.5,0.73,0.43,1.22,-2.93,-6.35,322,245,471,418,236,0.0
183,0.5,0.75,0.45,0.31,-2.69,-2.44,326,246,471,417,236,0.0
184,0.51,0.77,0.44,1.65,-1.83,-2.08,323,244,467,419,236,0.0
185,0.5,0.76,0.42,1.77,-3.36,-3.11,329,246,466,418,237,0.0
186,0.5,0.74,0.43,-1.22,-3.05,-1.28,324,256,470,419,237,0.0
187,0.52,0.75,0.42,3.85,-4.21,-1.1,325,250,471,418,239,0.0
188,0.51,0.75,0.41,3.17,-2.75,-3.48,323,251,471,420,237,0.0
189,0.52,0.75,0.41,2.62,-2.26,-2.87,322,246,470,419,234,0.0
190,0.5,0.77,0.41,1.22,-3.6,-4.7,323,247,467,418,238,0.0
191,0.5,0.78,0.42,2.01,-2.69,-2.81,326,245,465,417,240,0.0
192,0.5,0.77,0.42,0.67,-3.11,-2.81,324,256,471,418,239,0.0
193,0.49,0.76,0.42,0.43,-4.46,-0.49,322,245,466,420,237,0.0
194,0.51,0.77,0.41,0.43,-3.3,-1.16,326,247,468,416,237,0.0
195,0.5,0.75,0.41,1.16,-4.52,-1.22,325,245,461,414,239,0.0
196,0.51,0.77,0.4,2.5,-2.81,-2.93,323,246,470,413,237,0.0
197,0.5,0.77,0.41,1.65,-2.32,-2.5,324,249,465,419,240,0.0
198,0.5,0.78,0.41,0.24,-2.75,-2.56,320,249,466,418,239,0.0
199,0.52,0.76,0.39,1.65,-3.66,-4.39,324,249,467,418,238,0.0
200,0.5,0.78,0.41,0.18,-3.91,-3.05,324,247,470,417,238,0.0
201,0.5,0.77,0.4,-1.77,-2.5,-1.95,326,257,466,419,240,0.0
202,0.51,0.78,0.39,1.34,-1.71,-2.32,321,250,468,419,236,0.0
203,0.5,0.78,0.41,-0.79,-2.38,-4.09,320,250,466,415,237,0.0
204,0.49,0.75,0.41,0.61,-1.83,-2.81,323,247,469,418,237,0.0
205,0.49,0.76,0.42,-1.28,-2.75,-2.99,326,248,465,418,239,0.0
206,0.5,0.77,0.41,1.4,-1.95,-1.28,325,250,462,416,238,0.0
207,0.5,0.78,0.42,0.85,-3.17,-1.95,323,248,472,419,237,0.0
208,0.51,0.76,0.4,0.98,-3.97,-1.77,324,250,467,417,237,0.0
209,0.51,0.76,0.4,0.24,-2.99,-2.08,324,250,465,418,237,0.0
210,0.5,0.76,0.41,0.73,-4.39,-1.46,324,248,469,419,234,0.0
211,0.51,0.76,0.41,1.46,-3.05,-2.44,324,245,465,414,237,0.0
212,0.51,0.76,0.41,-0.37,-3.54,-2.56,326,245,469,418,240,0.0
213,0.51,0.76,0.41,1.22,-4.03,-0.79,321,249,466,421,237,0.0
214,0.51,0.75,0.42,-1.22,-3.3,-0.49,323,248,466,419,240,0.0
215,0.51,0.77,0.43,2.93,-3.17,-2.87,326,247,463,417,240,0.0
216,0.51,0.76,0.41,1.89,-3.48,-2.26,326,246,462,416,237,0.0
217,0.49,0.77,0.41,1.22,-2.14,-2.2,324,247,462,418,239,0.0
218,0.49,0.76,0.42,-0.67,-2.81,-2.99,324,247,465,418,240,0.0
219,0.5,0.76,0.41,-0.24,-2.87,-4.27,324,248,470,418,233,0.0
220,0.5,0.76,0.41,-2.26,-3.85,-1.71,324,247,467,418,237,0.0
221,0.49,0.77,0.42,-0.73,-0.61,-4.33,324,243,466,413,238,0.0
222,0.5,0.77,0.42,-0.18,-2.26,-2.81,324,247,463,420,237,0.0
223,0.51,0.78,0.42,0.37,-2.93,-2.75,325,249,466,416,240,0.0
224,0.51,0.76,0.41,-0.49,-2.44,-2.69,321,249,466,414,237,0.0
225,0.5,0.76,0.41,-0.18,-3.05,-2.99,327,250,465,420,240,0.0
226,0.5,0.76,0.41,-1.46,-2.75,-3.54,325,244,467,417,239,0.0
227,0.51,0.75,0.42,-0.24,-2.08,-2.99,324,245,467,413,236,0.0
228,0.52,0.76,0.41,1.28,-2.75,-4.46,324,246,465,414,240,0.0
229,0.5,0.76,0.42,-0.24,-2.32,-2.87,325,250,467,418,242,0.0
230,0.5,0.76,0.42,-0.31,-3.91,-3.36,324,246,470,418,238,0.0
231,0.5,0.77,0.42,0.06,-2.01,-4.52,330,246,465,418,238,0.0
232,0.5,0.78,0.42,1.4,-1.71,-2.81,324,246,461,421,239,0.0
233,0.51,0.76,0.39,-0.67,-3.23,-3.05,324,245,470,415,238,0.0
234,0.51,0.75,0.4,-6.47,-9.09,-4.88,326,248,470,418,239,0.0
235,0.5,0.76,0.4,-1.89,-2.26,-1.65,324,247,470,419,239,0.0
236,0.48,0.76,0.42,2.01,-5.19,-4.46,327,245,467,420,238,0.0
237,0.51,0.76,0.41,4.21,-1.77,-5.13,324,247,464,417,237,0.0
238,0.48,0.8,0.4,3.97,-2.56,-5.25,324,247,467,418,236,0.0
239,0.47,0.8,0.4,0.79,-1.65,-3.78,326,244,469,418,236,0.0
240,0.46,0.8,0.4,1.46,-4.09,-2.62,326,249,472,417,240,0.0
241,0.46,0.79,0.38,1.22,-3.05,-2.26,326,253,470,418,239,0.0
242,0.46,0.82,0.41,0.24,-0.49,-3.17,325,248,466,417,240,0.0
243,0.47,0.78,0.39,0.73,-1.28,-4.21,325,249,466,419,238,0.0
244,0.46,0.79,0.4,-1.89,-2.32,-2.01,327,246,465,416,250,0.0
245,0.5,0.81,0.43,-0.98,-0.24,-1.65,324,246,461,419,237,0.0
246,0.5,0.79,0.41,-0.06,-0.55,-0.92,325,250,466,416,237,0.0
247,0.48,0.8,0.44,-0.67,-1.4,-3.05,324,245,469,417,241,0.0
248,0.5,0.8,0.44,0.79,-4.7,-2.2,324,250,466,417,237,0.0
249,0.46,0.75,0.42,1.04,-2.93,-3.85,324,249,467,417,237,0.0
250,0.47,0.78,0.43,3.42,-1.89,-1.22,341,250,469,417,241,0.0
251,0.46,0.8,0.42,0.79,-3.97,-2.93,327,249,466,417,238,0.0
252,0.49,0.77,0.42,-0.06,-3.66,-2.08,326,249,464,414,239,0.0
253,0.48,0.79,0.42,1.89,-2.56,-2.62,326,247,464,420,237,0.0
254,0.48,0.77,0.42,-0.06,-2.69,-2.62,323,248,467,417,240,0.0
255,0.48,0.79,0.42,0.61,-3.17,-2.81,327,248,465,419,239,0.0
256,0.48,0.77,0.41,0.12,-3.05,-2.01,332,249,467,420,253,0.0
257,0.5,0.76,0.41,1.46,-3.48,-2.44,325,253,465,419,242,0.0
258,0.49,0.77,0.41,0.31,-3.05,-2.32,325,249,470,418,237,0.0
259,0.49,0.77,0.42,1.28,-2.32,-4.33,325,248,466,417,238,0.0
260,0.49,0.77,0.42,-0.43,-2.01,-3.17,324,248,467,418,238,0.0
261,0.49,0.77,0.41,-0.98,-2.69,-2.32,326,244,470,417,238,0.0
262,0.49,0.78,0.42,0.06,-2.44,-3.17,324,251,466,417,229,0.0
263,0.49,0.76,0.41,0.43,-2.26,-2.81,329,247,464,425,238,0.0
264,0.49,0.78,0.4,-1.65,-3.05,-2.08,325,250,470,418,237,0.0
265,0.48,0.79,0.41,-3.17,-3.54,-3.23,321,246,464,417,241,0.0
266,0.48,0.78,0.42,0.12,-3.54,-1.83,327,246,462,418,235,0.0
267,0.48,0.77,0.42,-0.55,-1.71,-0.92,328,247,467,418,251,0.0
268,0.49,0.78,0.42,0.37,-3.17,-2.32,325,248,465,417,239,0.0
269,0.48,0.77,0.41,0.92,-2.08,-1.83,322,251,465,418,240,0.0
270,0.49,0.76,0.42,0.67,-2.5,-2.5,326,250,470,414,237,0.0
271,0.48,0.77,0.42,0.06,-3.36,-2.38,326,251,461,419,238,0.0
272,0.48,0.75,0.4,3.23,-0.31,-5.92,329,247,470,418,238,0.0
273,0.49,0.78,0.42,0.73,-3.11,-2.87,328,249,465,418,237,0.0
274,0.47,0.76,0.42,-0.98,-0.37,0.24,328,249,461,418,238,0.0
275,0.5,0.72,0.4,1.59,-3.17,-4.03,324,249,463,421,240,0.0
276,0.51,0.79,0.43,0.55,-2.14,-2.38,326,251,460,417,246,0.0
277,0.49,0.75,0.41,1.89,-2.08,-4.03,327,245,475,418,237,0.0
278,0.5,0.76,0.42,-0.43,-3.05,-1.71,328,247,466,415,238,0.0
279,0.51,0.75,0.42,-1.28,-3.3,-1.28,324,248,461,418,237,0.0
280,0.49,0.75,0.42,-0.67,-2.01,-3.36,326,251,470,418,233,0.0
281,0.48,0.76,0.43,0.67,-3.85,-2.5,328,246,470,417,239,0.0
282,0.5,0.74,0.42,-0.43,-4.21,-2.32,322,248,460,415,240,0.0
283,0.5,0.75,0.41,-1.77,-2.75,-3.72,326,244,462,417,237,0.0
284,0.5,0.76,0.42,-6.29,-3.85,-1.1,325,246,468,418,239,0.0
285,0.51,0.75,0.44,-2.38,-3.3,-1.46,331,251,470,420,235,0.0
286,0.49,0.76,0.43,-0.55,-4.64,-1.59,325,249,466,419,240,0.0
287,0.5,0.78,0.44,1.89,-4.27,-1.53,327,247,466,418,233,0.0
288,0.49,0.77,0.45,1.71,-1.59,-4.94,325,252,464,418,238,0.0
289,0.5,0.78,0.45,1.28,-3.66,-2.38,327,249,460,417,238,0.0
290,0.48,0.76,0.42,3.97,-6.71,0.55,327,249,461,418,238,0.0
291,0.59,0.73,0.42,-13.49,-0.92,-14.71,328,248,465,420,238,0.0
292,0.46,0.79,0.49,8.97,6.53,-22.71,327,249,469,418,240,0.0
293,0.45,0.81,0.42,8.48,4.64,-9.03,330,251,468,418,241,0.0
294,0.47,0.8,0.36,12.15,-0.18,-2.38,328,253,461,416,241,0.0
295,0.43,0.81,0.39,2.56,-2.5,2.2,327,253,467,415,236,0.0
296,0.45,0.8,0.38,-2.01,1.34,0.0,330,252,465,413,240,0.0
297,0.44,0.84,0.4,5.25,-1.89,-10.31,328,252,469,417,238,0.0
298,0.46,0.81,0.4,4.82,-3.48,-1.89,329,246,473,418,238,0.0
299,0.42,0.81,0.4,-1.22,2.93,-4.27,328,253,469,418,240,0.0
300,0.44,0.79,0.43,-1.77,6.41,0.49,330,250,461,417,241,0.0
301,0.45,0.78,0.4,1.71,-1.04,-1.53,326,252,466,418,238,0.0
302,0.43,0.8,0.41,2.01,-3.42,-4.39,329,252,464,417,241,0.0
303,0.45,0.76,0.41,-1.1,-4.88,-1.1,330,251,466,415,239,0.0
304,0.46,0.84,0.45,3.17,0.31,-3.11,331,251,467,415,240,0.0
305,0.45,0.79,0.44,0.92,-1.95,-4.33,325,250,461,416,239,0.0
306,0.47,0.79,0.4,4.09,-4.27,-1.59,327,249,471,417,238,0.0
307,0.48,0.81,0.42,2.81,-4.82,-5.55,328,256,469,417,238,0.0
308,0.46,0.8,0.42,0.12,-3.36,-2.26,327,252,464,420,238,0.0
309,0.44,0.8,0.41,5.92,-1.1,-3.78,328,251,467,416,241,0.0
310,0.43,0.8,0.43,0.85,-2.32,-4.09,328,249,476,417,238,0.0
311,0.44,0.81,0.41,3.72,-2.81,-2.26,338,251,465,413,241,0.0
312,0.47,0.81,0.4,4.82,-8.54,4.58,331,250,472,417,238,0.0
313,0.44,0.81,0.42,-1.4,-3.6,-4.64,328,259,462,417,238,0.0
314,0.45,0.79,0.41,1.65,-5.07,-3.36,333,255,464,417,238,0.0
315,0.44,0.8,0.41,2.87,-2.99,-4.52,342,252,467,418,238,0.0
316,0.41,0.81,0.4,-1.95,-10.68,-8.67,331,250,470,417,239,0.0
317,0.45,0.79,0.4,-1.65,-2.93,-2.14,330,253,466,417,241,0.0
318,0.45,0.8,0.41,0.92,-3.17,-0.55,327,251,464,418,240,0.0
319,0.43,0.79,0.41,-0.49,-4.58,-0.85,325,256,468,417,239,0.0
320,0.44,0.8,0.41,0.67,-2.75,-2.69,333,250,466,417,252,0.0
321,0.44,0.8,0.41,-0.18,-2.99,-3.97,328,248,467,417,241,0.0
322,0.44,0.82,0.42,1.16,-2.93,-2.26,331,253,465,417,236,0.0
323,0.42,0.81,0.41,0.0,-3.97,-1.89,327,253,460,418,239,0.0
324,0.42,0.81,0.41,-0.79,-2.62,-2.14,330,251,460,418,239,0.0
325,0.43,0.82,0.41,-0.43,-2.08,-2.32,328,248,464,419,239,0.0
326,0.42,0.82,0.43,-1.4,-4.03,-1.53,329,252,463,417,240,0.0
327,0.44,0.79,0.4,-0.12,-4.21,-0.18,329,251,463,416,247,0.0
328,0.43,0.81,0.41,1.4,-2.38,-3.72,332,264,466,418,243,0.0
329,0.44,0.82,0.42,2.14,-2.5,-3.48,327,253,468,415,241,0.0
330,0.43,0.81,0.41,0.37,-2.5,-2.69,324,249,465,417,238,0.0
331,0.42,0.83,0.41,-1.22,-2.99,-2.32,329,247,468,418,238,0.0
332,0.43,0.82,0.4,0.43,-4.33,-1.16,322,248,468,417,238,0.0
333,0.43,0.81,0.39,0.55,-3.23,-2.62,327,248,469,413,236,0.0
334,0.44,0.8,0.39,2.26,-1.71,-3.3,322,243,469,418,238,0.0
335,0.45,0.81,0.4,3.54,-3.17,-2.2,325,249,465,417,236,0.0
336,0.43,0.83,0.4,-0.85,-2.87,-2.75,329,248,468,417,234,0.0
337,0.42,0.81,0.4,-0.31,-1.77,-3.66,324,246,467,416,240,0.0
338,0.42,0.82,0.4,-0.12,-2.08,-2.75,324,246,466,419,239,0.0
339,0.44,0.81,0.41,0.55,-3.48,-2.2,331,248,469,407,239,0.0
340,0.43,0.81,0.4,0.43,-1.53,-3.91,327,243,461,412,241,0.0
341,0.42,0.82,0.42,-2.2,-0.98,-1.89,324,251,465,417,241,0.0
342,0.42,0.81,0.4,3.3,-5.98,-0.73,328,244,466,419,252,0.0
343,0.44,0.78,0.38,-1.89,-3.42,1.77,326,250,461,415,240,0.0
344,0.43,0.8,0.41,-0.92,-2.69,-3.66,325,245,465,415,240,0.0
345,0.42,0.83,0.43,0.43,-1.1,-0.98,327,247,468,419,242,0.0
346,0.46,0.84,0.39,1.22,-4.88,-4.09,325,246,470,417,238,0.0
347,0.42,0.8,0.39,1.71,-3.17,-1.71,322,250,468,415,239,0.0
348,0.44,0.81,0.39,0.79,-2.32,-1.65,324,248,466,415,239,0.0
349,0.44,0.81,0.41,0.49,-3.11,-2.56,325,248,466,415,240,0.0
350,0.44,0.8,0.39,1.34,-2.38,-1.16,325,250,460,417,238,0.0
351,0.45,0.83,0.41,-2.01,-4.94,2.93,328,245,473,419,241,0.0
352,0.45,0.79,0.4,-0.49,-4.21,-2.38,326,251,465,420,240,0.0
353,0.44,0.8,0.41,-3.3,-5.74,-0.49,325,250,466,417,244,0.0
354,0.45,0.79,0.41,2.2,-3.66,-1.04,334,249,463,418,241,0.0
355,0.43,0.79,0.43,0.92,-2.14,-3.23,325,250,465,416,239,0.0
356,0.45,0.79,0.4,-0.12,-4.64,-0.18,326,251,466,419,240,0.0
357,0.46,0.81,0.42,1.04,-3.6,-3.05,327,251,468,419,240,0.0
358,0.44,0.79,0.41,1.16,-2.32,-3.17,331,248,460,418,241,0.0
359,0.45,0.8,0.42,1.4,-1.65,-3.72,329,251,468,417,239,0.0
360,0.46,0.81,0.42,1.1,-3.3,-2.56,326,251,464,417,241,0.0
361,0.44,0.79,0.41,0.55,-2.69,-1.34,324,249,470,417,240,0.0
362,0.44,0.8,0.42,-0.55,-2.2,-3.05,324,249,470,416,239,0.0
363,0.44,0.79,0.43,0.06,-1.28,-2.56,335,256,470,420,241,0.0
364,0.45,0.8,0.42,0.98,-2.14,-2.44,326,250,467,418,238,0.0
365,0.44,0.79,0.41,2.26,-3.17,-2.26,327,247,465,418,237,0.0
366,0.44,0.79,0.43,-0.92,-3.48,-1.46,324,251,468,420,239,0.0
367,0.46,0.81,0.43,0.49,-3.05,-2.99,330,245,467,412,240,0.0
368,0.44,0.79,0.43,0.79,-1.77,-2.56,329,255,464,420,240,0.0
369,0.41,0.78,0.41,0.37,-0.18,-5.49,328,250,465,416,242,0.0
370,0.45,0.79,0.41,0.31,-2.5,-2.75,327,249,469,417,245,0.0
371,0.44,0.79,0.42,-1.89,-3.23,-2.26,329,252,468,417,241,0.0
372,0.44,0.78,0.42,0.06,-2.93,-2.14,328,252,466,415,240,0.0
373,0.44,0.8,0.42,-0.31,-2.32,-2.56,328,261,466,418,242,0.0
374,0.45,0.8,0.42,1.28,-3.11,-2.14,331,249,469,417,238,0.0
375,0.44,0.81,0.43,0.31,-2.87,-2.69,327,257,464,416,242,0.0
376,0.45,0.79,0.42,-0.31,-3.17,-2.14,329,253,466,417,240,0.0
377,0.45,0.81,0.42,1.34,-2.62,-2.75,327,252,470,417,240,0.0
378,0.45,0.8,0.41,-1.34,-4.52,-1.89,325,253,463,420,239,0.0
379,0.44,0.78,0.42,-0.24,-3.48,-1.83,328,252,465,419,244,0.0
380,0.46,0.77,0.42,-0.37,-2.38,-3.97,328,251,467,414,242,0.0
381,0.45,0.79,0.43,0.98,-2.93,-1.83,328,252,460,418,244,0.0
382,0.47,0.78,0.43,0.06,-3.66,-2.99,324,252,462,416,237,0.0
383,0.45,0.79,0.43,2.38,-3.23,-2.81,329,251,472,417,240,0.0
384,0.45,0.79,0.42,1.22,-1.95,-2.69,325,253,466,414,242,0.0
385,0.46,0.82,0.43,1.95,-1.71,-1.65,328,250,464,417,241,0.0
386,0.44,0.79,0.42,-2.75,-2.81,-1.89,327,252,466,420,241,0.0
387,0.45,0.78,0.42,-0.24,-3.23,-0.67,327,253,466,415,240,0.0
388,0.47,0.79,0.42,-0.79,-4.21,-0.43,331,251,481,419,240,0.0
389,0.47,0.79,0.43,0.85,-3.36,-2.2,328,251,460,418,240,0.0
390,0.46,0.78,0.42,-0.18,-2.62,-2.75,329,249,464,413,241,0.0
391,0.47,0.79,0.43,1.22,-3.6,-2.2,325,253,464,416,239,0.0
392,0.46,0.77,0.42,-0.73,-1.34,-3.36,326,251,469,420,252,0.0
393,0.45,0.78,0.42,2.5,-1.95,-3.23,327,252,470,413,239,0.0
394,0.47,0.79,0.43,-2.26,-3.66,-0.67,327,249,465,417,240,0.0
395,0.47,0.8,0.43,1.83,-2.99,-2.56,332,253,466,417,239,0.0
396,0.45,0.79,0.43,0.49,-2.26,-2.38,329,251,463,418,240,0.0
397,0.46,0.78,0.42,2.14,-2.14,-3.36,329,251,466,417,241,0.0
398,0.47,0.79,0.42,-0.61,-3.6,-1.89,329,248,469,418,240,0.0
399,0.47,0.81,0.43,0.73,-3.54,-3.05,331,251,469,414,237,0.0
400,0.45,0.78,0.41,4.64,-2.38,-3.17,325,248,465,425,242,0.0
401,0.45,0.78,0.41,-0.73,-1.83,-2.75,331,250,467,417,242,0.0
402,0.46,0.8,0.42,1.04,-3.23,-3.11,327,251,464,418,237,0.0
403,0.47,0.8,0.43,0.92,-2.69,-2.26,330,250,467,419,243,0.0
404,0.46,0.79,0.42,0.24,-3.48,-2.38,326,253,465,415,240,0.0
405,0.47,0.8,0.42,0.24,-2.44,-3.72,331,250,464,417,241,0.0
406,0.47,0.78,0.43,0.43,-2.69,-3.6,326,249,474,418,240,0.0
407,0.45,0.77,0.41,0.37,-1.89,-2.87,329,253,462,417,238,0.0
408,0.45,0.78,0.42,0.79,-4.03,-1.34,326,252,464,417,242,0.0
409,0.45,0.79,0.43,-1.53,-2.87,-2.62,329,253,465,413,242,0.0
410,0.46,0.77,0.41,0.49,-2.38,-3.6,329,254,466,414,238,0.0
411,0.45,0.79,0.42,-1.04,-2.44,-2.01,329,254,464,417,243,0.0
412,0.45,0.79,0.42,-2.26,-2.62,-1.59,333,254,468,418,241,0.0
413,0.46,0.8,0.44,-0.73,-2.26,-3.42,330,251,464,414,241,0.0
414,0.44,0.8,0.43,1.95,-1.77,-4.39,332,251,466,418,240,0.0
415,0.44,0.8,0.42,2.99,-5.98,-0.24,327,254,466,417,241,0.0
416,0.41,0.78,0.45,-0.85,2.69,-2.08,333,249,466,415,240,0.0
417,0.44,0.79,0.42,0.92,-1.53,-3.42,327,251,466,416,241,0.0
418,0.44,0.81,0.41,1.95,-3.6,-4.82,329,252,466,419,242,0.0
419,0.42,0.81,0.42,-1.28,-1.16,-3.36,332,254,464,415,241,0.0
420,0.41,0.79,0.41,-1.59,-0.61,-6.04,328,251,464,423,240,0.0
421,0.36,0.79,0.36,25.57,-4.88,-8.67,328,252,461,415,241,0.0
422,0.39,0.92,0.22,-7.69,-1.77,2.87,329,252,468,414,237,0.0
423,0.44,0.88,0.2,-2.62,-0.55,-1.77,331,253,470,415,241,0.0
424,0.45,0.9,0.21,3.85,2.44,-6.41,328,252,465,412,243,0.0
425,0.43,0.89,0.21,0.18,-0.73,-5.43,328,249,463,415,241,0.0
426,0.45,0.87,0.19,2.69,-4.94,0.12,328,249,464,415,241,0.0
427,0.44,0.89,0.22,-0.85,-3.3,-1.95,332,253,468,413,242,0.0
428,0.44,0.88,0.21,2.62,-3.72,-1.65,329,250,461,417,251,0.0
429,0.43,0.86,0.22,1.4,-1.77,-3.78,333,251,470,415,245,0.0
430,0.43,0.88,0.22,-0.06,-1.89,-3.05,333,256,464,417,245,0.0
431,0.43,0.87,0.22,-2.26,-2.56,-3.48,334,256,464,415,245,0.0
432,0.42,0.87,0.23,-0.06,-3.66,-0.98,335,253,465,417,245,0.0
433,0.44,0.86,0.22,0.0,-2.2,-2.08,331,251,466,414,244,0.0
434,0.44,0.87,0.23,-1.71,-3.91,-2.26,332,254,470,413,245,0.0
435,0.44,0.88,0.23,-0.18,-3.66,-0.18,333,250,466,410,245,0.0
436,0.44,0.88,0.23,1.59,-3.11,-3.17,333,255,464,422,245,0.0
437,0.44,0.87,0.23,-1.4,-2.81,-2.69,335,255,465,414,247,0.0
438,0.43,0.86,0.23,-0.43,-2.62,-1.95,333,253,465,414,247,0.0
439,0.42,0.87,0.24,0.0,-1.1,-3.36,342,255,465,417,244,0.0
440,0.45,0.86,0.23,0.98,-2.93,-1.89,337,256,465,413,248,0.0
441,0.45,0.87,0.23,0.31,-2.75,-2.81,336,269,459,415,249,0.0
442,0.44,0.87,0.23,-0.73,-2.81,-2.62,337,253,468,415,248,0.0
443,0.45,0.87,0.22,-0.49,-2.99,-1.83,339,254,467,414,248,0.0
444,0.44,0.87,0.23,0.49,-1.34,-3.72,336,256,467,415,248,0.0
445,0.44,0.86,0.22,0.85,-3.78,-0.67,333,252,465,416,245,0.0
446,0.44,0.86,0.22,-0.79,-3.66,-1.71,333,255,465,415,247,0.0
447,0.43,0.87,0.23,-1.53,-2.99,-2.32,334,256,459,418,241,0.0
448,0.46,0.87,0.22,0.0,-5.92,-2.5,337,254,461,419,244,0.0
449,0.44,0.87,0.24,-1.16,-1.34,-3.72,333,256,460,415,245,0.0
450,0.44,0.81,0.26,-34.91,20.94,-12.27,336,255,464,419,247,0.0
451,0.39,0.79,0.38,-4.09,-0.79,0.37,336,254,463,415,247,0.0
452,0.41,0.84,0.39,-0.85,-1.95,-2.26,336,255,465,415,245,0.0
453,0.42,0.81,0.37,-3.78,-4.09,-1.95,333,256,469,414,242,0.0
454,0.41,0.85,0.37,0.49,-4.03,-2.32,334,254,464,414,245,0.0
455,0.4,0.84,0.37,-2.2,-1.65,-3.6,337,256,467,419,245,0.0
456,0.43,0.85,0.37,1.04,-3.23,-1.16,334,257,465,415,246,0.0
457,0.41,0.84,0.36,0.31,-2.87,-3.72,336,254,469,416,245,0.0
458,0.42,0.83,0.35,0.73,-3.05,-1.83,336,255,467,419,245,0.0
459,0.42,0.82,0.35,1.16,-3.11,-1.71,338,252,465,415,245,0.0
460,0.42,0.82,0.33,-2.56,-1.89,-1.46,334,256,469,416,245,0.0
461,0.43,0.82,0.35,0.55,-3.23,-1.89,328,257,460,421,247,0.0
462,0.43,0.83,0.35,0.67,-3.6,-2.62,334,252,469,417,248,0.0
463,0.43,0.83,0.35,-1.04,-4.21,-2.2,334,254,462,418,245,0.0
464,0.43,0.84,0.35,4.39,-2.5,-0.67,333,254,470,415,247,0.0
465,0.43,0.84,0.36,-0.37,-2.81,-2.08,334,256,465,417,248,0.0
466,0.44,0.83,0.37,-0.79,-1.46,-4.7,330,256,465,416,245,0.0
467,0.43,0.82,0.36,-1.53,-2.38,-3.3,335,258,465,416,246,0.0
468,0.44,0.83,0.36,0.79,-3.42,-2.32,336,254,462,413,248,0.0
469,0.44,0.83,0.35,0.85,-2.44,-2.5,335,253,466,417,245,0.0
470,0.45,0.84,0.35,0.61,-4.09,-1.16,334,254,465,416,244,0.0
471,0.44,0.83,0.35,1.4,-4.46,-1.59,334,257,464,415,246,0.0
472,0.45,0.83,0.36,-0.92,-1.65,-2.56,336,249,465,416,246,0.0
473,0.43,0.81,0.35,0.61,-3.91,-2.81,333,255,464,415,248,0.0
474,0.46,0.84,0.36,-1.34,-4.39,2.14,336,255,468,414,249,0.0
475,0.44,0.82,0.35,-0.43,-3.91,-2.99,334,255,465,418,246,0.0
476,0.46,0.82,0.35,2.2,-2.75,-0.61,334,252,469,414,248,0.0
477,0.45,0.84,0.35,0.49,-3.36,-2.32,336,257,476,418,245,0.0
478,0.45,0.82,0.35,-0.06,-3.23,-2.5,335,256,465,420,249,0.0
479,0.44,0.82,0.36,0.31,-3.11,-1.71,334,260,466,412,246,0.0
480,0.45,0.82,0.36,-0.49,-2.26,-3.66,338,255,465,416,245,0.0
481,0.44,0.82,0.36,0.31,-1.89,-2.08,335,254,469,415,249,0.0
482,0.44,0.82,0.36,-0.73,-3.11,-1.95,337,256,460,416,248,0.0
483,0.44,0.83,0.36,0.98,-0.92,-3.05,334,257,469,416,246,0.0
484,0.45,0.81,0.36,-1.46,-3.72,-2.08,334,254,468,416,245,0.0
485,0.46,0.83,0.36,0.37,-2.93,-2.99,334,252,464,419,246,0.0
486,0.44,0.79,0.34,-4.09,-4.46,-1.04,333,253,465,415,248,0.0
487,0.45,0.84,0.37,0.61,-2.08,-2.38,338,254,464,418,246,0.0
488,0.48,0.82,0.37,-0.79,-3.72,-1.04,337,256,468,412,243,0.0
489,0.45,0.82,0.37,1.16,-3.66,-2.01,335,254,465,414,245,0.0
490,0.46,0.82,0.35,1.22,-4.88,-1.28,335,259,466,417,245,0.0
491,0.44,0.81,0.36,-1.22,-2.38,-1.95,338,252,465,415,248,0.0
492,0.47,0.83,0.36,1.04,-1.71,-0.79,335,257,465,414,247,0.0
493,0.44,0.83,0.36,-3.3,-1.95,-2.87,335,255,468,416,244,0.0
494,0.45,0.82,0.36,0.55,-2.99,-3.11,341,257,463,416,244,0.0
495,0.45,0.82,0.34,-2.93,-2.75,-2.08,337,255,467,416,248,0.0
496,0.44,0.84,0.36,0.31,-2.5,-2.69,335,266,468,411,245,0.0
497,0.45,0.87,0.36,2.26,-3.6,-2.93,347,255,467,419,236,0.0
498,0.46,0.83,0.34,-0.92,-3.42,-1.59,336,259,462,416,247,0.0
499,0.46,0.81,0.32,0.55,-4.21,-1.59,336,257,465,420,247,0.0
500,0.46,0.83,0.33,0.37,-3.91,-1.28,331,255,465,416,249,0.0
501,0.46,0.82,0.33,2.14,-3.85,-1.28,338,256,466,418,246,0.0
502,0.47,0.82,0.34,-0.37,-4.09,-0.61,336,254,461,412,245,0.0
503,0.58,0.74,0.41,1.77,-2.26,-6.71,310,236,468,413,219,0.0
504,0.58,0.74,0.39,2.93,1.77,-8.3,309,236,464,413,220,0.0
505,0.53,0.73,0.41,-5.25,-5.68,-4.82,310,235,467,412,223,0.0
506,0.57,0.75,0.39,2.44,-6.41,-1.83,312,238,459,412,228,0.0
507,0.57,0.76,0.39,-1.59,-3.17,-4.39,309,238,465,416,220,0.0
508,0.51,0.74,0.41,-1.16,-5.0,-1.1,310,238,464,413,219,0.0
509,0.55,0.74,0.42,-4.21,-2.14,3.91,311,236,467,413,223,0.0
510,0.59,0.76,0.39,7.45,-3.23,-2.81,309,236,465,413,223,0.0
511,0.55,0.71,0.42,-4.15,-3.42,-0.98,312,238,465,414,226,0.0
512,0.58,0.75,0.4,2.26,-2.93,-3.11,311,246,465,413,223,0.0
513,0.52,0.69,0.44,-2.14,-0.61,-3.17,308,239,464,412,222,0.0
514,0.5,0.77,0.46,7.81,1.71,-7.39,311,240,461,413,224,0.0
515,0.5,0.71,0.44,2.08,-2.5,-1.28,309,240,459,417,225,0.0
516,0.45,0.83,0.47,2.32,2.08,-2.87,305,237,471,414,224,0.0
517,0.45,0.82,0.43,-3.48,-3.85,4.39,307,235,463,415,224,0.0
518,0.46,0.83,0.42,4.52,-1.16,-3.05,312,239,460,414,224,0.0
519,0.44,0.8,0.43,3.48,0.49,-2.62,308,240,465,414,228,0.0
520,0.45,0.79,0.42,1.04,-6.35,1.16,311,241,469,413,226,0.0
521,0.46,0.81,0.44,-0.61,-3.3,-2.08,315,242,466,412,228,0.0
522,0.46,0.77,0.42,1.04,-3.42,-0.98,310,242,466,414,226,0.0
523,0.46,0.79,0.42,-0.73,-1.95,-1.28,313,237,468,411,227,0.0
524,0.46,0.77,0.42,-1.53,-2.81,-3.17,314,241,467,412,228,0.0
525,0.48,0.77,0.41,1.16,-3.97,-2.01,315,240,466,415,229,0.0
526,0.48,0.79,0.41,0.24,-1.4,-2.44,311,239,467,410,227,0.0
527,0.47,0.79,0.42,-2.32,-2.69,-3.85,309,242,468,416,227,0.0
528,0.47,0.8,0.43,-2.32,-2.08,-2.14,313,241,466,415,228,0.0
529,0.46,0.77,0.42,1.71,-0.24,-4.09,310,243,467,415,227,0.0
530,0.47,0.79,0.42,0.12,-2.2,-2.5,311,241,474,410,268,0.0
531,0.46,0.79,0.43,1.34,-2.81,-3.17,314,239,473,415,226,0.0
532,0.46,0.8,0.42,0.73,-2.5,-3.48,317,242,471,415,229,0.0
533,0.48,0.79,0.42,1.65,-2.56,-3.42,310,241,468,416,229,0.0
534,0.46,0.78,0.43,1.04,-1.4,-1.95,311,240,463,413,231,0.0
535,0.47,0.79,0.43,-0.37,-3.36,-2.32,311,237,470,409,227,0.0
536,0.45,0.78,0.42,2.14,-1.04,-2.81,312,247,467,412,229,0.0
537,0.46,0.79,0.43,-1.04,-2.44,-4.21,312,240,465,413,231,0.0
538,0.47,0.8,0.4,5.19,-2.75,-2.56,308,236,471,413,228,0.0
539,0.47,0.77,0.4,2.14,-2.14,-2.32,309,237,464,414,234,0.0
540,0.48,0.79,0.39,-0.12,-3.17,-1.22,309,240,465,414,226,0.0
541,0.47,0.79,0.39,1.77,-3.17,-2.2,309,239,468,412,266,0.0
542,0.48,0.79,0.39,2.44,-5.62,0.24,312,237,464,414,229,0.0
543,0.48,0.78,0.39,-0.18,-5.0,1.71,308,237,467,417,226,0.0
544,0.49,0.79,0.38,2.14,-5.19,-1.77,310,240,468,410,229,0.0
545,0.48,0.79,0.39,0.61,-3.11,-1.89,311,239,467,414,228,0.0
546,0.49,0.79,0.38,2.26,-2.62,-2.93,308,242,469,415,226,0.0
547,0.49,0.8,0.39,0.43,-2.87,-2.32,312,238,468,416,229,0.0
548,0.49,0.8,0.38,1.22,-2.26,-0.43,311,237,471,411,228,0.0
549,0.49,0.8,0.39,0.31,-2.99,-4.46,311,238,471,417,227,0.0
550,0.48,0.79,0.39,2.81,-3.42,-3.54,309,239,472,413,231,0.0
551,0.47,0.8,0.38,4.03,-4.76,-2.01,310,237,470,412,228,0.0
552,0.48,0.8,0.38,0.79,-4.09,-3.3,309,236,467,414,232,0.0
553,0.49,0.79,0.37,1.28,-2.5,-1.22,312,237,466,416,231,0.0
554,0.49,0.79,0.37,2.2,-2.56,-0.55,311,238,481,415,227,0.0
555,0.49,0.78,0.38,1.28,-2.69,-2.99,310,238,462,414,229,0.0
556,0.48,0.8,0.4,1.34,-2.01,-4.82,319,239,463,415,229,0.0
557,0.49,0.8,0.38,0.31,-2.75,-1.71,308,241,470,412,225,0.0
558,0.48,0.78,0.38,0.61,-2.81,-0.24,313,237,472,412,232,0.0
559,0.49,0.8,0.38,2.75,-2.44,-2.81,312,238,469,414,231,0.0
560,0.49,0.79,0.37,-0.31,-3.48,-3.11,311,238,467,411,229,0.0
561,0.47,0.81,0.38,-1.65,-3.23,-4.58,312,240,470,416,233,0.0
562,0.49,0.79,0.36,0.92,-4.09,-1.83,315,241,471,415,225,0.0
563,0.5,0.81,0.36,-1.53,-4.03,-0.67,313,240,471,414,223,0.0
564,0.5,0.8,0.37,3.66,-3.91,-2.32,315,244,468,411,228,0.0
565,0.5,0.78,0.36,1.28,-2.44,-1.04,313,243,467,413,244,0.0
566,0.5,0.78,0.37,2.26,-4.39,-1.4,313,243,466,415,231,0.0
567,0.49,0.79,0.36,-2.08,-2.99,-2.93,313,239,471,412,231,0.0
568,0.49,0.79,0.36,-1.22,-2.93,-3.66,317,240,470,415,227,0.0
569,0.48,0.8,0.38,0.37,-2.2,-3.42,313,244,465,417,232,0.0
570,0.49,0.77,0.37,-1.71,-2.44,-2.08,313,241,473,415,231,0.0
571,0.46,0.79,0.36,-3.36,-4.82,-4.82,314,238,468,410,231,0.0
572,0.49,0.79,0.36,-0.43,-3.05,-1.34,313,240,470,415,232,0.0
573,0.49,0.8,0.37,0.61,-2.81,-2.81,317,245,468,415,229,0.0
574,0.48,0.8,0.37,1.4,-1.28,-4.27,312,239,481,415,232,0.0
575,0.49,0.8,0.37,1.89,-2.69,-3.11,317,246,473,411,231,0.0
576,0.48,0.79,0.38,-0.12,-1.65,-3.23,314,243,468,415,230,0.0
577,0.49,0.79,0.36,0.0,-2.44,-3.05,311,244,482,415,230,0.0
578,0.5,0.8,0.37,-0.49,-3.6,-0.24,315,240,462,416,229,0.0
579,0.49,0.78,0.36,-0.18,-2.81,-2.44,314,241,464,416,228,0.0
580,0.5,0.79,0.38,-0.06,-3.23,-2.93,314,241,470,415,231,0.0
581,0.46,0.79,0.37,-0.61,-2.38,-3.23,322,242,468,416,231,0.0
582,0.49,0.79,0.39,2.26,-1.71,-4.33,314,241,469,414,226,0.0
583,0.48,0.8,0.38,-0.79,-2.93,-2.44,312,241,463,412,234,0.0
584,0.49,0.78,0.39,-0.06,-3.54,-2.01,312,242,473,414,234,0.0
585,0.48,0.8,0.37,0.49,-4.21,-2.93,318,240,461,415,233,0.0
586,0.48,0.79,0.38,-0.49,-1.71,-2.38,310,242,467,414,231,0.0
587,0.48,0.79,0.37,-1.83,-2.44,-2.38,316,239,467,416,231,0.0
588,0.49,0.81,0.38,-0.67,-2.69,-3.72,316,242,466,415,231,0.0
589,0.46,0.8,0.39,-1.4,-0.67,-4.46,316,241,470,418,233,0.0
590,0.44,0.84,0.37,-3.3,-16.24,-9.58,316,239,471,416,232,0.0
591,0.46,0.8,0.4,-1.22,-11.84,-10.38,313,240,466,415,231,0.0
592,0.45,0.77,0.38,-4.21,-1.71,5.19,315,245,467,417,231,0.0
593,0.49,0.78,0.36,-0.12,3.66,5.98,317,244,464,417,234,0.0
594,0.48,0.75,0.36,2.32,3.66,10.99,318,240,468,416,232,0.0
595,0.47,0.82,0.42,-0.06,6.1,-2.75,316,242,468,412,230,0.0
596,0.49,0.8,0.39,2.5,-4.27,-1.53,318,242,471,415,234,0.0
597,0.44,0.78,0.42,1.4,-0.18,1.53,315,238,469,419,233,0.0
598,0.49,0.77,0.4,-0.06,-4.82,-2.26,316,242,467,414,233,0.0
599,0.48,0.78,0.4,0.79,-4.03,-2.62,316,241,468,416,233,0.0
600,0.5,0.8,0.4,0.49,-1.53,-3.17,316,246,478,414,233,0.0
601,0.5,0.8,0.41,2.32,-1.28,-2.81,318,243,467,419,251,0.0
602,0.49,0.77,0.39,0.31,-2.08,-0.79,317,244,468,414,227,0.0
603,0.5,0.78,0.39,0.24,-3.42,-2.14,316,244,468,417,232,0.0
604,0.5,0.78,0.4,0.24,-3.6,-2.01,316,247,471,417,272,0.0
605,0.51,0.78,0.39,-0.73,-3.23,-1.53,316,243,466,415,231,0.0
606,0.5,0.78,0.39,1.28,-2.5,-3.91,319,240,469,416,241,0.0
607,0.51,0.77,0.39,-1.16,-2.62,-2.56,316,243,467,416,235,0.0
608,0.5,0.77,0.39,-0.18,-4.39,-3.72,317,243,463,417,233,0.0
609,0.51,0.76,0.39,-0.31,-4.27,-0.37,317,241,463,418,233,0.0
610,0.5,0.77,0.39,-1.04,-2.56,-1.89,318,241,464,416,231,0.0
611,0.51,0.78,0.39,0.37,-4.03,-2.08,317,242,470,417,228,0.0
612,0.52,0.78,0.39,-1.34,-3.97,-0.98,317,243,468,417,235,0.0
613,0.52,0.78,0.39,-1.04,-3.91,-2.93,318,241,465,416,233,0.0
614,0.49,0.78,0.4,-1.59,-0.98,-4.76,317,241,470,417,231,0.0
615,0.49,0.78,0.39,0.06,-4.46,-2.93,320,245,466,417,231,0.0
616,0.48,0.77,0.38,-0.31,-5.49,0.12,320,243,475,417,232,0.0
617,0.51,0.78,0.4,-5.86,-10.68,-1.46,321,246,468,418,234,0.0
618,0.47,0.71,0.4,-4.64,-2.26,14.34,320,245,467,416,234,0.0
619,0.56,0.73,0.39,-3.72,-3.6,-1.53,317,249,467,416,237,0.0
620,0.53,0.73,0.41,-3.05,-3.72,0.43,317,244,470,417,244,0.0
621,0.55,0.77,0.43,0.43,-2.62,-3.72,317,246,471,417,234,0.0
622,0.53,0.76,0.41,0.73,-3.11,1.1,317,243,474,419,233,0.0
623,0.53,0.75,0.41,0.73,-4.58,-3.91,319,245,468,415,231,0.0
624,0.52,0.73,0.4,-0.18,-3.36,-1.71,318,245,471,417,236,0.0
625,0.53,0.77,0.4,2.2,0.73,-7.87,318,244,471,418,233,0.0
626,0.54,0.77,0.42,3.23,-3.97,-2.32,322,243,478,416,236,0.0
627,0.53,0.75,0.41,0.92,-2.26,-2.99,319,243,462,417,236,0.0
628,0.54,0.75,0.4,1.1,-3.36,-1.83,321,245,466,418,234,0.0
629,0.53,0.74,0.41,-2.2,-3.3,-2.44,318,245,473,417,237,0.0
630,0.54,0.76,0.41,-2.26,-2.75,-1.34,319,245,471,413,234,0.0
631,0.52,0.74,0.41,1.04,-3.78,-3.42,316,245,467,412,231,0.0
632,0.52,0.76,0.41,-0.73,-2.44,-2.69,320,246,469,417,236,0.0
633,0.53,0.74,0.41,-0.06,-4.46,-2.26,316,249,472,416,236,0.0
634,0.52,0.76,0.41,-0.85,-1.28,-1.89,321,241,468,417,236,0.0
635,0.51,0.76,0.42,1.83,-2.75,-4.46,319,244,467,418,235,0.0
636,0.5,0.76,0.42,0.98,-1.22,-2.75,321,244,467,414,246,0.0
637,0.53,0.76,0.41,2.56,-4.03,-1.95,324,246,462,417,237,0.0
638,0.51,0.75,0.41,0.49,-2.81,-2.44,317,243,470,418,231,0.0
639,0.51,0.75,0.41,0.55,-3.05,-1.77,327,244,471,419,234,0.0
640,0.51,0.74,0.41,-1.22,-3.36,-2.44,322,244,467,417,230,0.0
641,0.51,0.76,0.4,0.67,-2.93,-2.81,317,242,467,418,237,0.0
642,0.52,0.74,0.4,0.0,-3.23,-2.32,325,245,468,413,233,0.0
643,0.52,0.76,0.42,0.55,-1.83,-2.93,321,244,471,419,234,0.0
644,0.51,0.76,0.42,0.49,-2.38,-3.05,319,246,469,418,233,0.0
645,0.51,0.77,0.41,3.97,-1.46,-3.72,319,242,472,418,233,0.0
646,0.5,0.74,0.4,0.85,-2.81,-2.93,319,245,467,419,230,0.0
647,0.51,0.75,0.41,2.32,-2.87,-0.67,318,242,470,417,235,0.0
648,0.51,0.77,0.42,0.55,-3.91,3.17,321,249,470,413,234,0.0
649,0.53,0.75,0.39,0.49,-4.64,-1.95,320,243,467,416,234,0.0
650,0.55,0.74,0.42,-1.83,0.12,1.16,318,243,470,416,235,0.0
651,0.52,0.73,0.43,2.99,0.55,1.28,319,243,468,415,235,0.0
652,0.54,0.73,0.42,1.4,-1.22,-2.93,322,260,463,420,234,0.0
653,0.52,0.72,0.42,2.08,-1.95,-5.86,322,247,468,418,238,0.0
654,0.53,0.78,0.41,0.24,-3.3,-0.85,320,244,464,414,235,0.0
655,0.55,0.75,0.42,4.27,-4.46,0.06,319,246,463,419,235,0.0
656,0.57,0.71,0.4,-2.5,-2.93,-0.85,320,247,468,419,237,0.0
657,0.56,0.71,0.44,0.55,-5.0,-4.09,317,244,462,420,234,0.0
658,0.55,0.73,0.43,0.49,-3.91,-4.39,317,244,464,418,230,0.0
659,0.57,0.69,0.39,-0.79,-3.36,-0.18,323,246,462,418,237,0.0
660,0.57,0.73,0.43,-2.75,-3.6,-5.37,323,250,468,417,235,0.0
661,0.55,0.69,0.41,-1.16,-3.85,-2.32,322,243,464,418,245,0.0
662,0.57,0.7,0.42,0.12,-2.5,-0.85,323,242,470,419,239,0.0
663,0.59,0.68,0.43,4.39,-8.97,-8.61,326,247,463,416,238,0.0
664,0.58,0.68,0.41,1.4,1.22,-4.46,323,245,474,416,236,0.0
665,0.56,0.74,0.44,0.98,0.31,-4.58,320,245,466,417,237,0.0
666,0.56,0.72,0.44,2.93,-0.37,-4.03,320,248,471,416,266,0.0
667,0.55,0.74,0.45,1.59,-3.11,-2.99,321,248,468,418,236,0.0
668,0.54,0.71,0.46,-1.04,-2.75,0.73,318,245,471,419,237,0.0
669,0.55,0.71,0.45,-1.95,-2.87,-2.69,322,249,471,419,239,0.0
670,0.58,0.71,0.44,0.43,-3.54,-2.87,326,249,467,418,236,0.0
671,0.56,0.71,0.44,-0.73,1.04,-5.62,322,243,465,418,240,0.0
672,0.57,0.7,0.47,-0.49,-4.58,-3.11,323,245,467,418,235,0.0
673,0.55,0.7,0.46,3.23,-3.48,-2.38,323,248,471,418,242,0.0
674,0.56,0.71,0.47,0.0,-3.48,-2.81,325,246,466,416,236,0.0
675,0.54,0.71,0.44,-0.92,-0.61,-4.94,323,245,471,418,242,0.0
676,0.52,0.71,0.47,-1.22,-2.87,-3.78,326,243,471,418,236,0.0
677,0.55,0.72,0.47,0.85,-3.54,-2.5,324,261,470,420,239,0.0
678,0.53,0.71,0.46,1.16,-2.14,-3.66,324,248,466,416,238,0.0
679,0.53,0.72,0.46,0.12,-2.56,-2.38,325,246,461,419,236,0.0
680,0.52,0.72,0.45,0.92,-4.21,-1.65,324,248,462,416,253,0.0
681,0.56,0.73,0.45,4.64,-0.37,-3.23,323,248,482,418,233,0.0
682,0.51,0.75,0.45,1.28,-3.72,-0.73,326,247,469,428,260,0.0
683,0.51,0.71,0.44,-0.92,-3.05,-1.34,325,249,463,418,236,0.0
684,0.53,0.75,0.45,2.62,-3.6,-6.04,320,247,467,415,236,0.0
685,0.5,0.73,0.43,1.22,-2.93,-6.35,322,245,471,418,236,0.0
686,0.5,0.75,0.45,0.31,-2.69,-2.44,326,246,471,417,236,0.0
687,0.51,0.77,0.44,1.65,-1.83,-2.08,323,244,467,419,236,0.0
688,0.5,0.76,0.42,1.77,-3.36,-3.11,329,246,466,418,237,0.0
689,0.5,0.74,0.43,-1.22,-3.05,-1.28,324,256,470,419,237,0.0
690,0.52,0.75,0.42,3.85,-4.21,-1.1,325,250,471,418,239,0.0
691,0.51,0.75,0.41,3.17,-2.75,-3.48,323,251,471,420,237,0.0
692,0.52,0.75,0.41,2.62,-2.26,-2.87,322,246,470,419,234,0.0
693,0.5,0.77,0.41,1.22,-3.6,-4.7,323,247,467,418,238,0.0
694,0.5,0.78,0.42,2.01,-2.69,-2.81,326,245,465,417,240,0.0
695,0.5,0.77,0.42,0.67,-3.11,-2.81,324,256,471,418,239,0.0
696,0.49,0.76,0.42,0.43,-4.46,-0.49,322,245,466,420,237,0.0
697,0.51,0.77,0.41,0.43,-3.3,-1.16,326,247,468,416,237,0.0
698,0.5,0.75,0.41,1.16,-4.52,-1.22,325,245,461,414,239,0.0
699,0.51,0.77,0.4,2.5,-2.81,-2.93,323,246,470,413,237,0.0
700,0.5,0.77,0.41,1.65,-2.32,-2.5,324,249,465,419,240,0.0
701,0.5,0.78,0.41,0.24,-2.75,-2.56,320,249,466,418,239,0.0
702,0.52,0.76,0.39,1.65,-3.66,-4.39,324,249,467,418,238,0.0
703,0.5,0.78,0.41,0.18,-3.91,-3.05,324,247,470,417,238,0.0
704,0.5,0.77,0.4,-1.77,-2.5,-1.95,326,257,466,419,240,0.0
705,0.51,0.78,0.39,1.34,-1.71,-2.32,321,250,468,419,236,0.0
706,0.5,0.78,0.41,-0.79,-2.38,-4.09,320,250,466,415,237,0.0
707,0.49,0.75,0.41,0.61,-1.83,-2.81,323,247,469,418,237,0.0
708,0.49,0.76,0.42,-1.28,-2.75,-2.99,326,248,465,418,239,0.0
709,0.5,0.77,0.41,1.4,-1.95,-1.28,325,250,462,416,238,0.0
710,0.5,0.78,0.42,0.85,-3.17,-1.95,323,248,472,419,237,0.0
711,0.51,0.76,0.4,0.98,-3.97,-1.77,324,250,467,417,237,0.0
712,0.51,0.76,0.4,0.24,-2.99,-2.08,324,250,465,418,237,0.0
713,0.5,0.76,0.41,0.73,-4.39,-1.46,324,248,469,419,234,0.0
714,0.51,0.76,0.41,1.46,-3.05,-2.44,324,245,465,414,237,0.0
715,0.51,0.76,0.41,-0.37,-3.54,-2.56,326,245,469,418,240,0.0
716,0.51,0.76,0.41,1.22,-4.03,-0.79,321,249,466,421,237,0.0
717,0.51,0.75,0.42,-1.22,-3.3,-0.49,323,248,466,419,240,0.0
718,0.51,0.77,0.43,2.93,-3.17,-2.87,326,247,463,417,240,0.0
719,0.51,0.76,0.41,1.89,-3.48,-2.26,326,246,462,416,237,0.0
720,0.49,0.77,0.41,1.22,-2.14,-2.2,324,247,462,418,239,0.0
721,0.49,0.76,0.42,-0.67,-2.81,-2.99,324,247,465,418,240,0.0
722,0.5,0.76,0.41,-0.24,-2.87,-4.27,324,248,470,418,233,0.0
723,0.5,0.76,0.41,-2.26,-3.85,-1.71,324,247,467,418,237,0.0
724,0.49,0.77,0.42,-0.73,-0.61,-4.33,324,243,466,413,238,0.0
725,0.5,0.77,0.42,-0.18,-2.26,-2.81,324,247,463,420,237,0.0
726,0.51,0.78,0.42,0.37,-2.93,-2.75,325,249,466,416,240,0.0
727,0.51,0.76,0.41,-0.49,-2.44,-2.69,321,249,466,414,237,0.0
728,0.5,0.76,0.41,-0.18,-3.05,-2.99,327,250,465,420,240,0.0
729,0.5,0.76,0.41,-1.46,-2.75,-3.54,325,244,467,417,239,0.0
730,0.51,0.75,0.42,-0.24,-2.08,-2.99,324,245,467,413,236,0.0
731,0.52,0.76,0.41,1.28,-2.75,-4.46,324,246,465,414,240,0.0
732,0.5,0.76,0.42,-0.24,-2.32,-2.87,325,250,467,418,242,0.0
733,0.5,0.76,0.42,-0.31,-3.91,-3.36,324,246,470,418,238,0.0
734,0.5,0.77,0.42,0.06,-2.01,-4.52,330,246,465,418,238,0.0
735,0.5,0.78,0.42,1.4,-1.71,-2.81,324,246,461,421,239,0.0
736,0.51,0.76,0.39,-0.67,-3.23,-3.05,324,245,470,415,238,0.0
737,0.51,0.75,0.4,-6.47,-9.09,-4.88,326,248,470,418,239,0.0
738,0.5,0.76,0.4,-1.89,-2.26,-1.65,324,247,470,419,239,0.0
739,0.48,0.76,0.42,2.01,-5.19,-4.46,327,245,467,420,238,0.0
740,0.51,0.76,0.41,4.21,-1.77,-5.13,324,247,464,417,237,0.0
741,0.48,0.8,0.4,3.97,-2.56,-5.25,324,247,467,418,236,0.0
742,0.47,0.8,0.4,0.79,-1.65,-3.78,326,244,469,418,236,0.0
743,0.46,0.8,0.4,1.46,-4.09,-2.62,326,249,472,417,240,0.0
744,0.46,0.79,0.38,1.22,-3.05,-2.26,326,253,470,418,239,0.0
745,0.46,0.82,0.41,0.24,-0.49,-3.17,325,248,466,417,240,0.0
746,0.47,0.78,0.39,0.73,-1.28,-4.21,325,249,466,419,238,0.0
747,0.46,0.79,0.4,-1.89,-2.32,-2.01,327,246,465,416,250,0.0
748,0.5,0.81,0.43,-0.98,-0.24,-1.65,324,246,461,419,237,0.0
749,0.5,0.79,0.41,-0.06,-0.55,-0.92,325,250,466,416,237,0.0
750,0.48,0.8,0.44,-0.67,-1.4,-3.05,324,245,469,417,241,0.0
751,0.5,0.8,0.44,0.79,-4.7,-2.2,324,250,466,417,237,0.0
752,0.46,0.75,0.42,1.04,-2.93,-3.85,324,249,467,417,237,0.0
753,0.47,0.78,0.43,3.42,-1.89,-1.22,341,250,469,417,241,0.0
754,0.46,0.8,0.42,0.79,-3.97,-2.93,327,249,466,417,238,0.0
755,0.49,0.77,0.42,-0.06,-3.66,-2.08,326,249,464,414,239,0.0
756,0.48,0.79,0.42,1.89,-2.56,-2.62,326,247,464,420,237,0.0
757,0.48,0.77,0.42,-0.06,-2.69,-2.62,323,248,467,417,240,0.0
758,0.48,0.79,0.42,0.61,-3.17,-2.81,327,248,465,419,239,0.0
759,0.48,0.77,0.41,0.12,-3.05,-2.01,332,249,467,420,253,0.0
760,0.5,0.76,0.41,1.46,-3.48,-2.44,325,253,465,419,242,0.0
761,0.49,0.77,0.41,0.31,-3.05,-2.32,325,249,470,418,237,0.0
762,0.49,0.77,0.42,1.28,-2.32,-4.33,325,248,466,417,238,0.0
763,0.49,0.77,0.42,-0.43,-2.01,-3.17,324,248,467,418,238,0.0
764,0.49,0.77,0.41,-0.98,-2.69,-2.32,326,244,470,417,238,0.0
765,0.49,0.78,0.42,0.06,-2.44,-3.17,324,251,466,417,229,0.0
766,0.49,0.76,0.41,0.43,-2.26,-2.81,329,247,464,425,238,0.0
767,0.49,0.78,0.4,-1.65,-3.05,-2.08,325,250,470,418,237,0.0
768,0.48,0.79,0.41,-3.17,-3.54,-3.23,321,246,464,417,241,0.0
769,0.48,0.78,0.42,0.12,-3.54,-1.83,327,246,462,418,235,0.0
770,0.48,0.77,0.42,-0.55,-1.71,-0.92,328,247,467,418,251,0.0
771,0.49,0.78,0.42,0.37,-3.17,-2.32,325,248,465,417,239,0.0
772,0.48,0.77,0.41,0.92,-2.08,-1.83,322,251,465,418,240,0.0
773,0.49,0.76,0.42,0.67,-2.5,-2.5,326,250,470,414,237,0.0
774,0.48,0.77,0.42,0.06,-3.36,-2.38,326,251,461,419,238,0.0
775,0.48,0.75,0.4,3.23,-0.31,-5.92,329,247,470,418,238,0.0
776,0.49,0.78,0.42,0.73,-3.11,-2.87,328,249,465,418,237,0.0
777,0.47,0.76,0.42,-0.98,-0.37,0.24,328,249,461,418,238,0.0
778,0.5,0.72,0.4,1.59,-3.17,-4.03,324,249,463,421,240,0.0
779,0.51,0.79,0.43,0.55,-2.14,-2.38,326,251,460,417,246,0.0
780,0.49,0.75,0.41,1.89,-2.08,-4.03,327,245,475,418,237,0.0
781,0.5,0.76,0.42,-0.43,-3.05,-1.71,328,247,466,415,238,0.0
782,0.51,0.75,0.42,-1.28,-3.3,-1.28,324,248,461,418,237,0.0
783,0.49,0.75,0.42,-0.67,-2.01,-3.36,326,251,470,418,233,0.0
784,0.48,0.76,0.43,0.67,-3.85,-2.5,328,246,470,417,239,0.0
785,0.5,0.74,0.42,-0.43,-4.21,-2.32,322,248,460,415,240,0.0
786,0.5,0.75,0.41,-1.77,-2.75,-3.72,326,244,462,417,237,0.0
787,0.5,0.76,0.42,-6.29,-3.85,-1.1,325,246,468,418,239,0.0
788,0.51,0.75,0.44,-2.38,-3.3,-1.46,331,251,470,420,235,0.0
789,0.49,0.76,0.43,-0.55,-4.64,-1.59,325,249,466,419,240,0.0
790,0.5,0.78,0.44,1.89,-4.27,-1.53,327,247,466,418,233,0.0
791,0.49,0.77,0.45,1.71,-1.59,-4.94,325,252,464,418,238,0.0
792,0.5,0.78,0.45,1.28,-3.66,-2.38,327,249,460,417,238,0.0
793,0.48,0.76,0.42,3.97,-6.71,0.55,327,249,461,418,238,0.0
794,0.59,0.73,0.42,-13.49,-0.92,-14.71,328,248,465,420,238,0.0
795,0.46,0.79,0.49,8.97,6.53,-22.71,327,249,469,418,240,0.0
796,0.45,0.81,0.42,8.48,4.64,-9.03,330,251,468,418,241,0.0
797,0.47,0.8,0.36,12.15,-0.18,-2.38,328,253,461,416,241,0.0
798,0.43,0.81,0.39,2.56,-2.5,2.2,327,253,467,415,236,0.0
799,0.45,0.8,0.38,-2.01,1.34,0.0,330,252,465,413,240,0.0
800,0.44,0.84,0.4,5.25,-1.89,-10.31,328,252,469,417,238,0.0
801,0.46,0.81,0.4,4.82,-3.48,-1.89,329,246,473,418,238,0.0
802,0.42,0.81,0.4,-1.22,2.93,-4.27,328,253,469,418,240,0.0
803,0.44,0.79,0.43,-1.77,6.41,0.49,330,250,461,417,241,0.0
804,0.45,0.78,0.4,1.71,-1.04,-1.53,326,252,466,418,238,0.0
805,0.43,0.8,0.41,2.01,-3.42,-4.39,329,252,464,417,241,0.0
806,0.45,0.76,0.41,-1.1,-4.88,-1.1,330,251,466,415,239,0.0
807,0.46,0.84,0.45,3.17,0.31,-3.11,331,251,467,415,240,0.0
808,0.45,0.79,0.44,0.92,-1.95,-4.33,325,250,461,416,239,0.0
809,0.47,0.79,0.4,4.09,-4.27,-1.59,327,249,471,417,238,0.0
810,0.48,0.81,0.42,2.81,-4.82,-5.55,328,256,469,417,238,0.0
811,0.46,0.8,0.42,0.12,-3.36,-2.26,327,252,464,420,238,0.0
812,0.44,0.8,0.41,5.92,-1.1,-3.78,328,251,467,416,241,0.0
813,0.43,0.8,0.43,0.85,-2.32,-4.09,328,249,476,417,238,0.0
814,0.44,0.81,0.41,3.72,-2.81,-2.26,338,251,465,413,241,0.0
815,0.47,0.81,0.4,4.82,-8.54,4.58,331,250,472,417,238,0.0
816,0.44,0.81,0.42,-1.4,-3.6,-4.64,328,259,462,417,238,0.0
817,0.45,0.79,0.41,1.65,-5.07,-3.36,333,255,464,417,238,0.0
818,0.44,0.8,0.41,2.87,-2.99,-4.52,342,252,467,418,238,0.0
819,0.41,0.81,0.4,-1.95,-10.68,-8.67,331,250,470,417,239,0.0
820,0.45,0.79,0.4,-1.65,-2.93,-2.14,330,253,466,417,241,0.0
821,0.45,0.8,0.41,0.92,-3.17,-0.55,327,251,464,418,240,0.0
822,0.43,0.79,0.41,-0.49,-4.58,-0.85,325,256,468,417,239,0.0
823,0.44,0.8,0.41,0.67,-2.75,-2.69,333,250,466,417,252,0.0
824,0.44,0.8,0.41,-0.18,-2.99,-3.97,328,248,467,417,241,0.0
825,0.44,0.82,0.42,1.16,-2.93,-2.26,331,253,465,417,236,0.0
826,0.42,0.81,0.41,0.0,-3.97,-1.89,327,253,460,418,239,0.0
827,0.42,0.81,0.41,-0.79,-2.62,-2.14,330,251,460,418,239,0.0
828,0.43,0.82,0.41,-0.43,-2.08,-2.32,328,248,464,419,239,0.0
829,0.42,0.82,0.43,-1.4,-4.03,-1.53,329,252,463,417,240,0.0
830,0.44,0.79,0.4,-0.12,-4.21,-0.18,329,251,463,416,247,0.0
831,0.43,0.81,0.41,1.4,-2.38,-3.72,332,264,466,418,243,0.0
832,0.44,0.82,0.42,2.14,-2.5,-3.48,327,253,468,415,241,0.0
833,0.43,0.81,0.41,0.37,-2.5,-2.69,324,249,465,417,238,0.0
834,0.42,0.83,0.41,-1.22,-2.99,-2.32,329,247,468,418,238,0.0
835,0.43,0.82,0.4,0.43,-4.33,-1.16,322,248,468,417,238,0.0
836,0.43,0.81,0.39,0.55,-3.23,-2.62,327,248,469,413,236,0.0
837,0.44,0.8,0.39,2.26,-1.71,-3.3,322,243,469,418,238,0.0
838,0.45,0.81,0.4,3.54,-3.17,-2.2,325,249,465,417,236,0.0
839,0.43,0.83,0.4,-0.85,-2.87,-2.75,329,248,468,417,234,0.0
840,0.42,0.81,0.4,-0.31,-1.77,-3.66,324,246,467,416,240,0.0
841,0.42,0.82,0.4,-0.12,-2.08,-2.75,324,246,466,419,239,0.0
842,0.44,0.81,0.41,0.55,-3.48,-2.2,331,248,469,407,239,0.0
843,0.43,0.81,0.4,0.43,-1.53,-3.91,327,243,461,412,241,0.0
844,0.42,0.82,0.42,-2.2,-0.98,-1.89,324,251,465,417,241,0.0
845,0.42,0.81,0.4,3.3,-5.98,-0.73,328,244,466,419,252,0.0
846,0.44,0.78,0.38,-1.89,-3.42,1.77,326,250,461,415,240,0.0
847,0.43,0.8,0.41,-0.92,-2.69,-3.66,325,245,465,415,240,0.0
848,0.42,0.83,0.43,0.43,-1.1,-0.98,327,247,468,419,242,0.0
849,0.46,0.84,0.39,1.22,-4.88,-4.09,325,246,470,417,238,0.0
850,0.42,0.8,0.39,1.71,-3.17,-1.71,322,250,468,415,239,0.0
851,0.44,0.81,0.39,0.79,-2.32,-1.65,324,248,466,415,239,0.0
852,0.44,0.81,0.41,0.49,-3.11,-2.56,325,248,466,415,240,0.0
853,0.44,0.8,0.39,1.34,-2.38,-1.16,325,250,460,417,238,0.0
854,0.45,0.83,0.41,-2.01,-4.94,2.93,328,245,473,419,241,0.0
855,0.45,0.79,0.4,-0.49,-4.21,-2.38,326,251,465,420,240,0.0
856,0.44,0.8,0.41,-3.3,-5.74,-0.49,325,250,466,417,244,0.0
857,0.45,0.79,0.41,2.2,-3.66,-1.04,334,249,463,418,241,0.0
858,0.43,0.79,0.43,0.92,-2.14,-3.23,325,250,465,416,239,0.0
859,0.45,0.79,0.4,-0.12,-4.64,-0.18,326,251,466,419,240,0.0
860,0.46,0.81,0.42,1.04,-3.6,-3.05,327,251,468,419,240,0.0
861,0.44,0.79,0.41,1.16,-2.32,-3.17,331,248,460,418,241,0.0
862,0.45,0.8,0.42,1.4,-1.65,-3.72,329,251,468,417,239,0.0
863,0.46,0.81,0.42,1.1,-3.3,-2.56,326,251,464,417,241,0.0
864,0.44,0.79,0.41,0.55,-2.69,-1.34,324,249,470,417,240,0.0
865,0.44,0.8,0.42,-0.55,-2.2,-3.05,324,249,470,416,239,0.0
866,0.44,0.79,0.43,0.06,-1.28,-2.56,335,256,470,420,241,0.0
867,0.45,0.8,0.42,0.98,-2.14,-2.44,326,250,467,418,238,0.0
868,0.44,0.79,0.41,2.26,-3.17,-2.26,327,247,465,418,237,0.0
869,0.44,0.79,0.43,-0.92,-3.48,-1.46,324,251,468,420,239,0.0
870,0.46,0.81,0.43,0.49,-3.05,-2.99,330,245,467,412,240,0.0
871,0.44,0.79,0.43,0.79,-1.77,-2.56,329,255,464,420,240,0.0
872,0.41,0.78,0.41,0.37,-0.18,-5.49,328,250,465,416,242,0.0
873,0.45,0.79,0.41,0.31,-2.5,-2.75,327,249,469,417,245,0.0
874,0.44,0.79,0.42,-1.89,-3.23,-2.26,329,252,468,417,241,0.0
875,0.44,0.78,0.42,0.06,-2.93,-2.14,328,252,466,415,240,0.0
876,0.44,0.8,0.42,-0.31,-2.32,-2.56,328,261,466,418,242,0.0
877,0.45,0.8,0.42,1.28,-3.11,-2.14,331,249,469,417,238,0.0
878,0.44,0.81,0.43,0.31,-2.87,-2.69,327,257,464,416,242,0.0
879,0.45,0.79,0.42,-0.31,-3.17,-2.14,329,253,466,417,240,0.0
880,0.45,0.81,0.42,1.34,-2.62,-2.75,327,252,470,417,240,0.0
881,0.45,0.8,0.41,-1.34,-4.52,-1.89,325,253,463,420,239,0.0
882,0.44,0.78,0.42,-0.24,-3.48,-1.83,328,252,465,419,244,0.0
883,0.46,0.77,0.42,-0.37,-2.38,-3.97,328,251,467,414,242,0.0
884,0.45,0.79,0.43,0.98,-2.93,-1.83,328,252,460,418,244,0.0
885,0.47,0.78,0.43,0.06,-3.66,-2.99,324,252,462,416,237,0.0
886,0.45,0.79,0.43,2.38,-3.23,-2.81,329,251,472,417,240,0.0
887,0.45,0.79,0.42,1.22,-1.95,-2.69,325,253,466,414,242,0.0
888,0.46,0.82,0.43,1.95,-1.71,-1.65,328,250,464,417,241,0.0
889,0.44,0.79,0.42,-2.75,-2.81,-1.89,327,252,466,420,241,0.0
890,0.45,0.78,0.42,-0.24,-3.23,-0.67,327,253,466,415,240,0.0
891,0.47,0.79,0.42,-0.79,-4.21,-0.43,331,251,481,419,240,0.0
892,0.47,0.79,0.43,0.85,-3.36,-2.2,328,251,460,418,240,0.0
893,0.46,0.78,0.42,-0.18,-2.62,-2.75,329,249,464,413,241,0.0
894,0.47,0.79,0.43,1.22,-3.6,-2.2,325,253,464,416,239,0.0
895,0.46,0.77,0.42,-0.73,-1.34,-3.36,326,251,469,420,252,0.0
896,0.45,0.78,0.42,2.5,-1.95,-3.23,327,252,470,413,239,0.0
897,0.47,0.79,0.43,-2.26,-3.66,-0.67,327,249,465,417,240,0.0
898,0.47,0.8,0.43,1.83,-2.99,-2.56,332,253,466,417,239,0.0
899,0.45,0.79,0.43,0.49,-2.26,-2.38,329,251,463,418,240,0.0
900,0.46,0.78,0.42,2.14,-2.14,-3.36,329,251,466,417,241,0.0
901,0.47,0.79,0.42,-0.61,-3.6,-1.89,329,248,469,418,240,0.0
902,0.47,0.81,0.43,0.73,-3.54,-3.05,331,251,469,414,237,0.0
903,0.45,0.78,0.41,4.64,-2.38,-3.17,325,248,465,425,242,0.0
904,0.45,0.78,0.41,-0.73,-1.83,-2.75,331,250,467,417,242,0.0
905,0.46,0.8,0.42,1.04,-3.23,-3.11,327,251,464,418,237,0.0
906,0.47,0.8,0.43,0.92,-2.69,-2.26,330,250,467,419,243,0.0
907,0.46,0.79,0.42,0.24,-3.48,-2.38,326,253,465,415,240,0.0
908,0.47,0.8,0.42,0.24,-2.44,-3.72,331,250,464,417,241,0.0
909,0.47,0.78,0.43,0.43,-2.69,-3.6,326,249,474,418,240,0.0
910,0.45,0.77,0.41,0.37,-1.89,-2.87,329,253,462,417,238,0.0
911,0.45,0.78,0.42,0.79,-4.03,-1.34,326,252,464,417,242,0.0
912,0.45,0.79,0.43,-1.53,-2.87,-2.62,329,253,465,413,242,0.0
913,0.46,0.77,0.41,0.49,-2.38,-3.6,329,254,466,414,238,0.0
914,0.45,0.79,0.42,-1.04,-2.44,-2.01,329,254,464,417,243,0.0
915,0.45,0.79,0.42,-2.26,-2.62,-1.59,333,254,468,418,241,0.0
916,0.46,0.8,0.44,-0.73,-2.26,-3.42,330,251,464,414,241,0.0
917,0.44,0.8,0.43,1.95,-1.77,-4.39,332,251,466,418,240,0.0
918,0.44,0.8,0.42,2.99,-5.98,-0.24,327,254,466,417,241,0.0
919,0.41,0.78,0.45,-0.85,2.69,-2.08,333,249,466,415,240,0.0
920,0.44,0.79,0.42,0.92,-1.53,-3.42,327,251,466,416,241,0.0
921,0.44,0.81,0.41,1.95,-3.6,-4.82,329,252,466,419,242,0.0
922,0.42,0.81,0.42,-1.28,-1.16,-3.36,332,254,464,415,241,0.0
923,0.41,0.79,0.41,-1.59,-0.61,-6.04,328,251,464,423,240,0.0
924,0.36,0.79,0.36,25.57,-4.88,-8.67,328,252,461,415,241,0.0
925,0.39,0.92,0.22,-7.69,-1.77,2.87,329,252,468,414,237,0.0
926,0.44,0.88,0.2,-2.62,-0.55,-1.77,331,253,470,415,241,0.0
927,0.45,0.9,0.21,3.85,2.44,-6.41,328,252,465,412,243,0.0
928,0.43,0.89,0.21,0.18,-0.73,-5.43,328,249,463,415,241,0.0
929,0.45,0.87,0.19,2.69,-4.94,0.12,328,249,464,415,241,0.0
930,0.44,0.89,0.22,-0.85,-3.3,-1.95,332,253,468,413,242,0.0
931,0.44,0.88,0.21,2.62,-3.72,-1.65,329,250,461,417,251,0.0
932,0.43,0.86,0.22,1.4,-1.77,-3.78,333,251,470,415,245,0.0
933,0.43,0.88,0.22,-0.06,-1.89,-3.05,333,256,464,417,245,0.0
934,0.43,0.87,0.22,-2.26,-2.56,-3.48,334,256,464,415,245,0.0
935,0.42,0.87,0.23,-0.06,-3.66,-0.98,335,253,465,417,245,0.0
936,0.44,0.86,0.22,0.0,-2.2,-2.08,331,251,466,414,244,0.0
937,0.44,0.87,0.23,-1.71,-3.91,-2.26,332,254,470,413,245,0.0
938,0.44,0.88,0.23,-0.18,-3.66,-0.18,333,250,466,410,245,0.0
939,0.44,0.88,0.23,1.59,-3.11,-3.17,333,255,464,422,245,0.0
940,0.44,0.87,0.23,-1.4,-2.81,-2.69,335,255,465,414,247,0.0
941,0.43,0.86,0.23,-0.43,-2.62,-1.95,333,253,465,414,247,0.0
942,0.42,0.87,0.24,0.0,-1.1,-3.36,342,255,465,417,244,0.0
943,0.45,0.86,0.23,0.98,-2.93,-1.89,337,256,465,413,248,0.0
944,0.45,0.87,0.23,0.31,-2.75,-2.81,336,269,459,415,249,0.0
945,0.44,0.87,0.23,-0.73,-2.81,-2.62,337,253,468,415,248,0.0
946,0.45,0.87,0.22,-0.49,-2.99,-1.83,339,254,467,414,248,0.0
947,0.44,0.87,0.23,0.49,-1.34,-3.72,336,256,467,415,248,0.0
948,0.44,0.86,0.22,0.85,-3.78,-0.67,333,252,465,416,245,0.0
949,0.44,0.86,0.22,-0.79,-3.66,-1.71,333,255,465,415,247,0.0
950,0.43,0.87,0.23,-1.53,-2.99,-2.32,334,256,459,418,241,0.0
951,0.46,0.87,0.22,0.0,-5.92,-2.5,337,254,461,419,244,0.0
952,0.44,0.87,0.24,-1.16,-1.34,-3.72,333,256,460,415,245,0.0
953,0.44,0.81,0.26,-34.91,20.94,-12.27,336,255,464,419,247,0.0
954,0.39,0.79,0.38,-4.09,-0.79,0.37,336,254,463,415,247,0.0
955,0.41,0.84,0.39,-0.85,-1.95,-2.26,336,255,465,415,245,0.0
956,0.42,0.81,0.37,-3.78,-4.09,-1.95,333,256,469,414,242,0.0
957,0.41,0.85,0.37,0.49,-4.03,-2.32,334,254,464,414,245,0.0
958,0.4,0.84,0.37,-2.2,-1.65,-3.6,337,256,467,419,245,0.0
959,0.43,0.85,0.37,1.04,-3.23,-1.16,334,257,465,415,246,0.0
960,0.41,0.84,0.36,0.31,-2.87,-3.72,336,254,469,416,245,0.0
961,0.42,0.83,0.35,0.73,-3.05,-1.83,336,255,467,419,245,0.0
962,0.42,0.82,0.35,1.16,-3.11,-1.71,338,252,465,415,245,0.0
963,0.42,0.82,0.33,-2.56,-1.89,-1.46,334,256,469,416,245,0.0
964,0.43,0.82,0.35,0.55,-3.23,-1.89,328,257,460,421,247,0.0
965,0.43,0.83,0.35,0.67,-3.6,-2.62,334,252,469,417,248,0.0
966,0.43,0.83,0.35,-1.04,-4.21,-2.2,334,254,462,418,245,0.0
967,0.43,0.84,0.35,4.39,-2.5,-0.67,333,254,470,415,247,0.0
968,0.43,0.84,0.36,-0.37,-2.81,-2.08,334,256,465,417,248,0.0
969,0.44,0.83,0.37,-0.79,-1.46,-4.7,330,256,465,416,245,0.0
970,0.43,0.82,0.36,-1.53,-2.38,-3.3,335,258,465,416,246,0.0
971,0.44,0.83,0.36,0.79,-3.42,-2.32,336,254,462,413,248,0.0
972,0.44,0.83,0.35,0.85,-2.44,-2.5,335,253,466,417,245,0.0
973,0.45,0.84,0.35,0.61,-4.09,-1.16,334,254,465,416,244,0.0
974,0.44,0.83,0.35,1.4,-4.46,-1.59,334,257,464,415,246,0.0
975,0.45,0.83,0.36,-0.92,-1.65,-2.56,336,249,465,416,246,0.0
976,0.43,0.81,0.35,0.61,-3.91,-2.81,333,255,464,415,248,0.0
977,0.46,0.84,0.36,-1.34,-4.39,2.14,336,255,468,414,249,0.0
978,0.44,0.82,0.35,-0.43,-3.91,-2.99,334,255,465,418,246,0.0
979,0.46,0.82,0.35,2.2,-2.75,-0.61,334,252,469,414,248,0.0
980,0.45,0.84,0.35,0.49,-3.36,-2.32,336,257,476,418,245,0.0
981,0.45,0.82,0.35,-0.06,-3.23,-2.5,335,256,465,420,249,0.0
982,0.44,0.82,0.36,0.31,-3.11,-1.71,334,260,466,412,246,0.0
983,0.45,0.82,0.36,-0.49,-2.26,-3.66,338,255,465,416,245,0.0
984,0.44,0.82,0.36,0.31,-1.89,-2.08,335,254,469,415,249,0.0
985,0.44,0.82,0.36,-0.73,-3.11,-1.95,337,256,460,416,248,0.0
986,0.44,0.83,0.36,0.98,-0.92,-3.05,334,257,469,416,246,0.0
987,0.45,0.81,0.36,-1.46,-3.72,-2.08,334,254,468,416,245,0.0
988,0.46,0.83,0.36,0.37,-2.93,-2.99,334,252,464,419,246,0.0
989,0.44,0.79,0.34,-4.09,-4.46,-1.04,333,253,465,415,248,0.0
990,0.45,0.84,0.37,0.61,-2.08,-2.38,338,254,464,418,246,0.0
991,0.48,0.82,0.37,-0.79,-3.72,-1.04,337,256,468,412,243,0.0
992,0.45,0.82,0.37,1.16,-3.66,-2.01,335,254,465,414,245,0.0
993,0.46,0.82,0.35,1.22,-4.88,-1.28,335,259,466,417,245,0.0
994,0.44,0.81,0.36,-1.22,-2.38,-1.95,338,252,465,415,248,0.0
995,0.47,0.83,0.36,1.04,-1.71,-0.79,335,257,465,414,247,0.0
996,0.44,0.83,0.36,-3.3,-1.95,-2.87,335,255,468,416,244,0.0
997,0.45,0.82,0.36,0.55,-2.99,-3.11,341,257,463,416,244,0.0
998,0.45,0.82,0.34,-2.93,-2.75,-2.08,337,255,467,416,248,0.0
999,0.44,0.84,0.36,0.31,-2.5,-2.69,335,266,468,411,245,0.0
1000,0.45,0.87,0.36,2.26,-3.6,-2.93,347,255,467,419,236,0.0
1001,0.46,0.83,0.34,-0.92,-3.42,-1.59,336,259,462,416,247,0.0
1002,0.46,0.81,0.32,0.55,-4.21,-1.59,336,257,465,420,247,0.0
1003,0.46,0.83,0.33,0.37,-3.91,-1.28,331,255,465,416,249,0.0
1004,0.46,0.82,0.33,2.14,-3.85,-1.28,338,256,466,418,246,0.0
1005,0.47,0.82,0.34,-0.37,-4.09,-0.61,336,254,461,412,245,0.0
1006,0.58,0.74,0.41,1.77,-2.26,-6.71,310,236,468,413,219,0.0
1007,0.58,0.74,0.39,2.93,1.77,-8.3,309,236,464,413,220,0.0
1008,0.53,0.73,0.41,-5.25,-5.68,-4.82,310,235,467,412,223,0.0
1009,0.57,0.75,0.39,2.44,-6.41,-1.83,312,238,459,412,228,0.0
1010,0.57,0.76,0.39,-1.59,-3.17,-4.39,309,238,465,416,220,0.0
1011,0.51,0.74,0.41,-1.16,-5.0,-1.1,310,238,464,413,219,0.0
1012,0.55,0.74,0.42,-4.21,-2.14,3.91,311,236,467,413,223,0.0
1013,0.59,0.76,0.39,7.45,-3.23,-2.81,309,236,465,413,223,0.0
1014,0.55,0.71,0.42,-4.15,-3.42,-0.98,312,238,465,414,226,0.0
1015,0.58,0.75,0.4,2.26,-2.93,-3.11,311,246,465,413,223,0.0
1016,0.52,0.69,0.44,-2.14,-0.61,-3.17,308,239,464,412,222,0.0
1017,0.5,0.77,0.46,7.81,1.71,-7.39,311,240,461,413,224,0.0
1018,0.5,0.71,0.44,2.08,-2.5,-1.28,309,240,459,417,225,0.0
1019,0.45,0.83,0.47,2.32,2.08,-2.87,305,237,471,414,224,0.0
1020,0.45,0.82,0.43,-3.48,-3.85,4.39,307,235,463,415,224,0.0
1021,0.46,0.83,0.42,4.52,-1.16,-3.05,312,239,460,414,224,0.0
1022,0.44,0.8,0.43,3.48,0.49,-2.62,308,240,465,414,228,0.0
1023,0.45,0.79,0.42,1.04,-6.35,1.16,311,241,469,413,226,0.0
1024,0.46,0.81,0.44,-0.61,-3.3,-2.08,315,242,466,412,228,0.0
1025,0.46,0.77,0.42,1.04,-3.42,-0.98,310,242,466,414,226,0.0
1026,0.46,0.79,0.42,-0.73,-1.95,-1.28,313,237,468,411,227,0.0
1027,0.46,0.77,0.42,-1.53,-2.81,-3.17,314,241,467,412,228,0.0
1028,0.48,0.77,0.41,1.16,-3.97,-2.01,315,240,466,415,229,0.0
1029,0.48,0.79,0.41,0.24,-1.4,-2.44,311,239,467,410,227,0.0
1030,0.47,0.79,0.42,-2.32,-2.69,-3.85,309,242,468,416,227,0.0
1031,0.47,0.8,0.43,-2.32,-2.08,-2.14,313,241,466,415,228,0.0
1032,0.46,0.77,0.42,1.71,-0.24,-4.09,310,243,467,415,227,0.0
1033,0.47,0.79,0.42,0.12,-2.2,-2.5,311,241,474,410,268,0.0
1034,0.46,0.79,0.43,1.34,-2.81,-3.17,314,239,473,415,226,0.0
1035,0.46,0.8,0.42,0.73,-2.5,-3.48,317,242,471,415,229,0.0
1036,0.48,0.79,0.42,1.65,-2.56,-3.42,310,241,468,416,229,0.0
1037,0.46,0.78,0.43,1.04,-1.4,-1.95,311,240,463,413,231,0.0
1038,0.47,0.79,0.43,-0.37,-3.36,-2.32,311,237,470,409,227,0.0
1039,0.45,0.78,0.42,2.14,-1.04,-2.81,312,247,467,412,229,0.0
1040,0.46,0.79,0.43,-1.04,-2.44,-4.21,312,240,465,413,231,0.0
1041,0.47,0.8,0.4,5.19,-2.75,-2.56,308,236,471,413,228,0.0
1042,0.47,0.77,0.4,2.14,-2.14,-2.32,309,237,464,414,234,0.0
1043,0.48,0.79,0.39,-0.12,-3.17,-1.22,309,240,465,414,226,0.0
1044,0.47,0.79,0.39,1.77,-3.17,-2.2,309,239,468,412,266,0.0
1045,0.48,0.79,0.39,2.44,-5.62,0.24,312,237,464,414,229,0.0
1046,0.48,0.78,0.39,-0.18,-5.0,1.71,308,237,467,417,226,0.0
1047,0.49,0.79,0.38,2.14,-5.19,-1.77,310,240,468,410,229,0.0
1048,0.48,0.79,0.39,0.61,-3.11,-1.89,311,239,467,414,228,0.0
1049,0.49,0.79,0.38,2.26,-2.62,-2.93,308,242,469,415,226,0.0
1050,0.49,0.8,0.39,0.43,-2.87,-2.32,312,238,468,416,229,0.0
1051,0.49,0.8,0.38,1.22,-2.26,-0.43,311,237,471,411,228,0.0
1052,0.49,0.8,0.39,0.31,-2.99,-4.46,311,238,471,417,227,0.0
1053,0.48,0.79,0.39,2.81,-3.42,-3.54,309,239,472,413,231,0.0
1054,0.47,0.8,0.38,4.03,-4.76,-2.01,310,237,470,412,228,0.0
1055,0.48,0.8,0.38,0.79,-4.09,-3.3,309,236,467,414,232,0.0
1056,0.49,0.79,0.37,1.28,-2.5,-1.22,312,237,466,416,231,0.0
1057,0.49,0.79,0.37,2.2,-2.56,-0.55,311,238,481,415,227,0.0
1058,0.49,0.78,0.38,1.28,-2.69,-2.99,310,238,462,414,229,0.0
1059,0.48,0.8,0.4,1.34,-2.01,-4.82,319,239,463,415,229,0.0
1060,0.49,0.8,0.38,0.31,-2.75,-1.71,308,241,470,412,225,0.0
1061,0.48,0.78,0.38,0.61,-2.81,-0.24,313,237,472,412,232,0.0
1062,0.49,0.8,0.38,2.75,-2.44,-2.81,312,238,469,414,231,0.0
1063,0.49,0.79,0.37,-0.31,-3.48,-3.11,311,238,467,411,229,0.0
1064,0.47,0.81,0.38,-1.65,-3.23,-4.58,312,240,470,416,233,0.0
1065,0.49,0.79,0.36,0.92,-4.09,-1.83,315,241,471,415,225,0.0
1066,0.5,0.81,0.36,-1.53,-4.03,-0.67,313,240,471,414,223,0.0
1067,0.5,0.8,0.37,3.66,-3.91,-2.32,315,244,468,411,228,0.0
1068,0.5,0.78,0.36,1.28,-2.44,-1.04,313,243,467,413,244,0.0
1069,0.5,0.78,0.37,2.26,-4.39,-1.4,313,243,466,415,231,0.0
1070,0.49,0.79,0.36,-2.08,-2.99,-2.93,313,239,471,412,231,0.0
1071,0.49,0.79,0.36,-1.22,-2.93,-3.66,317,240,470,415,227,0.0
1072,0.48,0.8,0.38,0.37,-2.2,-3.42,313,244,465,417,232,0.0
1073,0.49,0.77,0.37,-1.71,-2.44,-2.08,313,241,473,415,231,0.0
1074,0.46,0.79,0.36,-3.36,-4.82,-4.82,314,238,468,410,231,0.0
1075,0.49,0.79,0.36,-0.43,-3.05,-1.34,313,240,470,415,232,0.0
1076,0.49,0.8,0.37,0.61,-2.81,-2.81,317,245,468,415,229,0.0
1077,0.48,0.8,0.37,1.4,-1.28,-4.27,312,239,481,415,232,0.0
1078,0.49,0.8,0.37,1.89,-2.69,-3.11,317,246,473,411,231,0.0
1079,0.48,0.79,0.38,-0.12,-1.65,-3.23,314,243,468,415,230,0.0
1080,0.49,0.79,0.36,0.0,-2.44,-3.05,311,244,482,415,230,0.0
1081,0.5,0.8,0.37,-0.49,-3.6,-0.24,315,240,462,416,229,0.0
1082,0.49,0.78,0.36,-0.18,-2.81,-2.44,314,241,464,416,228,0.0
1083,0.5,0.79,0.38,-0.06,-3.23,-2.93,314,241,470,415,231,0.0
1084,0.46,0.79,0.37,-0.61,-2.38,-3.23,322,242,468,416,231,0.0
1085,0.49,0.79,0.39,2.26,-1.71,-4.33,314,241,469,414,226,0.0
1086,0.48,0.8,0.38,-0.79,-2.93,-2.44,312,241,463,412,234,0.0
1087,0.49,0.78,0.39,-0.06,-3.54,-2.01,312,242,473,414,234,0.0
1088,0.48,0.8,0.37,0.49,-4.21,-2.93,318,240,461,415,233,0.0
1089,0.48,0.79,0.38,-0.49,-1.71,-2.38,310,242,467,414,231,0.0
1090,0.48,0.79,0.37,-1.83,-2.44,-2.38,316,239,467,416,231,0.0
1091,0.49,0.81,0.38,-0.67,-2.69,-3.72,316,242,466,415,231,0.0
1092,0.46,0.8,0.39,-1.4,-0.67,-4.46,316,241,470,418,233,0.0
1093,0.44,0.84,0.37,-3.3,-16.24,-9.58,316,239,471,416,232,0.0
1094,0.46,0.8,0.4,-1.22,-11.84,-10.38,313,240,466,415,231,0.0
1095,0.45,0.77,0.38,-4.21,-1.71,5.19,315,245,467,417,231,0.0
1096,0.49,0.78,0.36,-0.12,3.66,5.98,317,244,464,417,234,0.0
1097,0.48,0.75,0.36,2.32,3.66,10.99,318,240,468,416,232,0.0
1098,0.47,0.82,0.42,-0.06,6.1,-2.75,316,242,468,412,230,0.0
1099,0.49,0.8,0.39,2.5,-4.27,-1.53,318,242,471,415,234,0.0
1100,0.44,0.78,0.42,1.4,-0.18,1.53,315,238,469,419,233,0.0
1101,0.49,0.77,0.4,-0.06,-4.82,-2.26,316,242,467,414,233,0.0
1102,0.48,0.78,0.4,0.79,-4.03,-2.62,316,241,468,416,233,0.0
1103,0.5,0.8,0.4,0.49,-1.53,-3.17,316,246,478,414,233,0.0
1104,0.5,0.8,0.41,2.32,-1.28,-2.81,318,243,467,419,251,0.0
1105,0.49,0.77,0.39,0.31,-2.08,-0.79,317,244,468,414,227,0.0
1106,0.5,0.78,0.39,0.24,-3.42,-2.14,316,244,468,417,232,0.0
1107,0.5,0.78,0.4,0.24,-3.6,-2.01,316,247,471,417,272,0.0
1108,0.51,0.78,0.39,-0.73,-3.23,-1.53,316,243,466,415,231,0.0
1109,0.5,0.78,0.39,1.28,-2.5,-3.91,319,240,469,416,241,0.0
1110,0.51,0.77,0.39,-1.16,-2.62,-2.56,316,243,467,416,235,0.0
1111,0.5,0.77,0.39,-0.18,-4.39,-3.72,317,243,463,417,233,0.0
1112,0.51,0.76,0.39,-0.31,-4.27,-0.37,317,241,463,418,233,0.0
1113,0.5,0.77,0.39,-1.04,-2.56,-1.89,318,241,464,416,231,0.0
1114,0.51,0.78,0.39,0.37,-4.03,-2.08,317,242,470,417,228,0.0
1115,0.52,0.78,0.39,-1.34,-3.97,-0.98,317,243,468,417,235,0.0
1116,0.52,0.78,0.39,-1.04,-3.91,-2.93,318,241,465,416,233,0.0
1117,0.49,0.78,0.4,-1.59,-0.98,-4.76,317,241,470,417,231,0.0
1118,0.49,0.78,0.39,0.06,-4.46,-2.93,320,245,466,417,231,0.0
1119,0.48,0.77,0.38,-0.31,-5.49,0.12,320,243,475,417,232,0.0
1120,0.51,0.78,0.4,-5.86,-10.68,-1.46,321,246,468,418,234,0.0
1121,0.47,0.71,0.4,-4.64,-2.26,14.34,320,245,467,416,234,0.0
1122,0.56,0.73,0.39,-3.72,-3.6,-1.53,317,249,467,416,237,0.0
1123,0.53,0.73,0.41,-3.05,-3.72,0.43,317,244,470,417,244,0.0
1124,0.55,0.77,0.43,0.43,-2.62,-3.72,317,246,471,417,234,0.0
1125,0.53,0.76,0.41,0.73,-3.11,1.1,317,243,474,419,233,0.0
1126,0.53,0.75,0.41,0.73,-4.58,-3.91,319,245,468,415,231,0.0
1127,0.52,0.73,0.4,-0.18,-3.36,-1.71,318,245,471,417,236,0.0
1128,0.53,0.77,0.4,2.2,0.73,-7.87,318,244,471,418,233,0.0
1129,0.54,0.77,0.42,3.23,-3.97,-2.32,322,243,478,416,236,0.0
1130,0.53,0.75,0.41,0.92,-2.26,-2.99,319,243,462,417,236,0.0
1131,0.54,0.75,0.4,1.1,-3.36,-1.83,321,245,466,418,234,0.0
1132,0.53,0.74,0.41,-2.2,-3.3,-2.44,318,245,473,417,237,0.0
1133,0.54,0.76,0.41,-2.26,-2.75,-1.34,319,245,471,413,234,0.0
1134,0.52,0.74,0.41,1.04,-3.78,-3.42,316,245,467,412,231,0.0
1135,0.52,0.76,0.41,-0.73,-2.44,-2.69,320,246,469,417,236,0.0
1136,0.53,0.74,0.41,-0.06,-4.46,-2.26,316,249,472,416,236,0.0
1137,0.52,0.76,0.41,-0.85,-1.28,-1.89,321,241,468,417,236,0.0
1138,0.51,0.76,0.42,1.83,-2.75,-4.46,319,244,467,418,235,0.0
1139,0.5,0.76,0.42,0.98,-1.22,-2.75,321,244,467,414,246,0.0
1140,0.53,0.76,0.41,2.56,-4.03,-1.95,324,246,462,417,237,0.0
1141,0.51,0.75,0.41,0.49,-2.81,-2.44,317,243,470,418,231,0.0
1142,0.51,0.75,0.41,0.55,-3.05,-1.77,327,244,471,419,234,0.0
1143,0.51,0.74,0.41,-1.22,-3.36,-2.44,322,244,467,417,230,0.0
1144,0.51,0.76,0.4,0.67,-2.93,-2.81,317,242,467,418,237,0.0
1145,0.52,0.74,0.4,0.0,-3.23,-2.32,325,245,468,413,233,0.0
1146,0.52,0.76,0.42,0.55,-1.83,-2.93,321,244,471,419,234,0.0
1147,0.51,0.76,0.42,0.49,-2.38,-3.05,319,246,469,418,233,0.0
1148,0.51,0.77,0.41,3.97,-1.46,-3.72,319,242,472,418,233,0.0
1149,0.5,0.74,0.4,0.85,-2.81,-2.93,319,245,467,419,230,0.0
1150,0.51,0.75,0.41,2.32,-2.87,-0.67,318,242,470,417,235,0.0
1151,0.51,0.77,0.42,0.55,-3.91,3.17,321,249,470,413,234,0.0
1152,0.53,0.75,0.39,0.49,-4.64,-1.95,320,243,467,416,234,0.0
1153,0.55,0.74,0.42,-1.83,0.12,1.16,318,243,470,416,235,0.0
1154,0.52,0.73,0.43,2.99,0.55,1.28,319,243,468,415,235,0.0
1155,0.54,0.73,0.42,1.4,-1.22,-2.93,322,260,463,420,234,0.0
1156,0.52,0.72,0.42,2.08,-1.95,-5.86,322,247,468,418,238,0.0
1157,0.53,0.78,0.41,0.24,-3.3,-0.85,320,244,464,414,235,0.0
1158,0.55,0.75,0.42,4.27,-4.46,0.06,319,246,463,419,235,0.0
1159,0.57,0.71,0.4,-2.5,-2.93,-0.85,320,247,468,419,237,0.0
1160,0.56,0.71,0.44,0.55,-5.0,-4.09,317,244,462,420,234,0.0
1161,0.55,0.73,0.43,0.49,-3.91,-4.39,317,244,464,418,230,0.0
1162,0.57,0.69,0.39,-0.79,-3.36,-0.18,323,246,462,418,237,0.0
1163,0.57,0.73,0.43,-2.75,-3.6,-5.37,323,250,468,417,235,0.0
1164,0.55,0.69,0.41,-1.16,-3.85,-2.32,322,243,464,418,245,0.0
1165,0.57,0.7,0.42,0.12,-2.5,-0.85,323,242,470,419,239,0.0
1166,0.59,0.68,0.43,4.39,-8.97,-8.61,326,247,463,416,238,0.0
1167,0.58,0.68,0.41,1.4,1.22,-4.46,323,245,474,416,236,0.0
1168,0.56,0.74,0.44,0.98,0.31,-4.58,320,245,466,417,237,0.0
1169,0.56,0.72,0.44,2.93,-0.37,-4.03,320,248,471,416,266,0.0
1170,0.55,0.74,0.45,1.59,-3.11,-2.99,321,248,468,418,236,0.0
1171,0.54,0.71,0.46,-1.04,-2.75,0.73,318,245,471,419,237,0.0
1172,0.55,0.71,0.45,-1.95,-2.87,-2.69,322,249,471,419,239,0.0
1173,0.58,0.71,0.44,0.43,-3.54,-2.87,326,249,467,418,236,0.0
1174,0.56,0.71,0.44,-0.73,1.04,-5.62,322,243,465,418,240,0.0
1175,0.57,0.7,0.47,-0.49,-4.58,-3.11,323,245,467,418,235,0.0
1176,0.55,0.7,0.46,3.23,-3.48,-2.38,323,248,471,418,242,0.0
1177,0.56,0.71,0.47,0.0,-3.48,-2.81,325,246,466,416,236,0.0
1178,0.54,0.71,0.44,-0.92,-0.61,-4.94,323,245,471,418,242,0.0
1179,0.52,0.71,0.47,-1.22,-2.87,-3.78,326,243,471,418,236,0.0
1180,0.55,0.72,0.47,0.85,-3.54,-2.5,324,261,470,420,239,0.0
1181,0.53,0.71,0.46,1.16,-2.14,-3.66,324,248,466,416,238,0.0
1182,0.53,0.72,0.46,0.12,-2.56,-2.38,325,246,461,419,236,0.0
1183,0.52,0.72,0.45,0.92,-4.21,-1.65,324,248,462,416,253,0.0
1184,0.56,0.73,0.45,4.64,-0.37,-3.23,323,248,482,418,233,0.0
1185,0.51,0.75,0.45,1.28,-3.72,-0.73,326,247,469,428,260,0.0
1186,0.51,0.71,0.44,-0.92,-3.05,-1.34,325,249,463,418,236,0.0
1187,0.53,0.75,0.45,2.62,-3.6,-6.04,320,247,467,415,236,0.0
1188,0.5,0.73,0.43,1.22,-2.93,-6.35,322,245,471,418,236,0.0
1189,0.5,0.75,0.45,0.31,-2.69,-2.44,326,246,471,417,236,0.0
1190,0.51,0.77,0.44,1.65,-1.83,-2.08,323,244,467,419,236,0.0
1191,0.5,0.76,0.42,1.77,-3.36,-3.11,329,246,466,418,237,0.0
1192,0.5,0.74,0.43,-1.22,-3.05,-1.28,324,256,470,419,237,0.0
1193,0.52,0.75,0.42,3.85,-4.21,-1.1,325,250,471,418,239,0.0
1194,0.51,0.75,0.41,3.17,-2.75,-3.48,323,251,471,420,237,0.0
1195,0.52,0.75,0.41,2.62,-2.26,-2.87,322,246,470,419,234,0.0
1196,0.5,0.77,0.41,1.22,-3.6,-4.7,323,247,467,418,238,0.0
1197,0.5,0.78,0.42,2.01,-2.69,-2.81,326,245,465,417,240,0.0
1198,0.5,0.77,0.42,0.67,-3.11,-2.81,324,256,471,418,239,0.0
1199,0.49,0.76,0.42,0.43,-4.46,-0.49,322,245,466,420,237,0.0
1200,0.51,0.77,0.41,0.43,-3.3,-1.16,326,247,468,416,237,0.0
1201,0.5,0.75,0.41,1.16,-4.52,-1.22,325,245,461,414,239,0.0
1202,0.51,0.77,0.4,2.5,-2.81,-2.93,323,246,470,413,237,0.0
1203,0.5,0.77,0.41,1.65,-2.32,-2.5,324,249,465,419,240,0.0
1204,0.5,0.78,0.41,0.24,-2.75,-2.56,320,249,466,418,239,0.0
1205,0.52,0.76,0.39,1.65,-3.66,-4.39,324,249,467,418,238,0.0
1206,0.5,0.78,0.41,0.18,-3.91,-3.05,324,247,470,417,238,0.0
1207,0.5,0.77,0.4,-1.77,-2.5,-1.95,326,257,466,419,240,0.0
1208,0.51,0.78,0.39,1.34,-1.71,-2.32,321,250,468,419,236,0.0
1209,0.5,0.78,0.41,-0.79,-2.38,-4.09,320,250,466,415,237,0.0
1210,0.49,0.75,0.41,0.61,-1.83,-2.81,323,247,469,418,237,0.0
1211,0.49,0.76,0.42,-1.28,-2.75,-2.99,326,248,465,418,239,0.0
1212,0.5,0.77,0.41,1.4,-1.95,-1.28,325,250,462,416,238,0.0
1213,0.5,0.78,0.42,0.85,-3.17,-1.95,323,248,472,419,237,0.0
1214,0.51,0.76,0.4,0.98,-3.97,-1.77,324,250,467,417,237,0.0
1215,0.51,0.76,0.4,0.24,-2.99,-2.08,324,250,465,418,237,0.0
1216,0.5,0.76,0.41,0.73,-4.39,-1.46,324,248,469,419,234,0.0
1217,0.51,0.76,0.41,1.46,-3.05,-2.44,324,245,465,414,237,0.0
1218,0.51,0.76,0.41,-0.37,-3.54,-2.56,326,245,469,418,240,0.0
1219,0.51,0.76,0.41,1.22,-4.03,-0.79,321,249,466,421,237,0.0
1220,0.51,0.75,0.42,-1.22,-3.3,-0.49,323,248,466,419,240,0.0
1221,0.51,0.77,0.43,2.93,-3.17,-2.87,326,247,463,417,240,0.0
1222,0.51,0.76,0.41,1.89,-3.48,-2.26,326,246,462,416,237,0.0
1223,0.49,0.77,0.41,1.22,-2.14,-2.2,324,247,462,418,239,0.0
1224,0.49,0.76,0.42,-0.67,-2.81,-2.99,324,247,465,418,240,0.0
1225,0.5,0.76,0.41,-0.24,-2.87,-4.27,324,248,470,418,233,0.0
1226,0.5,0.76,0.41,-2.26,-3.85,-1.71,324,247,467,418,237,0.0
1227,0.49,0.77,0.42,-0.73,-0.61,-4.33,324,243,466,413,238,0.0
1228,0.5,0.77,0.42,-0.18,-2.26,-2.81,324,247,463,420,237,0.0
1229,0.51,0.78,0.42,0.37,-2.93,-2.75,325,249,466,416,240,0.0
1230,0.51,0.76,0.41,-0.49,-2.44,-2.69,321,249,466,414,237,0.0
1231,0.5,0.76,0.41,-0.18,-3.05,-2.99,327,250,465,420,240,0.0
1232,0.5,0.76,0.41,-1.46,-2.75,-3.54,325,244,467,417,239,0.0
1233,0.51,0.75,0.42,-0.24,-2.08,-2.99,324,245,467,413,236,0.0
1234,0.52,0.76,0.41,1.28,-2.75,-4.46,324,246,465,414,240,0.0
1235,0.5,0.76,0.42,-0.24,-2.32,-2.87,325,250,467,418,242,0.0
1236,0.5,0.76,0.42,-0.31,-3.91,-3.36,324,246,470,418,238,0.0
1237,0.5,0.77,0.42,0.06,-2.01,-4.52,330,246,465,418,238,0.0
1238,0.5,0.78,0.42,1.4,-1.71,-2.81,324,246,461,421,239,0.0
1239,0.51,0.76,0.39,-0.67,-3.23,-3.05,324,245,470,415,238,0.0
1240,0.51,0.75,0.4,-6.47,-9.09,-4.88,326,248,470,418,239,0.0
1241,0.5,0.76,0.4,-1.89,-2.26,-1.65,324,247,470,419,239,0.0
1242,0.48,0.76,0.42,2.01,-5.19,-4.46,327,245,467,420,238,0.0
1243,0.51,0.76,0.41,4.21,-1.77,-5.13,324,247,464,417,237,0.0
1244,0.48,0.8,0.4,3.97,-2.56,-5.25,324,247,467,418,236,0.0
1245,0.47,0.8,0.4,0.79,-1.65,-3.78,326,244,469,418,236,0.0
1246,0.46,0.8,0.4,1.46,-4.09,-2.62,326,249,472,417,240,0.0
1247,0.46,0.79,0.38,1.22,-3.05,-2.26,326,253,470,418,239,0.0
1248,0.46,0.82,0.41,0.24,-0.49,-3.17,325,248,466,417,240,0.0
1249,0.47,0.78,0.39,0.73,-1.28,-4.21,325,249,466,419,238,0.0
1250,0.46,0.79,0.4,-1.89,-2.32,-2.01,327,246,465,416,250,0.0
1251,0.5,0.81,0.43,-0.98,-0.24,-1.65,324,246,461,419,237,0.0
1252,0.5,0.79,0.41,-0.06,-0.55,-0.92,325,250,466,416,237,0.0
1253,0.48,0.8,0.44,-0.67,-1.4,-3.05,324,245,469,417,241,0.0
1254,0.5,0.8,0.44,0.79,-4.7,-2.2,324,250,466,417,237,0.0
1255,0.46,0.75,0.42,1.04,-2.93,-3.85,324,249,467,417,237,0.0
1256,0.47,0.78,0.43,3.42,-1.89,-1.22,341,250,469,417,241,0.0
1257,0.46,0.8,0.42,0.79,-3.97,-2.93,327,249,466,417,238,0.0
1258,0.49,0.77,0.42,-0.06,-3.66,-2.08,326,249,464,414,239,0.0
1259,0.48,0.79,0.42,1.89,-2.56,-2.62,326,247,464,420,237,0.0
1260,0.48,0.77,0.42,-0.06,-2.69,-2.62,323,248,467,417,240,0.0
1261,0.48,0.79,0.42,0.61,-3.17,-2.81,327,248,465,419,239,0.0
1262,0.48,0.77,0.41,0.12,-3.05,-2.01,332,249,467,420,253,0.0
1263,0.5,0.76,0.41,1.46,-3.48,-2.44,325,253,465,419,242,0.0
1264,0.49,0.77,0.41,0.31,-3.05,-2.32,325,249,470,418,237,0.0
1265,0.49,0.77,0.42,1.28,-2.32,-4.33,325,248,466,417,238,0.0
1266,0.49,0.77,0.42,-0.43,-2.01,-3.17,324,248,467,418,238,0.0
1267,0.49,0.77,0.41,-0.98,-2.69,-2.32,326,244,470,417,238,0.0
1268,0.49,0.78,0.42,0.06,-2.44,-3.17,324,251,466,417,229,0.0
1269,0.49,0.76,0.41,0.43,-2.26,-2.81,329,247,464,425,238,0.0
1270,0.49,0.78,0.4,-1.65,-3.05,-2.08,325,250,470,418,237,0.0
1271,0.48,0.79,0.41,-3.17,-3.54,-3.23,321,246,464,417,241,0.0
1272,0.48,0.78,0.42,0.12,-3.54,-1.83,327,246,462,418,235,0.0
1273,0.48,0.77,0.42,-0.55,-1.71,-0.92,328,247,467,418,251,0.0
1274,0.49,0.78,0.42,0.37,-3.17,-2.32,325,248,465,417,239,0.0
1275,0.48,0.77,0.41,0.92,-2.08,-1.83,322,251,465,418,240,0.0
1276,0.49,0.76,0.42,0.67,-2.5,-2.5,326,250,470,414,237,0.0
1277,0.48,0.77,0.42,0.06,-3.36,-2.38,326,251,461,419,238,0.0
1278,0.48,0.75,0.4,3.23,-0.31,-5.92,329,247,470,418,238,0.0
1279,0.49,0.78,0.42,0.73,-3.11,-2.87,328,249,465,418,237,0.0
1280,0.47,0.76,0.42,-0.98,-0.37,0.24,328,249,461,418,238,0.0
1281,0.5,0.72,0.4,1.59,-3.17,-4.03,324,249,463,421,240,0.0
1282,0.51,0.79,0.43,0.55,-2.14,-2.38,326,251,460,417,246,0.0
1283,0.49,0.75,0.41,1.89,-2.08,-4.03,327,245,475,418,237,0.0
1284,0.5,0.76,0.42,-0.43,-3.05,-1.71,328,247,466,415,238,0.0
1285,0.51,0.75,0.42,-1.28,-3.3,-1.28,324,248,461,418,237,0.0
1286,0.49,0.75,0.42,-0.67,-2.01,-3.36,326,251,470,418,233,0.0
1287,0.48,0.76,0.43,0.67,-3.85,-2.5,328,246,470,417,239,0.0
1288,0.5,0.74,0.42,-0.43,-4.21,-2.32,322,248,460,415,240,0.0
1289,0.5,0.75,0.41,-1.77,-2.75,-3.72,326,244,462,417,237,0.0
1290,0.5,0.76,0.42,-6.29,-3.85,-1.1,325,246,468,418,239,0.0
1291,0.51,0.75,0.44,-2.38,-3.3,-1.46,331,251,470,420,235,0.0
1292,0.49,0.76,0.43,-0.55,-4.64,-1.59,325,249,466,419,240,0.0
1293,0.5,0.78,0.44,1.89,-4.27,-1.53,327,247,466,418,233,0.0
1294,0.49,0.77,0.45,1.71,-1.59,-4.94,325,252,464,418,238,0.0
1295,0.5,0.78,0.45,1.28,-3.66,-2.38,327,249,460,417,238,0.0
1296,0.48,0.76,0.42,3.97,-6.71,0.55,327,249,461,418,238,0.0
1297,0.59,0.73,0.42,-13.49,-0.92,-14.71,328,248,465,420,238,0.0
1298,0.46,0.79,0.49,8.97,6.53,-22.71,327,249,469,418,240,0.0
1299,0.45,0.81,0.42,8.48,4.64,-9.03,330,251,468,418,241,0.0
1300,0.47,0.8,0.36,12.15,-0.18,-2.38,328,253,461,416,241,0.0
1301,0.43,0.81,0.39,2.56,-2.5,2.2,327,253,467,415,236,0.0
1302,0.45,0.8,0.38,-2.01,1.34,0.0,330,252,465,413,240,0.0
1303,0.44,0.84,0.4,5.25,-1.89,-10.31,328,252,469,417,238,0.0
1304,0.46,0.81,0.4,4.82,-3.48,-1.89,329,246,473,418,238,0.0
1305,0.42,0.81,0.4,-1.22,2.93,-4.27,328,253,469,418,240,0.0
1306,0.44,0.79,0.43,-1.77,6.41,0.49,330,250,461,417,241,0.0
1307,0.45,0.78,0.4,1.71,-1.04,-1.53,326,252,466,418,238,0.0
1308,0.43,0.8,0.41,2.01,-3.42,-4.39,329,252,464,417,241,0.0
1309,0.45,0.76,0.41,-1.1,-4.88,-1.1,330,251,466,415,239,0.0
1310,0.46,0.84,0.45,3.17,0.31,-3.11,331,251,467,415,240,0.0
1311,0.45,0.79,0.44,0.92,-1.95,-4.33,325,250,461,416,239,0.0
1312,0.47,0.79,0.4,4.09,-4.27,-1.59,327,249,471,417,238,0.0
1313,0.48,0.81,0.42,2.81,-4.82,-5.55,328,256,469,417,238,0.0
1314,0.46,0.8,0.42,0.12,-3.36,-2.26,327,252,464,420,238,0.0
1315,0.44,0.8,0.41,5.92,-1.1,-3.78,328,251,467,416,241,0.0
1316,0.43,0.8,0.43,0.85,-2.32,-4.09,328,249,476,417,238,0.0
1317,0.44,0.81,0.41,3.72,-2.81,-2.26,338,251,465,413,241,0.0
1318,0.47,0.81,0.4,4.82,-8.54,4.58,331,250,472,417,238,0.0
1319,0.44,0.81,0.42,-1.4,-3.6,-4.64,328,259,462,417,238,0.0
1320,0.45,0.79,0.41,1.65,-5.07,-3.36,333,255,464,417,238,0.0
1321,0.44,0.8,0.41,2.87,-2.99,-4.52,342,252,467,418,238,0.0
1322,0.41,0.81,0.4,-1.95,-10.68,-8.67,331,250,470,417,239,0.0
1323,0.45,0.79,0.4,-1.65,-2.93,-2.14,330,253,466,417,241,0.0
1324,0.45,0.8,0.41,0.92,-3.17,-0.55,327,251,464,418,240,0.0
1325,0.43,0.79,0.41,-0.49,-4.58,-0.85,325,256,468,417,239,0.0
1326,0.44,0.8,0.41,0.67,-2.75,-2.69,333,250,466,417,252,0.0
1327,0.44,0.8,0.41,-0.18,-2.99,-3.97,328,248,467,417,241,0.0
1328,0.44,0.82,0.42,1.16,-2.93,-2.26,331,253,465,417,236,0.0
1329,0.42,0.81,0.41,0.0,-3.97,-1.89,327,253,460,418,239,0.0
1330,0.42,0.81,0.41,-0.79,-2.62,-2.14,330,251,460,418,239,0.0
1331,0.43,0.82,0.41,-0.43,-2.08,-2.32,328,248,464,419,239,0.0
1332,0.42,0.82,0.43,-1.4,-4.03,-1.53,329,252,463,417,240,0.0
1333,0.44,0.79,0.4,-0.12,-4.21,-0.18,329,251,463,416,247,0.0
1334,0.43,0.81,0.41,1.4,-2.38,-3.72,332,264,466,418,243,0.0
1335,0.44,0.82,0.42,2.14,-2.5,-3.48,327,253,468,415,241,0.0
1336,0.43,0.81,0.41,0.37,-2.5,-2.69,324,249,465,417,238,0.0
1337,0.42,0.83,0.41,-1.22,-2.99,-2.32,329,247,468,418,238,0.0
1338,0.43,0.82,0.4,0.43,-4.33,-1.16,322,248,468,417,238,0.0
1339,0.43,0.81,0.39,0.55,-3.23,-2.62,327,248,469,413,236,0.0
1340,0.44,0.8,0.39,2.26,-1.71,-3.3,322,243,469,418,238,0.0
1341,0.45,0.81,0.4,3.54,-3.17,-2.2,325,249,465,417,236,0.0
1342,0.43,0.83,0.4,-0.85,-2.87,-2.75,329,248,468,417,234,0.0
1343,0.42,0.81,0.4,-0.31,-1.77,-3.66,324,246,467,416,240,0.0
1344,0.42,0.82,0.4,-0.12,-2.08,-2.75,324,246,466,419,239,0.0
1345,0.44,0.81,0.41,0.55,-3.48,-2.2,331,248,469,407,239,0.0
1346,0.43,0.81,0.4,0.43,-1.53,-3.91,327,243,461,412,241,0.0
1347,0.42,0.82,0.42,-2.2,-0.98,-1.89,324,251,465,417,241,0.0
1348,0.42,0.81,0.4,3.3,-5.98,-0.73,328,244,466,419,252,0.0
1349,0.44,0.78,0.38,-1.89,-3.42,1.77,326,250,461,415,240,0.0
1350,0.43,0.8,0.41,-0.92,-2.69,-3.66,325,245,465,415,240,0.0
1351,0.42,0.83,0.43,0.43,-1.1,-0.98,327,247,468,419,242,0.0
1352,0.46,0.84,0.39,1.22,-4.88,-4.09,325,246,470,417,238,0.0
1353,0.42,0.8,0.39,1.71,-3.17,-1.71,322,250,468,415,239,0.0
1354,0.44,0.81,0.39,0.79,-2.32,-1.65,324,248,466,415,239,0.0
1355,0.44,0.81,0.41,0.49,-3.11,-2.56,325,248,466,415,240,0.0
1356,0.44,0.8,0.39,1.34,-2.38,-1.16,325,250,460,417,238,0.0
1357,0.45,0.83,0.41,-2.01,-4.94,2.93,328,245,473,419,241,0.0
1358,0.45,0.79,0.4,-0.49,-4.21,-2.38,326,251,465,420,240,0.0
1359,0.44,0.8,0.41,-3.3,-5.74,-0.49,325,250,466,417,244,0.0
1360,0.45,0.79,0.41,2.2,-3.66,-1.04,334,249,463,418,241,0.0
1361,0.43,0.79,0.43,0.92,-2.14,-3.23,325,250,465,416,239,0.0
1362,0.45,0.79,0.4,-0.12,-4.64,-0.18,326,251,466,419,240,0.0
1363,0.46,0.81,0.42,1.04,-3.6,-3.05,327,251,468,419,240,0.0
1364,0.44,0.79,0.41,1.16,-2.32,-3.17,331,248,460,418,241,0.0
1365,0.45,0.8,0.42,1.4,-1.65,-3.72,329,251,468,417,239,0.0
1366,0.46,0.81,0.42,1.1,-3.3,-2.56,326,251,464,417,241,0.0
1367,0.44,0.79,0.41,0.55,-2.69,-1.34,324,249,470,417,240,0.0
1368,0.44,0.8,0.42,-0.55,-2.2,-3.05,324,249,470,416,239,0.0
1369,0.44,0.79,0.43,0.06,-1.28,-2.56,335,256,470,420,241,0.0
1370,0.45,0.8,0.42,0.98,-2.14,-2.44,326,250,467,418,238,0.0
1371,0.44,0.79,0.41,2.26,-3.17,-2.26,327,247,465,418,237,0.0
1372,0.44,0.79,0.43,-0.92,-3.48,-1.46,324,251,468,420,239,0.0
1373,0.46,0.81,0.43,0.49,-3.05,-2.99,330,245,467,412,240,0.0
1374,0.44,0.79,0.43,0.79,-1.77,-2.56,329,255,464,420,240,0.0
1375,0.41,0.78,0.41,0.37,-0.18,-5.49,328,250,465,416,242,0.0
1376,0.45,0.79,0.41,0.31,-2.5,-2.75,327,249,469,417,245,0.0
1377,0.44,0.79,0.42,-1.89,-3.23,-2.26,329,252,468,417,241,0.0
1378,0.44,0.78,0.42,0.06,-2.93,-2.14,328,252,466,415,240,0.0
1379,0.44,0.8,0.42,-0.31,-2.32,-2.56,328,261,466,418,242,0.0
1380,0.45,0.8,0.42,1.28,-3.11,-2.14,331,249,469,417,238,0.0
1381,0.44,0.81,0.43,0.31,-2.87,-2.69,327,257,464,416,242,0.0
1382,0.45,0.79,0.42,-0.31,-3.17,-2.14,329,253,466,417,240,0.0
1383,0.45,0.81,0.42,1.34,-2.62,-2.75,327,252,470,417,240,0.0
1384,0.45,0.8,0.41,-1.34,-4.52,-1.89,325,253,463,420,239,0.0
1385,0.44,0.78,0.42,-0.24,-3.48,-1.83,328,252,465,419,244,0.0
1386,0.46,0.77,0.42,-0.37,-2.38,-3.97,328,251,467,414,242,0.0
1387,0.45,0.79,0.43,0.98,-2.93,-1.83,328,252,460,418,244,0.0
1388,0.47,0.78,0.43,0.06,-3.66,-2.99,324,252,462,416,237,0.0
1389,0.45,0.79,0.43,2.38,-3.23,-2.81,329,251,472,417,240,0.0
1390,0.45,0.79,0.42,1.22,-1.95,-2.69,325,253,466,414,242,0.0
1391,0.46,0.82,0.43,1.95,-1.71,-1.65,328,250,464,417,241,0.0
1392,0.44,0.79,0.42,-2.75,-2.81,-1.89,327,252,466,420,241,0.0
1393,0.45,0.78,0.42,-0.24,-3.23,-0.67,327,253,466,415,240,0.0
1394,0.47,0.79,0.42,-0.79,-4.21,-0.43,331,251,481,419,240,0.0
1395,0.47,0.79,0.43,0.85,-3.36,-2.2,328,251,460,418,240,0.0
1396,0.46,0.78,0.42,-0.18,-2.62,-2.75,329,249,464,413,241,0.0
1397,0.47,0.79,0.43,1.22,-3.6,-2.2,325,253,464,416,239,0.0
1398,0.46,0.77,0.42,-0.73,-1.34,-3.36,326,251,469,420,252,0.0
1399,0.45,0.78,0.42,2.5,-1.95,-3.23,327,252,470,413,239,0.0
1400,0.47,0.79,0.43,-2.26,-3.66,-0.67,327,249,465,417,240,0.0
1401,0.47,0.8,0.43,1.83,-2.99,-2.56,332,253,466,417,239,0.0
1402,0.45,0.79,0.43,0.49,-2.26,-2.38,329,251,463,418,240,0.0
1403,0.46,0.78,0.42,2.14,-2.14,-3.36,329,251,466,417,241,0.0
1404,0.47,0.79,0.42,-0.61,-3.6,-1.89,329,248,469,418,240,0.0
1405,0.47,0.81,0.43,0.73,-3.54,-3.05,331,251,469,414,237,0.0
1406,0.45,0.78,0.41,4.64,-2.38,-3.17,325,248,465,425,242,0.0
1407,0.45,0.78,0.41,-0.73,-1.83,-2.75,331,250,467,417,242,0.0
1408,0.46,0.8,0.42,1.04,-3.23,-3.11,327,251,464,418,237,0.0
1409,0.47,0.8,0.43,0.92,-2.69,-2.26,330,250,467,419,243,0.0
1410,0.46,0.79,0.42,0.24,-3.48,-2.38,326,253,465,415,240,0.0
1411,0.47,0.8,0.42,0.24,-2.44,-3.72,331,250,464,417,241,0.0
1412,0.47,0.78,0.43,0.43,-2.69,-3.6,326,249,474,418,240,0.0
1413,0.45,0.77,0.41,0.37,-1.89,-2.87,329,253,462,417,238,0.0
1414,0.45,0.78,0.42,0.79,-4.03,-1.34,326,252,464,417,242,0.0
1415,0.45,0.79,0.43,-1.53,-2.87,-2.62,329,253,465,413,242,0.0
1416,0.46,0.77,0.41,0.49,-2.38,-3.6,329,254,466,414,238,0.0
1417,0.45,0.79,0.42,-1.04,-2.44,-2.01,329,254,464,417,243,0.0
1418,0.45,0.79,0.42,-2.26,-2.62,-1.59,333,254,468,418,241,0.0
1419,0.46,0.8,0.44,-0.73,-2.26,-3.42,330,251,464,414,241,0.0
1420,0.44,0.8,0.43,1.95,-1.77,-4.39,332,251,466,418,240,0.0
1421,0.44,0.8,0.42,2.99,-5.98,-0.24,327,254,466,417,241,0.0
1422,0.41,0.78,0.45,-0.85,2.69,-2.08,333,249,466,415,240,0.0
1423,0.44,0.79,0.42,0.92,-1.53,-3.42,327,251,466,416,241,0.0
1424,0.44,0.81,0.41,1.95,-3.6,-4.82,329,252,466,419,242,0.0
1425,0.42,0.81,0.42,-1.28,-1.16,-3.36,332,254,464,415,241,0.0
1426,0.41,0.79,0.41,-1.59,-0.61,-6.04,328,251,464,423,240,0.0
1427,0.36,0.79,0.36,25.57,-4.88,-8.67,328,252,461,415,241,0.0
1428,0.39,0.92,0.22,-7.69,-1.77,2.87,329,252,468,414,237,0.0
1429,0.44,0.88,0.2,-2.62,-0.55,-1.77,331,253,470,415,241,0.0
1430,0.45,0.9,0.21,3.85,2.44,-6.41,328,252,465,412,243,0.0
1431,0.43,0.89,0.21,0.18,-0.73,-5.43,328,249,463,415,241,0.0
1432,0.45,0.87,0.19,2.69,-4.94,0.12,328,249,464,415,241,0.0
1433,0.44,0.89,0.22,-0.85,-3.3,-1.95,332,253,468,413,242,0.0
1434,0.44,0.88,0.21,2.62,-3.72,-1.65,329,250,461,417,251,0.0
1435,0.43,0.86,0.22,1.4,-1.77,-3.78,333,251,470,415,245,0.0
1436,0.43,0.88,0.22,-0.06,-1.89,-3.05,333,256,464,417,245,0.0
1437,0.43,0.87,0.22,-2.26,-2.56,-3.48,334,256,464,415,245,0.0
1438,0.42,0.87,0.23,-0.06,-3.66,-0.98,335,253,465,417,245,0.0
1439,0.44,0.86,0.22,0.0,-2.2,-2.08,331,251,466,414,244,0.0
1440,0.44,0.87,0.23,-1.71,-3.91,-2.26,332,254,470,413,245,0.0
1441,0.44,0.88,0.23,-0.18,-3.66,-0.18,333,250,466,410,245,0.0
1442,0.44,0.88,0.23,1.59,-3.11,-3.17,333,255,464,422,245,0.0
1443,0.44,0.87,0.23,-1.4,-2.81,-2.69,335,255,465,414,247,0.0
1444,0.43,0.86,0.23,-0.43,-2.62,-1.95,333,253,465,414,247,0.0
1445,0.42,0.87,0.24,0.0,-1.1,-3.36,342,255,465,417,244,0.0
1446,0.45,0.86,0.23,0.98,-2.93,-1.89,337,256,465,413,248,0.0
1447,0.45,0.87,0.23,0.31,-2.75,-2.81,336,269,459,415,249,0.0
1448,0.44,0.87,0.23,-0.73,-2.81,-2.62,337,253,468,415,248,0.0
1449,0.45,0.87,0.22,-0.49,-2.99,-1.83,339,254,467,414,248,0.0
1450,0.44,0.87,0.23,0.49,-1.34,-3.72,336,256,467,415,248,0.0
1451,0.44,0.86,0.22,0.85,-3.78,-0.67,333,252,465,416,245,0.0
1452,0.44,0.86,0.22,-0.79,-3.66,-1.71,333,255,465,415,247,0.0
1453,0.43,0.87,0.23,-1.53,-2.99,-2.32,334,256,459,418,241,0.0
1454,0.46,0.87,0.22,0.0,-5.92,-2.5,337,254,461,419,244,0.0
1455,0.44,0.87,0.24,-1.16,-1.34,-3.72,333,256,460,415,245,0.0
1456,0.44,0.81,0.26,-34.91,20.94,-12.27,336,255,464,419,247,0.0
1457,0.39,0.79,0.38,-4.09,-0.79,0.37,336,254,463,415,247,0.0
1458,0.41,0.84,0.39,-0.85,-1.95,-2.26,336,255,465,415,245,0.0
1459,0.42,0.81,0.37,-3.78,-4.09,-1.95,333,256,469,414,242,0.0
1460,0.41,0.85,0.37,0.49,-4.03,-2.32,334,254,464,414,245,0.0
1461,0.4,0.84,0.37,-2.2,-1.65,-3.6,337,256,467,419,245,0.0
1462,0.43,0.85,0.37,1.04,-3.23,-1.16,334,257,465,415,246,0.0
1463,0.41,0.84,0.36,0.31,-2.87,-3.72,336,254,469,416,245,0.0
1464,0.42,0.83,0.35,0.73,-3.05,-1.83,336,255,467,419,245,0.0
1465,0.42,0.82,0.35,1.16,-3.11,-1.71,338,252,465,415,245,0.0
1466,0.42,0.82,0.33,-2.56,-1.89,-1.46,334,256,469,416,245,0.0
1467,0.43,0.82,0.35,0.55,-3.23,-1.89,328,257,460,421,247,0.0
1468,0.43,0.83,0.35,0.67,-3.6,-2.62,334,252,469,417,248,0.0
1469,0.43,0.83,0.35,-1.04,-4.21,-2.2,334,254,462,418,245,0.0
1470,0.43,0.84,0.35,4.39,-2.5,-0.67,333,254,470,415,247,0.0
1471,0.43,0.84,0.36,-0.37,-2.81,-2.08,334,256,465,417,248,0.0
1472,0.44,0.83,0.37,-0.79,-1.46,-4.7,330,256,465,416,245,0.0
1473,0.43,0.82,0.36,-1.53,-2.38,-3.3,335,258,465,416,246,0.0
1474,0.44,0.83,0.36,0.79,-3.42,-2.32,336,254,462,413,248,0.0
1475,0.44,0.83,0.35,0.85,-2.44,-2.5,335,253,466,417,245,0.0
1476,0.45,0.84,0.35,0.61,-4.09,-1.16,334,254,465,416,244,0.0
1477,0.44,0.83,0.35,1.4,-4.46,-1.59,334,257,464,415,246,0.0
1478,0.45,0.83,0.36,-0.92,-1.65,-2.56,336,249,465,416,246,0.0
1479,0.43,0.81,0.35,0.61,-3.91,-2.81,333,255,464,415,248,0.0
1480,0.46,0.84,0.36,-1.34,-4.39,2.14,336,255,468,414,249,0.0
1481,0.44,0.82,0.35,-0.43,-3.91,-2.99,334,255,465,418,246,0.0
1482,0.46,0.82,0.35,2.2,-2.75,-0.61,334,252,469,414,248,0.0
1483,0.45,0.84,0.35,0.49,-3.36,-2.32,336,257,476,418,245,0.0
1484,0.45,0.82,0.35,-0.06,-3.23,-2.5,335,256,465,420,249,0.0
1485,0.44,0.82,0.36,0.31,-3.11,-1.71,334,260,466,412,246,0.0
1486,0.45,0.82,0.36,-0.49,-2.26,-3.66,338,255,465,416,245,0.0
1487,0.44,0.82,0.36,0.31,-1.89,-2.08,335,254,469,415,249,0.0
1488,0.44,0.82,0.36,-0.73,-3.11,-1.95,337,256,460,416,248,0.0
1489,0.44,0.83,0.36,0.98,-0.92,-3.05,334,257,469,416,246,0.0
1490,0.45,0.81,0.36,-1.46,-3.72,-2.08,334,254,468,416,245,0.0
1491,0.46,0.83,0.36,0.37,-2.93,-2.99,334,252,464,419,246,0.0
1492,0.44,0.79,0.34,-4.09,-4.46,-1.04,333,253,465,415,248,0.0
1493,0.45,0.84,0.37,0.61,-2.08,-2.38,338,254,464,418,246,0.0
1494,0.48,0.82,0.37,-0.79,-3.72,-1.04,337,256,468,412,243,0.0
1495,0.45,0.82,0.37,1.16,-3.66,-2.01,335,254,465,414,245,0.0
1496,0.46,0.82,0.35,1.22,-4.88,-1.28,335,259,466,417,245,0.0
1497,0.44,0.81,0.36,-1.22,-2.38,-1.95,338,252,465,415,248,0.0
1498,0.47,0.83,0.36,1.04,-1.71,-0.79,335,257,465,414,247,0.0
1499,0.44,0.83,0.36,-3.3,-1.95,-2.87,335,255,468,416,244,0.0
1500,0.45,0.82,0.36,0.55,-2.99,-3.11,341,257,463,416,244,0.0
1501,0.45,0.82,0.34,-2.93,-2.75,-2.08,337,255,467,416,248,0.0
1502,0.44,0.84,0.36,0.31,-2.5,-2.69,335,266,468,411,245,0.0
1503,0.45,0.87,0.36,2.26,-3.6,-2.93,347,255,467,419,236,0.0
1504,0.46,0.83,0.34,-0.92,-3.42,-1.59,336,259,462,416,247,0.0
1505,0.46,0.81,0.32,0.55,-4.21,-1.59,336,257,465,420,247,0.0
1506,0.46,0.83,0.33,0.37,-3.91,-1.28,331,255,465,416,249,0.0
1507,0.46,0.82,0.33,2.14,-3.85,-1.28,338,256,466,418,246,0.0
1508,0.47,0.82,0.34,-0.37,-4.09,-0.61,336,254,461,412,245,0.0
1509,0.58,0.74,0.41,1.77,-2.26,-6.71,310,236,468,413,219,0.0
1510,0.58,0.74,0.39,2.93,1.77,-8.3,309,236,464,413,220,0.0
1511,0.53,0.73,0.41,-5.25,-5.68,-4.82,310,235,467,412,223,0.0
1512,0.57,0.75,0.39,2.44,-6.41,-1.83,312,238,459,412,228,0.0
1513,0.57,0.76,0.39,-1.59,-3.17,-4.39,309,238,465,416,220,0.0
1514,0.51,0.74,0.41,-1.16,-5.0,-1.1,310,238,464,413,219,0.0
1515,0.55,0.74,0.42,-4.21,-2.14,3.91,311,236,467,413,223,0.0
1516,0.59,0.76,0.39,7.45,-3.23,-2.81,309,236,465,413,223,0.0
1517,0.55,0.71,0.42,-4.15,-3.42,-0.98,312,238,465,414,226,0.0
1518,0.58,0.75,0.4,2.26,-2.93,-3.11,311,246,465,413,223,0.0
1519,0.52,0.69,0.44,-2.14,-0.61,-3.17,308,239,464,412,222,0.0
1520,0.5,0.77,0.46,7.81,1.71,-7.39,311,240,461,413,224,0.0
1521,0.5,0.71,0.44,2.08,-2.5,-1.28,309,240,459,417,225,0.0
1522,0.45,0.83,0.47,2.32,2.08,-2.87,305,237,471,414,224,0.0
1523,0.45,0.82,0.43,-3.48,-3.85,4.39,307,235,463,415,224,0.0
1524,0.46,0.83,0.42,4.52,-1.16,-3.05,312,239,460,414,224,0.0
1525,0.44,0.8,0.43,3.48,0.49,-2.62,308,240,465,414,228,0.0
1526,0.45,0.79,0.42,1.04,-6.35,1.16,311,241,469,413,226,0.0
1527,0.46,0.81,0.44,-0.61,-3.3,-2.08,315,242,466,412,228,0.0
1528,0.46,0.77,0.42,1.04,-3.42,-0.98,310,242,466,414,226,0.0
1529,0.46,0.79,0.42,-0.73,-1.95,-1.28,313,237,468,411,227,0.0
1530,0.46,0.77,0.42,-1.53,-2.81,-3.17,314,241,467,412,228,0.0
1531,0.48,0.77,0.41,1.16,-3.97,-2.01,315,240,466,415,229,0.0
1532,0.48,0.79,0.41,0.24,-1.4,-2.44,311,239,467,410,227,0.0
1533,0.47,0.79,0.42,-2.32,-2.69,-3.85,309,242,468,416,227,0.0
1534,0.47,0.8,0.43,-2.32,-2.08,-2.14,313,241,466,415,228,0.0
1535,0.46,0.77,0.42,1.71,-0.24,-4.09,310,243,467,415,227,0.0
1536,0.47,0.79,0.42,0.12,-2.2,-2.5,311,241,474,410,268,0.0
1537,0.46,0.79,0.43,1.34,-2.81,-3.17,314,239,473,415,226,0.0
1538,0.46,0.8,0.42,0.73,-2.5,-3.48,317,242,471,415,229,0.0
1539,0.48,0.79,0.42,1.65,-2.56,-3.42,310,241,468,416,229,0.0
1540,0.46,0.78,0.43,1.04,-1.4,-1.95,311,240,463,413,231,0.0
1541,0.47,0.79,0.43,-0.37,-3.36,-2.32,311,237,470,409,227,0.0
1542,0.45,0.78,0.42,2.14,-1.04,-2.81,312,247,467,412,229,0.0
1543,0.46,0.79,0.43,-1.04,-2.44,-4.21,312,240,465,413,231,0.0
1544,0.47,0.8,0.4,5.19,-2.75,-2.56,308,236,471,413,228,0.0
1545,0.47,0.77,0.4,2.14,-2.14,-2.32,309,237,464,414,234,0.0
1546,0.48,0.79,0.39,-0.12,-3.17,-1.22,309,240,465,414,226,0.0
1547,0.47,0.79,0.39,1.77,-3.17,-2.2,309,239,468,412,266,0.0
1548,0.48,0.79,0.39,2.44,-5.62,0.24,312,237,464,414,229,0.0
1549,0.48,0.78,0.39,-0.18,-5.0,1.71,308,237,467,417,226,0.0
1550,0.49,0.79,0.38,2.14,-5.19,-1.77,310,240,468,410,229,0.0
1551,0.48,0.79,0.39,0.61,-3.11,-1.89,311,239,467,414,228,0.0
1552,0.49,0.79,0.38,2.26,-2.62,-2.93,308,242,469,415,226,0.0
1553,0.49,0.8,0.39,0.43,-2.87,-2.32,312,238,468,416,229,0.0
1554,0.49,0.8,0.38,1.22,-2.26,-0.43,311,237,471,411,228,0.0
1555,0.49,0.8,0.39,0.31,-2.99,-4.46,311,238,471,417,227,0.0
1556,0.48,0.79,0.39,2.81,-3.42,-3.54,309,239,472,413,231,0.0
1557,0.47,0.8,0.38,4.03,-4.76,-2.01,310,237,470,412,228,0.0
1558,0.48,0.8,0.38,0.79,-4.09,-3.3,309,236,467,414,232,0.0
1559,0.49,0.79,0.37,1.28,-2.5,-1.22,312,237,466,416,231,0.0
1560,0.49,0.79,0.37,2.2,-2.56,-0.55,311,238,481,415,227,0.0
1561,0.49,0.78,0.38,1.28,-2.69,-2.99,310,238,462,414,229,0.0
1562,0.48,0.8,0.4,1.34,-2.01,-4.82,319,239,463,415,229,0.0
1563,0.49,0.8,0.38,0.31,-2.75,-1.71,308,241,470,412,225,0.0
1564,0.48,0.78,0.38,0.61,-2.81,-0.24,313,237,472,412,232,0.0
1565,0.49,0.8,0.38,2.75,-2.44,-2.81,312,238,469,414,231,0.0
1566,0.49,0.79,0.37,-0.31,-3.48,-3.11,311,238,467,411,229,0.0
1567,0.47,0.81,0.38,-1.65,-3.23,-4.58,312,240,470,416,233,0.0
1568,0.49,0.79,0.36,0.92,-4.09,-1.83,315,241,471,415,225,0.0
1569,0.5,0.81,0.36,-1.53,-4.03,-0.67,313,240,471,414,223,0.0
1570,0.5,0.8,0.37,3.66,-3.91,-2.32,315,244,468,411,228,0.0
1571,0.5,0.78,0.36,1.28,-2.44,-1.04,313,243,467,413,244,0.0
1572,0.5,0.78,0.37,2.26,-4.39,-1.4,313,243,466,415,231,0.0
1573,0.49,0.79,0.36,-2.08,-2.99,-2.93,313,239,471,412,231,0.0
1574,0.49,0.79,0.36,-1.22,-2.93,-3.66,317,240,470,415,227,0.0
1575,0.48,0.8,0.38,0.37,-2.2,-3.42,313,244,465,417,232,0.0
1576,0.49,0.77,0.37,-1.71,-2.44,-2.08,313,241,473,415,231,0.0
1577,0.46,0.79,0.36,-3.36,-4.82,-4.82,314,238,468,410,231,0.0
1578,0.49,0.79,0.36,-0.43,-3.05,-1.34,313,240,470,415,232,0.0
1579,0.49,0.8,0.37,0.61,-2.81,-2.81,317,245,468,415,229,0.0
1580,0.48,0.8,0.37,1.4,-1.28,-4.27,312,239,481,415,232,0.0
1581,0.49,0.8,0.37,1.89,-2.69,-3.11,317,246,473,411,231,0.0
1582,0.48,0.79,0.38,-0.12,-1.65,-3.23,314,243,468,415,230,0.0
1583,0.49,0.79,0.36,0.0,-2.44,-3.05,311,244,482,415,230,0.0
1584,0.5,0.8,0.37,-0.49,-3.6,-0.24,315,240,462,416,229,0.0
1585,0.49,0.78,0.36,-0.18,-2.81,-2.44,314,241,464,416,228,0.0
1586,0.5,0.79,0.38,-0.06,-3.23,-2.93,314,241,470,415,231,0.0
1587,0.46,0.79,0.37,-0.61,-2.38,-3.23,322,242,468,416,231,0.0
1588,0.49,0.79,0.39,2.26,-1.71,-4.33,314,241,469,414,226,0.0
1589,0.48,0.8,0.38,-0.79,-2.93,-2.44,312,241,463,412,234,0.0
1590,0.49,0.78,0.39,-0.06,-3.54,-2.01,312,242,473,414,234,0.0
1591,0.48,0.8,0.37,0.49,-4.21,-2.93,318,240,461,415,233,0.0
1592,0.48,0.79,0.38,-0.49,-1.71,-2.38,310,242,467,414,231,0.0
1593,0.48,0.79,0.37,-1.83,-2.44,-2.38,316,239,467,416,231,0.0
1594,0.49,0.81,0.38,-0.67,-2.69,-3.72,316,242,466,415,231,0.0
1595,0.46,0.8,0.39,-1.4,-0.67,-4.46,316,241,470,418,233,0.0
1596,0.44,0.84,0.37,-3.3,-16.24,-9.58,316,239,471,416,232,0.0
1597,0.46,0.8,0.4,-1.22,-11.84,-10.38,313,240,466,415,231,0.0
1598,0.45,0.77,0.38,-4.21,-1.71,5.19,315,245,467,417,231,0.0
1599,0.49,0.78,0.36,-0.12,3.66,5.98,317,244,464,417,234,0.0
1600,0.48,0.75,0.36,2.32,3.66,10.99,318,240,468,416,232,0.0
1601,0.47,0.82,0.42,-0.06,6.1,-2.75,316,242,468,412,230,0.0
1602,0.49,0.8,0.39,2.5,-4.27,-1.53,318,242,471,415,234,0.0
1603,0.44,0.78,0.42,1.4,-0.18,1.53,315,238,469,419,233,0.0
1604,0.49,0.77,0.4,-0.06,-4.82,-2.26,316,242,467,414,233,0.0
1605,0.48,0.78,0.4,0.79,-4.03,-2.62,316,241,468,416,233,0.0
1606,0.5,0.8,0.4,0.49,-1.53,-3.17,316,246,478,414,233,0.0
1607,0.5,0.8,0.41,2.32,-1.28,-2.81,318,243,467,419,251,0.0
1608,0.49,0.77,0.39,0.31,-2.08,-0.79,317,244,468,414,227,0.0
1609,0.5,0.78,0.39,0.24,-3.42,-2.14,316,244,468,417,232,0.0
1610,0.5,0.78,0.4,0.24,-3.6,-2.01,316,247,471,417,272,0.0
1611,0.51,0.78,0.39,-0.73,-3.23,-1.53,316,243,466,415,231,0.0
1612,0.5,0.78,0.39,1.28,-2.5,-3.91,319,240,469,416,241,0.0
1613,0.51,0.77,0.39,-1.16,-2.62,-2.56,316,243,467,416,235,0.0
1614,0.5,0.77,0.39,-0.18,-4.39,-3.72,317,243,463,417,233,0.0
1615,0.51,0.76,0.39,-0.31,-4.27,-0.37,317,241,463,418,233,0.0
1616,0.5,0.77,0.39,-1.04,-2.56,-1.89,318,241,464,416,231,0.0
1617,0.51,0.78,0.39,0.37,-4.03,-2.08,317,242,470,417,228,0.0
1618,0.52,0.78,0.39,-1.34,-3.97,-0.98,317,243,468,417,235,0.0
1619,0.52,0.78,0.39,-1.04,-3.91,-2.93,318,241,465,416,233,0.0
1620,0.49,0.78,0.4,-1.59,-0.98,-4.76,317,241,470,417,231,0.0
1621,0.49,0.78,0.39,0.06,-4.46,-2.93,320,245,466,417,231,0.0
1622,0.48,0.77,0.38,-0.31,-5.49,0.12,320,243,475,417,232,0.0
1623,0.51,0.78,0.4,-5.86,-10.68,-1.46,321,246,468,418,234,0.0
1624,0.47,0.71,0.4,-4.64,-2.26,14.34,320,245,467,416,234,0.0
1625,0.56,0.73,0.39,-3.72,-3.6,-1.53,317,249,467,416,237,0.0
1626,0.53,0.73,0.41,-3.05,-3.72,0.43,317,244,470,417,244,0.0
1627,0.55,0.77,0.43,0.43,-2.62,-3.72,317,246,471,417,234,0.0
1628,0.53,0.76,0.41,0.73,-3.11,1.1,317,243,474,419,233,0.0
1629,0.53,0.75,0.41,0.73,-4.58,-3.91,319,245,468,415,231,0.0
1630,0.52,0.73,0.4,-0.18,-3.36,-1.71,318,245,471,417,236,0.0
1631,0.53,0.77,0.4,2.2,0.73,-7.87,318,244,471,418,233,0.0
1632,0.54,0.77,0.42,3.23,-3.97,-2.32,322,243,478,416,236,0.0
1633,0.53,0.75,0.41,0.92,-2.26,-2.99,319,243,462,417,236,0.0
1634,0.54,0.75,0.4,1.1,-3.36,-1.83,321,245,466,418,234,0.0
1635,0.53,0.74,0.41,-2.2,-3.3,-2.44,318,245,473,417,237,0.0
1636,0.54,0.76,0.41,-2.26,-2.75,-1.34,319,245,471,413,234,0.0
1637,0.52,0.74,0.41,1.04,-3.78,-3.42,316,245,467,412,231,0.0
1638,0.52,0.76,0.41,-0.73,-2.44,-2.69,320,246,469,417,236,0.0
1639,0.53,0.74,0.41,-0.06,-4.46,-2.26,316,249,472,416,236,0.0
1640,0.52,0.76,0.41,-0.85,-1.28,-1.89,321,241,468,417,236,0.0
1641,0.51,0.76,0.42,1.83,-2.75,-4.46,319,244,467,418,235,0.0
1642,0.5,0.76,0.42,0.98,-1.22,-2.75,321,244,467,414,246,0.0
1643,0.53,0.76,0.41,2.56,-4.03,-1.95,324,246,462,417,237,0.0
1644,0.51,0.75,0.41,0.49,-2.81,-2.44,317,243,470,418,231,0.0
1645,0.51,0.75,0.41,0.55,-3.05,-1.77,327,244,471,419,234,0.0
1646,0.51,0.74,0.41,-1.22,-3.36,-2.44,322,244,467,417,230,0.0
1647,0.51,0.76,0.4,0.67,-2.93,-2.81,317,242,467,418,237,0.0
1648,0.52,0.74,0.4,0.0,-3.23,-2.32,325,245,468,413,233,0.0
1649,0.52,0.76,0.42,0.55,-1.83,-2.93,321,244,471,419,234,0.0
1650,0.51,0.76,0.42,0.49,-2.38,-3.05,319,246,469,418,233,0.0
1651,0.51,0.77,0.41,3.97,-1.46,-3.72,319,242,472,418,233,0.0
1652,0.5,0.74,0.4,0.85,-2.81,-2.93,319,245,467,419,230,0.0
1653,0.51,0.75,0.41,2.32,-2.87,-0.67,318,242,470,417,235,0.0
1654,0.51,0.77,0.42,0.55,-3.91,3.17,321,249,470,413,234,0.0
1655,0.53,0.75,0.39,0.49,-4.64,-1.95,320,243,467,416,234,0.0
1656,0.55,0.74,0.42,-1.83,0.12,1.16,318,243,470,416,235,0.0
1657,0.52,0.73,0.43,2.99,0.55,1.28,319,243,468,415,235,0.0
1658,0.54,0.73,0.42,1.4,-1.22,-2.93,322,260,463,420,234,0.0
1659,0.52,0.72,0.42,2.08,-1.95,-5.86,322,247,468,418,238,0.0
1660,0.53,0.78,0.41,0.24,-3.3,-0.85,320,244,464,414,235,0.0
1661,0.55,0.75,0.42,4.27,-4.46,0.06,319,246,463,419,235,0.0
1662,0.57,0.71,0.4,-2.5,-2.93,-0.85,320,247,468,419,237,0.0
1663,0.56,0.71,0.44,0.55,-5.0,-4.09,317,244,462,420,234,0.0
1664,0.55,0.73,0.43,0.49,-3.91,-4.39,317,244,464,418,230,0.0
1665,0.57,0.69,0.39,-0.79,-3.36,-0.18,323,246,462,418,237,0.0
1666,0.57,0.73,0.43,-2.75,-3.6,-5.37,323,250,468,417,235,0.0
1667,0.55,0.69,0.41,-1.16,-3.85,-2.32,322,243,464,418,245,0.0
1668,0.57,0.7,0.42,0.12,-2.5,-0.85,323,242,470,419,239,0.0
1669,0.59,0.68,0.43,4.39,-8.97,-8.61,326,247,463,416,238,0.0
1670,0.58,0.68,0.41,1.4,1.22,-4.46,323,245,474,416,236,0.0
1671,0.56,0.74,0.44,0.98,0.31,-4.58,320,245,466,417,237,0.0
1672,0.56,0.72,0.44,2.93,-0.37,-4.03,320,248,471,416,266,0.0
1673,0.55,0.74,0.45,1.59,-3.11,-2.99,321,248,468,418,236,0.0
1674,0.54,0.71,0.46,-1.04,-2.75,0.73,318,245,471,419,237,0.0
1675,0.55,0.71,0.45,-1.95,-2.87,-2.69,322,249,471,419,239,0.0
1676,0.58,0.71,0.44,0.43,-3.54,-2.87,326,249,467,418,236,0.0
1677,0.56,0.71,0.44,-0.73,1.04,-5.62,322,243,465,418,240,0.0
1678,0.57,0.7,0.47,-0.49,-4.58,-3.11,323,245,467,418,235,0.0
1679,0.55,0.7,0.46,3.23,-3.48,-2.38,323,248,471,418,242,0.0
1680,0.56,0.71,0.47,0.0,-3.48,-2.81,325,246,466,416,236,0.0
1681,0.54,0.71,0.44,-0.92,-0.61,-4.94,323,245,471,418,242,0.0
1682,0.52,0.71,0.47,-1.22,-2.87,-3.78,326,243,471,418,236,0.0
1683,0.55,0.72,0.47,0.85,-3.54,-2.5,324,261,470,420,239,0.0
1684,0.53,0.71,0.46,1.16,-2.14,-3.66,324,248,466,416,238,0.0
1685,0.53,0.72,0.46,0.12,-2.56,-2.38,325,246,461,419,236,0.0
1686,0.52,0.72,0.45,0.92,-4.21,-1.65,324,248,462,416,253,0.0
1687,0.56,0.73,0.45,4.64,-0.37,-3.23,323,248,482,418,233,0.0
1688,0.51,0.75,0.45,1.28,-3.72,-0.73,326,247,469,428,260,0.0
1689,0.51,0.71,0.44,-0.92,-3.05,-1.34,325,249,463,418,236,0.0
1690,0.53,0.75,0.45,2.62,-3.6,-6.04,320,247,467,415,236,0.0
1691,0.5,0.73,0.43,1.22,-2.93,-6.35,322,245,471,418,236,0.0
1692,0.5,0.75,0.45,0.31,-2.69,-2.44,326,246,471,417,236,0.0
1693,0.51,0.77,0.44,1.65,-1.83,-2.08,323,244,467,419,236,0.0
1694,0.5,0.76,0.42,1.77,-3.36,-3.11,329,246,466,418,237,0.0
1695,0.5,0.74,0.43,-1.22,-3.05,-1.28,324,256,470,419,237,0.0
1696,0.52,0.75,0.42,3.85,-4.21,-1.1,325,250,471,418,239,0.0
1697,0.51,0.75,0.41,3.17,-2.75,-3.48,323,251,471,420,237,0.0
1698,0.52,0.75,0.41,2.62,-2.26,-2.87,322,246,470,419,234,0.0
1699,0.5,0.77,0.41,1.22,-3.6,-4.7,323,247,467,418,238,0.0
1700,0.5,0.78,0.42,2.01,-2.69,-2.81,326,245,465,417,240,0.0
1701,0.5,0.77,0.42,0.67,-3.11,-2.81,324,256,471,418,239,0.0
1702,0.49,0.76,0.42,0.43,-4.46,-0.49,322,245,466,420,237,0.0
1703,0.51,0.77,0.41,0.43,-3.3,-1.16,326,247,468,416,237,0.0
1704,0.5,0.75,0.41,1.16,-4.52,-1.22,325,245,461,414,239,0.0
1705,0.51,0.77,0.4,2.5,-2.81,-2.93,323,246,470,413,237,0.0
1706,0.5,0.77,0.41,1.65,-2.32,-2.5,324,249,465,419,240,0.0
1707,0.5,0.78,0.41,0.24,-2.75,-2.56,320,249,466,418,239,0.0
1708,0.52,0.76,0.39,1.65,-3.66,-4.39,324,249,467,418,238,0.0
1709,0.5,0.78,0.41,0.18,-3.91,-3.05,324,247,470,417,238,0.0
1710,0.5,0.77,0.4,-1.77,-2.5,-1.95,326,257,466,419,240,0.0
1711,0.51,0.78,0.39,1.34,-1.71,-2.32,321,250,468,419,236,0.0
1712,0.5,0.78,0.41,-0.79,-2.38,-4.09,320,250,466,415,237,0.0
1713,0.49,0.75,0.41,0.61,-1.83,-2.81,323,247,469,418,237,0.0
1714,0.49,0.76,0.42,-1.28,-2.75,-2.99,326,248,465,418,239,0.0
1715,0.5,0.77,0.41,1.4,-1.95,-1.28,325,250,462,416,238,0.0
1716,0.5,0.78,0.42,0.85,-3.17,-1.95,323,248,472,419,237,0.0
1717,0.51,0.76,0.4,0.98,-3.97,-1.77,324,250,467,417,237,0.0
1718,0.51,0.76,0.4,0.24,-2.99,-2.08,324,250,465,418,237,0.0
1719,0.5,0.76,0.41,0.73,-4.39,-1.46,324,248,469,419,234,0.0
1720,0.51,0.76,0.41,1.46,-3.05,-2.44,324,245,465,414,237,0.0
1721,0.51,0.76,0.41,-0.37,-3.54,-2.56,326,245,469,418,240,0.0
1722,0.51,0.76,0.41,1.22,-4.03,-0.79,321,249,466,421,237,0.0
1723,0.51,0.75,0.42,-1.22,-3.3,-0.49,323,248,466,419,240,0.0
1724,0.51,0.77,0.43,2.93,-3.17,-2.87,326,247,463,417,240,0.0
1725,0.51,0.76,0.41,1.89,-3.48,-2.26,326,246,462,416,237,0.0
1726,0.49,0.77,0.41,1.22,-2.14,-2.2,324,247,462,418,239,0.0
1727,0.49,0.76,0.42,-0.67,-2.81,-2.99,324,247,465,418,240,0.0
1728,0.5,0.76,0.41,-0.24,-2.87,-4.27,324,248,470,418,233,0.0
1729,0.5,0.76,0.41,-2.26,-3.85,-1.71,324,247,467,418,237,0.0
1730,0.49,0.77,0.42,-0.73,-0.61,-4.33,324,243,466,413,238,0.0
1731,0.5,0.77,0.42,-0.18,-2.26,-2.81,324,247,463,420,237,0.0
1732,0.51,0.78,0.42,0.37,-2.93,-2.75,325,249,466,416,240,0.0
1733,0.51,0.76,0.41,-0.49,-2.44,-2.69,321,249,466,414,237,0.0
1734,0.5,0.76,0.41,-0.18,-3.05,-2.99,327,250,465,420,240,0.0
1735,0.5,0.76,0.41,-1.46,-2.75,-3.54,325,244,467,417,239,0.0
1736,0.51,0.75,0.42,-0.24,-2.08,-2.99,324,245,467,413,236,0.0
1737,0.52,0.76,0.41,1.28,-2.75,-4.46,324,246,465,414,240,0.0
1738,0.5,0.76,0.42,-0.24,-2.32,-2.87,325,250,467,418,242,0.0
1739,0.5,0.76,0.42,-0.31,-3.91,-3.36,324,246,470,418,238,0.0
1740,0.5,0.77,0.42,0.06,-2.01,-4.52,330,246,465,418,238,0.0
1741,0.5,0.78,0.42,1.4,-1.71,-2.81,324,246,461,421,239,0.0
1742,0.51,0.76,0.39,-0.67,-3.23,-3.05,324,245,470,415,238,0.0
1743,0.51,0.75,0.4,-6.47,-9.09,-4.88,326,248,470,418,239,0.0
1744,0.5,0.76,0.4,-1.89,-2.26,-1.65,324,247,470,419,239,0.0
1745,0.48,0.76,0.42,2.01,-5.19,-4.46,327,245,467,420,238,0.0
1746,0.51,0.76,0.41,4.21,-1.77,-5.13,324,247,464,417,237,0.0
1747,0.48,0.8,0.4,3.97,-2.56,-5.25,324,247,467,418,236,0.0
1748,0.47,0.8,0.4,0.79,-1.65,-3.78,326,244,469,418,236,0.0
1749,0.46,0.8,0.4,1.46,-4.09,-2.62,326,249,472,417,240,0.0
1750,0.46,0.79,0.38,1.22,-3.05,-2.26,326,253,470,418,239,0.0
1751,0.46,0.82,0.41,0.24,-0.49,-3.17,325,248,466,417,240,0.0
1752,0.47,0.78,0.39,0.73,-1.28,-4.21,325,249,466,419,238,0.0
1753,0.46,0.79,0.4,-1.89,-2.32,-2.01,327,246,465,416,250,0.0
1754,0.5,0.81,0.43,-0.98,-0.24,-1.65,324,246,461,419,237,0.0
1755,0.5,0.79,0.41,-0.06,-0.55,-0.92,325,250,466,416,237,0.0
1756,0.48,0.8,0.44,-0.67,-1.4,-3.05,324,245,469,417,241,0.0
1757,0.5,0.8,0.44,0.79,-4.7,-2.2,324,250,466,417,237,0.0
1758,0.46,0.75,0.42,1.04,-2.93,-3.85,324,249,467,417,237,0.0
1759,0.47,0.78,0.43,3.42,-1.89,-1.22,341,250,469,417,241,0.0
1760,0.46,0.8,0.42,0.79,-3.97,-2.93,327,249,466,417,238,0.0
1761,0.49,0.77,0.42,-0.06,-3.66,-2.08,326,249,464,414,239,0.0
1762,0.48,0.79,0.42,1.89,-2.56,-2.62,326,247,464,420,237,0.0
1763,0.48,0.77,0.42,-0.06,-2.69,-2.62,323,248,467,417,240,0.0
1764,0.48,0.79,0.42,0.61,-3.17,-2.81,327,248,465,419,239,0.0
1765,0.48,0.77,0.41,0.12,-3.05,-2.01,332,249,467,420,253,0.0
1766,0.5,0.76,0.41,1.46,-3.48,-2.44,325,253,465,419,242,0.0
1767,0.49,0.77,0.41,0.31,-3.05,-2.32,325,249,470,418,237,0.0
1768,0.49,0.77,0.42,1.28,-2.32,-4.33,325,248,466,417,238,0.0
1769,0.49,0.77,0.42,-0.43,-2.01,-3.17,324,248,467,418,238,0.0
1770,0.49,0.77,0.41,-0.98,-2.69,-2.32,326,244,470,417,238,0.0
1771,0.49,0.78,0.42,0.06,-2.44,-3.17,324,251,466,417,229,0.0
1772,0.49,0.76,0.41,0.43,-2.26,-2.81,329,247,464,425,238,0.0
1773,0.49,0.78,0.4,-1.65,-3.05,-2.08,325,250,470,418,237,0.0
1774,0.48,0.79,0.41,-3.17,-3.54,-3.23,321,246,464,417,241,0.0
1775,0.48,0.78,0.42,0.12,-3.54,-1.83,327,246,462,418,235,0.0
1776,0.48,0.77,0.42,-0.55,-1.71,-0.92,328,247,467,418,251,0.0
1777,0.49,0.78,0.42,0.37,-3.17,-2.32,325,248,465,417,239,0.0
1778,0.48,0.77,0.41,0.92,-2.08,-1.83,322,251,465,418,240,0.0
1779,0.49,0.76,0.42,0.67,-2.5,-2.5,326,250,470,414,237,0.0
1780,0.48,0.77,0.42,0.06,-3.36,-2.38,326,251,461,419,238,0.0
1781,0.48,0.75,0.4,3.23,-0.31,-5.92,329,247,470,418,238,0.0
1782,0.49,0.78,0.42,0.73,-3.11,-2.87,328,249,465,418,237,0.0
1783,0.47,0.76,0.42,-0.98,-0.37,0.24,328,249,461,418,238,0.0
1784,0.5,0.72,0.4,1.59,-3.17,-4.03,324,249,463,421,240,0.0
1785,0.51,0.79,0.43,0.55,-2.14,-2.38,326,251,460,417,246,0.0
1786,0.49,0.75,0.41,1.89,-2.08,-4.03,327,245,475,418,237,0.0
1787,0.5,0.76,0.42,-0.43,-3.05,-1.71,328,247,466,415,238,0.0
1788,0.51,0.75,0.42,-1.28,-3.3,-1.28,324,248,461,418,237,0.0
1789,0.49,0.75,0.42,-0.67,-2.01,-3.36,326,251,470,418,233,0.0
1790,0.48,0.76,0.43,0.67,-3.85,-2.5,328,246,470,417,239,0.0
1791,0.5,0.74,0.42,-0.43,-4.21,-2.32,322,248,460,415,240,0.0
1792,0.5,0.75,0.41,-1.77,-2.75,-3.72,326,244,462,417,237,0.0
1793,0.5,0.76,0.42,-6.29,-3.85,-1.1,325,246,468,418,239,0.0
1794,0.51,0.75,0.44,-2.38,-3.3,-1.46,331,251,470,420,235,0.0
1795,0.49,0.76,0.43,-0.55,-4.64,-1.59,325,249,466,419,240,0.0
1796,0.5,0.78,0.44,1.89,-4.27,-1.53,327,247,466,418,233,0.0
1797,0.49,0.77,0.45,1.71,-1.59,-4.94,325,252,464,418,238,0.0
1798,0.5,0.78,0.45,1.28,-3.66,-2.38,327,249,460,417,238,0.0
1799,0.48,0.76,0.42,3.97,-6.71,0.55,327,249,461,418,238,0.0
1800,0.59,0.73,0.42,-13.49,-0.92,-14.71,328,248,465,420,238,0.0
1801,0.46,0.79,0.49,8.97,6.53,-22.71,327,249,469,418,240,0.0
1802,0.45,0.81,0.42,8.48,4.64,-9.03,330,251,468,418,241,0.0
1803,0.47,0.8,0.36,12.15,-0.18,-2.38,328,253,461,416,241,0.0
1804,0.43,0.81,0.39,2.56,-2.5,2.2,327,253,467,415,236,0.0
1805,0.45,0.8,0.38,-2.01,1.34,0.0,330,252,465,413,240,0.0
1806,0.44,0.84,0.4,5.25,-1.89,-10.31,328,252,469,417,238,0.0
1807,0.46,0.81,0.4,4.82,-3.48,-1.89,329,246,473,418,238,0.0
1808,0.42,0.81,0.4,-1.22,2.93,-4.27,328,253,469,418,240,0.0
1809,0.44,0.79,0.43,-1.77,6.41,0.49,330,250,461,417,241,0.0
1810,0.45,0.78,0.4,1.71,-1.04,-1.53,326,252,466,418,238,0.0
1811,0.43,0.8,0.41,2.01,-3.42,-4.39,329,252,464,417,241,0.0
1812,0.45,0.76,0.41,-1.1,-4.88,-1.1,330,251,466,415,239,0.0
1813,0.46,0.84,0.45,3.17,0.31,-3.11,331,251,467,415,240,0.0
1814,0.45,0.79,0.44,0.92,-1.95,-4.33,325,250,461,416,239,0.0
1815,0.47,0.79,0.4,4.09,-4.27,-1.59,327,249,471,417,238,0.0
1816,0.48,0.81,0.42,2.81,-4.82,-5.55,328,256,469,417,238,0.0
1817,0.46,0.8,0.42,0.12,-3.36,-2.26,327,252,464,420,238,0.0
1818,0.44,0.8,0.41,5.92,-1.1,-3.78,328,251,467,416,241,0.0
1819,0.43,0.8,0.43,0.85,-2.32,-4.09,328,249,476,417,238,0.0
1820,0.44,0.81,0.41,3.72,-2.81,-2.26,338,251,465,413,241,0.0
1821,0.47,0.81,0.4,4.82,-8.54,4.58,331,250,472,417,238,0.0
1822,0.44,0.81,0.42,-1.4,-3.6,-4.64,328,259,462,417,238,0.0
1823,0.45,0.79,0.41,1.65,-5.07,-3.36,333,255,464,417,238,0.0
1824,0.44,0.8,0.41,2.87,-2.99,-4.52,342,252,467,418,238,0.0
1825,0.41,0.81,0.4,-1.95,-10.68,-8.67,331,250,470,417,239,0.0
1826,0.45,0.79,0.4,-1.65,-2.93,-2.14,330,253,466,417,241,0.0
1827,0.45,0.8,0.41,0.92,-3.17,-0.55,327,251,464,418,240,0.0
1828,0.43,0.79,0.41,-0.49,-4.58,-0.85,325,256,468,417,239,0.0
1829,0.44,0.8,0.41,0.67,-2.75,-2.69,333,250,466,417,252,0.0
1830,0.44,0.8,0.41,-0.18,-2.99,-3.97,328,248,467,417,241,0.0
1831,0.44,0.82,0.42,1.16,-2.93,-2.26,331,253,465,417,236,0.0
1832,0.42,0.81,0.41,0.0,-3.97,-1.89,327,253,460,418,239,0.0
1833,0.42,0.81,0.41,-0.79,-2.62,-2.14,330,251,460,418,239,0.0
1834,0.43,0.82,0.41,-0.43,-2.08,-2.32,328,248,464,419,239,0.0
1835,0.42,0.82,0.43,-1.4,-4.03,-1.53,329,252,463,417,240,0.0
1836,0.44,0.79,0.4,-0.12,-4.21,-0.18,329,251,463,416,247,0.0
1837,0.43,0.81,0.41,1.4,-2.38,-3.72,332,264,466,418,243,0.0
1838,0.44,0.82,0.42,2.14,-2.5,-3.48,327,253,468,415,241,0.0
1839,0.43,0.81,0.41,0.37,-2.5,-2.69,324,249,465,417,238,0.0
1840,0.42,0.83,0.41,-1.22,-2.99,-2.32,329,247,468,418,238,0.0
1841,0.43,0.82,0.4,0.43,-4.33,-1.16,322,248,468,417,238,0.0
1842,0.43,0.81,0.39,0.55,-3.23,-2.62,327,248,469,413,236,0.0
1843,0.44,0.8,0.39,2.26,-1.71,-3.3,322,243,469,418,238,0.0
1844,0.45,0.81,0.4,3.54,-3.17,-2.2,325,249,465,417,236,0.0
1845,0.43,0.83,0.4,-0.85,-2.87,-2.75,329,248,468,417,234,0.0
1846,0.42,0.81,0.4,-0.31,-1.77,-3.66,324,246,467,416,240,0.0
1847,0.42,0.82,0.4,-0.12,-2.08,-2.75,324,246,466,419,239,0.0
1848,0.44,0.81,0.41,0.55,-3.48,-2.2,331,248,469,407,239,0.0
1849,0.43,0.81,0.4,0.43,-1.53,-3.91,327,243,461,412,241,0.0
1850,0.42,0.82,0.42,-2.2,-0.98,-1.89,324,251,465,417,241,0.0
1851,0.42,0.81,0.4,3.3,-5.98,-0.73,328,244,466,419,252,0.0
1852,0.44,0.78,0.38,-1.89,-3.42,1.77,326,250,461,415,240,0.0
1853,0.43,0.8,0.41,-0.92,-2.69,-3.66,325,245,465,415,240,0.0
1854,0.42,0.83,0.43,0.43,-1.1,-0.98,327,247,468,419,242,0.0
1855,0.46,0.84,0.39,1.22,-4.88,-4.09,325,246,470,417,238,0.0
1856,0.42,0.8,0.39,1.71,-3.17,-1.71,322,250,468,415,239,0.0
1857,0.44,0.81,0.39,0.79,-2.32,-1.65,324,248,466,415,239,0.0
1858,0.44,0.81,0.41,0.49,-3.11,-2.56,325,248,466,415,240,0.0
1859,0.44,0.8,0.39,1.34,-2.38,-1.16,325,250,460,417,238,0.0
1860,0.45,0.83,0.41,-2.01,-4.94,2.93,328,245,473,419,241,0.0
1861,0.45,0.79,0.4,-0.49,-4.21,-2.38,326,251,465,420,240,0.0
1862,0.44,0.8,0.41,-3.3,-5.74,-0.49,325,250,466,417,244,0.0
1863,0.45,0.79,0.41,2.2,-3.66,-1.04,334,249,463,418,241,0.0
1864,0.43,0.79,0.43,0.92,-2.14,-3.23,325,250,465,416,239,0.0
1865,0.45,0.79,0.4,-0.12,-4.64,-0.18,326,251,466,419,240,0.0
1866,0.46,0.81,0.42,1.04,-3.6,-3.05,327,251,468,419,240,0.0
1867,0.44,0.79,0.41,1.16,-2.32,-3.17,331,248,460,418,241,0.0
1868,0.45,0.8,0.42,1.4,-1.65,-3.72,329,251,468,417,239,0.0
1869,0.46,0.81,0.42,1.1,-3.3,-2.56,326,251,464,417,241,0.0
1870,0.44,0.79,0.41,0.55,-2.69,-1.34,324,249,470,417,240,0.0
1871,0.44,0.8,0.42,-0.55,-2.2,-3.05,324,249,470,416,239,0.0
1872,0.44,0.79,0.43,0.06,-1.28,-2.56,335,256,470,420,241,0.0
1873,0.45,0.8,0.42,0.98,-2.14,-2.44,326,250,467,418,238,0.0
1874,0.44,0.79,0.41,2.26,-3.17,-2.26,327,247,465,418,237,0.0
1875,0.44,0.79,0.43,-0.92,-3.48,-1.46,324,251,468,420,239,0.0
1876,0.46,0.81,0.43,0.49,-3.05,-2.99,330,245,467,412,240,0.0
1877,0.44,0.79,0.43,0.79,-1.77,-2.56,329,255,464,420,240,0.0
1878,0.41,0.78,0.41,0.37,-0.18,-5.49,328,250,465,416,242,0.0
1879,0.45,0.79,0.41,0.31,-2.5,-2.75,327,249,469,417,245,0.0
1880,0.44,0.79,0.42,-1.89,-3.23,-2.26,329,252,468,417,241,0.0
1881,0.44,0.78,0.42,0.06,-2.93,-2.14,328,252,466,415,240,0.0
1882,0.44,0.8,0.42,-0.31,-2.32,-2.56,328,261,466,418,242,0.0
1883,0.45,0.8,0.42,1.28,-3.11,-2.14,331,249,469,417,238,0.0
1884,0.44,0.81,0.43,0.31,-2.87,-2.69,327,257,464,416,242,0.0
1885,0.45,0.79,0.42,-0.31,-3.17,-2.14,329,253,466,417,240,0.0
1886,0.45,0.81,0.42,1.34,-2.62,-2.75,327,252,470,417,240,0.0
1887,0.45,0.8,0.41,-1.34,-4.52,-1.89,325,253,463,420,239,0.0
1888,0.44,0.78,0.42,-0.24,-3.48,-1.83,328,252,465,419,244,0.0
1889,0.46,0.77,0.42,-0.37,-2.38,-3.97,328,251,467,414,242,0.0
1890,0.45,0.79,0.43,0.98,-2.93,-1.83,328,252,460,418,244,0.0
1891,0.47,0.78,0.43,0.06,-3.66,-2.99,324,252,462,416,237,0.0
1892,0.45,0.79,0.43,2.38,-3.23,-2.81,329,251,472,417,240,0.0
1893,0.45,0.79,0.42,1.22,-1.95,-2.69,325,253,466,414,242,0.0
1894,0.46,0.82,0.43,1.95,-1.71,-1.65,328,250,464,417,241,0.0
1895,0.44,0.79,0.42,-2.75,-2.81,-1.89,327,252,466,420,241,0.0
1896,0.45,0.78,0.42,-0.24,-3.23,-0.67,327,253,466,415,240,0.0
1897,0.47,0.79,0.42,-0.79,-4.21,-0.43,331,251,481,419,240,0.0
1898,0.47,0.79,0.43,0.85,-3.36,-2.2,328,251,460,418,240,0.0
1899,0.46,0.78,0.42,-0.18,-2.62,-2.75,329,249,464,413,241,0.0
1900,0.47,0.79,0.43,1.22,-3.6,-2.2,325,253,464,416,239,0.0
1901,0.46,0.77,0.42,-0.73,-1.34,-3.36,326,251,469,420,252,0.0
1902,0.45,0.78,0.42,2.5,-1.95,-3.23,327,252,470,413,239,0.0
1903,0.47,0.79,0.43,-2.26,-3.66,-0.67,327,249,465,417,240,0.0
1904,0.47,0.8,0.43,1.83,-2.99,-2.56,332,253,466,417,239,0.0
1905,0.45,0.79,0.43,0.49,-2.26,-2.38,329,251,463,418,240,0.0
1906,0.46,0.78,0.42,2.14,-2.14,-3.36,329,251,466,417,241,0.0
1907,0.47,0.79,0.42,-0.61,-3.6,-1.89,329,248,469,418,240,0.0
1908,0.47,0.81,0.43,0.73,-3.54,-3.05,331,251,469,414,237,0.0
1909,0.45,0.78,0.41,4.64,-2.38,-3.17,325,248,465,425,242,0.0
1910,0.45,0.78,0.41,-0.73,-1.83,-2.75,331,250,467,417,242,0.0
1911,0.46,0.8,0.42,1.04,-3.23,-3.11,327,251,464,418,237,0.0
1912,0.47,0.8,0.43,0.92,-2.69,-2.26,330,250,467,419,243,0.0
1913,0.46,0.79,0.42,0.24,-3.48,-2.38,326,253,465,415,240,0.0
1914,0.47,0.8,0.42,0.24,-2.44,-3.72,331,250,464,417,241,0.0
1915,0.47,0.78,0.43,0.43,-2.69,-3.6,326,249,474,418,240,0.0
1916,0.45,0.77,0.41,0.37,-1.89,-2.87,329,253,462,417,238,0.0
1917,0.45,0.78,0.42,0.79,-4.03,-1.34,326,252,464,417,242,0.0
1918,0.45,0.79,0.43,-1.53,-2.87,-2.62,329,253,465,413,242,0.0
1919,0.46,0.77,0.41,0.49,-2.38,-3.6,329,254,466,414,238,0.0
1920,0.45,0.79,0.42,-1.04,-2.44,-2.01,329,254,464,417,243,0.0
1921,0.45,0.79,0.42,-2.26,-2.62,-1.59,333,254,468,418,241,0.0
1922,0.46,0.8,0.44,-0.73,-2.26,-3.42,330,251,464,414,241,0.0
1923,0.44,0.8,0.43,1.95,-1.77,-4.39,332,251,466,418,240,0.0
1924,0.44,0.8,0.42,2.99,-5.98,-0.24,327,254,466,417,241,0.0
1925,0.41,0.78,0.45,-0.85,2.69,-2.08,333,249,466,415,240,0.0
1926,0.44,0.79,0.42,0.92,-1.53,-3.42,327,251,466,416,241,0.0
1927,0.44,0.81,0.41,1.95,-3.6,-4.82,329,252,466,419,242,0.0
1928,0.42,0.81,0.42,-1.28,-1.16,-3.36,332,254,464,415,241,0.0
1929,0.41,0.79,0.41,-1.59,-0.61,-6.04,328,251,464,423,240,0.0
1930,0.36,0.79,0.36,25.57,-4.88,-8.67,328,252,461,415,241,0.0
1931,0.39,0.92,0.22,-7.69,-1.77,2.87,329,252,468,414,237,0.0
1932,0.44,0.88,0.2,-2.62,-0.55,-1.77,331,253,470,415,241,0.0
1933,0.45,0.9,0.21,3.85,2.44,-6.41,328,252,465,412,243,0.0
1934,0.43,0.89,0.21,0.18,-0.73,-5.43,328,249,463,415,241,0.0
1935,0.45,0.87,0.19,2.69,-4.94,0.12,328,249,464,415,241,0.0
1936,0.44,0.89,0.22,-0.85,-3.3,-1.95,332,253,468,413,242,0.0
1937,0.44,0.88,0.21,2.62,-3.72,-1.65,329,250,461,417,251,0.0
1938,0.43,0.86,0.22,1.4,-1.77,-3.78,333,251,470,415,245,0.0
1939,0.43,0.88,0.22,-0.06,-1.89,-3.05,333,256,464,417,245,0.0
1940,0.43,0.87,0.22,-2.26,-2.56,-3.48,334,256,464,415,245,0.0
1941,0.42,0.87,0.23,-0.06,-3.66,-0.98,335,253,465,417,245,0.0
1942,0.44,0.86,0.22,0.0,-2.2,-2.08,331,251,466,414,244,0.0
1943,0.44,0.87,0.23,-1.71,-3.91,-2.26,332,254,470,413,245,0.0
1944,0.44,0.88,0.23,-0.18,-3.66,-0.18,333,250,466,410,245,0.0
1945,0.44,0.88,0.23,1.59,-3.11,-3.17,333,255,464,422,245,0.0
1946,0.44,0.87,0.23,-1.4,-2.81,-2.69,335,255,465,414,247,0.0
1947,0.43,0.86,0.23,-0.43,-2.62,-1.95,333,253,465,414,247,0.0
1948,0.42,0.87,0.24,0.0,-1.1,-3.36,342,255,465,417,244,0.0
1949,0.45,0.86,0.23,0.98,-2.93,-1.89,337,256,465,413,248,0.0
1950,0.45,0.87,0.23,0.31,-2.75,-2.81,336,269,459,415,249,0.0
1951,0.44,0.87,0.23,-0.73,-2.81,-2.62,337,253,468,415,248,0.0
1952,0.45,0.87,0.22,-0.49,-2.99,-1.83,339,254,467,414,248,0.0
1953,0.44,0.87,0.23,0.49,-1.34,-3.72,336,256,467,415,248,0.0
1954,0.44,0.86,0.22,0.85,-3.78,-0.67,333,252,465,416,245,0.0
1955,0.44,0.86,0.22,-0.79,-3.66,-1.71,333,255,465,415,247,0.0
1956,0.43,0.87,0.23,-1.53,-2.99,-2.32,334,256,459,418,241,0.0
1957,0.46,0.87,0.22,0.0,-5.92,-2.5,337,254,461,419,244,0.0
1958,0.44,0.87,0.24,-1.16,-1.34,-3.72,333,256,460,415,245,0.0
1959,0.44,0.81,0.26,-34.91,20.94,-12.27,336,255,464,419,247,0.0
1960,0.39,0.79,0.38,-4.09,-0.79,0.37,336,254,463,415,247,0.0
1961,0.41,0.84,0.39,-0.85,-1.95,-2.26,336,255,465,415,245,0.0
1962,0.42,0.81,0.37,-3.78,-4.09,-1.95,333,256,469,414,242,0.0
1963,0.41,0.85,0.37,0.49,-4.03,-2.32,334,254,464,414,245,0.0
1964,0.4,0.84,0.37,-2.2,-1.65,-3.6,337,256,467,419,245,0.0
1965,0.43,0.85,0.37,1.04,-3.23,-1.16,334,257,465,415,246,0.0
1966,0.41,0.84,0.36,0.31,-2.87,-3.72,336,254,469,416,245,0.0
1967,0.42,0.83,0.35,0.73,-3.05,-1.83,336,255,467,419,245,0.0
1968,0.42,0.82,0.35,1.16,-3.11,-1.71,338,252,465,415,245,0.0
1969,0.42,0.82,0.33,-2.56,-1.89,-1.46,334,256,469,416,245,0.0
1970,0.43,0.82,0.35,0.55,-3.23,-1.89,328,257,460,421,247,0.0
1971,0.43,0.83,0.35,0.67,-3.6,-2.62,334,252,469,417,248,0.0
1972,0.43,0.83,0.35,-1.04,-4.21,-2.2,334,254,462,418,245,0.0
1973,0.43,0.84,0.35,4.39,-2.5,-0.67,333,254,470,415,247,0.0
1974,0.43,0.84,0.36,-0.37,-2.81,-2.08,334,256,465,417,248,0.0
1975,0.44,0.83,0.37,-0.79,-1.46,-4.7,330,256,465,416,245,0.0
1976,0.43,0.82,0.36,-1.53,-2.38,-3.3,335,258,465,416,246,0.0
1977,0.44,0.83,0.36,0.79,-3.42,-2.32,336,254,462,413,248,0.0
1978,0.44,0.83,0.35,0.85,-2.44,-2.5,335,253,466,417,245,0.0
1979,0.45,0.84,0.35,0.61,-4.09,-1.16,334,254,465,416,244,0.0
1980,0.44,0.83,0.35,1.4,-4.46,-1.59,334,257,464,415,246,0.0
1981,0.45,0.83,0.36,-0.92,-1.65,-2.56,336,249,465,416,246,0.0
1982,0.43,0.81,0.35,0.61,-3.91,-2.81,333,255,464,415,248,0.0
1983,0.46,0.84,0.36,-1.34,-4.39,2.14,336,255,468,414,249,0.0
1984,0.44,0.82,0.35,-0.43,-3.91,-2.99,334,255,465,418,246,0.0
1985,0.46,0.82,0.35,2.2,-2.75,-0.61,334,252,469,414,248,0.0
1986,0.45,0.84,0.35,0.49,-3.36,-2.32,336,257,476,418,245,0.0
1987,0.45,0.82,0.35,-0.06,-3.23,-2.5,335,256,465,420,249,0.0
1988,0.44,0.82,0.36,0.31,-3.11,-1.71,334,260,466,412,246,0.0
1989,0.45,0.82,0.36,-0.49,-2.26,-3.66,338,255,465,416,245,0.0
1990,0.44,0.82,0.36,0.31,-1.89,-2.08,335,254,469,415,249,0.0
1991,0.44,0.82,0.36,-0.73,-3.11,-1.95,337,256,460,416,248,0.0
