,aX,aY,aZ,gX,gY,gZ,little,ring,middle,index,thumb,Character
0,0.42,0.89,0.19,-5.68,-10.68,-8.79,380,276,206,439,360,29
1,0.37,0.88,0.28,2.93,-1.4,-6.41,382,275,200,447,358,29
2,0.38,0.94,0.27,-2.5,-1.77,-2.14,384,280,198,444,362,29
3,0.39,0.88,0.3,-0.06,-1.16,-3.36,381,277,201,442,360,29
4,0.37,0.95,0.29,2.44,1.46,1.34,378,277,205,443,359,29
5,0.35,0.88,0.31,-5.74,-7.02,-2.08,378,280,206,443,361,29
6,0.41,0.82,0.27,-12.51,5.49,-4.64,378,277,202,438,358,29
7,0.37,0.86,0.33,-0.79,8.61,6.23,367,278,205,440,355,29
8,0.42,0.92,0.29,-8.18,-10.86,7.02,367,277,201,437,354,29
9,0.42,0.8,0.33,0.49,-0.61,-1.4,379,277,205,445,358,29
10,0.42,0.82,0.32,0.67,8.42,-13.67,367,277,205,439,355,29
11,0.45,0.85,0.35,4.64,-4.58,-3.78,370,276,201,438,358,29
12,0.42,0.84,0.33,-2.08,-2.56,-0.73,370,278,209,447,359,29
13,0.43,0.84,0.34,0.0,-1.1,1.71,369,280,200,457,357,29
14,0.44,0.83,0.34,2.44,-3.05,-1.46,370,278,202,445,359,29
15,0.44,0.84,0.33,-1.28,-3.11,-0.31,368,281,202,442,357,29
16,0.43,0.82,0.35,-0.55,-3.97,-1.95,370,280,203,444,358,29
17,0.44,0.83,0.33,2.56,-2.81,-3.23,371,281,199,447,358,29
18,0.46,0.84,0.3,5.98,-7.75,-1.22,368,277,202,438,357,29
19,0.46,0.83,0.32,2.56,-2.62,-3.3,369,275,202,443,358,29
20,0.48,0.85,0.3,-0.12,-1.53,-6.9,370,279,203,444,360,29
21,0.47,0.83,0.28,-0.79,-2.62,0.37,371,288,202,439,356,29
22,0.5,0.83,0.29,-1.22,-3.17,-1.65,368,281,203,443,360,29
23,0.5,0.82,0.29,3.23,-3.42,-2.08,370,278,203,445,353,29
24,0.49,0.82,0.29,0.18,-1.34,-0.73,366,278,202,444,357,29
25,0.49,0.82,0.31,-0.31,0.12,-4.39,365,278,205,442,356,29
26,0.49,0.82,0.3,2.5,-2.81,-5.25,370,280,205,444,357,29
27,0.48,0.82,0.3,0.67,-0.73,-3.17,365,285,202,442,358,29
28,0.49,0.85,0.31,-2.44,-0.31,-3.36,365,278,204,445,361,29
29,0.46,0.86,0.31,2.87,-4.88,-7.57,368,277,205,450,358,29
30,0.44,0.85,0.31,-3.23,-0.06,-9.28,367,275,202,437,358,29
31,0.46,0.8,0.29,0.79,-12.57,-6.16,366,279,201,448,359,29
32,0.46,0.8,0.27,3.72,-2.26,-0.67,367,278,204,442,360,29
33,0.5,0.85,0.23,6.35,-5.74,-2.44,362,277,205,440,360,29
34,0.5,0.82,0.24,-4.33,-1.95,-0.49,367,280,205,441,358,29
35,0.5,0.82,0.25,-1.46,-6.9,-3.05,368,277,202,437,356,29
36,0.51,0.81,0.24,-7.81,-2.69,-0.98,371,276,203,442,358,29
37,0.52,0.82,0.24,1.95,-1.83,-3.05,370,278,204,442,360,29
38,0.5,0.81,0.25,0.12,-2.62,-2.44,371,275,201,442,355,29
39,0.5,0.84,0.26,3.17,0.24,-3.66,369,277,204,439,357,29
40,0.53,0.86,0.25,2.5,0.85,-4.88,369,277,202,442,358,29
41,0.51,0.86,0.23,4.64,0.0,-1.95,368,278,201,443,360,29
42,0.51,0.86,0.27,0.55,-0.24,-2.44,364,277,205,443,356,29
43,0.54,0.82,0.27,6.77,-1.83,-5.49,368,279,204,446,355,29
44,0.51,0.79,0.25,3.48,-8.18,-2.81,365,280,202,446,358,29
45,0.5,0.82,0.27,-5.8,-7.51,-3.54,379,280,203,444,358,29
46,0.52,0.81,0.25,0.85,-8.06,-4.03,368,280,201,443,358,29
47,0.5,0.82,0.25,6.65,-3.72,-4.21,370,278,202,437,358,29
48,0.51,0.85,0.27,4.15,-1.65,-6.29,370,277,204,443,356,29
49,0.49,0.86,0.26,5.92,-4.39,-1.71,372,278,203,437,359,29
50,0.49,0.82,0.24,0.31,-4.33,-2.44,367,277,199,446,357,29
51,0.5,0.84,0.24,0.49,-2.38,-2.2,371,278,203,440,361,29
52,0.52,0.84,0.24,2.81,-3.3,-3.48,369,277,205,442,358,29
53,0.5,0.83,0.24,2.01,-1.77,-3.48,368,278,200,443,357,29
54,0.51,0.82,0.23,2.93,-1.83,-2.26,368,280,202,448,360,29
55,0.52,0.81,0.23,-4.46,3.78,-5.86,367,277,205,442,360,29
56,0.5,0.82,0.26,-0.67,-2.69,0.24,396,279,205,442,358,29
57,0.51,0.82,0.27,2.26,-3.66,-2.44,364,280,204,442,361,29
58,0.5,0.81,0.27,1.34,0.12,-4.27,368,280,202,443,361,29
59,0.5,0.81,0.26,1.59,-2.93,-3.05,368,281,201,446,362,29
60,0.5,0.82,0.27,-0.24,-3.78,-2.93,365,281,203,446,359,29
61,0.49,0.82,0.27,0.06,-4.76,-2.2,370,278,201,445,359,29
62,0.49,0.83,0.28,1.4,-2.75,-2.62,366,278,199,442,355,29
63,0.47,0.81,0.26,-1.89,-1.71,-1.59,367,275,205,440,361,29
64,0.51,0.83,0.24,1.4,-1.16,-2.08,365,277,197,443,355,29
65,0.49,0.83,0.24,1.95,-3.72,-1.04,357,279,204,442,361,29
66,0.5,0.83,0.24,1.04,-3.97,-0.92,365,277,204,445,356,29
67,0.49,0.82,0.24,-0.49,-2.08,-0.67,363,276,205,442,357,29
68,0.51,0.83,0.25,-0.24,-2.62,-2.62,370,277,203,448,360,29
69,0.51,0.83,0.26,-1.46,-2.2,-1.34,370,279,204,444,359,29
70,0.52,0.83,0.25,-0.12,-3.6,-1.95,369,279,204,443,361,29
71,0.51,0.82,0.25,1.16,-2.87,-3.05,366,281,202,441,359,29
72,0.51,0.82,0.25,-1.16,-2.38,-1.65,370,276,217,442,359,29
73,0.52,0.82,0.25,0.31,-3.3,-2.81,366,277,202,442,355,29
74,0.52,0.82,0.25,-1.16,-2.56,-2.08,368,279,202,448,360,29
75,0.51,0.83,0.26,1.04,-2.5,-2.56,368,281,204,442,358,29
76,0.52,0.82,0.26,2.87,-2.26,-1.83,367,280,204,442,360,29
77,0.52,0.82,0.25,1.1,-1.53,-3.17,365,278,207,444,360,29
78,0.52,0.83,0.25,2.81,-5.07,-2.38,367,277,204,439,360,29
79,0.51,0.82,0.26,1.59,-0.55,-3.23,365,279,203,437,354,29
80,0.5,0.81,0.27,-0.73,-2.26,1.34,367,280,205,442,359,29
81,0.52,0.82,0.27,-0.49,-1.83,-1.71,366,279,201,440,358,29
82,0.51,0.82,0.27,0.98,-4.09,-3.17,368,278,204,445,360,29
83,0.52,0.81,0.26,0.06,-3.11,-2.2,369,281,205,442,360,29
84,0.52,0.82,0.26,0.06,-3.3,-2.01,365,284,205,445,358,29
85,0.51,0.82,0.27,-0.43,-2.14,-2.08,367,278,206,441,355,29
86,0.52,0.82,0.25,3.05,-2.87,-4.94,366,280,205,448,365,29
87,0.51,0.82,0.25,2.01,-2.87,-1.89,365,276,201,437,361,29
88,0.5,0.82,0.25,-0.55,-1.95,-2.93,369,281,203,442,360,29
89,0.52,0.82,0.24,-0.12,-3.3,-1.77,371,278,202,443,359,29
90,0.51,0.83,0.26,0.12,-3.23,-2.44,366,279,202,441,356,29
91,0.52,0.83,0.24,0.0,-2.38,-2.75,370,278,204,437,357,29
92,0.52,0.82,0.25,-0.18,-3.05,-0.79,367,279,203,443,359,29
93,0.52,0.81,0.24,1.22,-3.78,-1.16,364,280,207,441,360,29
94,0.51,0.83,0.24,1.46,-2.01,-2.69,369,283,205,442,362,29
95,0.53,0.83,0.25,-0.61,-5.62,-0.37,365,279,219,438,361,29
96,0.52,0.82,0.25,1.22,-1.34,-3.42,370,278,202,442,359,29
97,0.51,0.83,0.25,-2.75,-3.72,-2.32,369,280,202,445,361,29
98,0.53,0.8,0.25,0.0,-3.91,-1.34,367,278,202,436,359,29
99,0.52,0.81,0.24,-1.4,-3.6,-1.28,368,279,201,451,357,29
100,0.54,0.81,0.25,2.26,-3.05,-0.79,367,277,204,437,360,29
101,0.52,0.8,0.25,-1.34,-1.65,-1.16,368,281,207,442,359,29
102,0.53,0.82,0.27,1.04,-2.56,-2.38,368,281,202,443,359,29
103,0.54,0.8,0.26,0.61,-2.01,-3.23,378,283,210,444,359,29
104,0.53,0.81,0.27,0.61,-1.28,-2.62,365,278,202,446,360,29
105,0.51,0.81,0.26,0.24,-3.17,-3.05,369,278,203,440,360,29
106,0.52,0.8,0.26,-1.04,-3.6,-4.64,364,277,204,444,357,29
107,0.52,0.81,0.27,0.18,-3.3,-2.81,369,282,206,442,362,29
108,0.52,0.8,0.25,1.28,-4.46,-4.27,369,279,203,440,360,29
109,0.52,0.81,0.26,0.12,-2.81,-1.89,366,280,203,442,361,29
110,0.51,0.82,0.26,-1.83,-2.99,-2.81,368,281,204,443,360,29
111,0.52,0.81,0.25,0.49,-3.05,-2.44,367,288,205,440,362,29
112,0.53,0.83,0.29,-6.35,-2.87,2.01,368,279,204,440,360,29
113,0.55,0.82,0.27,-2.38,-5.25,-1.83,367,282,202,445,360,29
114,0.53,0.79,0.26,-1.28,-2.44,-3.97,368,278,207,435,360,29
115,0.53,0.82,0.28,1.34,-1.53,2.38,368,279,207,443,361,29
116,0.54,0.79,0.27,0.73,-3.66,-1.34,366,279,208,446,360,29
117,0.53,0.8,0.28,2.01,-0.12,-4.03,371,278,219,442,359,29
118,0.53,0.76,0.27,-3.78,-6.47,-3.85,368,281,207,441,359,29
119,0.52,0.77,0.28,-1.28,-5.92,-4.21,367,278,206,440,358,29
120,0.52,0.79,0.28,-1.65,-2.75,-2.69,370,278,203,439,361,29
121,0.54,0.79,0.29,0.67,-3.36,-1.1,370,279,209,441,356,29
122,0.55,0.8,0.29,0.61,-3.54,-2.2,370,279,203,441,360,29
123,0.56,0.8,0.28,2.99,-3.48,-3.66,370,281,217,436,356,29
124,0.53,0.8,0.28,2.2,-2.99,-4.09,368,277,204,443,359,29
125,0.56,0.79,0.26,0.55,-4.58,-1.89,369,276,205,439,359,29
126,0.55,0.78,0.29,-1.4,-3.48,0.79,370,279,204,441,358,29
127,0.54,0.77,0.28,-3.97,-4.52,-3.05,368,279,206,445,360,29
128,0.53,0.78,0.28,4.52,-0.85,-6.29,370,278,208,439,359,29
129,0.54,0.8,0.29,-1.4,-2.62,-3.23,372,280,206,445,364,29
130,0.55,0.8,0.28,1.89,-3.05,-3.85,367,279,202,440,360,29
131,0.56,0.82,0.27,4.39,-1.22,-3.66,368,281,206,440,363,29
132,0.55,0.81,0.28,1.77,-4.64,-4.58,368,282,201,440,354,29
133,0.56,0.81,0.26,4.33,-3.42,-1.71,370,280,206,442,358,29
134,0.55,0.81,0.27,1.89,-3.72,-6.23,369,280,203,444,361,29
135,0.53,0.79,0.27,-2.01,-4.21,-2.5,369,279,207,441,361,29
136,0.52,0.81,0.27,-3.17,-2.38,-2.2,367,280,203,441,362,29
137,0.55,0.79,0.29,2.56,-2.5,-2.26,369,281,203,442,362,29
138,0.54,0.8,0.29,1.16,-2.01,-3.23,369,278,206,441,360,29
139,0.55,0.79,0.26,1.65,-3.78,-0.61,369,278,203,441,360,29
140,0.53,0.79,0.27,1.04,0.31,-4.52,368,279,204,439,358,29
141,0.54,0.81,0.26,1.53,-3.6,-0.18,371,282,207,442,358,29
142,0.54,0.8,0.27,-0.85,-2.32,-1.28,370,280,207,442,362,29
143,0.56,0.79,0.26,1.83,-5.19,-1.71,369,279,206,442,359,29
144,0.55,0.8,0.26,0.98,-4.27,-2.5,371,279,218,442,362,29
145,0.55,0.79,0.26,-0.61,-3.54,-3.05,371,282,206,436,356,29
146,0.54,0.79,0.27,-3.54,-2.5,-0.73,368,278,204,441,359,29
147,0.55,0.8,0.26,0.31,-3.85,-1.95,368,276,205,436,359,29
148,0.54,0.8,0.27,-1.77,-1.65,-2.32,369,279,201,440,360,29
149,0.53,0.8,0.27,1.46,-2.2,-2.93,372,280,204,436,360,29
150,0.55,0.79,0.27,0.18,-1.4,-2.75,370,282,203,439,359,29
151,0.55,0.8,0.27,-0.24,-2.32,-1.22,369,285,204,445,356,29
152,0.55,0.78,0.28,2.2,-3.05,-2.75,368,281,208,445,361,29
153,0.55,0.79,0.27,1.71,-3.3,-3.54,369,279,204,442,361,29
154,0.54,0.8,0.27,1.4,-4.39,-5.31,368,281,204,442,360,29
155,0.56,0.82,0.28,3.78,-2.26,-2.14,369,281,207,441,360,29
156,0.55,0.8,0.26,0.24,-4.33,-3.6,369,278,204,440,360,29
157,0.54,0.81,0.27,-2.14,-3.66,-6.71,367,285,204,442,361,29
158,0.54,0.81,0.28,-2.01,-2.75,-0.31,370,280,201,436,356,29
159,0.56,0.81,0.28,0.73,-4.76,-3.78,367,288,203,439,360,29
160,0.55,0.8,0.29,-1.1,-1.28,-2.38,370,276,205,445,357,29
161,0.54,0.8,0.28,3.05,-4.03,1.04,367,279,213,441,362,29
162,0.56,0.78,0.27,-0.43,-3.36,-1.65,368,281,201,445,356,29
163,0.55,0.78,0.28,0.43,-1.95,-4.09,371,284,209,443,356,29
164,0.55,0.79,0.27,0.37,-2.75,-2.44,368,282,209,445,360,29
165,0.55,0.79,0.29,1.04,-3.97,-2.75,372,275,204,442,358,29
166,0.56,0.78,0.28,1.28,-4.15,-2.62,368,277,204,441,362,29
167,0.55,0.79,0.29,0.18,-2.38,-2.56,368,281,209,444,361,29
168,0.55,0.79,0.28,-0.31,-3.17,-4.58,370,282,207,437,358,29
169,0.56,0.79,0.26,1.83,-3.3,-2.14,368,277,206,441,362,29
170,0.55,0.79,0.28,0.12,-3.72,-2.38,366,282,203,442,362,29
171,0.56,0.78,0.27,-1.77,-2.32,-2.99,367,282,207,439,360,29
172,0.55,0.79,0.27,1.71,-2.93,-1.83,367,279,203,441,361,29
173,0.55,0.78,0.27,-0.61,-2.5,-2.81,368,281,204,438,360,29
174,0.55,0.78,0.27,1.16,-3.78,-3.3,375,279,205,444,357,29
175,0.54,0.8,0.28,1.59,-3.3,-0.67,368,278,204,437,357,29
176,0.55,0.79,0.27,1.53,-2.26,-2.14,368,280,203,442,361,29
177,0.55,0.8,0.26,1.77,-2.26,-3.17,368,280,204,442,361,29
178,0.56,0.8,0.26,-1.4,-1.71,-3.6,365,281,203,442,361,29
179,0.56,0.8,0.26,-0.12,-3.42,-2.01,370,282,205,442,362,29
180,0.56,0.81,0.27,1.22,-2.2,-4.03,369,280,207,441,361,29
181,0.56,0.8,0.26,2.14,-3.42,-1.83,370,279,207,442,357,29
182,0.55,0.8,0.25,-0.43,-3.23,-2.99,369,279,203,435,359,29
183,0.56,0.78,0.26,-2.69,-3.66,-2.69,370,279,207,441,361,29
184,0.55,0.79,0.26,0.61,-2.01,-1.77,371,275,203,444,360,29
185,0.55,0.79,0.27,-0.06,-2.87,-3.54,365,279,204,444,364,29
186,0.55,0.8,0.26,1.53,-2.87,-2.44,366,280,203,445,364,29
187,0.55,0.8,0.27,0.24,-3.48,-2.81,368,280,211,442,359,29
188,0.54,0.8,0.28,-0.18,-2.5,-1.71,368,280,207,443,362,29
189,0.54,0.79,0.28,-0.49,-2.62,-1.65,367,281,207,440,361,29
190,0.54,0.79,0.28,-2.26,-2.69,-1.83,371,279,202,444,362,29
191,0.55,0.78,0.28,-0.73,-2.38,-2.08,368,280,206,442,361,29
192,0.55,0.79,0.29,-0.79,-2.44,-3.3,365,282,206,442,362,29
193,0.55,0.78,0.28,-0.37,-3.11,-2.93,369,280,207,442,363,29
194,0.54,0.79,0.28,1.4,-3.17,-2.2,374,281,205,438,361,29
195,0.54,0.79,0.29,-0.37,-1.65,-2.93,371,282,207,436,357,29
196,0.55,0.79,0.28,1.16,-2.14,-2.75,369,280,207,440,363,29
197,0.55,0.8,0.28,1.4,-3.48,-2.99,371,279,208,445,360,29
198,0.54,0.79,0.28,-0.12,-2.93,-2.56,367,279,205,444,360,29
199,0.55,0.79,0.28,0.98,-4.88,-1.28,370,280,208,441,362,29
200,0.53,0.78,0.28,-0.06,-2.32,-2.62,369,282,205,440,362,29
201,0.54,0.8,0.28,-0.73,-1.34,-2.44,371,279,207,445,363,29
202,0.55,0.8,0.29,0.73,-3.11,-2.62,366,282,203,440,359,29
203,0.54,0.79,0.28,-0.49,-2.01,-3.6,367,280,206,441,360,29
204,0.54,0.8,0.28,-1.16,-2.44,-2.93,369,281,207,442,361,29
205,0.54,0.8,0.29,0.67,-1.83,-1.53,369,280,205,446,362,29
206,0.56,0.8,0.29,-0.92,-3.23,-1.65,365,278,203,440,362,29
207,0.55,0.79,0.28,-0.24,-2.14,-2.93,371,279,205,443,361,29
208,0.54,0.78,0.3,1.34,-3.48,-2.32,382,282,204,443,361,29
209,0.55,0.79,0.29,1.22,-2.69,-2.62,366,285,206,442,361,29
210,0.55,0.79,0.29,-0.24,-3.11,-2.2,368,281,204,442,363,29
211,0.57,0.79,0.3,1.34,-1.83,-1.95,368,284,204,445,362,29
212,0.56,0.79,0.3,0.37,-3.42,-2.93,372,279,206,438,363,29
213,0.54,0.77,0.3,-2.32,-4.15,-2.99,373,280,206,440,362,29
214,0.55,0.79,0.31,-0.24,-1.89,-1.53,369,283,203,440,361,29
215,0.55,0.77,0.31,-0.67,-2.5,-0.73,370,283,208,442,361,29
216,0.57,0.78,0.3,0.18,-2.93,-2.2,367,282,205,440,362,29
217,0.55,0.77,0.32,-0.79,-3.11,-2.08,367,279,203,438,361,29
218,0.58,0.79,0.3,0.73,-2.2,-3.23,366,281,205,441,361,29
219,0.56,0.78,0.3,-3.36,-3.78,-3.72,370,281,208,441,360,29
220,0.53,0.75,0.34,1.4,2.26,-12.88,369,282,205,441,362,29
221,0.49,0.82,0.37,0.37,0.85,-6.1,371,286,207,444,364,29
222,0.37,0.77,0.45,5.74,-3.42,4.09,369,279,206,445,359,29
223,0.41,0.88,0.38,-0.85,0.06,-11.9,369,280,203,442,362,29
224,0.41,0.8,0.38,-4.64,-2.81,-6.16,369,282,208,441,362,29
225,0.42,0.79,0.41,1.28,-1.04,-2.08,370,281,206,443,365,29
226,0.4,0.85,0.44,-0.43,-0.06,0.0,369,280,205,445,364,29
227,0.36,0.78,0.43,-1.77,0.98,-3.11,372,280,209,445,363,29
228,0.39,0.84,0.48,-1.89,-1.1,-11.41,368,280,208,436,363,29
229,0.39,0.79,0.43,0.06,-4.76,-11.6,368,279,210,443,363,29
230,0.38,0.82,0.47,0.49,-1.59,-3.05,366,279,208,437,363,29
231,0.36,0.82,0.44,0.92,-4.15,-1.46,368,282,205,439,361,29
232,0.4,0.8,0.41,0.98,-6.53,-2.5,375,292,207,440,361,29
233,0.38,0.82,0.41,3.78,-1.83,-1.34,367,279,201,443,362,29
234,0.41,0.81,0.41,3.54,-2.62,-2.5,368,281,202,442,363,29
235,0.4,0.81,0.4,0.67,-3.05,-0.85,366,280,204,444,363,29
236,0.37,0.82,0.4,4.58,-1.22,1.22,372,283,203,444,361,29
237,0.41,0.84,0.39,0.31,-0.37,-0.98,367,283,204,444,364,29
238,0.42,0.8,0.38,-0.06,-4.7,-2.01,369,282,206,441,363,29
239,0.42,0.83,0.37,-2.32,-3.48,-2.01,367,281,202,442,362,29
240,0.42,0.89,0.37,-5.25,0.49,0.85,369,282,206,438,360,29
241,0.44,0.87,0.37,-1.28,-1.16,0.06,364,281,205,442,362,29
242,0.44,0.84,0.39,-0.12,-2.32,-5.37,396,281,202,436,366,29
243,0.42,0.83,0.38,-1.04,-2.14,0.92,369,282,204,444,375,29
244,0.44,0.79,0.38,-0.61,-2.56,-2.01,366,294,207,441,365,29
245,0.45,0.81,0.38,0.37,-3.97,-2.38,371,283,205,445,361,29
246,0.45,0.81,0.39,-0.24,-1.59,-2.5,371,283,206,441,363,29
247,0.44,0.8,0.38,-2.26,-3.6,-2.08,368,282,204,442,364,29
248,0.45,0.81,0.38,-0.24,-2.99,-1.71,370,282,204,442,361,29
249,0.45,0.81,0.37,-0.49,-3.11,-1.34,367,281,204,445,360,29
250,0.43,0.81,0.39,-1.1,-3.78,-0.73,371,278,205,441,362,29
251,0.48,0.8,0.39,-15.44,-4.15,-5.74,365,280,205,441,364,29
252,0.44,0.82,0.39,1.83,-1.46,-1.53,369,282,203,441,360,29
253,0.45,0.82,0.39,-3.11,-2.69,-3.91,369,282,203,437,366,29
254,0.46,0.81,0.38,-1.89,-3.54,-1.1,368,282,205,440,360,29
255,0.47,0.8,0.38,-0.31,-3.97,-2.56,366,280,205,440,363,29
256,0.47,0.8,0.4,3.36,-1.28,-2.56,366,284,203,442,360,29
257,0.47,0.82,0.4,3.36,-3.36,-2.87,367,281,205,445,364,29
258,0.45,0.82,0.38,0.12,-4.58,-1.65,365,283,204,445,366,29
259,0.47,0.82,0.36,0.73,-4.76,-5.62,369,281,205,435,364,29
260,0.44,0.8,0.37,2.5,-0.31,-4.09,365,284,204,442,366,29
261,0.46,0.83,0.39,-0.12,-4.64,-5.92,365,283,205,440,366,29
262,0.47,0.81,0.33,-1.46,-2.38,-2.44,366,282,205,441,364,29
263,0.45,0.78,0.35,-3.17,-5.13,-0.92,367,282,208,444,359,29
264,0.46,0.82,0.36,0.49,-3.42,0.85,368,281,205,436,364,29
265,0.44,0.77,0.38,-2.2,-0.49,-4.94,365,281,207,440,362,29
266,0.46,0.82,0.39,2.87,2.14,-3.23,367,281,207,444,366,29
267,0.45,0.8,0.4,-2.08,-2.44,-0.67,363,283,207,443,366,29
268,0.47,0.81,0.4,-0.92,-4.33,0.67,363,287,207,448,364,29
269,0.47,0.81,0.38,0.92,-1.89,0.12,365,283,206,446,366,29
270,0.49,0.8,0.34,7.32,-3.42,-1.34,364,281,205,442,367,29
271,0.46,0.8,0.37,-1.46,-4.46,-1.83,366,277,204,437,362,29
272,0.47,0.82,0.39,-0.98,-1.34,-3.36,364,284,202,441,357,29
273,0.45,0.83,0.39,-1.4,-2.5,-1.71,363,280,208,443,361,29
274,0.46,0.82,0.38,-0.18,-3.97,-2.56,362,281,208,438,364,29
275,0.47,0.8,0.37,-1.53,-3.6,-2.81,361,281,204,441,360,29
276,0.49,0.79,0.36,0.12,-3.23,-2.69,362,284,211,441,364,29
277,0.45,0.81,0.4,-3.36,-0.43,-4.46,361,281,205,445,366,29
278,0.47,0.79,0.37,0.43,-4.64,-2.32,360,285,207,440,365,29
279,0.47,0.81,0.37,2.44,-3.17,-1.65,362,281,208,436,360,29
280,0.45,0.79,0.37,-2.08,-5.49,-0.79,360,282,207,444,360,29
281,0.47,0.82,0.38,-1.34,-4.15,-5.49,360,284,204,445,370,29
282,0.45,0.8,0.39,-0.49,-4.33,-1.83,361,284,206,440,360,29
283,0.45,0.83,0.37,-0.49,-3.3,-4.21,365,283,206,443,367,29
284,0.5,0.87,0.39,13.18,-9.52,9.83,356,281,206,440,364,29
285,0.45,0.86,0.39,29.6,-1.83,-23.19,362,281,207,442,359,29
286,0.42,0.82,0.33,7.45,-5.43,-0.98,359,283,208,437,362,29
287,0.41,0.8,0.28,3.23,-1.1,-0.79,362,282,206,443,365,29
288,0.48,0.87,0.24,8.42,-9.77,-0.37,363,283,203,446,363,29
289,0.5,0.88,0.22,1.16,-1.59,1.16,363,281,208,438,363,29
290,0.48,0.81,0.25,-2.44,-5.8,-3.05,364,279,207,443,365,29
291,0.51,0.88,0.21,3.42,-1.04,0.49,362,281,205,432,366,29
292,0.49,0.81,0.2,-3.85,-4.94,1.1,364,279,207,442,364,29
293,0.57,0.81,0.24,5.43,1.46,3.78,363,278,205,445,363,29
294,0.53,0.78,0.26,-0.49,0.98,-4.21,363,281,204,436,364,29
295,0.53,0.78,0.25,7.75,4.03,2.93,357,277,205,440,365,29
296,0.58,0.78,0.23,1.77,-3.11,2.01,361,280,205,445,364,29
297,0.58,0.79,0.21,3.11,-1.83,-5.0,362,280,206,444,366,29
298,0.55,0.79,0.22,0.18,-5.31,-6.35,363,279,201,444,362,29
299,0.55,0.8,0.22,0.31,-2.32,-3.97,361,281,206,441,364,29
300,0.53,0.8,0.23,-1.89,-2.69,-4.03,361,280,205,443,366,29
301,0.53,0.81,0.25,-2.08,-2.44,-1.28,358,278,205,441,364,29
302,0.54,0.79,0.24,0.92,-4.15,-0.55,363,284,208,440,371,29
303,0.55,0.79,0.25,-0.61,-2.62,-1.34,361,283,205,443,364,29
304,0.58,0.75,0.24,-11.6,-4.58,1.34,362,280,208,442,361,29
305,0.56,0.8,0.28,0.37,-3.05,-4.52,360,286,209,445,363,29
306,0.57,0.79,0.25,1.34,-3.23,-3.85,361,284,207,441,363,29
307,0.58,0.8,0.26,2.75,-2.44,-1.83,366,283,220,444,365,29
308,0.57,0.8,0.25,1.22,-2.14,-3.17,360,282,210,442,364,29
309,0.54,0.79,0.27,0.92,-2.2,-3.66,360,284,204,442,367,29
310,0.55,0.8,0.26,0.43,-2.99,-2.38,361,283,207,442,362,29
311,0.55,0.79,0.25,0.12,-4.64,-1.83,359,296,206,445,363,29
312,0.56,0.79,0.24,0.79,-3.17,-3.54,361,284,201,443,363,29
313,0.55,0.8,0.25,-0.12,-2.69,-2.5,360,282,209,441,364,29
314,0.57,0.8,0.25,2.01,-3.66,-2.56,362,282,209,442,364,29
315,0.55,0.79,0.25,0.18,-2.2,-1.65,362,281,207,445,364,29
316,0.57,0.8,0.25,-0.98,-2.26,-2.75,359,284,206,442,365,29
317,0.56,0.79,0.26,-0.98,-1.22,-2.75,356,283,206,440,365,29
318,0.57,0.79,0.26,2.93,-3.36,-2.62,359,281,204,443,364,29
319,0.56,0.78,0.25,1.46,-2.93,-1.95,359,282,206,441,367,29
320,0.56,0.78,0.25,-0.67,-2.38,-2.93,359,280,206,440,365,29
321,0.57,0.78,0.25,0.18,-1.77,-1.83,360,283,208,441,366,29
322,0.57,0.78,0.25,0.37,-2.26,-3.23,362,279,209,442,364,29
323,0.57,0.79,0.25,0.12,-2.44,-2.56,358,282,207,444,365,29
324,0.56,0.79,0.25,-0.12,-2.5,-2.14,361,283,210,447,365,29
325,0.56,0.78,0.26,-0.79,-2.75,-2.38,361,281,208,441,366,29
326,0.58,0.77,0.25,-0.43,-1.89,-1.95,360,281,203,442,368,29
327,0.59,0.78,0.27,-2.62,-3.78,-2.32,360,281,214,441,361,29
328,0.58,0.77,0.28,-2.93,-1.77,-3.17,360,284,202,443,362,29
329,0.56,0.75,0.29,-0.92,-5.25,-4.88,360,285,206,441,362,29
330,0.58,0.75,0.29,-1.71,-4.33,-2.01,359,282,206,444,362,29
331,0.56,0.76,0.3,0.0,-3.66,-2.01,381,283,207,442,363,29
332,0.58,0.74,0.29,-0.31,-3.91,-2.32,364,281,207,443,363,29
333,0.57,0.76,0.3,-1.46,-2.2,-3.3,359,298,209,441,363,29
334,0.59,0.76,0.29,2.32,-5.07,-5.92,360,281,206,442,365,29
335,0.56,0.78,0.28,7.02,1.59,-8.18,361,282,208,440,359,29
336,0.54,0.82,0.28,-5.98,2.93,-12.39,358,281,204,444,360,29
337,0.54,0.83,0.29,2.87,-8.12,-6.96,361,281,219,441,362,29
338,0.46,0.85,0.27,3.36,1.89,-9.89,359,282,212,434,363,29
339,0.49,0.85,0.26,1.77,-2.38,-0.06,357,281,206,438,363,29
340,0.49,0.85,0.26,-1.04,-1.89,-3.66,359,284,206,444,364,29
341,0.46,0.85,0.26,-0.24,-2.99,-3.6,359,281,205,442,366,29
342,0.46,0.86,0.27,0.61,-2.93,-0.55,361,280,203,443,360,29
343,0.46,0.84,0.26,1.83,-3.11,-0.24,359,284,206,439,366,29
344,0.46,0.84,0.26,0.31,-2.5,-2.87,358,284,209,438,364,29
345,0.46,0.84,0.28,-2.08,-2.75,-2.5,368,284,206,438,365,29
346,0.47,0.84,0.27,2.14,-3.17,-2.99,359,281,204,440,364,29
347,0.48,0.85,0.26,3.17,-4.88,-3.17,357,281,206,444,365,29
348,0.48,0.84,0.27,-0.37,-1.53,-3.17,359,284,208,446,363,29
349,0.48,0.85,0.25,2.93,-0.79,-5.62,359,283,208,445,365,29
350,0.47,0.84,0.25,1.71,-1.83,-2.56,358,276,211,440,362,29
351,0.47,0.85,0.26,-0.92,-4.09,-2.26,359,284,206,445,365,29
352,0.48,0.83,0.27,0.06,-2.32,-2.14,358,284,207,437,361,29
353,0.49,0.85,0.26,0.31,-2.44,-5.55,360,281,204,441,363,29
354,0.48,0.85,0.26,3.48,-6.9,-2.93,357,284,207,445,364,29
355,0.48,0.84,0.25,0.85,-3.36,-2.44,358,283,206,446,363,29
356,0.46,0.83,0.25,1.53,-2.69,-2.26,361,288,209,441,366,29
357,0.47,0.86,0.25,0.73,-5.43,-3.6,358,278,206,443,359,29
358,0.43,0.87,0.25,-0.31,-4.7,-1.4,357,280,205,442,361,29
359,0.44,0.86,0.24,-0.61,-3.17,1.04,360,282,215,441,363,29
360,0.47,0.85,0.24,-2.08,-6.47,1.34,360,281,205,442,361,29
361,0.49,0.84,0.24,-0.31,-0.31,0.24,366,282,205,441,363,29
362,0.5,0.79,0.23,-0.92,-5.86,-1.59,359,282,206,442,359,29
363,0.54,0.82,0.23,0.49,-2.62,-1.59,358,287,209,441,359,29
364,0.51,0.83,0.22,-0.67,-5.13,-3.72,358,281,207,439,360,29
365,0.5,0.84,0.21,0.67,-4.27,-8.54,360,281,208,446,361,29
366,0.46,0.87,0.21,1.77,-1.1,-7.75,358,281,208,443,362,29
367,0.43,0.86,0.22,-0.55,-2.44,2.56,359,284,207,442,364,29
368,0.47,0.84,0.21,0.31,-4.27,1.95,357,283,206,441,366,29
369,0.47,0.84,0.21,-0.12,-1.89,-1.59,353,282,206,443,363,29
370,0.52,0.84,0.23,2.14,-4.7,-5.49,356,281,207,441,362,29
371,0.51,0.82,0.21,-2.69,-3.78,-0.67,358,282,206,445,365,29
372,0.5,0.85,0.23,3.6,-3.48,-5.55,356,281,208,445,365,29
373,0.49,0.85,0.22,0.18,-1.22,-1.95,357,282,207,440,363,29
374,0.48,0.83,0.23,-0.31,-4.94,-4.27,359,285,205,446,361,29
375,0.5,0.84,0.23,2.32,-3.85,-1.71,360,280,209,447,363,29
376,0.5,0.84,0.23,-0.43,-2.93,-2.56,357,281,211,444,365,29
377,0.5,0.83,0.25,-1.28,-3.11,-1.46,360,282,206,438,365,29
378,0.5,0.82,0.25,-2.26,0.31,-1.04,360,281,213,440,363,29
379,0.53,0.82,0.25,-0.43,-5.74,-2.32,361,284,205,440,359,29
380,0.51,0.82,0.25,-1.53,-2.5,-1.65,356,282,220,441,362,29
381,0.53,0.82,0.25,-1.28,-2.44,-3.42,351,280,208,440,365,29
382,0.5,0.81,0.25,-1.16,-2.26,-0.06,359,281,206,441,364,29
383,0.52,0.82,0.24,0.18,-3.05,-0.98,359,283,205,441,360,29
384,0.53,0.82,0.25,0.24,-3.11,-3.05,353,284,206,444,363,29
385,0.52,0.81,0.25,1.71,-3.3,-2.62,357,285,210,444,364,29
386,0.52,0.79,0.24,2.14,-3.05,-3.23,362,284,206,442,364,29
387,0.51,0.82,0.24,1.59,-3.23,-2.62,355,294,207,438,363,29
388,0.51,0.82,0.24,2.2,-3.48,-2.32,357,279,206,448,365,29
389,0.52,0.83,0.24,0.73,-5.19,-2.93,355,283,206,440,360,29
390,0.51,0.82,0.25,0.79,0.61,-2.56,357,281,208,440,364,29
391,0.51,0.82,0.24,-0.12,-3.66,-2.38,358,281,208,441,365,29
392,0.52,0.83,0.25,-1.16,-3.17,-2.69,357,294,205,442,363,29
393,0.51,0.81,0.25,-0.18,-2.87,-1.65,357,282,204,441,366,29
394,0.52,0.82,0.25,-0.37,-2.87,-2.69,358,283,208,443,363,29
395,0.52,0.82,0.25,0.12,-2.62,-3.3,360,281,208,443,367,29
396,0.52,0.82,0.26,0.18,-2.26,-1.4,358,283,208,445,362,29
397,0.52,0.81,0.25,0.37,-2.93,-2.01,361,281,209,443,366,29
398,0.52,0.82,0.26,0.43,-2.44,-2.93,364,280,203,438,363,29
399,0.51,0.82,0.26,1.1,-3.11,-2.99,359,283,206,439,365,29
400,0.51,0.82,0.25,-0.12,-1.83,-3.3,357,281,209,442,362,29
401,0.52,0.82,0.25,3.05,-2.44,-3.78,359,283,205,445,361,29
402,0.51,0.83,0.27,-0.06,-1.83,-2.08,356,283,203,443,363,29
403,0.52,0.78,0.24,4.33,-7.14,0.98,358,282,209,443,363,29
404,0.51,0.8,0.21,0.18,-6.59,-1.95,355,282,206,444,362,29
405,0.52,0.81,0.22,0.98,-3.97,-1.53,359,288,211,441,363,29
406,0.51,0.83,0.23,-0.67,-1.1,-5.07,356,284,209,444,362,29
407,0.52,0.83,0.23,1.95,-2.93,-0.18,356,280,206,441,366,29
408,0.53,0.83,0.21,-0.67,-3.05,-1.65,355,283,206,437,364,29
409,0.52,0.81,0.22,0.55,-2.75,-2.93,357,284,206,443,362,29
410,0.53,0.83,0.23,1.77,-3.42,-2.87,358,279,211,442,363,29
411,0.52,0.81,0.22,-0.31,-3.36,-0.92,353,282,209,444,365,29
412,0.52,0.81,0.22,-0.67,-2.08,-1.4,357,284,205,444,364,29
413,0.52,0.81,0.23,0.0,-2.69,-2.75,359,282,206,442,363,29
414,0.52,0.82,0.22,0.24,-2.2,-3.48,359,283,207,436,361,29
415,0.52,0.82,0.23,0.0,-3.97,-1.77,357,282,205,443,365,29
416,0.52,0.82,0.24,-0.37,-1.53,-2.69,358,284,208,445,366,29
417,0.53,0.81,0.24,-2.99,0.37,1.77,358,284,206,450,359,29
418,0.54,0.77,0.26,-10.38,-9.46,2.38,357,284,207,446,366,29
419,0.6,0.84,0.26,-8.97,0.0,-10.99,357,282,209,444,365,29
420,0.5,0.83,0.26,7.63,1.53,-4.15,357,283,210,443,363,29
421,0.5,0.82,0.27,-8.79,4.09,-9.46,350,280,207,436,363,29
422,0.48,0.81,0.29,-1.04,-4.82,0.49,356,282,208,443,375,29
423,0.5,0.81,0.28,0.06,-4.15,-0.98,358,282,209,445,363,29
424,0.5,0.82,0.28,-0.31,-2.81,0.79,357,282,210,442,362,29
425,0.5,0.82,0.29,-0.49,-3.54,-1.46,354,281,208,445,363,29
426,0.51,0.79,0.28,-1.22,-4.33,-1.46,356,285,208,441,365,29
427,0.51,0.81,0.29,0.85,-2.01,-2.62,356,285,209,441,361,29
428,0.52,0.82,0.29,0.73,-1.65,-3.11,359,300,210,443,363,29
429,0.51,0.82,0.28,0.92,-2.81,-3.11,356,285,204,442,362,29
430,0.5,0.81,0.28,1.04,-2.93,-2.08,359,282,209,444,365,29
431,0.51,0.82,0.28,0.79,-1.16,-1.65,357,284,211,440,364,29
432,0.51,0.82,0.27,1.1,-3.72,-3.23,359,282,206,445,362,29
433,0.5,0.82,0.28,-0.85,-2.32,-2.69,363,281,205,445,362,29
434,0.51,0.81,0.28,-1.53,-3.17,-2.01,357,282,206,445,363,29
435,0.5,0.81,0.28,-0.49,-3.48,-3.42,359,282,209,441,362,29
436,0.52,0.81,0.27,1.89,-4.33,-2.2,357,278,206,443,363,29
437,0.51,0.81,0.28,-0.12,-2.69,-3.48,358,278,210,442,363,29
438,0.52,0.82,0.27,0.18,-3.23,-2.14,356,283,206,442,360,29
439,0.52,0.82,0.27,0.98,-2.14,-3.42,359,284,221,439,364,29
440,0.53,0.83,0.27,-0.12,-3.97,-2.93,359,286,208,445,365,29
441,0.52,0.81,0.28,0.98,-2.69,-1.77,355,281,208,443,360,29
442,0.52,0.82,0.27,0.43,-3.91,-1.4,348,284,206,437,360,29
443,0.52,0.81,0.28,1.28,-4.15,-2.62,355,280,206,444,359,29
444,0.52,0.81,0.26,-0.06,-3.17,-2.01,358,283,209,441,364,29
445,0.53,0.81,0.26,0.12,-2.5,-3.05,359,282,205,442,359,29
446,0.52,0.81,0.27,1.59,-1.22,-2.26,357,284,209,442,359,29
447,0.52,0.82,0.27,0.24,-2.38,-3.11,357,282,209,446,364,29
448,0.53,0.81,0.26,1.65,-1.53,-2.32,359,285,209,442,365,29
449,0.52,0.81,0.27,0.85,-3.42,-2.69,358,282,206,447,364,29
450,0.52,0.81,0.27,1.46,-4.46,-2.38,357,282,206,438,362,29
451,0.52,0.81,0.26,0.43,-2.99,-1.83,360,282,206,446,362,29
452,0.53,0.82,0.27,3.97,-1.77,0.31,370,283,209,441,362,29
453,0.53,0.81,0.26,0.85,-4.09,-3.11,361,283,210,436,363,29
454,0.53,0.82,0.26,0.43,-2.26,-1.34,358,281,210,442,364,29
455,0.53,0.79,0.27,1.77,-1.04,-2.99,358,281,206,443,363,29
456,0.53,0.8,0.28,-0.98,-3.3,-1.95,357,282,209,447,366,29
457,0.53,0.8,0.28,1.34,-2.26,-1.77,352,282,207,447,362,29
458,0.54,0.79,0.28,-1.77,-2.69,-3.36,355,282,206,446,359,29
459,0.53,0.81,0.28,0.85,-3.17,-2.44,358,285,210,445,361,29
460,0.53,0.8,0.28,0.49,-2.14,-2.81,357,280,210,440,359,29
461,0.53,0.81,0.28,1.1,-2.38,-3.11,352,282,210,442,363,29
462,0.51,0.81,0.27,-0.06,-3.3,-3.6,367,282,208,442,362,29
463,0.52,0.81,0.27,-0.37,-2.2,-2.81,358,283,209,437,363,29
464,0.51,0.81,0.29,0.18,-3.54,-2.32,357,282,210,442,363,29
465,0.52,0.8,0.28,-0.18,-3.91,-3.3,360,285,209,441,370,29
466,0.52,0.8,0.27,0.49,-2.32,-2.62,360,285,206,445,361,29
467,0.52,0.81,0.28,-0.85,-4.03,-3.17,357,284,209,437,366,29
468,0.53,0.81,0.27,0.98,-1.77,-2.87,357,281,206,440,365,29
469,0.52,0.81,0.28,0.18,-3.36,-2.32,364,281,211,441,362,29
470,0.52,0.8,0.27,-0.06,-2.26,-1.77,358,285,216,454,359,29
471,0.52,0.8,0.28,0.43,-2.99,-2.32,357,284,208,438,364,29
472,0.52,0.81,0.28,0.12,-3.36,-1.71,359,282,211,442,359,29
473,0.52,0.81,0.27,0.24,-3.05,-2.14,360,283,208,446,363,29
474,0.52,0.81,0.27,1.16,-2.75,-1.95,359,285,208,444,360,29
475,0.53,0.82,0.27,1.04,-2.26,-1.89,357,282,207,442,364,29
476,0.53,0.81,0.26,0.31,-2.81,-2.56,357,286,210,441,365,29
477,0.52,0.8,0.26,0.79,-2.62,-2.08,357,283,208,439,364,29
478,0.53,0.81,0.26,-0.18,-2.87,-2.99,360,286,207,446,364,29
479,0.53,0.81,0.27,-0.31,-1.59,-2.87,357,284,209,439,365,29
480,0.53,0.81,0.28,-0.37,-3.11,-2.93,360,282,206,442,362,29
481,0.52,0.79,0.26,-0.18,-3.97,-1.83,360,285,207,445,359,29
482,0.55,0.81,0.26,5.0,-7.51,0.12,360,285,208,445,362,29
483,0.53,0.81,0.25,2.2,-4.64,-1.83,355,282,209,443,363,29
484,0.55,0.82,0.24,2.56,-1.22,-3.36,359,282,208,442,365,29
485,0.55,0.79,0.24,0.79,-3.05,-4.52,360,285,209,441,365,29
486,0.53,0.82,0.25,1.04,-2.99,-2.62,361,285,206,446,363,29
487,0.54,0.82,0.24,1.71,-2.2,-3.72,356,282,204,436,362,29
488,0.52,0.82,0.26,-1.77,-1.65,-2.32,361,281,209,442,360,29
489,0.54,0.82,0.25,-0.06,-2.56,-2.38,356,282,208,442,363,29
490,0.53,0.81,0.25,0.24,-2.01,-1.89,397,283,203,442,362,29
491,0.54,0.82,0.25,2.69,-1.46,-3.05,357,282,203,443,359,29
492,0.52,0.82,0.26,0.24,-3.54,-2.81,360,281,208,442,363,29
493,0.52,0.8,0.25,0.92,-1.04,-0.79,358,278,208,438,363,29
494,0.52,0.8,0.25,-0.61,-3.54,-1.89,358,279,208,438,360,29
495,0.54,0.79,0.27,0.79,-0.92,-2.5,358,283,209,445,364,29
496,0.53,0.79,0.28,-0.49,-0.98,-4.76,360,285,208,441,362,29
497,0.58,0.83,0.27,1.28,-3.17,-6.35,356,285,206,447,363,29
498,0.56,0.83,0.27,1.4,-5.25,-5.37,358,283,206,441,366,29
499,0.53,0.8,0.28,-0.92,-1.89,-0.49,359,283,207,443,364,29
500,0.54,0.8,0.27,-0.12,-3.11,-1.77,356,280,207,446,364,29
501,0.55,0.8,0.28,-0.18,-2.32,-3.66,358,284,210,441,363,29
502,0.54,0.8,0.28,0.67,-2.5,-3.17,357,281,209,441,365,29
503,0.55,0.8,0.27,0.92,-3.17,-3.3,361,283,208,443,365,29
504,0.54,0.8,0.28,0.31,-3.11,-2.26,358,283,207,439,360,29
505,0.54,0.8,0.28,0.0,-2.69,-2.38,360,285,205,443,361,29
506,0.54,0.79,0.28,0.49,-2.26,-3.23,357,286,207,441,366,29
507,0.5,0.8,0.28,0.0,-4.27,-4.58,360,283,206,447,357,29
508,0.5,0.81,0.3,3.91,-2.87,-1.71,358,282,208,437,364,29
509,0.52,0.8,0.27,0.55,-5.86,-1.53,359,282,209,445,365,29
510,0.56,0.82,0.26,0.24,-4.09,-0.49,356,281,209,438,366,29
511,0.57,0.82,0.25,0.92,-4.64,-2.38,359,283,207,445,367,29
512,0.54,0.78,0.27,-0.67,-3.78,-4.88,361,281,208,444,363,29
513,0.42,0.89,0.19,-5.68,-10.68,-8.79,380,276,206,439,360,29
514,0.37,0.88,0.28,2.93,-1.4,-6.41,382,275,200,447,358,29
515,0.38,0.94,0.27,-2.5,-1.77,-2.14,384,280,198,444,362,29
516,0.39,0.88,0.3,-0.06,-1.16,-3.36,381,277,201,442,360,29
517,0.37,0.95,0.29,2.44,1.46,1.34,378,277,205,443,359,29
518,0.35,0.88,0.31,-5.74,-7.02,-2.08,378,280,206,443,361,29
519,0.41,0.82,0.27,-12.51,5.49,-4.64,378,277,202,438,358,29
520,0.37,0.86,0.33,-0.79,8.61,6.23,367,278,205,440,355,29
521,0.42,0.92,0.29,-8.18,-10.86,7.02,367,277,201,437,354,29
522,0.42,0.8,0.33,0.49,-0.61,-1.4,379,277,205,445,358,29
523,0.42,0.82,0.32,0.67,8.42,-13.67,367,277,205,439,355,29
524,0.45,0.85,0.35,4.64,-4.58,-3.78,370,276,201,438,358,29
525,0.42,0.84,0.33,-2.08,-2.56,-0.73,370,278,209,447,359,29
526,0.43,0.84,0.34,0.0,-1.1,1.71,369,280,200,457,357,29
527,0.44,0.83,0.34,2.44,-3.05,-1.46,370,278,202,445,359,29
528,0.44,0.84,0.33,-1.28,-3.11,-0.31,368,281,202,442,357,29
529,0.43,0.82,0.35,-0.55,-3.97,-1.95,370,280,203,444,358,29
530,0.44,0.83,0.33,2.56,-2.81,-3.23,371,281,199,447,358,29
531,0.46,0.84,0.3,5.98,-7.75,-1.22,368,277,202,438,357,29
532,0.46,0.83,0.32,2.56,-2.62,-3.3,369,275,202,443,358,29
533,0.48,0.85,0.3,-0.12,-1.53,-6.9,370,279,203,444,360,29
534,0.47,0.83,0.28,-0.79,-2.62,0.37,371,288,202,439,356,29
535,0.5,0.83,0.29,-1.22,-3.17,-1.65,368,281,203,443,360,29
536,0.5,0.82,0.29,3.23,-3.42,-2.08,370,278,203,445,353,29
537,0.49,0.82,0.29,0.18,-1.34,-0.73,366,278,202,444,357,29
538,0.49,0.82,0.31,-0.31,0.12,-4.39,365,278,205,442,356,29
539,0.49,0.82,0.3,2.5,-2.81,-5.25,370,280,205,444,357,29
540,0.48,0.82,0.3,0.67,-0.73,-3.17,365,285,202,442,358,29
541,0.49,0.85,0.31,-2.44,-0.31,-3.36,365,278,204,445,361,29
542,0.46,0.86,0.31,2.87,-4.88,-7.57,368,277,205,450,358,29
543,0.44,0.85,0.31,-3.23,-0.06,-9.28,367,275,202,437,358,29
544,0.46,0.8,0.29,0.79,-12.57,-6.16,366,279,201,448,359,29
545,0.46,0.8,0.27,3.72,-2.26,-0.67,367,278,204,442,360,29
546,0.5,0.85,0.23,6.35,-5.74,-2.44,362,277,205,440,360,29
547,0.5,0.82,0.24,-4.33,-1.95,-0.49,367,280,205,441,358,29
548,0.5,0.82,0.25,-1.46,-6.9,-3.05,368,277,202,437,356,29
549,0.51,0.81,0.24,-7.81,-2.69,-0.98,371,276,203,442,358,29
550,0.52,0.82,0.24,1.95,-1.83,-3.05,370,278,204,442,360,29
551,0.5,0.81,0.25,0.12,-2.62,-2.44,371,275,201,442,355,29
552,0.5,0.84,0.26,3.17,0.24,-3.66,369,277,204,439,357,29
553,0.53,0.86,0.25,2.5,0.85,-4.88,369,277,202,442,358,29
554,0.51,0.86,0.23,4.64,0.0,-1.95,368,278,201,443,360,29
555,0.51,0.86,0.27,0.55,-0.24,-2.44,364,277,205,443,356,29
556,0.54,0.82,0.27,6.77,-1.83,-5.49,368,279,204,446,355,29
557,0.51,0.79,0.25,3.48,-8.18,-2.81,365,280,202,446,358,29
558,0.5,0.82,0.27,-5.8,-7.51,-3.54,379,280,203,444,358,29
559,0.52,0.81,0.25,0.85,-8.06,-4.03,368,280,201,443,358,29
560,0.5,0.82,0.25,6.65,-3.72,-4.21,370,278,202,437,358,29
561,0.51,0.85,0.27,4.15,-1.65,-6.29,370,277,204,443,356,29
562,0.49,0.86,0.26,5.92,-4.39,-1.71,372,278,203,437,359,29
563,0.49,0.82,0.24,0.31,-4.33,-2.44,367,277,199,446,357,29
564,0.5,0.84,0.24,0.49,-2.38,-2.2,371,278,203,440,361,29
565,0.52,0.84,0.24,2.81,-3.3,-3.48,369,277,205,442,358,29
566,0.5,0.83,0.24,2.01,-1.77,-3.48,368,278,200,443,357,29
567,0.51,0.82,0.23,2.93,-1.83,-2.26,368,280,202,448,360,29
568,0.52,0.81,0.23,-4.46,3.78,-5.86,367,277,205,442,360,29
569,0.5,0.82,0.26,-0.67,-2.69,0.24,396,279,205,442,358,29
570,0.51,0.82,0.27,2.26,-3.66,-2.44,364,280,204,442,361,29
571,0.5,0.81,0.27,1.34,0.12,-4.27,368,280,202,443,361,29
572,0.5,0.81,0.26,1.59,-2.93,-3.05,368,281,201,446,362,29
573,0.5,0.82,0.27,-0.24,-3.78,-2.93,365,281,203,446,359,29
574,0.49,0.82,0.27,0.06,-4.76,-2.2,370,278,201,445,359,29
575,0.49,0.83,0.28,1.4,-2.75,-2.62,366,278,199,442,355,29
576,0.47,0.81,0.26,-1.89,-1.71,-1.59,367,275,205,440,361,29
577,0.51,0.83,0.24,1.4,-1.16,-2.08,365,277,197,443,355,29
578,0.49,0.83,0.24,1.95,-3.72,-1.04,357,279,204,442,361,29
579,0.5,0.83,0.24,1.04,-3.97,-0.92,365,277,204,445,356,29
580,0.49,0.82,0.24,-0.49,-2.08,-0.67,363,276,205,442,357,29
581,0.51,0.83,0.25,-0.24,-2.62,-2.62,370,277,203,448,360,29
582,0.51,0.83,0.26,-1.46,-2.2,-1.34,370,279,204,444,359,29
583,0.52,0.83,0.25,-0.12,-3.6,-1.95,369,279,204,443,361,29
584,0.51,0.82,0.25,1.16,-2.87,-3.05,366,281,202,441,359,29
585,0.51,0.82,0.25,-1.16,-2.38,-1.65,370,276,217,442,359,29
586,0.52,0.82,0.25,0.31,-3.3,-2.81,366,277,202,442,355,29
587,0.52,0.82,0.25,-1.16,-2.56,-2.08,368,279,202,448,360,29
588,0.51,0.83,0.26,1.04,-2.5,-2.56,368,281,204,442,358,29
589,0.52,0.82,0.26,2.87,-2.26,-1.83,367,280,204,442,360,29
590,0.52,0.82,0.25,1.1,-1.53,-3.17,365,278,207,444,360,29
591,0.52,0.83,0.25,2.81,-5.07,-2.38,367,277,204,439,360,29
592,0.51,0.82,0.26,1.59,-0.55,-3.23,365,279,203,437,354,29
593,0.5,0.81,0.27,-0.73,-2.26,1.34,367,280,205,442,359,29
594,0.52,0.82,0.27,-0.49,-1.83,-1.71,366,279,201,440,358,29
595,0.51,0.82,0.27,0.98,-4.09,-3.17,368,278,204,445,360,29
596,0.52,0.81,0.26,0.06,-3.11,-2.2,369,281,205,442,360,29
597,0.52,0.82,0.26,0.06,-3.3,-2.01,365,284,205,445,358,29
598,0.51,0.82,0.27,-0.43,-2.14,-2.08,367,278,206,441,355,29
599,0.52,0.82,0.25,3.05,-2.87,-4.94,366,280,205,448,365,29
600,0.51,0.82,0.25,2.01,-2.87,-1.89,365,276,201,437,361,29
601,0.5,0.82,0.25,-0.55,-1.95,-2.93,369,281,203,442,360,29
602,0.52,0.82,0.24,-0.12,-3.3,-1.77,371,278,202,443,359,29
603,0.51,0.83,0.26,0.12,-3.23,-2.44,366,279,202,441,356,29
604,0.52,0.83,0.24,0.0,-2.38,-2.75,370,278,204,437,357,29
605,0.52,0.82,0.25,-0.18,-3.05,-0.79,367,279,203,443,359,29
606,0.52,0.81,0.24,1.22,-3.78,-1.16,364,280,207,441,360,29
607,0.51,0.83,0.24,1.46,-2.01,-2.69,369,283,205,442,362,29
608,0.53,0.83,0.25,-0.61,-5.62,-0.37,365,279,219,438,361,29
609,0.52,0.82,0.25,1.22,-1.34,-3.42,370,278,202,442,359,29
610,0.51,0.83,0.25,-2.75,-3.72,-2.32,369,280,202,445,361,29
611,0.53,0.8,0.25,0.0,-3.91,-1.34,367,278,202,436,359,29
612,0.52,0.81,0.24,-1.4,-3.6,-1.28,368,279,201,451,357,29
613,0.54,0.81,0.25,2.26,-3.05,-0.79,367,277,204,437,360,29
614,0.52,0.8,0.25,-1.34,-1.65,-1.16,368,281,207,442,359,29
615,0.53,0.82,0.27,1.04,-2.56,-2.38,368,281,202,443,359,29
616,0.54,0.8,0.26,0.61,-2.01,-3.23,378,283,210,444,359,29
617,0.53,0.81,0.27,0.61,-1.28,-2.62,365,278,202,446,360,29
618,0.51,0.81,0.26,0.24,-3.17,-3.05,369,278,203,440,360,29
619,0.52,0.8,0.26,-1.04,-3.6,-4.64,364,277,204,444,357,29
620,0.52,0.81,0.27,0.18,-3.3,-2.81,369,282,206,442,362,29
621,0.52,0.8,0.25,1.28,-4.46,-4.27,369,279,203,440,360,29
622,0.52,0.81,0.26,0.12,-2.81,-1.89,366,280,203,442,361,29
623,0.51,0.82,0.26,-1.83,-2.99,-2.81,368,281,204,443,360,29
624,0.52,0.81,0.25,0.49,-3.05,-2.44,367,288,205,440,362,29
625,0.53,0.83,0.29,-6.35,-2.87,2.01,368,279,204,440,360,29
626,0.55,0.82,0.27,-2.38,-5.25,-1.83,367,282,202,445,360,29
627,0.53,0.79,0.26,-1.28,-2.44,-3.97,368,278,207,435,360,29
628,0.53,0.82,0.28,1.34,-1.53,2.38,368,279,207,443,361,29
629,0.54,0.79,0.27,0.73,-3.66,-1.34,366,279,208,446,360,29
630,0.53,0.8,0.28,2.01,-0.12,-4.03,371,278,219,442,359,29
631,0.53,0.76,0.27,-3.78,-6.47,-3.85,368,281,207,441,359,29
632,0.52,0.77,0.28,-1.28,-5.92,-4.21,367,278,206,440,358,29
633,0.52,0.79,0.28,-1.65,-2.75,-2.69,370,278,203,439,361,29
634,0.54,0.79,0.29,0.67,-3.36,-1.1,370,279,209,441,356,29
635,0.55,0.8,0.29,0.61,-3.54,-2.2,370,279,203,441,360,29
636,0.56,0.8,0.28,2.99,-3.48,-3.66,370,281,217,436,356,29
637,0.53,0.8,0.28,2.2,-2.99,-4.09,368,277,204,443,359,29
638,0.56,0.79,0.26,0.55,-4.58,-1.89,369,276,205,439,359,29
639,0.55,0.78,0.29,-1.4,-3.48,0.79,370,279,204,441,358,29
640,0.54,0.77,0.28,-3.97,-4.52,-3.05,368,279,206,445,360,29
641,0.53,0.78,0.28,4.52,-0.85,-6.29,370,278,208,439,359,29
642,0.54,0.8,0.29,-1.4,-2.62,-3.23,372,280,206,445,364,29
643,0.55,0.8,0.28,1.89,-3.05,-3.85,367,279,202,440,360,29
644,0.56,0.82,0.27,4.39,-1.22,-3.66,368,281,206,440,363,29
645,0.55,0.81,0.28,1.77,-4.64,-4.58,368,282,201,440,354,29
646,0.56,0.81,0.26,4.33,-3.42,-1.71,370,280,206,442,358,29
647,0.55,0.81,0.27,1.89,-3.72,-6.23,369,280,203,444,361,29
648,0.53,0.79,0.27,-2.01,-4.21,-2.5,369,279,207,441,361,29
649,0.52,0.81,0.27,-3.17,-2.38,-2.2,367,280,203,441,362,29
650,0.55,0.79,0.29,2.56,-2.5,-2.26,369,281,203,442,362,29
651,0.54,0.8,0.29,1.16,-2.01,-3.23,369,278,206,441,360,29
652,0.55,0.79,0.26,1.65,-3.78,-0.61,369,278,203,441,360,29
653,0.53,0.79,0.27,1.04,0.31,-4.52,368,279,204,439,358,29
654,0.54,0.81,0.26,1.53,-3.6,-0.18,371,282,207,442,358,29
655,0.54,0.8,0.27,-0.85,-2.32,-1.28,370,280,207,442,362,29
656,0.56,0.79,0.26,1.83,-5.19,-1.71,369,279,206,442,359,29
657,0.55,0.8,0.26,0.98,-4.27,-2.5,371,279,218,442,362,29
658,0.55,0.79,0.26,-0.61,-3.54,-3.05,371,282,206,436,356,29
659,0.54,0.79,0.27,-3.54,-2.5,-0.73,368,278,204,441,359,29
660,0.55,0.8,0.26,0.31,-3.85,-1.95,368,276,205,436,359,29
661,0.54,0.8,0.27,-1.77,-1.65,-2.32,369,279,201,440,360,29
662,0.53,0.8,0.27,1.46,-2.2,-2.93,372,280,204,436,360,29
663,0.55,0.79,0.27,0.18,-1.4,-2.75,370,282,203,439,359,29
664,0.55,0.8,0.27,-0.24,-2.32,-1.22,369,285,204,445,356,29
665,0.55,0.78,0.28,2.2,-3.05,-2.75,368,281,208,445,361,29
666,0.55,0.79,0.27,1.71,-3.3,-3.54,369,279,204,442,361,29
667,0.54,0.8,0.27,1.4,-4.39,-5.31,368,281,204,442,360,29
668,0.56,0.82,0.28,3.78,-2.26,-2.14,369,281,207,441,360,29
669,0.55,0.8,0.26,0.24,-4.33,-3.6,369,278,204,440,360,29
670,0.54,0.81,0.27,-2.14,-3.66,-6.71,367,285,204,442,361,29
671,0.54,0.81,0.28,-2.01,-2.75,-0.31,370,280,201,436,356,29
672,0.56,0.81,0.28,0.73,-4.76,-3.78,367,288,203,439,360,29
673,0.55,0.8,0.29,-1.1,-1.28,-2.38,370,276,205,445,357,29
674,0.54,0.8,0.28,3.05,-4.03,1.04,367,279,213,441,362,29
675,0.56,0.78,0.27,-0.43,-3.36,-1.65,368,281,201,445,356,29
676,0.55,0.78,0.28,0.43,-1.95,-4.09,371,284,209,443,356,29
677,0.55,0.79,0.27,0.37,-2.75,-2.44,368,282,209,445,360,29
678,0.55,0.79,0.29,1.04,-3.97,-2.75,372,275,204,442,358,29
679,0.56,0.78,0.28,1.28,-4.15,-2.62,368,277,204,441,362,29
680,0.55,0.79,0.29,0.18,-2.38,-2.56,368,281,209,444,361,29
681,0.55,0.79,0.28,-0.31,-3.17,-4.58,370,282,207,437,358,29
682,0.56,0.79,0.26,1.83,-3.3,-2.14,368,277,206,441,362,29
683,0.55,0.79,0.28,0.12,-3.72,-2.38,366,282,203,442,362,29
684,0.56,0.78,0.27,-1.77,-2.32,-2.99,367,282,207,439,360,29
685,0.55,0.79,0.27,1.71,-2.93,-1.83,367,279,203,441,361,29
686,0.55,0.78,0.27,-0.61,-2.5,-2.81,368,281,204,438,360,29
687,0.55,0.78,0.27,1.16,-3.78,-3.3,375,279,205,444,357,29
688,0.54,0.8,0.28,1.59,-3.3,-0.67,368,278,204,437,357,29
689,0.55,0.79,0.27,1.53,-2.26,-2.14,368,280,203,442,361,29
690,0.55,0.8,0.26,1.77,-2.26,-3.17,368,280,204,442,361,29
691,0.56,0.8,0.26,-1.4,-1.71,-3.6,365,281,203,442,361,29
692,0.56,0.8,0.26,-0.12,-3.42,-2.01,370,282,205,442,362,29
693,0.56,0.81,0.27,1.22,-2.2,-4.03,369,280,207,441,361,29
694,0.56,0.8,0.26,2.14,-3.42,-1.83,370,279,207,442,357,29
695,0.55,0.8,0.25,-0.43,-3.23,-2.99,369,279,203,435,359,29
696,0.56,0.78,0.26,-2.69,-3.66,-2.69,370,279,207,441,361,29
697,0.55,0.79,0.26,0.61,-2.01,-1.77,371,275,203,444,360,29
698,0.55,0.79,0.27,-0.06,-2.87,-3.54,365,279,204,444,364,29
699,0.55,0.8,0.26,1.53,-2.87,-2.44,366,280,203,445,364,29
700,0.55,0.8,0.27,0.24,-3.48,-2.81,368,280,211,442,359,29
701,0.54,0.8,0.28,-0.18,-2.5,-1.71,368,280,207,443,362,29
702,0.54,0.79,0.28,-0.49,-2.62,-1.65,367,281,207,440,361,29
703,0.54,0.79,0.28,-2.26,-2.69,-1.83,371,279,202,444,362,29
704,0.55,0.78,0.28,-0.73,-2.38,-2.08,368,280,206,442,361,29
705,0.55,0.79,0.29,-0.79,-2.44,-3.3,365,282,206,442,362,29
706,0.55,0.78,0.28,-0.37,-3.11,-2.93,369,280,207,442,363,29
707,0.54,0.79,0.28,1.4,-3.17,-2.2,374,281,205,438,361,29
708,0.54,0.79,0.29,-0.37,-1.65,-2.93,371,282,207,436,357,29
709,0.55,0.79,0.28,1.16,-2.14,-2.75,369,280,207,440,363,29
710,0.55,0.8,0.28,1.4,-3.48,-2.99,371,279,208,445,360,29
711,0.54,0.79,0.28,-0.12,-2.93,-2.56,367,279,205,444,360,29
712,0.55,0.79,0.28,0.98,-4.88,-1.28,370,280,208,441,362,29
713,0.53,0.78,0.28,-0.06,-2.32,-2.62,369,282,205,440,362,29
714,0.54,0.8,0.28,-0.73,-1.34,-2.44,371,279,207,445,363,29
715,0.55,0.8,0.29,0.73,-3.11,-2.62,366,282,203,440,359,29
716,0.54,0.79,0.28,-0.49,-2.01,-3.6,367,280,206,441,360,29
717,0.54,0.8,0.28,-1.16,-2.44,-2.93,369,281,207,442,361,29
718,0.54,0.8,0.29,0.67,-1.83,-1.53,369,280,205,446,362,29
719,0.56,0.8,0.29,-0.92,-3.23,-1.65,365,278,203,440,362,29
720,0.55,0.79,0.28,-0.24,-2.14,-2.93,371,279,205,443,361,29
721,0.54,0.78,0.3,1.34,-3.48,-2.32,382,282,204,443,361,29
722,0.55,0.79,0.29,1.22,-2.69,-2.62,366,285,206,442,361,29
723,0.55,0.79,0.29,-0.24,-3.11,-2.2,368,281,204,442,363,29
724,0.57,0.79,0.3,1.34,-1.83,-1.95,368,284,204,445,362,29
725,0.56,0.79,0.3,0.37,-3.42,-2.93,372,279,206,438,363,29
726,0.54,0.77,0.3,-2.32,-4.15,-2.99,373,280,206,440,362,29
727,0.55,0.79,0.31,-0.24,-1.89,-1.53,369,283,203,440,361,29
728,0.55,0.77,0.31,-0.67,-2.5,-0.73,370,283,208,442,361,29
729,0.57,0.78,0.3,0.18,-2.93,-2.2,367,282,205,440,362,29
730,0.55,0.77,0.32,-0.79,-3.11,-2.08,367,279,203,438,361,29
731,0.58,0.79,0.3,0.73,-2.2,-3.23,366,281,205,441,361,29
732,0.56,0.78,0.3,-3.36,-3.78,-3.72,370,281,208,441,360,29
733,0.53,0.75,0.34,1.4,2.26,-12.88,369,282,205,441,362,29
734,0.49,0.82,0.37,0.37,0.85,-6.1,371,286,207,444,364,29
735,0.37,0.77,0.45,5.74,-3.42,4.09,369,279,206,445,359,29
736,0.41,0.88,0.38,-0.85,0.06,-11.9,369,280,203,442,362,29
737,0.41,0.8,0.38,-4.64,-2.81,-6.16,369,282,208,441,362,29
738,0.42,0.79,0.41,1.28,-1.04,-2.08,370,281,206,443,365,29
739,0.4,0.85,0.44,-0.43,-0.06,0.0,369,280,205,445,364,29
740,0.36,0.78,0.43,-1.77,0.98,-3.11,372,280,209,445,363,29
741,0.39,0.84,0.48,-1.89,-1.1,-11.41,368,280,208,436,363,29
742,0.39,0.79,0.43,0.06,-4.76,-11.6,368,279,210,443,363,29
743,0.38,0.82,0.47,0.49,-1.59,-3.05,366,279,208,437,363,29
744,0.36,0.82,0.44,0.92,-4.15,-1.46,368,282,205,439,361,29
745,0.4,0.8,0.41,0.98,-6.53,-2.5,375,292,207,440,361,29
746,0.38,0.82,0.41,3.78,-1.83,-1.34,367,279,201,443,362,29
747,0.41,0.81,0.41,3.54,-2.62,-2.5,368,281,202,442,363,29
748,0.4,0.81,0.4,0.67,-3.05,-0.85,366,280,204,444,363,29
749,0.37,0.82,0.4,4.58,-1.22,1.22,372,283,203,444,361,29
750,0.41,0.84,0.39,0.31,-0.37,-0.98,367,283,204,444,364,29
751,0.42,0.8,0.38,-0.06,-4.7,-2.01,369,282,206,441,363,29
752,0.42,0.83,0.37,-2.32,-3.48,-2.01,367,281,202,442,362,29
753,0.42,0.89,0.37,-5.25,0.49,0.85,369,282,206,438,360,29
754,0.44,0.87,0.37,-1.28,-1.16,0.06,364,281,205,442,362,29
755,0.44,0.84,0.39,-0.12,-2.32,-5.37,396,281,202,436,366,29
756,0.42,0.83,0.38,-1.04,-2.14,0.92,369,282,204,444,375,29
757,0.44,0.79,0.38,-0.61,-2.56,-2.01,366,294,207,441,365,29
758,0.45,0.81,0.38,0.37,-3.97,-2.38,371,283,205,445,361,29
759,0.45,0.81,0.39,-0.24,-1.59,-2.5,371,283,206,441,363,29
760,0.44,0.8,0.38,-2.26,-3.6,-2.08,368,282,204,442,364,29
761,0.45,0.81,0.38,-0.24,-2.99,-1.71,370,282,204,442,361,29
762,0.45,0.81,0.37,-0.49,-3.11,-1.34,367,281,204,445,360,29
763,0.43,0.81,0.39,-1.1,-3.78,-0.73,371,278,205,441,362,29
764,0.48,0.8,0.39,-15.44,-4.15,-5.74,365,280,205,441,364,29
765,0.44,0.82,0.39,1.83,-1.46,-1.53,369,282,203,441,360,29
766,0.45,0.82,0.39,-3.11,-2.69,-3.91,369,282,203,437,366,29
767,0.46,0.81,0.38,-1.89,-3.54,-1.1,368,282,205,440,360,29
768,0.47,0.8,0.38,-0.31,-3.97,-2.56,366,280,205,440,363,29
769,0.47,0.8,0.4,3.36,-1.28,-2.56,366,284,203,442,360,29
770,0.47,0.82,0.4,3.36,-3.36,-2.87,367,281,205,445,364,29
771,0.45,0.82,0.38,0.12,-4.58,-1.65,365,283,204,445,366,29
772,0.47,0.82,0.36,0.73,-4.76,-5.62,369,281,205,435,364,29
773,0.44,0.8,0.37,2.5,-0.31,-4.09,365,284,204,442,366,29
774,0.46,0.83,0.39,-0.12,-4.64,-5.92,365,283,205,440,366,29
775,0.47,0.81,0.33,-1.46,-2.38,-2.44,366,282,205,441,364,29
776,0.45,0.78,0.35,-3.17,-5.13,-0.92,367,282,208,444,359,29
777,0.46,0.82,0.36,0.49,-3.42,0.85,368,281,205,436,364,29
778,0.44,0.77,0.38,-2.2,-0.49,-4.94,365,281,207,440,362,29
779,0.46,0.82,0.39,2.87,2.14,-3.23,367,281,207,444,366,29
780,0.45,0.8,0.4,-2.08,-2.44,-0.67,363,283,207,443,366,29
781,0.47,0.81,0.4,-0.92,-4.33,0.67,363,287,207,448,364,29
782,0.47,0.81,0.38,0.92,-1.89,0.12,365,283,206,446,366,29
783,0.49,0.8,0.34,7.32,-3.42,-1.34,364,281,205,442,367,29
784,0.46,0.8,0.37,-1.46,-4.46,-1.83,366,277,204,437,362,29
785,0.47,0.82,0.39,-0.98,-1.34,-3.36,364,284,202,441,357,29
786,0.45,0.83,0.39,-1.4,-2.5,-1.71,363,280,208,443,361,29
787,0.46,0.82,0.38,-0.18,-3.97,-2.56,362,281,208,438,364,29
788,0.47,0.8,0.37,-1.53,-3.6,-2.81,361,281,204,441,360,29
789,0.49,0.79,0.36,0.12,-3.23,-2.69,362,284,211,441,364,29
790,0.45,0.81,0.4,-3.36,-0.43,-4.46,361,281,205,445,366,29
791,0.47,0.79,0.37,0.43,-4.64,-2.32,360,285,207,440,365,29
792,0.47,0.81,0.37,2.44,-3.17,-1.65,362,281,208,436,360,29
793,0.45,0.79,0.37,-2.08,-5.49,-0.79,360,282,207,444,360,29
794,0.47,0.82,0.38,-1.34,-4.15,-5.49,360,284,204,445,370,29
795,0.45,0.8,0.39,-0.49,-4.33,-1.83,361,284,206,440,360,29
796,0.45,0.83,0.37,-0.49,-3.3,-4.21,365,283,206,443,367,29
797,0.5,0.87,0.39,13.18,-9.52,9.83,356,281,206,440,364,29
798,0.45,0.86,0.39,29.6,-1.83,-23.19,362,281,207,442,359,29
799,0.42,0.82,0.33,7.45,-5.43,-0.98,359,283,208,437,362,29
800,0.41,0.8,0.28,3.23,-1.1,-0.79,362,282,206,443,365,29
801,0.48,0.87,0.24,8.42,-9.77,-0.37,363,283,203,446,363,29
802,0.5,0.88,0.22,1.16,-1.59,1.16,363,281,208,438,363,29
803,0.48,0.81,0.25,-2.44,-5.8,-3.05,364,279,207,443,365,29
804,0.51,0.88,0.21,3.42,-1.04,0.49,362,281,205,432,366,29
805,0.49,0.81,0.2,-3.85,-4.94,1.1,364,279,207,442,364,29
806,0.57,0.81,0.24,5.43,1.46,3.78,363,278,205,445,363,29
807,0.53,0.78,0.26,-0.49,0.98,-4.21,363,281,204,436,364,29
808,0.53,0.78,0.25,7.75,4.03,2.93,357,277,205,440,365,29
809,0.58,0.78,0.23,1.77,-3.11,2.01,361,280,205,445,364,29
810,0.58,0.79,0.21,3.11,-1.83,-5.0,362,280,206,444,366,29
811,0.55,0.79,0.22,0.18,-5.31,-6.35,363,279,201,444,362,29
812,0.55,0.8,0.22,0.31,-2.32,-3.97,361,281,206,441,364,29
813,0.53,0.8,0.23,-1.89,-2.69,-4.03,361,280,205,443,366,29
814,0.53,0.81,0.25,-2.08,-2.44,-1.28,358,278,205,441,364,29
815,0.54,0.79,0.24,0.92,-4.15,-0.55,363,284,208,440,371,29
816,0.55,0.79,0.25,-0.61,-2.62,-1.34,361,283,205,443,364,29
817,0.58,0.75,0.24,-11.6,-4.58,1.34,362,280,208,442,361,29
818,0.56,0.8,0.28,0.37,-3.05,-4.52,360,286,209,445,363,29
819,0.57,0.79,0.25,1.34,-3.23,-3.85,361,284,207,441,363,29
820,0.58,0.8,0.26,2.75,-2.44,-1.83,366,283,220,444,365,29
821,0.57,0.8,0.25,1.22,-2.14,-3.17,360,282,210,442,364,29
822,0.54,0.79,0.27,0.92,-2.2,-3.66,360,284,204,442,367,29
823,0.55,0.8,0.26,0.43,-2.99,-2.38,361,283,207,442,362,29
824,0.55,0.79,0.25,0.12,-4.64,-1.83,359,296,206,445,363,29
825,0.56,0.79,0.24,0.79,-3.17,-3.54,361,284,201,443,363,29
826,0.55,0.8,0.25,-0.12,-2.69,-2.5,360,282,209,441,364,29
827,0.57,0.8,0.25,2.01,-3.66,-2.56,362,282,209,442,364,29
828,0.55,0.79,0.25,0.18,-2.2,-1.65,362,281,207,445,364,29
829,0.57,0.8,0.25,-0.98,-2.26,-2.75,359,284,206,442,365,29
830,0.56,0.79,0.26,-0.98,-1.22,-2.75,356,283,206,440,365,29
831,0.57,0.79,0.26,2.93,-3.36,-2.62,359,281,204,443,364,29
832,0.56,0.78,0.25,1.46,-2.93,-1.95,359,282,206,441,367,29
833,0.56,0.78,0.25,-0.67,-2.38,-2.93,359,280,206,440,365,29
834,0.57,0.78,0.25,0.18,-1.77,-1.83,360,283,208,441,366,29
835,0.57,0.78,0.25,0.37,-2.26,-3.23,362,279,209,442,364,29
836,0.57,0.79,0.25,0.12,-2.44,-2.56,358,282,207,444,365,29
837,0.56,0.79,0.25,-0.12,-2.5,-2.14,361,283,210,447,365,29
838,0.56,0.78,0.26,-0.79,-2.75,-2.38,361,281,208,441,366,29
839,0.58,0.77,0.25,-0.43,-1.89,-1.95,360,281,203,442,368,29
840,0.59,0.78,0.27,-2.62,-3.78,-2.32,360,281,214,441,361,29
841,0.58,0.77,0.28,-2.93,-1.77,-3.17,360,284,202,443,362,29
842,0.56,0.75,0.29,-0.92,-5.25,-4.88,360,285,206,441,362,29
843,0.58,0.75,0.29,-1.71,-4.33,-2.01,359,282,206,444,362,29
844,0.56,0.76,0.3,0.0,-3.66,-2.01,381,283,207,442,363,29
845,0.58,0.74,0.29,-0.31,-3.91,-2.32,364,281,207,443,363,29
846,0.57,0.76,0.3,-1.46,-2.2,-3.3,359,298,209,441,363,29
847,0.59,0.76,0.29,2.32,-5.07,-5.92,360,281,206,442,365,29
848,0.56,0.78,0.28,7.02,1.59,-8.18,361,282,208,440,359,29
849,0.54,0.82,0.28,-5.98,2.93,-12.39,358,281,204,444,360,29
850,0.54,0.83,0.29,2.87,-8.12,-6.96,361,281,219,441,362,29
851,0.46,0.85,0.27,3.36,1.89,-9.89,359,282,212,434,363,29
852,0.49,0.85,0.26,1.77,-2.38,-0.06,357,281,206,438,363,29
853,0.49,0.85,0.26,-1.04,-1.89,-3.66,359,284,206,444,364,29
854,0.46,0.85,0.26,-0.24,-2.99,-3.6,359,281,205,442,366,29
855,0.46,0.86,0.27,0.61,-2.93,-0.55,361,280,203,443,360,29
856,0.46,0.84,0.26,1.83,-3.11,-0.24,359,284,206,439,366,29
857,0.46,0.84,0.26,0.31,-2.5,-2.87,358,284,209,438,364,29
858,0.46,0.84,0.28,-2.08,-2.75,-2.5,368,284,206,438,365,29
859,0.47,0.84,0.27,2.14,-3.17,-2.99,359,281,204,440,364,29
860,0.48,0.85,0.26,3.17,-4.88,-3.17,357,281,206,444,365,29
861,0.48,0.84,0.27,-0.37,-1.53,-3.17,359,284,208,446,363,29
862,0.48,0.85,0.25,2.93,-0.79,-5.62,359,283,208,445,365,29
863,0.47,0.84,0.25,1.71,-1.83,-2.56,358,276,211,440,362,29
864,0.47,0.85,0.26,-0.92,-4.09,-2.26,359,284,206,445,365,29
865,0.48,0.83,0.27,0.06,-2.32,-2.14,358,284,207,437,361,29
866,0.49,0.85,0.26,0.31,-2.44,-5.55,360,281,204,441,363,29
867,0.48,0.85,0.26,3.48,-6.9,-2.93,357,284,207,445,364,29
868,0.48,0.84,0.25,0.85,-3.36,-2.44,358,283,206,446,363,29
869,0.46,0.83,0.25,1.53,-2.69,-2.26,361,288,209,441,366,29
870,0.47,0.86,0.25,0.73,-5.43,-3.6,358,278,206,443,359,29
871,0.43,0.87,0.25,-0.31,-4.7,-1.4,357,280,205,442,361,29
872,0.44,0.86,0.24,-0.61,-3.17,1.04,360,282,215,441,363,29
873,0.47,0.85,0.24,-2.08,-6.47,1.34,360,281,205,442,361,29
874,0.49,0.84,0.24,-0.31,-0.31,0.24,366,282,205,441,363,29
875,0.5,0.79,0.23,-0.92,-5.86,-1.59,359,282,206,442,359,29
876,0.54,0.82,0.23,0.49,-2.62,-1.59,358,287,209,441,359,29
877,0.51,0.83,0.22,-0.67,-5.13,-3.72,358,281,207,439,360,29
878,0.5,0.84,0.21,0.67,-4.27,-8.54,360,281,208,446,361,29
879,0.46,0.87,0.21,1.77,-1.1,-7.75,358,281,208,443,362,29
880,0.43,0.86,0.22,-0.55,-2.44,2.56,359,284,207,442,364,29
881,0.47,0.84,0.21,0.31,-4.27,1.95,357,283,206,441,366,29
882,0.47,0.84,0.21,-0.12,-1.89,-1.59,353,282,206,443,363,29
883,0.52,0.84,0.23,2.14,-4.7,-5.49,356,281,207,441,362,29
884,0.51,0.82,0.21,-2.69,-3.78,-0.67,358,282,206,445,365,29
885,0.5,0.85,0.23,3.6,-3.48,-5.55,356,281,208,445,365,29
886,0.49,0.85,0.22,0.18,-1.22,-1.95,357,282,207,440,363,29
887,0.48,0.83,0.23,-0.31,-4.94,-4.27,359,285,205,446,361,29
888,0.5,0.84,0.23,2.32,-3.85,-1.71,360,280,209,447,363,29
889,0.5,0.84,0.23,-0.43,-2.93,-2.56,357,281,211,444,365,29
890,0.5,0.83,0.25,-1.28,-3.11,-1.46,360,282,206,438,365,29
891,0.5,0.82,0.25,-2.26,0.31,-1.04,360,281,213,440,363,29
892,0.53,0.82,0.25,-0.43,-5.74,-2.32,361,284,205,440,359,29
893,0.51,0.82,0.25,-1.53,-2.5,-1.65,356,282,220,441,362,29
894,0.53,0.82,0.25,-1.28,-2.44,-3.42,351,280,208,440,365,29
895,0.5,0.81,0.25,-1.16,-2.26,-0.06,359,281,206,441,364,29
896,0.52,0.82,0.24,0.18,-3.05,-0.98,359,283,205,441,360,29
897,0.53,0.82,0.25,0.24,-3.11,-3.05,353,284,206,444,363,29
898,0.52,0.81,0.25,1.71,-3.3,-2.62,357,285,210,444,364,29
899,0.52,0.79,0.24,2.14,-3.05,-3.23,362,284,206,442,364,29
900,0.51,0.82,0.24,1.59,-3.23,-2.62,355,294,207,438,363,29
901,0.51,0.82,0.24,2.2,-3.48,-2.32,357,279,206,448,365,29
902,0.52,0.83,0.24,0.73,-5.19,-2.93,355,283,206,440,360,29
903,0.51,0.82,0.25,0.79,0.61,-2.56,357,281,208,440,364,29
904,0.51,0.82,0.24,-0.12,-3.66,-2.38,358,281,208,441,365,29
905,0.52,0.83,0.25,-1.16,-3.17,-2.69,357,294,205,442,363,29
906,0.51,0.81,0.25,-0.18,-2.87,-1.65,357,282,204,441,366,29
907,0.52,0.82,0.25,-0.37,-2.87,-2.69,358,283,208,443,363,29
908,0.52,0.82,0.25,0.12,-2.62,-3.3,360,281,208,443,367,29
909,0.52,0.82,0.26,0.18,-2.26,-1.4,358,283,208,445,362,29
910,0.52,0.81,0.25,0.37,-2.93,-2.01,361,281,209,443,366,29
911,0.52,0.82,0.26,0.43,-2.44,-2.93,364,280,203,438,363,29
912,0.51,0.82,0.26,1.1,-3.11,-2.99,359,283,206,439,365,29
913,0.51,0.82,0.25,-0.12,-1.83,-3.3,357,281,209,442,362,29
914,0.52,0.82,0.25,3.05,-2.44,-3.78,359,283,205,445,361,29
915,0.51,0.83,0.27,-0.06,-1.83,-2.08,356,283,203,443,363,29
916,0.52,0.78,0.24,4.33,-7.14,0.98,358,282,209,443,363,29
917,0.51,0.8,0.21,0.18,-6.59,-1.95,355,282,206,444,362,29
918,0.52,0.81,0.22,0.98,-3.97,-1.53,359,288,211,441,363,29
919,0.51,0.83,0.23,-0.67,-1.1,-5.07,356,284,209,444,362,29
920,0.52,0.83,0.23,1.95,-2.93,-0.18,356,280,206,441,366,29
921,0.53,0.83,0.21,-0.67,-3.05,-1.65,355,283,206,437,364,29
922,0.52,0.81,0.22,0.55,-2.75,-2.93,357,284,206,443,362,29
923,0.53,0.83,0.23,1.77,-3.42,-2.87,358,279,211,442,363,29
924,0.52,0.81,0.22,-0.31,-3.36,-0.92,353,282,209,444,365,29
925,0.52,0.81,0.22,-0.67,-2.08,-1.4,357,284,205,444,364,29
926,0.52,0.81,0.23,0.0,-2.69,-2.75,359,282,206,442,363,29
927,0.52,0.82,0.22,0.24,-2.2,-3.48,359,283,207,436,361,29
928,0.52,0.82,0.23,0.0,-3.97,-1.77,357,282,205,443,365,29
929,0.52,0.82,0.24,-0.37,-1.53,-2.69,358,284,208,445,366,29
930,0.53,0.81,0.24,-2.99,0.37,1.77,358,284,206,450,359,29
931,0.54,0.77,0.26,-10.38,-9.46,2.38,357,284,207,446,366,29
932,0.6,0.84,0.26,-8.97,0.0,-10.99,357,282,209,444,365,29
933,0.5,0.83,0.26,7.63,1.53,-4.15,357,283,210,443,363,29
934,0.5,0.82,0.27,-8.79,4.09,-9.46,350,280,207,436,363,29
935,0.48,0.81,0.29,-1.04,-4.82,0.49,356,282,208,443,375,29
936,0.5,0.81,0.28,0.06,-4.15,-0.98,358,282,209,445,363,29
937,0.5,0.82,0.28,-0.31,-2.81,0.79,357,282,210,442,362,29
938,0.5,0.82,0.29,-0.49,-3.54,-1.46,354,281,208,445,363,29
939,0.51,0.79,0.28,-1.22,-4.33,-1.46,356,285,208,441,365,29
940,0.51,0.81,0.29,0.85,-2.01,-2.62,356,285,209,441,361,29
941,0.52,0.82,0.29,0.73,-1.65,-3.11,359,300,210,443,363,29
942,0.51,0.82,0.28,0.92,-2.81,-3.11,356,285,204,442,362,29
943,0.5,0.81,0.28,1.04,-2.93,-2.08,359,282,209,444,365,29
944,0.51,0.82,0.28,0.79,-1.16,-1.65,357,284,211,440,364,29
945,0.51,0.82,0.27,1.1,-3.72,-3.23,359,282,206,445,362,29
946,0.5,0.82,0.28,-0.85,-2.32,-2.69,363,281,205,445,362,29
947,0.51,0.81,0.28,-1.53,-3.17,-2.01,357,282,206,445,363,29
948,0.5,0.81,0.28,-0.49,-3.48,-3.42,359,282,209,441,362,29
949,0.52,0.81,0.27,1.89,-4.33,-2.2,357,278,206,443,363,29
950,0.51,0.81,0.28,-0.12,-2.69,-3.48,358,278,210,442,363,29
951,0.52,0.82,0.27,0.18,-3.23,-2.14,356,283,206,442,360,29
952,0.52,0.82,0.27,0.98,-2.14,-3.42,359,284,221,439,364,29
953,0.53,0.83,0.27,-0.12,-3.97,-2.93,359,286,208,445,365,29
954,0.52,0.81,0.28,0.98,-2.69,-1.77,355,281,208,443,360,29
955,0.52,0.82,0.27,0.43,-3.91,-1.4,348,284,206,437,360,29
956,0.52,0.81,0.28,1.28,-4.15,-2.62,355,280,206,444,359,29
957,0.52,0.81,0.26,-0.06,-3.17,-2.01,358,283,209,441,364,29
958,0.53,0.81,0.26,0.12,-2.5,-3.05,359,282,205,442,359,29
959,0.52,0.81,0.27,1.59,-1.22,-2.26,357,284,209,442,359,29
960,0.52,0.82,0.27,0.24,-2.38,-3.11,357,282,209,446,364,29
961,0.53,0.81,0.26,1.65,-1.53,-2.32,359,285,209,442,365,29
962,0.52,0.81,0.27,0.85,-3.42,-2.69,358,282,206,447,364,29
963,0.52,0.81,0.27,1.46,-4.46,-2.38,357,282,206,438,362,29
964,0.52,0.81,0.26,0.43,-2.99,-1.83,360,282,206,446,362,29
965,0.53,0.82,0.27,3.97,-1.77,0.31,370,283,209,441,362,29
966,0.53,0.81,0.26,0.85,-4.09,-3.11,361,283,210,436,363,29
967,0.53,0.82,0.26,0.43,-2.26,-1.34,358,281,210,442,364,29
968,0.53,0.79,0.27,1.77,-1.04,-2.99,358,281,206,443,363,29
969,0.53,0.8,0.28,-0.98,-3.3,-1.95,357,282,209,447,366,29
970,0.53,0.8,0.28,1.34,-2.26,-1.77,352,282,207,447,362,29
971,0.54,0.79,0.28,-1.77,-2.69,-3.36,355,282,206,446,359,29
972,0.53,0.81,0.28,0.85,-3.17,-2.44,358,285,210,445,361,29
973,0.53,0.8,0.28,0.49,-2.14,-2.81,357,280,210,440,359,29
974,0.53,0.81,0.28,1.1,-2.38,-3.11,352,282,210,442,363,29
975,0.51,0.81,0.27,-0.06,-3.3,-3.6,367,282,208,442,362,29
976,0.52,0.81,0.27,-0.37,-2.2,-2.81,358,283,209,437,363,29
977,0.51,0.81,0.29,0.18,-3.54,-2.32,357,282,210,442,363,29
978,0.52,0.8,0.28,-0.18,-3.91,-3.3,360,285,209,441,370,29
979,0.52,0.8,0.27,0.49,-2.32,-2.62,360,285,206,445,361,29
980,0.52,0.81,0.28,-0.85,-4.03,-3.17,357,284,209,437,366,29
981,0.53,0.81,0.27,0.98,-1.77,-2.87,357,281,206,440,365,29
982,0.52,0.81,0.28,0.18,-3.36,-2.32,364,281,211,441,362,29
983,0.52,0.8,0.27,-0.06,-2.26,-1.77,358,285,216,454,359,29
984,0.52,0.8,0.28,0.43,-2.99,-2.32,357,284,208,438,364,29
985,0.52,0.81,0.28,0.12,-3.36,-1.71,359,282,211,442,359,29
986,0.52,0.81,0.27,0.24,-3.05,-2.14,360,283,208,446,363,29
987,0.52,0.81,0.27,1.16,-2.75,-1.95,359,285,208,444,360,29
988,0.53,0.82,0.27,1.04,-2.26,-1.89,357,282,207,442,364,29
989,0.53,0.81,0.26,0.31,-2.81,-2.56,357,286,210,441,365,29
990,0.52,0.8,0.26,0.79,-2.62,-2.08,357,283,208,439,364,29
991,0.53,0.81,0.26,-0.18,-2.87,-2.99,360,286,207,446,364,29
992,0.53,0.81,0.27,-0.31,-1.59,-2.87,357,284,209,439,365,29
993,0.53,0.81,0.28,-0.37,-3.11,-2.93,360,282,206,442,362,29
994,0.52,0.79,0.26,-0.18,-3.97,-1.83,360,285,207,445,359,29
995,0.55,0.81,0.26,5.0,-7.51,0.12,360,285,208,445,362,29
996,0.53,0.81,0.25,2.2,-4.64,-1.83,355,282,209,443,363,29
997,0.55,0.82,0.24,2.56,-1.22,-3.36,359,282,208,442,365,29
998,0.55,0.79,0.24,0.79,-3.05,-4.52,360,285,209,441,365,29
999,0.53,0.82,0.25,1.04,-2.99,-2.62,361,285,206,446,363,29
1000,0.54,0.82,0.24,1.71,-2.2,-3.72,356,282,204,436,362,29
1001,0.52,0.82,0.26,-1.77,-1.65,-2.32,361,281,209,442,360,29
1002,0.54,0.82,0.25,-0.06,-2.56,-2.38,356,282,208,442,363,29
1003,0.53,0.81,0.25,0.24,-2.01,-1.89,397,283,203,442,362,29
1004,0.54,0.82,0.25,2.69,-1.46,-3.05,357,282,203,443,359,29
1005,0.52,0.82,0.26,0.24,-3.54,-2.81,360,281,208,442,363,29
1006,0.52,0.8,0.25,0.92,-1.04,-0.79,358,278,208,438,363,29
1007,0.52,0.8,0.25,-0.61,-3.54,-1.89,358,279,208,438,360,29
1008,0.54,0.79,0.27,0.79,-0.92,-2.5,358,283,209,445,364,29
1009,0.53,0.79,0.28,-0.49,-0.98,-4.76,360,285,208,441,362,29
1010,0.58,0.83,0.27,1.28,-3.17,-6.35,356,285,206,447,363,29
1011,0.56,0.83,0.27,1.4,-5.25,-5.37,358,283,206,441,366,29
1012,0.53,0.8,0.28,-0.92,-1.89,-0.49,359,283,207,443,364,29
1013,0.54,0.8,0.27,-0.12,-3.11,-1.77,356,280,207,446,364,29
1014,0.55,0.8,0.28,-0.18,-2.32,-3.66,358,284,210,441,363,29
1015,0.54,0.8,0.28,0.67,-2.5,-3.17,357,281,209,441,365,29
1016,0.55,0.8,0.27,0.92,-3.17,-3.3,361,283,208,443,365,29
1017,0.54,0.8,0.28,0.31,-3.11,-2.26,358,283,207,439,360,29
1018,0.54,0.8,0.28,0.0,-2.69,-2.38,360,285,205,443,361,29
1019,0.54,0.79,0.28,0.49,-2.26,-3.23,357,286,207,441,366,29
1020,0.5,0.8,0.28,0.0,-4.27,-4.58,360,283,206,447,357,29
1021,0.5,0.81,0.3,3.91,-2.87,-1.71,358,282,208,437,364,29
1022,0.52,0.8,0.27,0.55,-5.86,-1.53,359,282,209,445,365,29
1023,0.56,0.82,0.26,0.24,-4.09,-0.49,356,281,209,438,366,29
1024,0.57,0.82,0.25,0.92,-4.64,-2.38,359,283,207,445,367,29
1025,0.54,0.78,0.27,-0.67,-3.78,-4.88,361,281,208,444,363,29
1026,0.42,0.89,0.19,-5.68,-10.68,-8.79,380,276,206,439,360,29
1027,0.37,0.88,0.28,2.93,-1.4,-6.41,382,275,200,447,358,29
1028,0.38,0.94,0.27,-2.5,-1.77,-2.14,384,280,198,444,362,29
1029,0.39,0.88,0.3,-0.06,-1.16,-3.36,381,277,201,442,360,29
1030,0.37,0.95,0.29,2.44,1.46,1.34,378,277,205,443,359,29
1031,0.35,0.88,0.31,-5.74,-7.02,-2.08,378,280,206,443,361,29
1032,0.41,0.82,0.27,-12.51,5.49,-4.64,378,277,202,438,358,29
1033,0.37,0.86,0.33,-0.79,8.61,6.23,367,278,205,440,355,29
1034,0.42,0.92,0.29,-8.18,-10.86,7.02,367,277,201,437,354,29
1035,0.42,0.8,0.33,0.49,-0.61,-1.4,379,277,205,445,358,29
1036,0.42,0.82,0.32,0.67,8.42,-13.67,367,277,205,439,355,29
1037,0.45,0.85,0.35,4.64,-4.58,-3.78,370,276,201,438,358,29
1038,0.42,0.84,0.33,-2.08,-2.56,-0.73,370,278,209,447,359,29
1039,0.43,0.84,0.34,0.0,-1.1,1.71,369,280,200,457,357,29
1040,0.44,0.83,0.34,2.44,-3.05,-1.46,370,278,202,445,359,29
1041,0.44,0.84,0.33,-1.28,-3.11,-0.31,368,281,202,442,357,29
1042,0.43,0.82,0.35,-0.55,-3.97,-1.95,370,280,203,444,358,29
1043,0.44,0.83,0.33,2.56,-2.81,-3.23,371,281,199,447,358,29
1044,0.46,0.84,0.3,5.98,-7.75,-1.22,368,277,202,438,357,29
1045,0.46,0.83,0.32,2.56,-2.62,-3.3,369,275,202,443,358,29
1046,0.48,0.85,0.3,-0.12,-1.53,-6.9,370,279,203,444,360,29
1047,0.47,0.83,0.28,-0.79,-2.62,0.37,371,288,202,439,356,29
1048,0.5,0.83,0.29,-1.22,-3.17,-1.65,368,281,203,443,360,29
1049,0.5,0.82,0.29,3.23,-3.42,-2.08,370,278,203,445,353,29
1050,0.49,0.82,0.29,0.18,-1.34,-0.73,366,278,202,444,357,29
1051,0.49,0.82,0.31,-0.31,0.12,-4.39,365,278,205,442,356,29
1052,0.49,0.82,0.3,2.5,-2.81,-5.25,370,280,205,444,357,29
1053,0.48,0.82,0.3,0.67,-0.73,-3.17,365,285,202,442,358,29
1054,0.49,0.85,0.31,-2.44,-0.31,-3.36,365,278,204,445,361,29
1055,0.46,0.86,0.31,2.87,-4.88,-7.57,368,277,205,450,358,29
1056,0.44,0.85,0.31,-3.23,-0.06,-9.28,367,275,202,437,358,29
1057,0.46,0.8,0.29,0.79,-12.57,-6.16,366,279,201,448,359,29
1058,0.46,0.8,0.27,3.72,-2.26,-0.67,367,278,204,442,360,29
1059,0.5,0.85,0.23,6.35,-5.74,-2.44,362,277,205,440,360,29
1060,0.5,0.82,0.24,-4.33,-1.95,-0.49,367,280,205,441,358,29
1061,0.5,0.82,0.25,-1.46,-6.9,-3.05,368,277,202,437,356,29
1062,0.51,0.81,0.24,-7.81,-2.69,-0.98,371,276,203,442,358,29
1063,0.52,0.82,0.24,1.95,-1.83,-3.05,370,278,204,442,360,29
1064,0.5,0.81,0.25,0.12,-2.62,-2.44,371,275,201,442,355,29
1065,0.5,0.84,0.26,3.17,0.24,-3.66,369,277,204,439,357,29
1066,0.53,0.86,0.25,2.5,0.85,-4.88,369,277,202,442,358,29
1067,0.51,0.86,0.23,4.64,0.0,-1.95,368,278,201,443,360,29
1068,0.51,0.86,0.27,0.55,-0.24,-2.44,364,277,205,443,356,29
1069,0.54,0.82,0.27,6.77,-1.83,-5.49,368,279,204,446,355,29
1070,0.51,0.79,0.25,3.48,-8.18,-2.81,365,280,202,446,358,29
1071,0.5,0.82,0.27,-5.8,-7.51,-3.54,379,280,203,444,358,29
1072,0.52,0.81,0.25,0.85,-8.06,-4.03,368,280,201,443,358,29
1073,0.5,0.82,0.25,6.65,-3.72,-4.21,370,278,202,437,358,29
1074,0.51,0.85,0.27,4.15,-1.65,-6.29,370,277,204,443,356,29
1075,0.49,0.86,0.26,5.92,-4.39,-1.71,372,278,203,437,359,29
1076,0.49,0.82,0.24,0.31,-4.33,-2.44,367,277,199,446,357,29
1077,0.5,0.84,0.24,0.49,-2.38,-2.2,371,278,203,440,361,29
1078,0.52,0.84,0.24,2.81,-3.3,-3.48,369,277,205,442,358,29
1079,0.5,0.83,0.24,2.01,-1.77,-3.48,368,278,200,443,357,29
1080,0.51,0.82,0.23,2.93,-1.83,-2.26,368,280,202,448,360,29
1081,0.52,0.81,0.23,-4.46,3.78,-5.86,367,277,205,442,360,29
1082,0.5,0.82,0.26,-0.67,-2.69,0.24,396,279,205,442,358,29
1083,0.51,0.82,0.27,2.26,-3.66,-2.44,364,280,204,442,361,29
1084,0.5,0.81,0.27,1.34,0.12,-4.27,368,280,202,443,361,29
1085,0.5,0.81,0.26,1.59,-2.93,-3.05,368,281,201,446,362,29
1086,0.5,0.82,0.27,-0.24,-3.78,-2.93,365,281,203,446,359,29
1087,0.49,0.82,0.27,0.06,-4.76,-2.2,370,278,201,445,359,29
1088,0.49,0.83,0.28,1.4,-2.75,-2.62,366,278,199,442,355,29
1089,0.47,0.81,0.26,-1.89,-1.71,-1.59,367,275,205,440,361,29
1090,0.51,0.83,0.24,1.4,-1.16,-2.08,365,277,197,443,355,29
1091,0.49,0.83,0.24,1.95,-3.72,-1.04,357,279,204,442,361,29
1092,0.5,0.83,0.24,1.04,-3.97,-0.92,365,277,204,445,356,29
1093,0.49,0.82,0.24,-0.49,-2.08,-0.67,363,276,205,442,357,29
1094,0.51,0.83,0.25,-0.24,-2.62,-2.62,370,277,203,448,360,29
1095,0.51,0.83,0.26,-1.46,-2.2,-1.34,370,279,204,444,359,29
1096,0.52,0.83,0.25,-0.12,-3.6,-1.95,369,279,204,443,361,29
1097,0.51,0.82,0.25,1.16,-2.87,-3.05,366,281,202,441,359,29
1098,0.51,0.82,0.25,-1.16,-2.38,-1.65,370,276,217,442,359,29
1099,0.52,0.82,0.25,0.31,-3.3,-2.81,366,277,202,442,355,29
1100,0.52,0.82,0.25,-1.16,-2.56,-2.08,368,279,202,448,360,29
1101,0.51,0.83,0.26,1.04,-2.5,-2.56,368,281,204,442,358,29
1102,0.52,0.82,0.26,2.87,-2.26,-1.83,367,280,204,442,360,29
1103,0.52,0.82,0.25,1.1,-1.53,-3.17,365,278,207,444,360,29
1104,0.52,0.83,0.25,2.81,-5.07,-2.38,367,277,204,439,360,29
1105,0.51,0.82,0.26,1.59,-0.55,-3.23,365,279,203,437,354,29
1106,0.5,0.81,0.27,-0.73,-2.26,1.34,367,280,205,442,359,29
1107,0.52,0.82,0.27,-0.49,-1.83,-1.71,366,279,201,440,358,29
1108,0.51,0.82,0.27,0.98,-4.09,-3.17,368,278,204,445,360,29
1109,0.52,0.81,0.26,0.06,-3.11,-2.2,369,281,205,442,360,29
1110,0.52,0.82,0.26,0.06,-3.3,-2.01,365,284,205,445,358,29
1111,0.51,0.82,0.27,-0.43,-2.14,-2.08,367,278,206,441,355,29
1112,0.52,0.82,0.25,3.05,-2.87,-4.94,366,280,205,448,365,29
1113,0.51,0.82,0.25,2.01,-2.87,-1.89,365,276,201,437,361,29
1114,0.5,0.82,0.25,-0.55,-1.95,-2.93,369,281,203,442,360,29
1115,0.52,0.82,0.24,-0.12,-3.3,-1.77,371,278,202,443,359,29
1116,0.51,0.83,0.26,0.12,-3.23,-2.44,366,279,202,441,356,29
1117,0.52,0.83,0.24,0.0,-2.38,-2.75,370,278,204,437,357,29
1118,0.52,0.82,0.25,-0.18,-3.05,-0.79,367,279,203,443,359,29
1119,0.52,0.81,0.24,1.22,-3.78,-1.16,364,280,207,441,360,29
1120,0.51,0.83,0.24,1.46,-2.01,-2.69,369,283,205,442,362,29
1121,0.53,0.83,0.25,-0.61,-5.62,-0.37,365,279,219,438,361,29
1122,0.52,0.82,0.25,1.22,-1.34,-3.42,370,278,202,442,359,29
1123,0.51,0.83,0.25,-2.75,-3.72,-2.32,369,280,202,445,361,29
1124,0.53,0.8,0.25,0.0,-3.91,-1.34,367,278,202,436,359,29
1125,0.52,0.81,0.24,-1.4,-3.6,-1.28,368,279,201,451,357,29
1126,0.54,0.81,0.25,2.26,-3.05,-0.79,367,277,204,437,360,29
1127,0.52,0.8,0.25,-1.34,-1.65,-1.16,368,281,207,442,359,29
1128,0.53,0.82,0.27,1.04,-2.56,-2.38,368,281,202,443,359,29
1129,0.54,0.8,0.26,0.61,-2.01,-3.23,378,283,210,444,359,29
1130,0.53,0.81,0.27,0.61,-1.28,-2.62,365,278,202,446,360,29
1131,0.51,0.81,0.26,0.24,-3.17,-3.05,369,278,203,440,360,29
1132,0.52,0.8,0.26,-1.04,-3.6,-4.64,364,277,204,444,357,29
1133,0.52,0.81,0.27,0.18,-3.3,-2.81,369,282,206,442,362,29
1134,0.52,0.8,0.25,1.28,-4.46,-4.27,369,279,203,440,360,29
1135,0.52,0.81,0.26,0.12,-2.81,-1.89,366,280,203,442,361,29
1136,0.51,0.82,0.26,-1.83,-2.99,-2.81,368,281,204,443,360,29
1137,0.52,0.81,0.25,0.49,-3.05,-2.44,367,288,205,440,362,29
1138,0.53,0.83,0.29,-6.35,-2.87,2.01,368,279,204,440,360,29
1139,0.55,0.82,0.27,-2.38,-5.25,-1.83,367,282,202,445,360,29
1140,0.53,0.79,0.26,-1.28,-2.44,-3.97,368,278,207,435,360,29
1141,0.53,0.82,0.28,1.34,-1.53,2.38,368,279,207,443,361,29
1142,0.54,0.79,0.27,0.73,-3.66,-1.34,366,279,208,446,360,29
1143,0.53,0.8,0.28,2.01,-0.12,-4.03,371,278,219,442,359,29
1144,0.53,0.76,0.27,-3.78,-6.47,-3.85,368,281,207,441,359,29
1145,0.52,0.77,0.28,-1.28,-5.92,-4.21,367,278,206,440,358,29
1146,0.52,0.79,0.28,-1.65,-2.75,-2.69,370,278,203,439,361,29
1147,0.54,0.79,0.29,0.67,-3.36,-1.1,370,279,209,441,356,29
1148,0.55,0.8,0.29,0.61,-3.54,-2.2,370,279,203,441,360,29
1149,0.56,0.8,0.28,2.99,-3.48,-3.66,370,281,217,436,356,29
1150,0.53,0.8,0.28,2.2,-2.99,-4.09,368,277,204,443,359,29
1151,0.56,0.79,0.26,0.55,-4.58,-1.89,369,276,205,439,359,29
1152,0.55,0.78,0.29,-1.4,-3.48,0.79,370,279,204,441,358,29
1153,0.54,0.77,0.28,-3.97,-4.52,-3.05,368,279,206,445,360,29
1154,0.53,0.78,0.28,4.52,-0.85,-6.29,370,278,208,439,359,29
1155,0.54,0.8,0.29,-1.4,-2.62,-3.23,372,280,206,445,364,29
1156,0.55,0.8,0.28,1.89,-3.05,-3.85,367,279,202,440,360,29
1157,0.56,0.82,0.27,4.39,-1.22,-3.66,368,281,206,440,363,29
1158,0.55,0.81,0.28,1.77,-4.64,-4.58,368,282,201,440,354,29
1159,0.56,0.81,0.26,4.33,-3.42,-1.71,370,280,206,442,358,29
1160,0.55,0.81,0.27,1.89,-3.72,-6.23,369,280,203,444,361,29
1161,0.53,0.79,0.27,-2.01,-4.21,-2.5,369,279,207,441,361,29
1162,0.52,0.81,0.27,-3.17,-2.38,-2.2,367,280,203,441,362,29
1163,0.55,0.79,0.29,2.56,-2.5,-2.26,369,281,203,442,362,29
1164,0.54,0.8,0.29,1.16,-2.01,-3.23,369,278,206,441,360,29
1165,0.55,0.79,0.26,1.65,-3.78,-0.61,369,278,203,441,360,29
1166,0.53,0.79,0.27,1.04,0.31,-4.52,368,279,204,439,358,29
1167,0.54,0.81,0.26,1.53,-3.6,-0.18,371,282,207,442,358,29
1168,0.54,0.8,0.27,-0.85,-2.32,-1.28,370,280,207,442,362,29
1169,0.56,0.79,0.26,1.83,-5.19,-1.71,369,279,206,442,359,29
1170,0.55,0.8,0.26,0.98,-4.27,-2.5,371,279,218,442,362,29
1171,0.55,0.79,0.26,-0.61,-3.54,-3.05,371,282,206,436,356,29
1172,0.54,0.79,0.27,-3.54,-2.5,-0.73,368,278,204,441,359,29
1173,0.55,0.8,0.26,0.31,-3.85,-1.95,368,276,205,436,359,29
1174,0.54,0.8,0.27,-1.77,-1.65,-2.32,369,279,201,440,360,29
1175,0.53,0.8,0.27,1.46,-2.2,-2.93,372,280,204,436,360,29
1176,0.55,0.79,0.27,0.18,-1.4,-2.75,370,282,203,439,359,29
1177,0.55,0.8,0.27,-0.24,-2.32,-1.22,369,285,204,445,356,29
1178,0.55,0.78,0.28,2.2,-3.05,-2.75,368,281,208,445,361,29
1179,0.55,0.79,0.27,1.71,-3.3,-3.54,369,279,204,442,361,29
1180,0.54,0.8,0.27,1.4,-4.39,-5.31,368,281,204,442,360,29
1181,0.56,0.82,0.28,3.78,-2.26,-2.14,369,281,207,441,360,29
1182,0.55,0.8,0.26,0.24,-4.33,-3.6,369,278,204,440,360,29
1183,0.54,0.81,0.27,-2.14,-3.66,-6.71,367,285,204,442,361,29
1184,0.54,0.81,0.28,-2.01,-2.75,-0.31,370,280,201,436,356,29
1185,0.56,0.81,0.28,0.73,-4.76,-3.78,367,288,203,439,360,29
1186,0.55,0.8,0.29,-1.1,-1.28,-2.38,370,276,205,445,357,29
1187,0.54,0.8,0.28,3.05,-4.03,1.04,367,279,213,441,362,29
1188,0.56,0.78,0.27,-0.43,-3.36,-1.65,368,281,201,445,356,29
1189,0.55,0.78,0.28,0.43,-1.95,-4.09,371,284,209,443,356,29
1190,0.55,0.79,0.27,0.37,-2.75,-2.44,368,282,209,445,360,29
1191,0.55,0.79,0.29,1.04,-3.97,-2.75,372,275,204,442,358,29
1192,0.56,0.78,0.28,1.28,-4.15,-2.62,368,277,204,441,362,29
1193,0.55,0.79,0.29,0.18,-2.38,-2.56,368,281,209,444,361,29
1194,0.55,0.79,0.28,-0.31,-3.17,-4.58,370,282,207,437,358,29
1195,0.56,0.79,0.26,1.83,-3.3,-2.14,368,277,206,441,362,29
1196,0.55,0.79,0.28,0.12,-3.72,-2.38,366,282,203,442,362,29
1197,0.56,0.78,0.27,-1.77,-2.32,-2.99,367,282,207,439,360,29
1198,0.55,0.79,0.27,1.71,-2.93,-1.83,367,279,203,441,361,29
1199,0.55,0.78,0.27,-0.61,-2.5,-2.81,368,281,204,438,360,29
1200,0.55,0.78,0.27,1.16,-3.78,-3.3,375,279,205,444,357,29
1201,0.54,0.8,0.28,1.59,-3.3,-0.67,368,278,204,437,357,29
1202,0.55,0.79,0.27,1.53,-2.26,-2.14,368,280,203,442,361,29
1203,0.55,0.8,0.26,1.77,-2.26,-3.17,368,280,204,442,361,29
1204,0.56,0.8,0.26,-1.4,-1.71,-3.6,365,281,203,442,361,29
1205,0.56,0.8,0.26,-0.12,-3.42,-2.01,370,282,205,442,362,29
1206,0.56,0.81,0.27,1.22,-2.2,-4.03,369,280,207,441,361,29
1207,0.56,0.8,0.26,2.14,-3.42,-1.83,370,279,207,442,357,29
1208,0.55,0.8,0.25,-0.43,-3.23,-2.99,369,279,203,435,359,29
1209,0.56,0.78,0.26,-2.69,-3.66,-2.69,370,279,207,441,361,29
1210,0.55,0.79,0.26,0.61,-2.01,-1.77,371,275,203,444,360,29
1211,0.55,0.79,0.27,-0.06,-2.87,-3.54,365,279,204,444,364,29
1212,0.55,0.8,0.26,1.53,-2.87,-2.44,366,280,203,445,364,29
1213,0.55,0.8,0.27,0.24,-3.48,-2.81,368,280,211,442,359,29
1214,0.54,0.8,0.28,-0.18,-2.5,-1.71,368,280,207,443,362,29
1215,0.54,0.79,0.28,-0.49,-2.62,-1.65,367,281,207,440,361,29
1216,0.54,0.79,0.28,-2.26,-2.69,-1.83,371,279,202,444,362,29
1217,0.55,0.78,0.28,-0.73,-2.38,-2.08,368,280,206,442,361,29
1218,0.55,0.79,0.29,-0.79,-2.44,-3.3,365,282,206,442,362,29
1219,0.55,0.78,0.28,-0.37,-3.11,-2.93,369,280,207,442,363,29
1220,0.54,0.79,0.28,1.4,-3.17,-2.2,374,281,205,438,361,29
1221,0.54,0.79,0.29,-0.37,-1.65,-2.93,371,282,207,436,357,29
1222,0.55,0.79,0.28,1.16,-2.14,-2.75,369,280,207,440,363,29
1223,0.55,0.8,0.28,1.4,-3.48,-2.99,371,279,208,445,360,29
1224,0.54,0.79,0.28,-0.12,-2.93,-2.56,367,279,205,444,360,29
1225,0.55,0.79,0.28,0.98,-4.88,-1.28,370,280,208,441,362,29
1226,0.53,0.78,0.28,-0.06,-2.32,-2.62,369,282,205,440,362,29
1227,0.54,0.8,0.28,-0.73,-1.34,-2.44,371,279,207,445,363,29
1228,0.55,0.8,0.29,0.73,-3.11,-2.62,366,282,203,440,359,29
1229,0.54,0.79,0.28,-0.49,-2.01,-3.6,367,280,206,441,360,29
1230,0.54,0.8,0.28,-1.16,-2.44,-2.93,369,281,207,442,361,29
1231,0.54,0.8,0.29,0.67,-1.83,-1.53,369,280,205,446,362,29
1232,0.56,0.8,0.29,-0.92,-3.23,-1.65,365,278,203,440,362,29
1233,0.55,0.79,0.28,-0.24,-2.14,-2.93,371,279,205,443,361,29
1234,0.54,0.78,0.3,1.34,-3.48,-2.32,382,282,204,443,361,29
1235,0.55,0.79,0.29,1.22,-2.69,-2.62,366,285,206,442,361,29
1236,0.55,0.79,0.29,-0.24,-3.11,-2.2,368,281,204,442,363,29
1237,0.57,0.79,0.3,1.34,-1.83,-1.95,368,284,204,445,362,29
1238,0.56,0.79,0.3,0.37,-3.42,-2.93,372,279,206,438,363,29
1239,0.54,0.77,0.3,-2.32,-4.15,-2.99,373,280,206,440,362,29
1240,0.55,0.79,0.31,-0.24,-1.89,-1.53,369,283,203,440,361,29
1241,0.55,0.77,0.31,-0.67,-2.5,-0.73,370,283,208,442,361,29
1242,0.57,0.78,0.3,0.18,-2.93,-2.2,367,282,205,440,362,29
1243,0.55,0.77,0.32,-0.79,-3.11,-2.08,367,279,203,438,361,29
1244,0.58,0.79,0.3,0.73,-2.2,-3.23,366,281,205,441,361,29
1245,0.56,0.78,0.3,-3.36,-3.78,-3.72,370,281,208,441,360,29
1246,0.53,0.75,0.34,1.4,2.26,-12.88,369,282,205,441,362,29
1247,0.49,0.82,0.37,0.37,0.85,-6.1,371,286,207,444,364,29
1248,0.37,0.77,0.45,5.74,-3.42,4.09,369,279,206,445,359,29
1249,0.41,0.88,0.38,-0.85,0.06,-11.9,369,280,203,442,362,29
1250,0.41,0.8,0.38,-4.64,-2.81,-6.16,369,282,208,441,362,29
1251,0.42,0.79,0.41,1.28,-1.04,-2.08,370,281,206,443,365,29
1252,0.4,0.85,0.44,-0.43,-0.06,0.0,369,280,205,445,364,29
1253,0.36,0.78,0.43,-1.77,0.98,-3.11,372,280,209,445,363,29
1254,0.39,0.84,0.48,-1.89,-1.1,-11.41,368,280,208,436,363,29
1255,0.39,0.79,0.43,0.06,-4.76,-11.6,368,279,210,443,363,29
1256,0.38,0.82,0.47,0.49,-1.59,-3.05,366,279,208,437,363,29
1257,0.36,0.82,0.44,0.92,-4.15,-1.46,368,282,205,439,361,29
1258,0.4,0.8,0.41,0.98,-6.53,-2.5,375,292,207,440,361,29
1259,0.38,0.82,0.41,3.78,-1.83,-1.34,367,279,201,443,362,29
1260,0.41,0.81,0.41,3.54,-2.62,-2.5,368,281,202,442,363,29
1261,0.4,0.81,0.4,0.67,-3.05,-0.85,366,280,204,444,363,29
1262,0.37,0.82,0.4,4.58,-1.22,1.22,372,283,203,444,361,29
1263,0.41,0.84,0.39,0.31,-0.37,-0.98,367,283,204,444,364,29
1264,0.42,0.8,0.38,-0.06,-4.7,-2.01,369,282,206,441,363,29
1265,0.42,0.83,0.37,-2.32,-3.48,-2.01,367,281,202,442,362,29
1266,0.42,0.89,0.37,-5.25,0.49,0.85,369,282,206,438,360,29
1267,0.44,0.87,0.37,-1.28,-1.16,0.06,364,281,205,442,362,29
1268,0.44,0.84,0.39,-0.12,-2.32,-5.37,396,281,202,436,366,29
1269,0.42,0.83,0.38,-1.04,-2.14,0.92,369,282,204,444,375,29
1270,0.44,0.79,0.38,-0.61,-2.56,-2.01,366,294,207,441,365,29
1271,0.45,0.81,0.38,0.37,-3.97,-2.38,371,283,205,445,361,29
1272,0.45,0.81,0.39,-0.24,-1.59,-2.5,371,283,206,441,363,29
1273,0.44,0.8,0.38,-2.26,-3.6,-2.08,368,282,204,442,364,29
1274,0.45,0.81,0.38,-0.24,-2.99,-1.71,370,282,204,442,361,29
1275,0.45,0.81,0.37,-0.49,-3.11,-1.34,367,281,204,445,360,29
1276,0.43,0.81,0.39,-1.1,-3.78,-0.73,371,278,205,441,362,29
1277,0.48,0.8,0.39,-15.44,-4.15,-5.74,365,280,205,441,364,29
1278,0.44,0.82,0.39,1.83,-1.46,-1.53,369,282,203,441,360,29
1279,0.45,0.82,0.39,-3.11,-2.69,-3.91,369,282,203,437,366,29
1280,0.46,0.81,0.38,-1.89,-3.54,-1.1,368,282,205,440,360,29
1281,0.47,0.8,0.38,-0.31,-3.97,-2.56,366,280,205,440,363,29
1282,0.47,0.8,0.4,3.36,-1.28,-2.56,366,284,203,442,360,29
1283,0.47,0.82,0.4,3.36,-3.36,-2.87,367,281,205,445,364,29
1284,0.45,0.82,0.38,0.12,-4.58,-1.65,365,283,204,445,366,29
1285,0.47,0.82,0.36,0.73,-4.76,-5.62,369,281,205,435,364,29
1286,0.44,0.8,0.37,2.5,-0.31,-4.09,365,284,204,442,366,29
1287,0.46,0.83,0.39,-0.12,-4.64,-5.92,365,283,205,440,366,29
1288,0.47,0.81,0.33,-1.46,-2.38,-2.44,366,282,205,441,364,29
1289,0.45,0.78,0.35,-3.17,-5.13,-0.92,367,282,208,444,359,29
1290,0.46,0.82,0.36,0.49,-3.42,0.85,368,281,205,436,364,29
1291,0.44,0.77,0.38,-2.2,-0.49,-4.94,365,281,207,440,362,29
1292,0.46,0.82,0.39,2.87,2.14,-3.23,367,281,207,444,366,29
1293,0.45,0.8,0.4,-2.08,-2.44,-0.67,363,283,207,443,366,29
1294,0.47,0.81,0.4,-0.92,-4.33,0.67,363,287,207,448,364,29
1295,0.47,0.81,0.38,0.92,-1.89,0.12,365,283,206,446,366,29
1296,0.49,0.8,0.34,7.32,-3.42,-1.34,364,281,205,442,367,29
1297,0.46,0.8,0.37,-1.46,-4.46,-1.83,366,277,204,437,362,29
1298,0.47,0.82,0.39,-0.98,-1.34,-3.36,364,284,202,441,357,29
1299,0.45,0.83,0.39,-1.4,-2.5,-1.71,363,280,208,443,361,29
1300,0.46,0.82,0.38,-0.18,-3.97,-2.56,362,281,208,438,364,29
1301,0.47,0.8,0.37,-1.53,-3.6,-2.81,361,281,204,441,360,29
1302,0.49,0.79,0.36,0.12,-3.23,-2.69,362,284,211,441,364,29
1303,0.45,0.81,0.4,-3.36,-0.43,-4.46,361,281,205,445,366,29
1304,0.47,0.79,0.37,0.43,-4.64,-2.32,360,285,207,440,365,29
1305,0.47,0.81,0.37,2.44,-3.17,-1.65,362,281,208,436,360,29
1306,0.45,0.79,0.37,-2.08,-5.49,-0.79,360,282,207,444,360,29
1307,0.47,0.82,0.38,-1.34,-4.15,-5.49,360,284,204,445,370,29
1308,0.45,0.8,0.39,-0.49,-4.33,-1.83,361,284,206,440,360,29
1309,0.45,0.83,0.37,-0.49,-3.3,-4.21,365,283,206,443,367,29
1310,0.5,0.87,0.39,13.18,-9.52,9.83,356,281,206,440,364,29
1311,0.45,0.86,0.39,29.6,-1.83,-23.19,362,281,207,442,359,29
1312,0.42,0.82,0.33,7.45,-5.43,-0.98,359,283,208,437,362,29
1313,0.41,0.8,0.28,3.23,-1.1,-0.79,362,282,206,443,365,29
1314,0.48,0.87,0.24,8.42,-9.77,-0.37,363,283,203,446,363,29
1315,0.5,0.88,0.22,1.16,-1.59,1.16,363,281,208,438,363,29
1316,0.48,0.81,0.25,-2.44,-5.8,-3.05,364,279,207,443,365,29
1317,0.51,0.88,0.21,3.42,-1.04,0.49,362,281,205,432,366,29
1318,0.49,0.81,0.2,-3.85,-4.94,1.1,364,279,207,442,364,29
1319,0.57,0.81,0.24,5.43,1.46,3.78,363,278,205,445,363,29
1320,0.53,0.78,0.26,-0.49,0.98,-4.21,363,281,204,436,364,29
1321,0.53,0.78,0.25,7.75,4.03,2.93,357,277,205,440,365,29
1322,0.58,0.78,0.23,1.77,-3.11,2.01,361,280,205,445,364,29
1323,0.58,0.79,0.21,3.11,-1.83,-5.0,362,280,206,444,366,29
1324,0.55,0.79,0.22,0.18,-5.31,-6.35,363,279,201,444,362,29
1325,0.55,0.8,0.22,0.31,-2.32,-3.97,361,281,206,441,364,29
1326,0.53,0.8,0.23,-1.89,-2.69,-4.03,361,280,205,443,366,29
1327,0.53,0.81,0.25,-2.08,-2.44,-1.28,358,278,205,441,364,29
1328,0.54,0.79,0.24,0.92,-4.15,-0.55,363,284,208,440,371,29
1329,0.55,0.79,0.25,-0.61,-2.62,-1.34,361,283,205,443,364,29
1330,0.58,0.75,0.24,-11.6,-4.58,1.34,362,280,208,442,361,29
1331,0.56,0.8,0.28,0.37,-3.05,-4.52,360,286,209,445,363,29
1332,0.57,0.79,0.25,1.34,-3.23,-3.85,361,284,207,441,363,29
1333,0.58,0.8,0.26,2.75,-2.44,-1.83,366,283,220,444,365,29
1334,0.57,0.8,0.25,1.22,-2.14,-3.17,360,282,210,442,364,29
1335,0.54,0.79,0.27,0.92,-2.2,-3.66,360,284,204,442,367,29
1336,0.55,0.8,0.26,0.43,-2.99,-2.38,361,283,207,442,362,29
1337,0.55,0.79,0.25,0.12,-4.64,-1.83,359,296,206,445,363,29
1338,0.56,0.79,0.24,0.79,-3.17,-3.54,361,284,201,443,363,29
1339,0.55,0.8,0.25,-0.12,-2.69,-2.5,360,282,209,441,364,29
1340,0.57,0.8,0.25,2.01,-3.66,-2.56,362,282,209,442,364,29
1341,0.55,0.79,0.25,0.18,-2.2,-1.65,362,281,207,445,364,29
1342,0.57,0.8,0.25,-0.98,-2.26,-2.75,359,284,206,442,365,29
1343,0.56,0.79,0.26,-0.98,-1.22,-2.75,356,283,206,440,365,29
1344,0.57,0.79,0.26,2.93,-3.36,-2.62,359,281,204,443,364,29
1345,0.56,0.78,0.25,1.46,-2.93,-1.95,359,282,206,441,367,29
1346,0.56,0.78,0.25,-0.67,-2.38,-2.93,359,280,206,440,365,29
1347,0.57,0.78,0.25,0.18,-1.77,-1.83,360,283,208,441,366,29
1348,0.57,0.78,0.25,0.37,-2.26,-3.23,362,279,209,442,364,29
1349,0.57,0.79,0.25,0.12,-2.44,-2.56,358,282,207,444,365,29
1350,0.56,0.79,0.25,-0.12,-2.5,-2.14,361,283,210,447,365,29
1351,0.56,0.78,0.26,-0.79,-2.75,-2.38,361,281,208,441,366,29
1352,0.58,0.77,0.25,-0.43,-1.89,-1.95,360,281,203,442,368,29
1353,0.59,0.78,0.27,-2.62,-3.78,-2.32,360,281,214,441,361,29
1354,0.58,0.77,0.28,-2.93,-1.77,-3.17,360,284,202,443,362,29
1355,0.56,0.75,0.29,-0.92,-5.25,-4.88,360,285,206,441,362,29
1356,0.58,0.75,0.29,-1.71,-4.33,-2.01,359,282,206,444,362,29
1357,0.56,0.76,0.3,0.0,-3.66,-2.01,381,283,207,442,363,29
1358,0.58,0.74,0.29,-0.31,-3.91,-2.32,364,281,207,443,363,29
1359,0.57,0.76,0.3,-1.46,-2.2,-3.3,359,298,209,441,363,29
1360,0.59,0.76,0.29,2.32,-5.07,-5.92,360,281,206,442,365,29
1361,0.56,0.78,0.28,7.02,1.59,-8.18,361,282,208,440,359,29
1362,0.54,0.82,0.28,-5.98,2.93,-12.39,358,281,204,444,360,29
1363,0.54,0.83,0.29,2.87,-8.12,-6.96,361,281,219,441,362,29
1364,0.46,0.85,0.27,3.36,1.89,-9.89,359,282,212,434,363,29
1365,0.49,0.85,0.26,1.77,-2.38,-0.06,357,281,206,438,363,29
1366,0.49,0.85,0.26,-1.04,-1.89,-3.66,359,284,206,444,364,29
1367,0.46,0.85,0.26,-0.24,-2.99,-3.6,359,281,205,442,366,29
1368,0.46,0.86,0.27,0.61,-2.93,-0.55,361,280,203,443,360,29
1369,0.46,0.84,0.26,1.83,-3.11,-0.24,359,284,206,439,366,29
1370,0.46,0.84,0.26,0.31,-2.5,-2.87,358,284,209,438,364,29
1371,0.46,0.84,0.28,-2.08,-2.75,-2.5,368,284,206,438,365,29
1372,0.47,0.84,0.27,2.14,-3.17,-2.99,359,281,204,440,364,29
1373,0.48,0.85,0.26,3.17,-4.88,-3.17,357,281,206,444,365,29
1374,0.48,0.84,0.27,-0.37,-1.53,-3.17,359,284,208,446,363,29
1375,0.48,0.85,0.25,2.93,-0.79,-5.62,359,283,208,445,365,29
1376,0.47,0.84,0.25,1.71,-1.83,-2.56,358,276,211,440,362,29
1377,0.47,0.85,0.26,-0.92,-4.09,-2.26,359,284,206,445,365,29
1378,0.48,0.83,0.27,0.06,-2.32,-2.14,358,284,207,437,361,29
1379,0.49,0.85,0.26,0.31,-2.44,-5.55,360,281,204,441,363,29
1380,0.48,0.85,0.26,3.48,-6.9,-2.93,357,284,207,445,364,29
1381,0.48,0.84,0.25,0.85,-3.36,-2.44,358,283,206,446,363,29
1382,0.46,0.83,0.25,1.53,-2.69,-2.26,361,288,209,441,366,29
1383,0.47,0.86,0.25,0.73,-5.43,-3.6,358,278,206,443,359,29
1384,0.43,0.87,0.25,-0.31,-4.7,-1.4,357,280,205,442,361,29
1385,0.44,0.86,0.24,-0.61,-3.17,1.04,360,282,215,441,363,29
1386,0.47,0.85,0.24,-2.08,-6.47,1.34,360,281,205,442,361,29
1387,0.49,0.84,0.24,-0.31,-0.31,0.24,366,282,205,441,363,29
1388,0.5,0.79,0.23,-0.92,-5.86,-1.59,359,282,206,442,359,29
1389,0.54,0.82,0.23,0.49,-2.62,-1.59,358,287,209,441,359,29
1390,0.51,0.83,0.22,-0.67,-5.13,-3.72,358,281,207,439,360,29
1391,0.5,0.84,0.21,0.67,-4.27,-8.54,360,281,208,446,361,29
1392,0.46,0.87,0.21,1.77,-1.1,-7.75,358,281,208,443,362,29
1393,0.43,0.86,0.22,-0.55,-2.44,2.56,359,284,207,442,364,29
1394,0.47,0.84,0.21,0.31,-4.27,1.95,357,283,206,441,366,29
1395,0.47,0.84,0.21,-0.12,-1.89,-1.59,353,282,206,443,363,29
1396,0.52,0.84,0.23,2.14,-4.7,-5.49,356,281,207,441,362,29
1397,0.51,0.82,0.21,-2.69,-3.78,-0.67,358,282,206,445,365,29
1398,0.5,0.85,0.23,3.6,-3.48,-5.55,356,281,208,445,365,29
1399,0.49,0.85,0.22,0.18,-1.22,-1.95,357,282,207,440,363,29
1400,0.48,0.83,0.23,-0.31,-4.94,-4.27,359,285,205,446,361,29
1401,0.5,0.84,0.23,2.32,-3.85,-1.71,360,280,209,447,363,29
1402,0.5,0.84,0.23,-0.43,-2.93,-2.56,357,281,211,444,365,29
1403,0.5,0.83,0.25,-1.28,-3.11,-1.46,360,282,206,438,365,29
1404,0.5,0.82,0.25,-2.26,0.31,-1.04,360,281,213,440,363,29
1405,0.53,0.82,0.25,-0.43,-5.74,-2.32,361,284,205,440,359,29
1406,0.51,0.82,0.25,-1.53,-2.5,-1.65,356,282,220,441,362,29
1407,0.53,0.82,0.25,-1.28,-2.44,-3.42,351,280,208,440,365,29
1408,0.5,0.81,0.25,-1.16,-2.26,-0.06,359,281,206,441,364,29
1409,0.52,0.82,0.24,0.18,-3.05,-0.98,359,283,205,441,360,29
1410,0.53,0.82,0.25,0.24,-3.11,-3.05,353,284,206,444,363,29
1411,0.52,0.81,0.25,1.71,-3.3,-2.62,357,285,210,444,364,29
1412,0.52,0.79,0.24,2.14,-3.05,-3.23,362,284,206,442,364,29
1413,0.51,0.82,0.24,1.59,-3.23,-2.62,355,294,207,438,363,29
1414,0.51,0.82,0.24,2.2,-3.48,-2.32,357,279,206,448,365,29
1415,0.52,0.83,0.24,0.73,-5.19,-2.93,355,283,206,440,360,29
1416,0.51,0.82,0.25,0.79,0.61,-2.56,357,281,208,440,364,29
1417,0.51,0.82,0.24,-0.12,-3.66,-2.38,358,281,208,441,365,29
1418,0.52,0.83,0.25,-1.16,-3.17,-2.69,357,294,205,442,363,29
1419,0.51,0.81,0.25,-0.18,-2.87,-1.65,357,282,204,441,366,29
1420,0.52,0.82,0.25,-0.37,-2.87,-2.69,358,283,208,443,363,29
1421,0.52,0.82,0.25,0.12,-2.62,-3.3,360,281,208,443,367,29
1422,0.52,0.82,0.26,0.18,-2.26,-1.4,358,283,208,445,362,29
1423,0.52,0.81,0.25,0.37,-2.93,-2.01,361,281,209,443,366,29
1424,0.52,0.82,0.26,0.43,-2.44,-2.93,364,280,203,438,363,29
1425,0.51,0.82,0.26,1.1,-3.11,-2.99,359,283,206,439,365,29
1426,0.51,0.82,0.25,-0.12,-1.83,-3.3,357,281,209,442,362,29
1427,0.52,0.82,0.25,3.05,-2.44,-3.78,359,283,205,445,361,29
1428,0.51,0.83,0.27,-0.06,-1.83,-2.08,356,283,203,443,363,29
1429,0.52,0.78,0.24,4.33,-7.14,0.98,358,282,209,443,363,29
1430,0.51,0.8,0.21,0.18,-6.59,-1.95,355,282,206,444,362,29
1431,0.52,0.81,0.22,0.98,-3.97,-1.53,359,288,211,441,363,29
1432,0.51,0.83,0.23,-0.67,-1.1,-5.07,356,284,209,444,362,29
1433,0.52,0.83,0.23,1.95,-2.93,-0.18,356,280,206,441,366,29
1434,0.53,0.83,0.21,-0.67,-3.05,-1.65,355,283,206,437,364,29
1435,0.52,0.81,0.22,0.55,-2.75,-2.93,357,284,206,443,362,29
1436,0.53,0.83,0.23,1.77,-3.42,-2.87,358,279,211,442,363,29
1437,0.52,0.81,0.22,-0.31,-3.36,-0.92,353,282,209,444,365,29
1438,0.52,0.81,0.22,-0.67,-2.08,-1.4,357,284,205,444,364,29
1439,0.52,0.81,0.23,0.0,-2.69,-2.75,359,282,206,442,363,29
1440,0.52,0.82,0.22,0.24,-2.2,-3.48,359,283,207,436,361,29
1441,0.52,0.82,0.23,0.0,-3.97,-1.77,357,282,205,443,365,29
1442,0.52,0.82,0.24,-0.37,-1.53,-2.69,358,284,208,445,366,29
1443,0.53,0.81,0.24,-2.99,0.37,1.77,358,284,206,450,359,29
1444,0.54,0.77,0.26,-10.38,-9.46,2.38,357,284,207,446,366,29
1445,0.6,0.84,0.26,-8.97,0.0,-10.99,357,282,209,444,365,29
1446,0.5,0.83,0.26,7.63,1.53,-4.15,357,283,210,443,363,29
1447,0.5,0.82,0.27,-8.79,4.09,-9.46,350,280,207,436,363,29
1448,0.48,0.81,0.29,-1.04,-4.82,0.49,356,282,208,443,375,29
1449,0.5,0.81,0.28,0.06,-4.15,-0.98,358,282,209,445,363,29
1450,0.5,0.82,0.28,-0.31,-2.81,0.79,357,282,210,442,362,29
1451,0.5,0.82,0.29,-0.49,-3.54,-1.46,354,281,208,445,363,29
1452,0.51,0.79,0.28,-1.22,-4.33,-1.46,356,285,208,441,365,29
1453,0.51,0.81,0.29,0.85,-2.01,-2.62,356,285,209,441,361,29
1454,0.52,0.82,0.29,0.73,-1.65,-3.11,359,300,210,443,363,29
1455,0.51,0.82,0.28,0.92,-2.81,-3.11,356,285,204,442,362,29
1456,0.5,0.81,0.28,1.04,-2.93,-2.08,359,282,209,444,365,29
1457,0.51,0.82,0.28,0.79,-1.16,-1.65,357,284,211,440,364,29
1458,0.51,0.82,0.27,1.1,-3.72,-3.23,359,282,206,445,362,29
1459,0.5,0.82,0.28,-0.85,-2.32,-2.69,363,281,205,445,362,29
1460,0.51,0.81,0.28,-1.53,-3.17,-2.01,357,282,206,445,363,29
1461,0.5,0.81,0.28,-0.49,-3.48,-3.42,359,282,209,441,362,29
1462,0.52,0.81,0.27,1.89,-4.33,-2.2,357,278,206,443,363,29
1463,0.51,0.81,0.28,-0.12,-2.69,-3.48,358,278,210,442,363,29
1464,0.52,0.82,0.27,0.18,-3.23,-2.14,356,283,206,442,360,29
1465,0.52,0.82,0.27,0.98,-2.14,-3.42,359,284,221,439,364,29
1466,0.53,0.83,0.27,-0.12,-3.97,-2.93,359,286,208,445,365,29
1467,0.52,0.81,0.28,0.98,-2.69,-1.77,355,281,208,443,360,29
1468,0.52,0.82,0.27,0.43,-3.91,-1.4,348,284,206,437,360,29
1469,0.52,0.81,0.28,1.28,-4.15,-2.62,355,280,206,444,359,29
1470,0.52,0.81,0.26,-0.06,-3.17,-2.01,358,283,209,441,364,29
1471,0.53,0.81,0.26,0.12,-2.5,-3.05,359,282,205,442,359,29
1472,0.52,0.81,0.27,1.59,-1.22,-2.26,357,284,209,442,359,29
1473,0.52,0.82,0.27,0.24,-2.38,-3.11,357,282,209,446,364,29
1474,0.53,0.81,0.26,1.65,-1.53,-2.32,359,285,209,442,365,29
1475,0.52,0.81,0.27,0.85,-3.42,-2.69,358,282,206,447,364,29
1476,0.52,0.81,0.27,1.46,-4.46,-2.38,357,282,206,438,362,29
1477,0.52,0.81,0.26,0.43,-2.99,-1.83,360,282,206,446,362,29
1478,0.53,0.82,0.27,3.97,-1.77,0.31,370,283,209,441,362,29
1479,0.53,0.81,0.26,0.85,-4.09,-3.11,361,283,210,436,363,29
1480,0.53,0.82,0.26,0.43,-2.26,-1.34,358,281,210,442,364,29
1481,0.53,0.79,0.27,1.77,-1.04,-2.99,358,281,206,443,363,29
1482,0.53,0.8,0.28,-0.98,-3.3,-1.95,357,282,209,447,366,29
1483,0.53,0.8,0.28,1.34,-2.26,-1.77,352,282,207,447,362,29
1484,0.54,0.79,0.28,-1.77,-2.69,-3.36,355,282,206,446,359,29
1485,0.53,0.81,0.28,0.85,-3.17,-2.44,358,285,210,445,361,29
1486,0.53,0.8,0.28,0.49,-2.14,-2.81,357,280,210,440,359,29
1487,0.53,0.81,0.28,1.1,-2.38,-3.11,352,282,210,442,363,29
1488,0.51,0.81,0.27,-0.06,-3.3,-3.6,367,282,208,442,362,29
1489,0.52,0.81,0.27,-0.37,-2.2,-2.81,358,283,209,437,363,29
1490,0.51,0.81,0.29,0.18,-3.54,-2.32,357,282,210,442,363,29
1491,0.52,0.8,0.28,-0.18,-3.91,-3.3,360,285,209,441,370,29
1492,0.52,0.8,0.27,0.49,-2.32,-2.62,360,285,206,445,361,29
1493,0.52,0.81,0.28,-0.85,-4.03,-3.17,357,284,209,437,366,29
1494,0.53,0.81,0.27,0.98,-1.77,-2.87,357,281,206,440,365,29
1495,0.52,0.81,0.28,0.18,-3.36,-2.32,364,281,211,441,362,29
1496,0.52,0.8,0.27,-0.06,-2.26,-1.77,358,285,216,454,359,29
1497,0.52,0.8,0.28,0.43,-2.99,-2.32,357,284,208,438,364,29
1498,0.52,0.81,0.28,0.12,-3.36,-1.71,359,282,211,442,359,29
1499,0.52,0.81,0.27,0.24,-3.05,-2.14,360,283,208,446,363,29
1500,0.52,0.81,0.27,1.16,-2.75,-1.95,359,285,208,444,360,29
1501,0.53,0.82,0.27,1.04,-2.26,-1.89,357,282,207,442,364,29
1502,0.53,0.81,0.26,0.31,-2.81,-2.56,357,286,210,441,365,29
1503,0.52,0.8,0.26,0.79,-2.62,-2.08,357,283,208,439,364,29
1504,0.53,0.81,0.26,-0.18,-2.87,-2.99,360,286,207,446,364,29
1505,0.53,0.81,0.27,-0.31,-1.59,-2.87,357,284,209,439,365,29
1506,0.53,0.81,0.28,-0.37,-3.11,-2.93,360,282,206,442,362,29
1507,0.52,0.79,0.26,-0.18,-3.97,-1.83,360,285,207,445,359,29
1508,0.55,0.81,0.26,5.0,-7.51,0.12,360,285,208,445,362,29
1509,0.53,0.81,0.25,2.2,-4.64,-1.83,355,282,209,443,363,29
1510,0.55,0.82,0.24,2.56,-1.22,-3.36,359,282,208,442,365,29
1511,0.55,0.79,0.24,0.79,-3.05,-4.52,360,285,209,441,365,29
1512,0.53,0.82,0.25,1.04,-2.99,-2.62,361,285,206,446,363,29
1513,0.54,0.82,0.24,1.71,-2.2,-3.72,356,282,204,436,362,29
1514,0.52,0.82,0.26,-1.77,-1.65,-2.32,361,281,209,442,360,29
1515,0.54,0.82,0.25,-0.06,-2.56,-2.38,356,282,208,442,363,29
1516,0.53,0.81,0.25,0.24,-2.01,-1.89,397,283,203,442,362,29
1517,0.54,0.82,0.25,2.69,-1.46,-3.05,357,282,203,443,359,29
1518,0.52,0.82,0.26,0.24,-3.54,-2.81,360,281,208,442,363,29
1519,0.52,0.8,0.25,0.92,-1.04,-0.79,358,278,208,438,363,29
1520,0.52,0.8,0.25,-0.61,-3.54,-1.89,358,279,208,438,360,29
1521,0.54,0.79,0.27,0.79,-0.92,-2.5,358,283,209,445,364,29
1522,0.53,0.79,0.28,-0.49,-0.98,-4.76,360,285,208,441,362,29
1523,0.58,0.83,0.27,1.28,-3.17,-6.35,356,285,206,447,363,29
1524,0.56,0.83,0.27,1.4,-5.25,-5.37,358,283,206,441,366,29
1525,0.53,0.8,0.28,-0.92,-1.89,-0.49,359,283,207,443,364,29
1526,0.54,0.8,0.27,-0.12,-3.11,-1.77,356,280,207,446,364,29
1527,0.55,0.8,0.28,-0.18,-2.32,-3.66,358,284,210,441,363,29
1528,0.54,0.8,0.28,0.67,-2.5,-3.17,357,281,209,441,365,29
1529,0.55,0.8,0.27,0.92,-3.17,-3.3,361,283,208,443,365,29
1530,0.54,0.8,0.28,0.31,-3.11,-2.26,358,283,207,439,360,29
1531,0.54,0.8,0.28,0.0,-2.69,-2.38,360,285,205,443,361,29
1532,0.54,0.79,0.28,0.49,-2.26,-3.23,357,286,207,441,366,29
1533,0.5,0.8,0.28,0.0,-4.27,-4.58,360,283,206,447,357,29
1534,0.5,0.81,0.3,3.91,-2.87,-1.71,358,282,208,437,364,29
1535,0.52,0.8,0.27,0.55,-5.86,-1.53,359,282,209,445,365,29
1536,0.56,0.82,0.26,0.24,-4.09,-0.49,356,281,209,438,366,29
1537,0.57,0.82,0.25,0.92,-4.64,-2.38,359,283,207,445,367,29
1538,0.54,0.78,0.27,-0.67,-3.78,-4.88,361,281,208,444,363,29
1539,0.42,0.89,0.19,-5.68,-10.68,-8.79,380,276,206,439,360,29
1540,0.37,0.88,0.28,2.93,-1.4,-6.41,382,275,200,447,358,29
1541,0.38,0.94,0.27,-2.5,-1.77,-2.14,384,280,198,444,362,29
1542,0.39,0.88,0.3,-0.06,-1.16,-3.36,381,277,201,442,360,29
1543,0.37,0.95,0.29,2.44,1.46,1.34,378,277,205,443,359,29
1544,0.35,0.88,0.31,-5.74,-7.02,-2.08,378,280,206,443,361,29
1545,0.41,0.82,0.27,-12.51,5.49,-4.64,378,277,202,438,358,29
1546,0.37,0.86,0.33,-0.79,8.61,6.23,367,278,205,440,355,29
1547,0.42,0.92,0.29,-8.18,-10.86,7.02,367,277,201,437,354,29
1548,0.42,0.8,0.33,0.49,-0.61,-1.4,379,277,205,445,358,29
1549,0.42,0.82,0.32,0.67,8.42,-13.67,367,277,205,439,355,29
1550,0.45,0.85,0.35,4.64,-4.58,-3.78,370,276,201,438,358,29
1551,0.42,0.84,0.33,-2.08,-2.56,-0.73,370,278,209,447,359,29
1552,0.43,0.84,0.34,0.0,-1.1,1.71,369,280,200,457,357,29
1553,0.44,0.83,0.34,2.44,-3.05,-1.46,370,278,202,445,359,29
1554,0.44,0.84,0.33,-1.28,-3.11,-0.31,368,281,202,442,357,29
1555,0.43,0.82,0.35,-0.55,-3.97,-1.95,370,280,203,444,358,29
1556,0.44,0.83,0.33,2.56,-2.81,-3.23,371,281,199,447,358,29
1557,0.46,0.84,0.3,5.98,-7.75,-1.22,368,277,202,438,357,29
1558,0.46,0.83,0.32,2.56,-2.62,-3.3,369,275,202,443,358,29
1559,0.48,0.85,0.3,-0.12,-1.53,-6.9,370,279,203,444,360,29
1560,0.47,0.83,0.28,-0.79,-2.62,0.37,371,288,202,439,356,29
1561,0.5,0.83,0.29,-1.22,-3.17,-1.65,368,281,203,443,360,29
1562,0.5,0.82,0.29,3.23,-3.42,-2.08,370,278,203,445,353,29
1563,0.49,0.82,0.29,0.18,-1.34,-0.73,366,278,202,444,357,29
1564,0.49,0.82,0.31,-0.31,0.12,-4.39,365,278,205,442,356,29
1565,0.49,0.82,0.3,2.5,-2.81,-5.25,370,280,205,444,357,29
1566,0.48,0.82,0.3,0.67,-0.73,-3.17,365,285,202,442,358,29
1567,0.49,0.85,0.31,-2.44,-0.31,-3.36,365,278,204,445,361,29
1568,0.46,0.86,0.31,2.87,-4.88,-7.57,368,277,205,450,358,29
1569,0.44,0.85,0.31,-3.23,-0.06,-9.28,367,275,202,437,358,29
1570,0.46,0.8,0.29,0.79,-12.57,-6.16,366,279,201,448,359,29
1571,0.46,0.8,0.27,3.72,-2.26,-0.67,367,278,204,442,360,29
1572,0.5,0.85,0.23,6.35,-5.74,-2.44,362,277,205,440,360,29
1573,0.5,0.82,0.24,-4.33,-1.95,-0.49,367,280,205,441,358,29
1574,0.5,0.82,0.25,-1.46,-6.9,-3.05,368,277,202,437,356,29
1575,0.51,0.81,0.24,-7.81,-2.69,-0.98,371,276,203,442,358,29
1576,0.52,0.82,0.24,1.95,-1.83,-3.05,370,278,204,442,360,29
1577,0.5,0.81,0.25,0.12,-2.62,-2.44,371,275,201,442,355,29
1578,0.5,0.84,0.26,3.17,0.24,-3.66,369,277,204,439,357,29
1579,0.53,0.86,0.25,2.5,0.85,-4.88,369,277,202,442,358,29
1580,0.51,0.86,0.23,4.64,0.0,-1.95,368,278,201,443,360,29
1581,0.51,0.86,0.27,0.55,-0.24,-2.44,364,277,205,443,356,29
1582,0.54,0.82,0.27,6.77,-1.83,-5.49,368,279,204,446,355,29
1583,0.51,0.79,0.25,3.48,-8.18,-2.81,365,280,202,446,358,29
1584,0.5,0.82,0.27,-5.8,-7.51,-3.54,379,280,203,444,358,29
1585,0.52,0.81,0.25,0.85,-8.06,-4.03,368,280,201,443,358,29
1586,0.5,0.82,0.25,6.65,-3.72,-4.21,370,278,202,437,358,29
1587,0.51,0.85,0.27,4.15,-1.65,-6.29,370,277,204,443,356,29
1588,0.49,0.86,0.26,5.92,-4.39,-1.71,372,278,203,437,359,29
1589,0.49,0.82,0.24,0.31,-4.33,-2.44,367,277,199,446,357,29
1590,0.5,0.84,0.24,0.49,-2.38,-2.2,371,278,203,440,361,29
1591,0.52,0.84,0.24,2.81,-3.3,-3.48,369,277,205,442,358,29
1592,0.5,0.83,0.24,2.01,-1.77,-3.48,368,278,200,443,357,29
1593,0.51,0.82,0.23,2.93,-1.83,-2.26,368,280,202,448,360,29
1594,0.52,0.81,0.23,-4.46,3.78,-5.86,367,277,205,442,360,29
1595,0.5,0.82,0.26,-0.67,-2.69,0.24,396,279,205,442,358,29
1596,0.51,0.82,0.27,2.26,-3.66,-2.44,364,280,204,442,361,29
1597,0.5,0.81,0.27,1.34,0.12,-4.27,368,280,202,443,361,29
1598,0.5,0.81,0.26,1.59,-2.93,-3.05,368,281,201,446,362,29
1599,0.5,0.82,0.27,-0.24,-3.78,-2.93,365,281,203,446,359,29
1600,0.49,0.82,0.27,0.06,-4.76,-2.2,370,278,201,445,359,29
1601,0.49,0.83,0.28,1.4,-2.75,-2.62,366,278,199,442,355,29
1602,0.47,0.81,0.26,-1.89,-1.71,-1.59,367,275,205,440,361,29
1603,0.51,0.83,0.24,1.4,-1.16,-2.08,365,277,197,443,355,29
1604,0.49,0.83,0.24,1.95,-3.72,-1.04,357,279,204,442,361,29
1605,0.5,0.83,0.24,1.04,-3.97,-0.92,365,277,204,445,356,29
1606,0.49,0.82,0.24,-0.49,-2.08,-0.67,363,276,205,442,357,29
1607,0.51,0.83,0.25,-0.24,-2.62,-2.62,370,277,203,448,360,29
1608,0.51,0.83,0.26,-1.46,-2.2,-1.34,370,279,204,444,359,29
1609,0.52,0.83,0.25,-0.12,-3.6,-1.95,369,279,204,443,361,29
1610,0.51,0.82,0.25,1.16,-2.87,-3.05,366,281,202,441,359,29
1611,0.51,0.82,0.25,-1.16,-2.38,-1.65,370,276,217,442,359,29
1612,0.52,0.82,0.25,0.31,-3.3,-2.81,366,277,202,442,355,29
1613,0.52,0.82,0.25,-1.16,-2.56,-2.08,368,279,202,448,360,29
1614,0.51,0.83,0.26,1.04,-2.5,-2.56,368,281,204,442,358,29
1615,0.52,0.82,0.26,2.87,-2.26,-1.83,367,280,204,442,360,29
1616,0.52,0.82,0.25,1.1,-1.53,-3.17,365,278,207,444,360,29
1617,0.52,0.83,0.25,2.81,-5.07,-2.38,367,277,204,439,360,29
1618,0.51,0.82,0.26,1.59,-0.55,-3.23,365,279,203,437,354,29
1619,0.5,0.81,0.27,-0.73,-2.26,1.34,367,280,205,442,359,29
1620,0.52,0.82,0.27,-0.49,-1.83,-1.71,366,279,201,440,358,29
1621,0.51,0.82,0.27,0.98,-4.09,-3.17,368,278,204,445,360,29
1622,0.52,0.81,0.26,0.06,-3.11,-2.2,369,281,205,442,360,29
1623,0.52,0.82,0.26,0.06,-3.3,-2.01,365,284,205,445,358,29
1624,0.51,0.82,0.27,-0.43,-2.14,-2.08,367,278,206,441,355,29
1625,0.52,0.82,0.25,3.05,-2.87,-4.94,366,280,205,448,365,29
1626,0.51,0.82,0.25,2.01,-2.87,-1.89,365,276,201,437,361,29
1627,0.5,0.82,0.25,-0.55,-1.95,-2.93,369,281,203,442,360,29
1628,0.52,0.82,0.24,-0.12,-3.3,-1.77,371,278,202,443,359,29
1629,0.51,0.83,0.26,0.12,-3.23,-2.44,366,279,202,441,356,29
1630,0.52,0.83,0.24,0.0,-2.38,-2.75,370,278,204,437,357,29
1631,0.52,0.82,0.25,-0.18,-3.05,-0.79,367,279,203,443,359,29
1632,0.52,0.81,0.24,1.22,-3.78,-1.16,364,280,207,441,360,29
1633,0.51,0.83,0.24,1.46,-2.01,-2.69,369,283,205,442,362,29
1634,0.53,0.83,0.25,-0.61,-5.62,-0.37,365,279,219,438,361,29
1635,0.52,0.82,0.25,1.22,-1.34,-3.42,370,278,202,442,359,29
1636,0.51,0.83,0.25,-2.75,-3.72,-2.32,369,280,202,445,361,29
1637,0.53,0.8,0.25,0.0,-3.91,-1.34,367,278,202,436,359,29
1638,0.52,0.81,0.24,-1.4,-3.6,-1.28,368,279,201,451,357,29
1639,0.54,0.81,0.25,2.26,-3.05,-0.79,367,277,204,437,360,29
1640,0.52,0.8,0.25,-1.34,-1.65,-1.16,368,281,207,442,359,29
1641,0.53,0.82,0.27,1.04,-2.56,-2.38,368,281,202,443,359,29
1642,0.54,0.8,0.26,0.61,-2.01,-3.23,378,283,210,444,359,29
1643,0.53,0.81,0.27,0.61,-1.28,-2.62,365,278,202,446,360,29
1644,0.51,0.81,0.26,0.24,-3.17,-3.05,369,278,203,440,360,29
1645,0.52,0.8,0.26,-1.04,-3.6,-4.64,364,277,204,444,357,29
1646,0.52,0.81,0.27,0.18,-3.3,-2.81,369,282,206,442,362,29
1647,0.52,0.8,0.25,1.28,-4.46,-4.27,369,279,203,440,360,29
1648,0.52,0.81,0.26,0.12,-2.81,-1.89,366,280,203,442,361,29
1649,0.51,0.82,0.26,-1.83,-2.99,-2.81,368,281,204,443,360,29
1650,0.52,0.81,0.25,0.49,-3.05,-2.44,367,288,205,440,362,29
1651,0.53,0.83,0.29,-6.35,-2.87,2.01,368,279,204,440,360,29
1652,0.55,0.82,0.27,-2.38,-5.25,-1.83,367,282,202,445,360,29
1653,0.53,0.79,0.26,-1.28,-2.44,-3.97,368,278,207,435,360,29
1654,0.53,0.82,0.28,1.34,-1.53,2.38,368,279,207,443,361,29
1655,0.54,0.79,0.27,0.73,-3.66,-1.34,366,279,208,446,360,29
1656,0.53,0.8,0.28,2.01,-0.12,-4.03,371,278,219,442,359,29
1657,0.53,0.76,0.27,-3.78,-6.47,-3.85,368,281,207,441,359,29
1658,0.52,0.77,0.28,-1.28,-5.92,-4.21,367,278,206,440,358,29
1659,0.52,0.79,0.28,-1.65,-2.75,-2.69,370,278,203,439,361,29
1660,0.54,0.79,0.29,0.67,-3.36,-1.1,370,279,209,441,356,29
1661,0.55,0.8,0.29,0.61,-3.54,-2.2,370,279,203,441,360,29
1662,0.56,0.8,0.28,2.99,-3.48,-3.66,370,281,217,436,356,29
1663,0.53,0.8,0.28,2.2,-2.99,-4.09,368,277,204,443,359,29
1664,0.56,0.79,0.26,0.55,-4.58,-1.89,369,276,205,439,359,29
1665,0.55,0.78,0.29,-1.4,-3.48,0.79,370,279,204,441,358,29
1666,0.54,0.77,0.28,-3.97,-4.52,-3.05,368,279,206,445,360,29
1667,0.53,0.78,0.28,4.52,-0.85,-6.29,370,278,208,439,359,29
1668,0.54,0.8,0.29,-1.4,-2.62,-3.23,372,280,206,445,364,29
1669,0.55,0.8,0.28,1.89,-3.05,-3.85,367,279,202,440,360,29
1670,0.56,0.82,0.27,4.39,-1.22,-3.66,368,281,206,440,363,29
1671,0.55,0.81,0.28,1.77,-4.64,-4.58,368,282,201,440,354,29
1672,0.56,0.81,0.26,4.33,-3.42,-1.71,370,280,206,442,358,29
1673,0.55,0.81,0.27,1.89,-3.72,-6.23,369,280,203,444,361,29
1674,0.53,0.79,0.27,-2.01,-4.21,-2.5,369,279,207,441,361,29
1675,0.52,0.81,0.27,-3.17,-2.38,-2.2,367,280,203,441,362,29
1676,0.55,0.79,0.29,2.56,-2.5,-2.26,369,281,203,442,362,29
1677,0.54,0.8,0.29,1.16,-2.01,-3.23,369,278,206,441,360,29
1678,0.55,0.79,0.26,1.65,-3.78,-0.61,369,278,203,441,360,29
1679,0.53,0.79,0.27,1.04,0.31,-4.52,368,279,204,439,358,29
1680,0.54,0.81,0.26,1.53,-3.6,-0.18,371,282,207,442,358,29
1681,0.54,0.8,0.27,-0.85,-2.32,-1.28,370,280,207,442,362,29
1682,0.56,0.79,0.26,1.83,-5.19,-1.71,369,279,206,442,359,29
1683,0.55,0.8,0.26,0.98,-4.27,-2.5,371,279,218,442,362,29
1684,0.55,0.79,0.26,-0.61,-3.54,-3.05,371,282,206,436,356,29
1685,0.54,0.79,0.27,-3.54,-2.5,-0.73,368,278,204,441,359,29
1686,0.55,0.8,0.26,0.31,-3.85,-1.95,368,276,205,436,359,29
1687,0.54,0.8,0.27,-1.77,-1.65,-2.32,369,279,201,440,360,29
1688,0.53,0.8,0.27,1.46,-2.2,-2.93,372,280,204,436,360,29
1689,0.55,0.79,0.27,0.18,-1.4,-2.75,370,282,203,439,359,29
1690,0.55,0.8,0.27,-0.24,-2.32,-1.22,369,285,204,445,356,29
1691,0.55,0.78,0.28,2.2,-3.05,-2.75,368,281,208,445,361,29
1692,0.55,0.79,0.27,1.71,-3.3,-3.54,369,279,204,442,361,29
1693,0.54,0.8,0.27,1.4,-4.39,-5.31,368,281,204,442,360,29
1694,0.56,0.82,0.28,3.78,-2.26,-2.14,369,281,207,441,360,29
1695,0.55,0.8,0.26,0.24,-4.33,-3.6,369,278,204,440,360,29
1696,0.54,0.81,0.27,-2.14,-3.66,-6.71,367,285,204,442,361,29
1697,0.54,0.81,0.28,-2.01,-2.75,-0.31,370,280,201,436,356,29
1698,0.56,0.81,0.28,0.73,-4.76,-3.78,367,288,203,439,360,29
1699,0.55,0.8,0.29,-1.1,-1.28,-2.38,370,276,205,445,357,29
1700,0.54,0.8,0.28,3.05,-4.03,1.04,367,279,213,441,362,29
1701,0.56,0.78,0.27,-0.43,-3.36,-1.65,368,281,201,445,356,29
1702,0.55,0.78,0.28,0.43,-1.95,-4.09,371,284,209,443,356,29
1703,0.55,0.79,0.27,0.37,-2.75,-2.44,368,282,209,445,360,29
1704,0.55,0.79,0.29,1.04,-3.97,-2.75,372,275,204,442,358,29
1705,0.56,0.78,0.28,1.28,-4.15,-2.62,368,277,204,441,362,29
1706,0.55,0.79,0.29,0.18,-2.38,-2.56,368,281,209,444,361,29
1707,0.55,0.79,0.28,-0.31,-3.17,-4.58,370,282,207,437,358,29
1708,0.56,0.79,0.26,1.83,-3.3,-2.14,368,277,206,441,362,29
1709,0.55,0.79,0.28,0.12,-3.72,-2.38,366,282,203,442,362,29
1710,0.56,0.78,0.27,-1.77,-2.32,-2.99,367,282,207,439,360,29
1711,0.55,0.79,0.27,1.71,-2.93,-1.83,367,279,203,441,361,29
1712,0.55,0.78,0.27,-0.61,-2.5,-2.81,368,281,204,438,360,29
1713,0.55,0.78,0.27,1.16,-3.78,-3.3,375,279,205,444,357,29
1714,0.54,0.8,0.28,1.59,-3.3,-0.67,368,278,204,437,357,29
1715,0.55,0.79,0.27,1.53,-2.26,-2.14,368,280,203,442,361,29
1716,0.55,0.8,0.26,1.77,-2.26,-3.17,368,280,204,442,361,29
1717,0.56,0.8,0.26,-1.4,-1.71,-3.6,365,281,203,442,361,29
1718,0.56,0.8,0.26,-0.12,-3.42,-2.01,370,282,205,442,362,29
1719,0.56,0.81,0.27,1.22,-2.2,-4.03,369,280,207,441,361,29
1720,0.56,0.8,0.26,2.14,-3.42,-1.83,370,279,207,442,357,29
1721,0.55,0.8,0.25,-0.43,-3.23,-2.99,369,279,203,435,359,29
1722,0.56,0.78,0.26,-2.69,-3.66,-2.69,370,279,207,441,361,29
1723,0.55,0.79,0.26,0.61,-2.01,-1.77,371,275,203,444,360,29
1724,0.55,0.79,0.27,-0.06,-2.87,-3.54,365,279,204,444,364,29
1725,0.55,0.8,0.26,1.53,-2.87,-2.44,366,280,203,445,364,29
1726,0.55,0.8,0.27,0.24,-3.48,-2.81,368,280,211,442,359,29
1727,0.54,0.8,0.28,-0.18,-2.5,-1.71,368,280,207,443,362,29
1728,0.54,0.79,0.28,-0.49,-2.62,-1.65,367,281,207,440,361,29
1729,0.54,0.79,0.28,-2.26,-2.69,-1.83,371,279,202,444,362,29
1730,0.55,0.78,0.28,-0.73,-2.38,-2.08,368,280,206,442,361,29
1731,0.55,0.79,0.29,-0.79,-2.44,-3.3,365,282,206,442,362,29
1732,0.55,0.78,0.28,-0.37,-3.11,-2.93,369,280,207,442,363,29
1733,0.54,0.79,0.28,1.4,-3.17,-2.2,374,281,205,438,361,29
1734,0.54,0.79,0.29,-0.37,-1.65,-2.93,371,282,207,436,357,29
1735,0.55,0.79,0.28,1.16,-2.14,-2.75,369,280,207,440,363,29
1736,0.55,0.8,0.28,1.4,-3.48,-2.99,371,279,208,445,360,29
1737,0.54,0.79,0.28,-0.12,-2.93,-2.56,367,279,205,444,360,29
1738,0.55,0.79,0.28,0.98,-4.88,-1.28,370,280,208,441,362,29
1739,0.53,0.78,0.28,-0.06,-2.32,-2.62,369,282,205,440,362,29
1740,0.54,0.8,0.28,-0.73,-1.34,-2.44,371,279,207,445,363,29
1741,0.55,0.8,0.29,0.73,-3.11,-2.62,366,282,203,440,359,29
1742,0.54,0.79,0.28,-0.49,-2.01,-3.6,367,280,206,441,360,29
1743,0.54,0.8,0.28,-1.16,-2.44,-2.93,369,281,207,442,361,29
1744,0.54,0.8,0.29,0.67,-1.83,-1.53,369,280,205,446,362,29
1745,0.56,0.8,0.29,-0.92,-3.23,-1.65,365,278,203,440,362,29
1746,0.55,0.79,0.28,-0.24,-2.14,-2.93,371,279,205,443,361,29
1747,0.54,0.78,0.3,1.34,-3.48,-2.32,382,282,204,443,361,29
1748,0.55,0.79,0.29,1.22,-2.69,-2.62,366,285,206,442,361,29
1749,0.55,0.79,0.29,-0.24,-3.11,-2.2,368,281,204,442,363,29
1750,0.57,0.79,0.3,1.34,-1.83,-1.95,368,284,204,445,362,29
1751,0.56,0.79,0.3,0.37,-3.42,-2.93,372,279,206,438,363,29
1752,0.54,0.77,0.3,-2.32,-4.15,-2.99,373,280,206,440,362,29
1753,0.55,0.79,0.31,-0.24,-1.89,-1.53,369,283,203,440,361,29
1754,0.55,0.77,0.31,-0.67,-2.5,-0.73,370,283,208,442,361,29
1755,0.57,0.78,0.3,0.18,-2.93,-2.2,367,282,205,440,362,29
1756,0.55,0.77,0.32,-0.79,-3.11,-2.08,367,279,203,438,361,29
1757,0.58,0.79,0.3,0.73,-2.2,-3.23,366,281,205,441,361,29
1758,0.56,0.78,0.3,-3.36,-3.78,-3.72,370,281,208,441,360,29
1759,0.53,0.75,0.34,1.4,2.26,-12.88,369,282,205,441,362,29
1760,0.49,0.82,0.37,0.37,0.85,-6.1,371,286,207,444,364,29
1761,0.37,0.77,0.45,5.74,-3.42,4.09,369,279,206,445,359,29
1762,0.41,0.88,0.38,-0.85,0.06,-11.9,369,280,203,442,362,29
1763,0.41,0.8,0.38,-4.64,-2.81,-6.16,369,282,208,441,362,29
1764,0.42,0.79,0.41,1.28,-1.04,-2.08,370,281,206,443,365,29
1765,0.4,0.85,0.44,-0.43,-0.06,0.0,369,280,205,445,364,29
1766,0.36,0.78,0.43,-1.77,0.98,-3.11,372,280,209,445,363,29
1767,0.39,0.84,0.48,-1.89,-1.1,-11.41,368,280,208,436,363,29
1768,0.39,0.79,0.43,0.06,-4.76,-11.6,368,279,210,443,363,29
1769,0.38,0.82,0.47,0.49,-1.59,-3.05,366,279,208,437,363,29
1770,0.36,0.82,0.44,0.92,-4.15,-1.46,368,282,205,439,361,29
1771,0.4,0.8,0.41,0.98,-6.53,-2.5,375,292,207,440,361,29
1772,0.38,0.82,0.41,3.78,-1.83,-1.34,367,279,201,443,362,29
1773,0.41,0.81,0.41,3.54,-2.62,-2.5,368,281,202,442,363,29
1774,0.4,0.81,0.4,0.67,-3.05,-0.85,366,280,204,444,363,29
1775,0.37,0.82,0.4,4.58,-1.22,1.22,372,283,203,444,361,29
1776,0.41,0.84,0.39,0.31,-0.37,-0.98,367,283,204,444,364,29
1777,0.42,0.8,0.38,-0.06,-4.7,-2.01,369,282,206,441,363,29
1778,0.42,0.83,0.37,-2.32,-3.48,-2.01,367,281,202,442,362,29
1779,0.42,0.89,0.37,-5.25,0.49,0.85,369,282,206,438,360,29
1780,0.44,0.87,0.37,-1.28,-1.16,0.06,364,281,205,442,362,29
1781,0.44,0.84,0.39,-0.12,-2.32,-5.37,396,281,202,436,366,29
1782,0.42,0.83,0.38,-1.04,-2.14,0.92,369,282,204,444,375,29
1783,0.44,0.79,0.38,-0.61,-2.56,-2.01,366,294,207,441,365,29
1784,0.45,0.81,0.38,0.37,-3.97,-2.38,371,283,205,445,361,29
1785,0.45,0.81,0.39,-0.24,-1.59,-2.5,371,283,206,441,363,29
1786,0.44,0.8,0.38,-2.26,-3.6,-2.08,368,282,204,442,364,29
1787,0.45,0.81,0.38,-0.24,-2.99,-1.71,370,282,204,442,361,29
1788,0.45,0.81,0.37,-0.49,-3.11,-1.34,367,281,204,445,360,29
1789,0.43,0.81,0.39,-1.1,-3.78,-0.73,371,278,205,441,362,29
1790,0.48,0.8,0.39,-15.44,-4.15,-5.74,365,280,205,441,364,29
1791,0.44,0.82,0.39,1.83,-1.46,-1.53,369,282,203,441,360,29
1792,0.45,0.82,0.39,-3.11,-2.69,-3.91,369,282,203,437,366,29
1793,0.46,0.81,0.38,-1.89,-3.54,-1.1,368,282,205,440,360,29
1794,0.47,0.8,0.38,-0.31,-3.97,-2.56,366,280,205,440,363,29
1795,0.47,0.8,0.4,3.36,-1.28,-2.56,366,284,203,442,360,29
1796,0.47,0.82,0.4,3.36,-3.36,-2.87,367,281,205,445,364,29
1797,0.45,0.82,0.38,0.12,-4.58,-1.65,365,283,204,445,366,29
1798,0.47,0.82,0.36,0.73,-4.76,-5.62,369,281,205,435,364,29
1799,0.44,0.8,0.37,2.5,-0.31,-4.09,365,284,204,442,366,29
1800,0.46,0.83,0.39,-0.12,-4.64,-5.92,365,283,205,440,366,29
1801,0.47,0.81,0.33,-1.46,-2.38,-2.44,366,282,205,441,364,29
1802,0.45,0.78,0.35,-3.17,-5.13,-0.92,367,282,208,444,359,29
1803,0.46,0.82,0.36,0.49,-3.42,0.85,368,281,205,436,364,29
1804,0.44,0.77,0.38,-2.2,-0.49,-4.94,365,281,207,440,362,29
1805,0.46,0.82,0.39,2.87,2.14,-3.23,367,281,207,444,366,29
1806,0.45,0.8,0.4,-2.08,-2.44,-0.67,363,283,207,443,366,29
1807,0.47,0.81,0.4,-0.92,-4.33,0.67,363,287,207,448,364,29
1808,0.47,0.81,0.38,0.92,-1.89,0.12,365,283,206,446,366,29
1809,0.49,0.8,0.34,7.32,-3.42,-1.34,364,281,205,442,367,29
1810,0.46,0.8,0.37,-1.46,-4.46,-1.83,366,277,204,437,362,29
1811,0.47,0.82,0.39,-0.98,-1.34,-3.36,364,284,202,441,357,29
1812,0.45,0.83,0.39,-1.4,-2.5,-1.71,363,280,208,443,361,29
1813,0.46,0.82,0.38,-0.18,-3.97,-2.56,362,281,208,438,364,29
1814,0.47,0.8,0.37,-1.53,-3.6,-2.81,361,281,204,441,360,29
1815,0.49,0.79,0.36,0.12,-3.23,-2.69,362,284,211,441,364,29
1816,0.45,0.81,0.4,-3.36,-0.43,-4.46,361,281,205,445,366,29
1817,0.47,0.79,0.37,0.43,-4.64,-2.32,360,285,207,440,365,29
1818,0.47,0.81,0.37,2.44,-3.17,-1.65,362,281,208,436,360,29
1819,0.45,0.79,0.37,-2.08,-5.49,-0.79,360,282,207,444,360,29
1820,0.47,0.82,0.38,-1.34,-4.15,-5.49,360,284,204,445,370,29
1821,0.45,0.8,0.39,-0.49,-4.33,-1.83,361,284,206,440,360,29
1822,0.45,0.83,0.37,-0.49,-3.3,-4.21,365,283,206,443,367,29
1823,0.5,0.87,0.39,13.18,-9.52,9.83,356,281,206,440,364,29
1824,0.45,0.86,0.39,29.6,-1.83,-23.19,362,281,207,442,359,29
1825,0.42,0.82,0.33,7.45,-5.43,-0.98,359,283,208,437,362,29
1826,0.41,0.8,0.28,3.23,-1.1,-0.79,362,282,206,443,365,29
1827,0.48,0.87,0.24,8.42,-9.77,-0.37,363,283,203,446,363,29
1828,0.5,0.88,0.22,1.16,-1.59,1.16,363,281,208,438,363,29
1829,0.48,0.81,0.25,-2.44,-5.8,-3.05,364,279,207,443,365,29
1830,0.51,0.88,0.21,3.42,-1.04,0.49,362,281,205,432,366,29
1831,0.49,0.81,0.2,-3.85,-4.94,1.1,364,279,207,442,364,29
1832,0.57,0.81,0.24,5.43,1.46,3.78,363,278,205,445,363,29
1833,0.53,0.78,0.26,-0.49,0.98,-4.21,363,281,204,436,364,29
1834,0.53,0.78,0.25,7.75,4.03,2.93,357,277,205,440,365,29
1835,0.58,0.78,0.23,1.77,-3.11,2.01,361,280,205,445,364,29
1836,0.58,0.79,0.21,3.11,-1.83,-5.0,362,280,206,444,366,29
1837,0.55,0.79,0.22,0.18,-5.31,-6.35,363,279,201,444,362,29
1838,0.55,0.8,0.22,0.31,-2.32,-3.97,361,281,206,441,364,29
1839,0.53,0.8,0.23,-1.89,-2.69,-4.03,361,280,205,443,366,29
1840,0.53,0.81,0.25,-2.08,-2.44,-1.28,358,278,205,441,364,29
1841,0.54,0.79,0.24,0.92,-4.15,-0.55,363,284,208,440,371,29
1842,0.55,0.79,0.25,-0.61,-2.62,-1.34,361,283,205,443,364,29
1843,0.58,0.75,0.24,-11.6,-4.58,1.34,362,280,208,442,361,29
1844,0.56,0.8,0.28,0.37,-3.05,-4.52,360,286,209,445,363,29
1845,0.57,0.79,0.25,1.34,-3.23,-3.85,361,284,207,441,363,29
1846,0.58,0.8,0.26,2.75,-2.44,-1.83,366,283,220,444,365,29
1847,0.57,0.8,0.25,1.22,-2.14,-3.17,360,282,210,442,364,29
1848,0.54,0.79,0.27,0.92,-2.2,-3.66,360,284,204,442,367,29
1849,0.55,0.8,0.26,0.43,-2.99,-2.38,361,283,207,442,362,29
1850,0.55,0.79,0.25,0.12,-4.64,-1.83,359,296,206,445,363,29
1851,0.56,0.79,0.24,0.79,-3.17,-3.54,361,284,201,443,363,29
1852,0.55,0.8,0.25,-0.12,-2.69,-2.5,360,282,209,441,364,29
1853,0.57,0.8,0.25,2.01,-3.66,-2.56,362,282,209,442,364,29
1854,0.55,0.79,0.25,0.18,-2.2,-1.65,362,281,207,445,364,29
1855,0.57,0.8,0.25,-0.98,-2.26,-2.75,359,284,206,442,365,29
1856,0.56,0.79,0.26,-0.98,-1.22,-2.75,356,283,206,440,365,29
1857,0.57,0.79,0.26,2.93,-3.36,-2.62,359,281,204,443,364,29
1858,0.56,0.78,0.25,1.46,-2.93,-1.95,359,282,206,441,367,29
1859,0.56,0.78,0.25,-0.67,-2.38,-2.93,359,280,206,440,365,29
1860,0.57,0.78,0.25,0.18,-1.77,-1.83,360,283,208,441,366,29
1861,0.57,0.78,0.25,0.37,-2.26,-3.23,362,279,209,442,364,29
1862,0.57,0.79,0.25,0.12,-2.44,-2.56,358,282,207,444,365,29
1863,0.56,0.79,0.25,-0.12,-2.5,-2.14,361,283,210,447,365,29
1864,0.56,0.78,0.26,-0.79,-2.75,-2.38,361,281,208,441,366,29
1865,0.58,0.77,0.25,-0.43,-1.89,-1.95,360,281,203,442,368,29
1866,0.59,0.78,0.27,-2.62,-3.78,-2.32,360,281,214,441,361,29
1867,0.58,0.77,0.28,-2.93,-1.77,-3.17,360,284,202,443,362,29
1868,0.56,0.75,0.29,-0.92,-5.25,-4.88,360,285,206,441,362,29
1869,0.58,0.75,0.29,-1.71,-4.33,-2.01,359,282,206,444,362,29
1870,0.56,0.76,0.3,0.0,-3.66,-2.01,381,283,207,442,363,29
1871,0.58,0.74,0.29,-0.31,-3.91,-2.32,364,281,207,443,363,29
1872,0.57,0.76,0.3,-1.46,-2.2,-3.3,359,298,209,441,363,29
1873,0.59,0.76,0.29,2.32,-5.07,-5.92,360,281,206,442,365,29
1874,0.56,0.78,0.28,7.02,1.59,-8.18,361,282,208,440,359,29
1875,0.54,0.82,0.28,-5.98,2.93,-12.39,358,281,204,444,360,29
1876,0.54,0.83,0.29,2.87,-8.12,-6.96,361,281,219,441,362,29
1877,0.46,0.85,0.27,3.36,1.89,-9.89,359,282,212,434,363,29
1878,0.49,0.85,0.26,1.77,-2.38,-0.06,357,281,206,438,363,29
1879,0.49,0.85,0.26,-1.04,-1.89,-3.66,359,284,206,444,364,29
1880,0.46,0.85,0.26,-0.24,-2.99,-3.6,359,281,205,442,366,29
1881,0.46,0.86,0.27,0.61,-2.93,-0.55,361,280,203,443,360,29
1882,0.46,0.84,0.26,1.83,-3.11,-0.24,359,284,206,439,366,29
1883,0.46,0.84,0.26,0.31,-2.5,-2.87,358,284,209,438,364,29
1884,0.46,0.84,0.28,-2.08,-2.75,-2.5,368,284,206,438,365,29
1885,0.47,0.84,0.27,2.14,-3.17,-2.99,359,281,204,440,364,29
1886,0.48,0.85,0.26,3.17,-4.88,-3.17,357,281,206,444,365,29
1887,0.48,0.84,0.27,-0.37,-1.53,-3.17,359,284,208,446,363,29
1888,0.48,0.85,0.25,2.93,-0.79,-5.62,359,283,208,445,365,29
1889,0.47,0.84,0.25,1.71,-1.83,-2.56,358,276,211,440,362,29
1890,0.47,0.85,0.26,-0.92,-4.09,-2.26,359,284,206,445,365,29
1891,0.48,0.83,0.27,0.06,-2.32,-2.14,358,284,207,437,361,29
1892,0.49,0.85,0.26,0.31,-2.44,-5.55,360,281,204,441,363,29
1893,0.48,0.85,0.26,3.48,-6.9,-2.93,357,284,207,445,364,29
1894,0.48,0.84,0.25,0.85,-3.36,-2.44,358,283,206,446,363,29
1895,0.46,0.83,0.25,1.53,-2.69,-2.26,361,288,209,441,366,29
1896,0.47,0.86,0.25,0.73,-5.43,-3.6,358,278,206,443,359,29
1897,0.43,0.87,0.25,-0.31,-4.7,-1.4,357,280,205,442,361,29
1898,0.44,0.86,0.24,-0.61,-3.17,1.04,360,282,215,441,363,29
1899,0.47,0.85,0.24,-2.08,-6.47,1.34,360,281,205,442,361,29
1900,0.49,0.84,0.24,-0.31,-0.31,0.24,366,282,205,441,363,29
1901,0.5,0.79,0.23,-0.92,-5.86,-1.59,359,282,206,442,359,29
1902,0.54,0.82,0.23,0.49,-2.62,-1.59,358,287,209,441,359,29
1903,0.51,0.83,0.22,-0.67,-5.13,-3.72,358,281,207,439,360,29
1904,0.5,0.84,0.21,0.67,-4.27,-8.54,360,281,208,446,361,29
1905,0.46,0.87,0.21,1.77,-1.1,-7.75,358,281,208,443,362,29
1906,0.43,0.86,0.22,-0.55,-2.44,2.56,359,284,207,442,364,29
1907,0.47,0.84,0.21,0.31,-4.27,1.95,357,283,206,441,366,29
1908,0.47,0.84,0.21,-0.12,-1.89,-1.59,353,282,206,443,363,29
1909,0.52,0.84,0.23,2.14,-4.7,-5.49,356,281,207,441,362,29
1910,0.51,0.82,0.21,-2.69,-3.78,-0.67,358,282,206,445,365,29
1911,0.5,0.85,0.23,3.6,-3.48,-5.55,356,281,208,445,365,29
1912,0.49,0.85,0.22,0.18,-1.22,-1.95,357,282,207,440,363,29
1913,0.48,0.83,0.23,-0.31,-4.94,-4.27,359,285,205,446,361,29
1914,0.5,0.84,0.23,2.32,-3.85,-1.71,360,280,209,447,363,29
1915,0.5,0.84,0.23,-0.43,-2.93,-2.56,357,281,211,444,365,29
1916,0.5,0.83,0.25,-1.28,-3.11,-1.46,360,282,206,438,365,29
1917,0.5,0.82,0.25,-2.26,0.31,-1.04,360,281,213,440,363,29
1918,0.53,0.82,0.25,-0.43,-5.74,-2.32,361,284,205,440,359,29
1919,0.51,0.82,0.25,-1.53,-2.5,-1.65,356,282,220,441,362,29
1920,0.53,0.82,0.25,-1.28,-2.44,-3.42,351,280,208,440,365,29
1921,0.5,0.81,0.25,-1.16,-2.26,-0.06,359,281,206,441,364,29
1922,0.52,0.82,0.24,0.18,-3.05,-0.98,359,283,205,441,360,29
1923,0.53,0.82,0.25,0.24,-3.11,-3.05,353,284,206,444,363,29
1924,0.52,0.81,0.25,1.71,-3.3,-2.62,357,285,210,444,364,29
1925,0.52,0.79,0.24,2.14,-3.05,-3.23,362,284,206,442,364,29
1926,0.51,0.82,0.24,1.59,-3.23,-2.62,355,294,207,438,363,29
1927,0.51,0.82,0.24,2.2,-3.48,-2.32,357,279,206,448,365,29
1928,0.52,0.83,0.24,0.73,-5.19,-2.93,355,283,206,440,360,29
1929,0.51,0.82,0.25,0.79,0.61,-2.56,357,281,208,440,364,29
1930,0.51,0.82,0.24,-0.12,-3.66,-2.38,358,281,208,441,365,29
1931,0.52,0.83,0.25,-1.16,-3.17,-2.69,357,294,205,442,363,29
1932,0.51,0.81,0.25,-0.18,-2.87,-1.65,357,282,204,441,366,29
1933,0.52,0.82,0.25,-0.37,-2.87,-2.69,358,283,208,443,363,29
1934,0.52,0.82,0.25,0.12,-2.62,-3.3,360,281,208,443,367,29
1935,0.52,0.82,0.26,0.18,-2.26,-1.4,358,283,208,445,362,29
1936,0.52,0.81,0.25,0.37,-2.93,-2.01,361,281,209,443,366,29
1937,0.52,0.82,0.26,0.43,-2.44,-2.93,364,280,203,438,363,29
1938,0.51,0.82,0.26,1.1,-3.11,-2.99,359,283,206,439,365,29
1939,0.51,0.82,0.25,-0.12,-1.83,-3.3,357,281,209,442,362,29
1940,0.52,0.82,0.25,3.05,-2.44,-3.78,359,283,205,445,361,29
1941,0.51,0.83,0.27,-0.06,-1.83,-2.08,356,283,203,443,363,29
1942,0.52,0.78,0.24,4.33,-7.14,0.98,358,282,209,443,363,29
1943,0.51,0.8,0.21,0.18,-6.59,-1.95,355,282,206,444,362,29
1944,0.52,0.81,0.22,0.98,-3.97,-1.53,359,288,211,441,363,29
1945,0.51,0.83,0.23,-0.67,-1.1,-5.07,356,284,209,444,362,29
1946,0.52,0.83,0.23,1.95,-2.93,-0.18,356,280,206,441,366,29
1947,0.53,0.83,0.21,-0.67,-3.05,-1.65,355,283,206,437,364,29
1948,0.52,0.81,0.22,0.55,-2.75,-2.93,357,284,206,443,362,29
1949,0.53,0.83,0.23,1.77,-3.42,-2.87,358,279,211,442,363,29
1950,0.52,0.81,0.22,-0.31,-3.36,-0.92,353,282,209,444,365,29
1951,0.52,0.81,0.22,-0.67,-2.08,-1.4,357,284,205,444,364,29
1952,0.52,0.81,0.23,0.0,-2.69,-2.75,359,282,206,442,363,29
1953,0.52,0.82,0.22,0.24,-2.2,-3.48,359,283,207,436,361,29
1954,0.52,0.82,0.23,0.0,-3.97,-1.77,357,282,205,443,365,29
1955,0.52,0.82,0.24,-0.37,-1.53,-2.69,358,284,208,445,366,29
1956,0.53,0.81,0.24,-2.99,0.37,1.77,358,284,206,450,359,29
1957,0.54,0.77,0.26,-10.38,-9.46,2.38,357,284,207,446,366,29
1958,0.6,0.84,0.26,-8.97,0.0,-10.99,357,282,209,444,365,29
1959,0.5,0.83,0.26,7.63,1.53,-4.15,357,283,210,443,363,29
1960,0.5,0.82,0.27,-8.79,4.09,-9.46,350,280,207,436,363,29
1961,0.48,0.81,0.29,-1.04,-4.82,0.49,356,282,208,443,375,29
1962,0.5,0.81,0.28,0.06,-4.15,-0.98,358,282,209,445,363,29
1963,0.5,0.82,0.28,-0.31,-2.81,0.79,357,282,210,442,362,29
1964,0.5,0.82,0.29,-0.49,-3.54,-1.46,354,281,208,445,363,29
1965,0.51,0.79,0.28,-1.22,-4.33,-1.46,356,285,208,441,365,29
1966,0.51,0.81,0.29,0.85,-2.01,-2.62,356,285,209,441,361,29
1967,0.52,0.82,0.29,0.73,-1.65,-3.11,359,300,210,443,363,29
1968,0.51,0.82,0.28,0.92,-2.81,-3.11,356,285,204,442,362,29
1969,0.5,0.81,0.28,1.04,-2.93,-2.08,359,282,209,444,365,29
1970,0.51,0.82,0.28,0.79,-1.16,-1.65,357,284,211,440,364,29
1971,0.51,0.82,0.27,1.1,-3.72,-3.23,359,282,206,445,362,29
1972,0.5,0.82,0.28,-0.85,-2.32,-2.69,363,281,205,445,362,29
1973,0.51,0.81,0.28,-1.53,-3.17,-2.01,357,282,206,445,363,29
1974,0.5,0.81,0.28,-0.49,-3.48,-3.42,359,282,209,441,362,29
1975,0.52,0.81,0.27,1.89,-4.33,-2.2,357,278,206,443,363,29
1976,0.51,0.81,0.28,-0.12,-2.69,-3.48,358,278,210,442,363,29
1977,0.52,0.82,0.27,0.18,-3.23,-2.14,356,283,206,442,360,29
1978,0.52,0.82,0.27,0.98,-2.14,-3.42,359,284,221,439,364,29
1979,0.53,0.83,0.27,-0.12,-3.97,-2.93,359,286,208,445,365,29
1980,0.52,0.81,0.28,0.98,-2.69,-1.77,355,281,208,443,360,29
1981,0.52,0.82,0.27,0.43,-3.91,-1.4,348,284,206,437,360,29
1982,0.52,0.81,0.28,1.28,-4.15,-2.62,355,280,206,444,359,29
1983,0.52,0.81,0.26,-0.06,-3.17,-2.01,358,283,209,441,364,29
1984,0.53,0.81,0.26,0.12,-2.5,-3.05,359,282,205,442,359,29
1985,0.52,0.81,0.27,1.59,-1.22,-2.26,357,284,209,442,359,29
1986,0.52,0.82,0.27,0.24,-2.38,-3.11,357,282,209,446,364,29
1987,0.53,0.81,0.26,1.65,-1.53,-2.32,359,285,209,442,365,29
1988,0.52,0.81,0.27,0.85,-3.42,-2.69,358,282,206,447,364,29
1989,0.52,0.81,0.27,1.46,-4.46,-2.38,357,282,206,438,362,29
1990,0.52,0.81,0.26,0.43,-2.99,-1.83,360,282,206,446,362,29
1991,0.53,0.82,0.27,3.97,-1.77,0.31,370,283,209,441,362,29
1992,0.53,0.81,0.26,0.85,-4.09,-3.11,361,283,210,436,363,29
1993,0.53,0.82,0.26,0.43,-2.26,-1.34,358,281,210,442,364,29
1994,0.53,0.79,0.27,1.77,-1.04,-2.99,358,281,206,443,363,29
1995,0.53,0.8,0.28,-0.98,-3.3,-1.95,357,282,209,447,366,29
1996,0.53,0.8,0.28,1.34,-2.26,-1.77,352,282,207,447,362,29
1997,0.54,0.79,0.28,-1.77,-2.69,-3.36,355,282,206,446,359,29
1998,0.53,0.81,0.28,0.85,-3.17,-2.44,358,285,210,445,361,29
1999,0.53,0.8,0.28,0.49,-2.14,-2.81,357,280,210,440,359,29
2000,0.53,0.81,0.28,1.1,-2.38,-3.11,352,282,210,442,363,29
2001,0.51,0.81,0.27,-0.06,-3.3,-3.6,367,282,208,442,362,29
2002,0.52,0.81,0.27,-0.37,-2.2,-2.81,358,283,209,437,363,29
2003,0.51,0.81,0.29,0.18,-3.54,-2.32,357,282,210,442,363,29
2004,0.52,0.8,0.28,-0.18,-3.91,-3.3,360,285,209,441,370,29
2005,0.52,0.8,0.27,0.49,-2.32,-2.62,360,285,206,445,361,29
2006,0.52,0.81,0.28,-0.85,-4.03,-3.17,357,284,209,437,366,29
2007,0.53,0.81,0.27,0.98,-1.77,-2.87,357,281,206,440,365,29
2008,0.52,0.81,0.28,0.18,-3.36,-2.32,364,281,211,441,362,29
2009,0.52,0.8,0.27,-0.06,-2.26,-1.77,358,285,216,454,359,29
2010,0.52,0.8,0.28,0.43,-2.99,-2.32,357,284,208,438,364,29
2011,0.52,0.81,0.28,0.12,-3.36,-1.71,359,282,211,442,359,29
2012,0.52,0.81,0.27,0.24,-3.05,-2.14,360,283,208,446,363,29
2013,0.52,0.81,0.27,1.16,-2.75,-1.95,359,285,208,444,360,29
2014,0.53,0.82,0.27,1.04,-2.26,-1.89,357,282,207,442,364,29
2015,0.53,0.81,0.26,0.31,-2.81,-2.56,357,286,210,441,365,29
2016,0.52,0.8,0.26,0.79,-2.62,-2.08,357,283,208,439,364,29
2017,0.53,0.81,0.26,-0.18,-2.87,-2.99,360,286,207,446,364,29
2018,0.53,0.81,0.27,-0.31,-1.59,-2.87,357,284,209,439,365,29
2019,0.53,0.81,0.28,-0.37,-3.11,-2.93,360,282,206,442,362,29
2020,0.52,0.79,0.26,-0.18,-3.97,-1.83,360,285,207,445,359,29
2021,0.55,0.81,0.26,5.0,-7.51,0.12,360,285,208,445,362,29
2022,0.53,0.81,0.25,2.2,-4.64,-1.83,355,282,209,443,363,29
2023,0.55,0.82,0.24,2.56,-1.22,-3.36,359,282,208,442,365,29
2024,0.55,0.79,0.24,0.79,-3.05,-4.52,360,285,209,441,365,29
