,aX,aY,aZ,gX,gY,gZ,little,ring,middle,index,thumb
0,0.91,-0.38,-0.17,-1.4,-2.32,-2.56,392,465,234,308,227
1,0.94,-0.37,-0.17,-0.18,1.34,0.24,395,463,239,309,232
2,0.94,-0.36,-0.16,-2.38,-1.65,-7.26,393,468,237,307,230
3,0.92,-0.36,-0.17,-0.31,-3.78,-3.66,395,465,237,307,233
4,0.93,-0.35,-0.15,2.32,-9.03,-4.15,394,466,240,309,230
5,0.96,-0.34,-0.18,1.95,-2.81,-1.28,395,465,240,307,231
6,0.93,-0.34,-0.17,2.14,-3.36,-2.26,397,466,238,309,230
7,0.92,-0.36,-0.18,-0.79,-2.99,-0.73,400,463,240,309,230
8,0.91,-0.36,-0.18,3.05,-5.8,-0.79,398,466,235,304,233
9,0.91,-0.37,-0.18,-0.43,0.0,-2.99,393,471,239,305,229
10,0.92,-0.36,-0.17,-1.83,-2.08,-2.32,396,463,240,307,232
11,0.91,-0.37,-0.17,1.71,-2.69,-4.64,396,477,241,306,232
12,0.92,-0.36,-0.17,0.55,-0.85,-1.1,398,466,235,307,231
13,0.92,-0.37,-0.18,2.14,-1.34,-7.2,397,467,238,308,234
14,0.95,-0.34,-0.18,2.08,-2.38,-4.09,403,463,236,310,234
15,0.94,-0.35,-0.15,2.75,-5.43,-1.95,400,474,240,308,233
16,0.92,-0.35,-0.15,0.18,-3.11,-2.2,395,465,238,320,230
17,0.93,-0.36,-0.16,-1.34,4.27,-5.31,399,471,240,308,235
18,0.92,-0.36,-0.15,1.28,-2.2,-3.85,398,466,238,308,236
19,0.93,-0.36,-0.16,1.53,-4.82,-3.54,401,470,236,309,234
20,0.92,-0.36,-0.17,0.24,-3.78,-2.01,400,468,239,307,235
21,0.95,-0.36,-0.17,0.67,2.44,0.37,400,465,250,312,230
22,0.95,-0.36,-0.15,1.83,-3.72,-7.57,398,470,241,307,232
23,0.91,-0.38,-0.16,0.79,-0.79,-5.31,398,466,237,308,233
24,0.9,-0.39,-0.16,-1.28,-11.35,-2.26,397,466,247,307,234
25,0.9,-0.39,-0.17,1.89,-1.28,1.53,399,472,240,306,231
26,0.87,-0.4,-0.17,0.43,-3.72,-2.87,398,471,241,324,232
27,0.9,-0.4,-0.18,-1.1,-2.08,-1.4,400,466,237,310,234
28,0.9,-0.39,-0.17,0.61,-2.93,-2.38,400,467,244,307,234
29,0.91,-0.38,-0.16,5.86,-2.32,-1.71,398,463,236,307,230
30,0.9,-0.39,-0.16,0.18,-2.62,-4.33,399,464,237,306,233
31,0.89,-0.39,-0.16,2.38,-0.12,-1.71,396,468,239,310,232
32,0.88,-0.39,-0.15,-0.85,-1.4,-2.62,399,472,237,309,235
33,0.92,-0.38,-0.18,3.11,0.85,-3.66,398,463,236,308,234
34,0.9,-0.38,-0.16,1.4,-1.83,-3.66,402,469,238,311,233
35,0.91,-0.39,-0.15,-0.37,-2.08,-2.44,395,469,240,308,234
36,0.9,-0.38,-0.14,-0.85,-0.92,-3.54,394,463,235,318,233
37,0.9,-0.38,-0.12,-1.4,2.14,-7.26,399,473,240,318,234
38,0.92,-0.38,-0.14,-1.28,-3.91,-2.81,401,474,237,313,241
39,0.91,-0.38,-0.16,1.71,-4.39,-5.37,398,464,240,311,233
40,0.89,-0.38,-0.15,-1.34,-5.07,-5.07,399,469,238,309,233
41,0.92,-0.37,-0.14,4.46,-5.25,4.82,401,469,240,309,233
42,0.9,-0.37,-0.12,1.95,0.37,-4.7,400,464,241,305,232
43,0.92,-0.37,-0.13,-4.09,-0.18,-1.04,397,461,244,310,231
44,0.92,-0.38,-0.13,0.61,-3.72,-1.95,398,473,237,312,234
45,0.94,-0.37,-0.15,3.54,-6.23,-2.62,400,464,242,310,231
46,0.92,-0.37,-0.13,1.71,-2.14,-1.71,399,469,242,302,235
47,0.93,-0.36,-0.14,0.49,-3.6,-1.71,402,473,238,312,236
48,0.92,-0.37,-0.15,0.0,-4.52,-2.62,402,468,241,310,236
49,0.91,-0.37,-0.13,1.65,-3.91,-2.75,397,468,241,310,232
50,0.92,-0.36,-0.14,3.72,-4.39,-2.99,401,467,240,309,236
51,0.92,-0.36,-0.14,0.24,-1.83,-3.3,399,468,242,311,235
52,0.92,-0.36,-0.13,-0.43,-1.89,-3.54,400,468,241,309,235
53,0.91,-0.36,-0.13,0.49,-2.44,-2.5,400,472,240,313,235
54,0.92,-0.37,-0.15,2.44,-3.85,-3.17,399,473,238,311,235
55,0.92,-0.36,-0.14,1.04,-3.17,-2.93,400,471,240,309,235
56,0.93,-0.36,-0.14,-0.79,-2.32,-2.14,398,472,238,311,233
57,0.93,-0.35,-0.14,-0.85,-3.11,-2.08,402,470,240,309,248
58,0.93,-0.36,-0.15,0.18,-2.99,-2.56,399,469,238,310,250
59,0.93,-0.36,-0.13,0.55,-0.61,-3.36,396,469,239,309,237
60,0.93,-0.36,-0.14,-0.61,-1.1,-2.38,397,470,237,320,236
61,0.92,-0.36,-0.14,-0.67,-2.32,-1.4,400,469,238,312,240
62,0.92,-0.36,-0.14,0.98,-2.69,-2.75,396,466,238,308,237
63,0.93,-0.36,-0.14,0.0,-2.2,-2.5,396,470,239,308,234
64,0.93,-0.36,-0.13,0.18,-2.69,-1.71,400,467,240,308,235
65,0.93,-0.36,-0.14,0.92,-2.87,-2.2,403,469,241,312,235
66,0.92,-0.37,-0.16,0.43,-3.48,-3.3,400,467,240,312,235
67,0.92,-0.36,-0.14,-0.24,-3.42,-2.38,398,465,240,313,232
68,0.93,-0.36,-0.14,0.67,-2.93,-2.69,401,468,241,312,235
69,0.92,-0.37,-0.14,-1.04,-3.66,-3.36,403,469,243,311,235
70,0.91,-0.36,-0.14,0.55,-3.91,-1.59,398,472,241,309,237
71,0.92,-0.36,-0.14,0.24,-3.6,-2.75,400,472,238,313,235
72,0.92,-0.36,-0.15,0.43,-3.72,-3.17,400,467,239,309,237
73,0.92,-0.36,-0.14,2.08,-3.42,-3.3,399,467,240,309,232
74,0.92,-0.34,-0.13,1.16,-0.37,-5.74,402,465,244,314,234
75,0.93,-0.35,-0.15,0.18,-3.48,-4.52,401,474,244,310,234
76,0.92,-0.35,-0.16,2.14,-3.17,-3.97,398,472,238,311,276
77,0.93,-0.34,-0.14,0.12,-2.2,-1.83,401,470,240,314,236
78,0.93,-0.36,-0.15,1.83,-2.99,-3.05,398,470,241,310,235
79,0.93,-0.35,-0.15,2.93,-2.93,-3.17,398,469,242,309,235
80,0.93,-0.35,-0.14,1.95,-2.93,-2.69,401,473,242,314,238
81,0.95,-0.35,-0.14,0.24,-4.52,-1.28,404,469,243,311,237
82,0.94,-0.35,-0.13,2.26,-4.03,-2.5,400,467,246,312,237
83,0.93,-0.35,-0.12,0.49,-2.81,-3.3,398,466,242,311,237
84,0.92,-0.35,-0.11,3.42,-3.66,-1.46,401,477,244,313,255
85,0.93,-0.35,-0.11,-1.4,-2.87,-2.93,400,469,244,314,239
86,0.93,-0.35,-0.11,-0.18,-2.62,-3.42,401,469,243,313,236
87,0.93,-0.36,-0.1,0.85,-3.3,-3.42,401,472,239,312,237
88,0.92,-0.36,-0.12,1.28,-2.62,-1.4,402,463,243,311,236
89,0.93,-0.35,-0.12,2.38,-2.81,-2.14,401,471,246,309,232
90,0.92,-0.36,-0.13,1.22,-3.11,-3.85,403,485,241,311,238
91,0.91,-0.36,-0.12,-0.67,-3.6,-2.14,403,469,248,314,233
92,0.94,-0.37,-0.13,-0.24,-3.36,-2.14,400,473,243,313,239
93,0.91,-0.35,-0.11,1.46,-2.2,0.67,397,472,246,315,237
94,0.94,-0.36,-0.15,-2.26,-2.08,-3.48,401,467,240,311,237
95,0.92,-0.37,-0.16,0.49,-6.9,-2.14,399,470,241,311,238
96,0.89,-0.38,-0.15,1.1,-0.37,-1.1,403,470,242,312,238
97,0.92,-0.38,-0.15,0.67,-2.32,-3.6,400,470,243,312,231
98,0.91,-0.37,-0.16,-0.92,-2.5,-3.48,401,469,245,311,236
99,0.92,-0.37,-0.14,2.69,-2.38,-2.56,399,467,245,314,235
100,0.93,-0.37,-0.16,1.65,-3.66,-3.23,402,469,244,314,238
101,0.92,-0.37,-0.15,-0.24,-3.11,-3.23,399,464,242,315,238
102,0.91,-0.37,-0.15,-1.16,-3.17,-2.5,404,468,243,311,235
103,0.89,-0.39,-0.18,0.79,-2.44,-4.39,399,473,241,314,236
104,0.9,-0.38,-0.18,-1.1,-0.61,-4.58,399,472,244,312,240
105,0.94,-0.36,-0.18,-0.24,-3.97,-1.59,398,469,243,314,236
106,0.93,-0.36,-0.17,0.24,-3.66,-2.5,401,466,242,314,236
107,0.92,-0.36,-0.14,0.06,-2.5,-3.05,398,470,244,313,234
108,0.93,-0.35,-0.16,1.4,-2.87,1.34,404,471,245,314,244
109,0.91,-0.37,-0.15,0.18,-3.05,-2.01,398,470,242,309,236
110,0.92,-0.36,-0.15,0.73,-4.15,-0.43,406,468,244,309,239
111,0.93,-0.35,-0.14,-0.61,-2.01,-2.01,400,471,244,310,236
112,0.93,-0.34,-0.13,-0.24,-3.54,-0.49,399,473,241,315,239
113,0.95,-0.35,-0.15,-0.24,-3.05,-4.03,399,471,243,309,234
114,0.94,-0.34,-0.13,2.93,-4.94,-3.17,398,474,244,314,237
115,0.91,-0.34,-0.14,-2.5,8.67,-15.01,400,469,241,309,239
116,0.93,-0.34,-0.12,-0.31,1.65,-6.53,400,473,243,311,239
117,0.95,-0.32,-0.12,0.49,-0.73,-4.03,400,468,242,312,239
118,0.94,-0.33,-0.13,-0.73,-2.62,-2.81,397,470,243,312,234
119,0.94,-0.33,-0.12,1.04,-3.91,-3.54,400,470,244,313,237
120,0.93,-0.33,-0.12,-0.98,-3.48,-1.16,404,474,244,314,236
121,0.93,-0.34,-0.13,0.92,-2.75,-2.2,401,469,243,314,238
122,0.94,-0.33,-0.14,0.31,-5.49,-2.62,401,466,242,314,235
123,0.93,-0.34,-0.14,-0.37,-2.2,-1.95,400,471,244,312,239
124,0.94,-0.34,-0.13,-1.34,-3.48,-2.93,400,472,241,311,236
125,0.93,-0.34,-0.14,3.48,-2.14,-3.36,400,471,243,312,238
126,0.92,-0.35,-0.15,2.01,-2.44,-2.2,400,469,240,314,238
127,0.94,-0.37,-0.18,2.14,-5.37,-3.97,400,469,240,313,236
128,0.92,-0.36,-0.15,0.18,-1.95,-1.95,396,469,241,311,238
129,0.93,-0.36,-0.15,-1.53,-1.77,-4.7,400,465,244,308,235
130,0.94,-0.35,-0.17,2.01,-2.32,-4.03,400,472,244,314,234
131,0.93,-0.36,-0.15,0.61,-3.17,-2.08,405,469,241,313,237
132,0.94,-0.35,-0.14,0.73,-3.85,-1.16,400,473,245,315,239
133,0.92,-0.36,-0.14,-2.87,-3.05,-0.55,405,469,239,311,237
134,0.93,-0.35,-0.14,1.83,-3.36,-2.62,398,469,241,308,235
135,0.92,-0.35,-0.14,2.2,-2.38,-2.81,401,468,243,312,237
136,0.91,-0.35,-0.13,0.92,-3.85,-2.08,400,464,245,312,236
137,0.91,-0.36,-0.15,-0.73,-6.53,-1.71,402,469,239,312,238
138,0.93,-0.35,-0.15,1.16,-2.87,-2.81,401,469,244,312,238
139,0.93,-0.36,-0.15,1.95,-2.56,-2.2,403,469,244,315,239
140,0.93,-0.36,-0.14,1.34,-3.97,-1.53,395,471,240,313,233
141,0.92,-0.35,-0.14,0.37,-3.11,-1.89,397,470,241,312,238
142,0.93,-0.35,-0.14,1.83,-2.56,-2.26,401,474,242,318,236
143,0.92,-0.36,-0.14,0.37,-2.81,-2.5,395,466,245,314,254
144,0.92,-0.36,-0.14,-0.79,-1.65,-2.32,401,471,246,312,238
145,0.92,-0.36,-0.14,0.12,-2.5,-2.32,398,473,243,312,238
146,0.92,-0.36,-0.15,-0.37,-3.48,-1.65,399,472,242,310,238
147,0.92,-0.35,-0.13,-1.1,-2.44,-2.81,400,470,245,313,238
148,0.91,-0.36,-0.15,0.31,-2.26,-3.6,402,466,243,314,237
149,0.92,-0.36,-0.13,-0.37,-2.14,-2.32,395,470,248,315,236
150,0.93,-0.36,-0.14,0.18,-2.38,-2.32,398,470,242,315,236
151,0.93,-0.35,-0.13,-0.06,-1.46,-3.54,400,469,242,312,236
152,0.93,-0.36,-0.15,0.85,-2.99,-3.05,399,470,243,312,248
153,0.93,-0.36,-0.15,0.98,-2.87,-2.26,401,470,242,312,235
154,0.94,-0.36,-0.15,0.92,-2.62,-1.71,398,470,245,312,239
155,0.93,-0.36,-0.14,0.67,-2.2,-2.14,400,469,247,312,259
156,0.92,-0.36,-0.14,0.61,-3.42,-1.71,411,467,243,312,235
157,0.92,-0.36,-0.15,0.37,-2.08,-2.99,401,470,241,312,239
158,0.92,-0.36,-0.14,-0.37,-1.89,-3.91,401,467,243,315,236
159,0.92,-0.36,-0.14,0.61,-2.69,-3.36,400,469,245,311,236
160,0.93,-0.36,-0.16,0.37,-2.75,-1.83,398,471,247,312,239
161,0.92,-0.36,-0.15,0.67,-3.42,-2.5,402,466,248,314,237
162,0.93,-0.35,-0.13,-0.18,-2.38,-2.87,398,470,245,313,238
163,0.93,-0.36,-0.14,-0.61,-0.24,-1.95,402,468,243,313,239
164,0.92,-0.36,-0.13,0.24,-0.92,-3.05,399,474,242,315,236
165,0.92,-0.36,-0.13,-0.55,-1.59,-2.69,400,469,246,313,239
166,0.91,-0.37,-0.14,1.28,-3.36,-1.16,399,465,244,312,238
167,0.92,-0.37,-0.15,-0.43,-3.23,-3.23,399,466,243,313,238
168,0.91,-0.37,-0.15,1.04,-3.11,-1.53,399,473,244,315,236
169,0.91,-0.36,-0.14,-0.12,-3.23,-2.69,400,466,243,312,234
170,0.92,-0.36,-0.13,1.04,-2.38,-2.69,398,470,243,312,237
171,0.92,-0.36,-0.14,0.98,-1.65,-2.32,399,470,244,313,237
172,0.92,-0.37,-0.13,-2.14,-3.78,-1.28,397,470,245,313,238
173,0.94,-0.36,-0.14,0.06,-1.04,-4.21,401,464,243,312,237
174,0.94,-0.36,-0.13,3.11,-4.82,-4.76,401,468,246,310,236
175,0.93,-0.35,-0.12,2.32,-4.39,-1.83,398,471,244,314,232
176,0.92,-0.37,-0.15,0.49,-4.03,-4.88,396,469,245,310,239
177,0.92,-0.36,-0.14,-0.12,-4.33,-5.07,397,470,243,313,236
178,0.88,-0.38,-0.14,-2.5,-2.26,-0.98,402,465,242,313,237
179,0.92,-0.38,-0.17,-0.79,-5.74,-0.73,396,469,246,312,237
180,0.92,-0.37,-0.15,-0.55,-2.56,-2.08,402,473,242,314,235
181,0.92,-0.37,-0.15,0.12,-2.87,-2.5,400,473,242,316,275
182,0.95,-0.35,-0.13,1.16,-3.85,-3.6,403,469,247,313,235
183,0.93,-0.36,-0.16,4.03,-2.87,-0.73,395,466,246,326,238
184,0.92,-0.35,-0.13,-0.67,-1.77,-3.78,400,471,242,313,239
185,0.94,-0.36,-0.17,2.62,-1.65,-6.23,399,467,243,311,237
186,0.94,-0.37,-0.12,3.97,-1.22,-0.12,400,467,249,313,259
187,0.92,-0.39,-0.14,-0.06,-2.69,-3.17,396,466,247,316,232
188,0.92,-0.38,-0.12,-2.14,-4.03,-2.26,399,469,244,315,233
189,0.93,-0.37,-0.13,1.77,-2.87,-3.3,395,471,243,316,231
190,0.91,-0.38,-0.13,-0.61,-1.46,-2.32,399,472,241,313,232
191,0.91,-0.38,-0.12,0.49,-0.67,-3.36,397,470,240,315,235
192,0.91,-0.38,-0.13,0.37,-2.69,-3.66,399,469,243,313,230
193,0.91,-0.37,-0.12,-1.89,-2.99,-1.95,400,474,242,314,230
194,0.93,-0.37,-0.14,0.55,-2.93,-2.01,401,470,257,315,233
195,0.92,-0.37,-0.13,-1.95,-4.46,-2.08,393,472,244,313,232
196,0.93,-0.36,-0.12,0.43,-2.2,-3.72,396,469,244,312,237
197,0.93,-0.36,-0.11,1.83,-2.2,-3.42,398,470,238,315,240
198,0.93,-0.37,-0.12,1.77,-1.77,-3.05,398,473,246,313,234
199,0.92,-0.37,-0.13,-0.67,-1.34,-2.01,402,469,244,315,237
200,0.91,-0.37,-0.14,1.16,-3.11,-4.46,399,472,246,312,237
201,0.92,-0.36,-0.13,-0.24,-2.26,-2.93,396,470,245,314,234
202,0.92,-0.37,-0.14,1.1,-3.3,-3.36,397,471,242,312,235
203,0.92,-0.37,-0.14,0.61,-3.11,-1.71,393,470,243,316,234
204,0.92,-0.37,-0.13,1.89,-0.31,-3.36,398,465,243,313,237
205,0.92,-0.36,-0.11,1.71,-2.44,-3.78,399,474,245,308,234
206,0.93,-0.37,-0.13,6.23,-4.03,-0.37,397,468,242,314,233
207,0.92,-0.38,-0.12,-0.92,-3.6,-2.08,394,474,246,315,235
208,0.91,-0.38,-0.12,-0.06,-2.99,-1.77,399,470,244,314,232
209,0.9,-0.38,-0.12,-0.43,-2.5,-3.36,394,469,242,326,237
210,0.92,-0.38,-0.12,0.73,-3.05,-4.21,394,472,244,314,235
211,0.93,-0.38,-0.13,1.53,-4.82,-2.44,398,474,246,313,236
212,0.92,-0.37,-0.13,-0.61,-2.2,-1.4,400,469,240,315,237
213,0.91,-0.38,-0.12,0.18,-2.26,-2.69,401,469,246,317,237
214,0.92,-0.37,-0.12,0.37,-2.38,-3.3,398,464,241,313,233
215,0.92,-0.35,-0.11,3.78,-4.15,-1.4,397,471,243,318,237
216,0.92,-0.37,-0.12,1.1,-3.6,-1.95,398,476,244,316,231
217,0.92,-0.36,-0.09,1.16,-2.69,-1.46,394,467,241,317,237
218,0.92,-0.37,-0.11,-0.73,-3.48,-1.83,399,464,242,315,236
219,0.92,-0.37,-0.12,0.0,-3.48,-2.5,401,470,241,315,238
220,0.92,-0.37,-0.13,-0.55,-2.81,-2.14,400,470,244,318,237
221,0.91,-0.37,-0.12,-0.06,-1.28,-3.05,398,475,243,310,238
222,0.93,-0.37,-0.12,-0.24,-2.01,-1.71,400,469,243,316,236
223,0.91,-0.37,-0.12,0.0,-2.26,-2.14,400,473,246,318,238
224,0.92,-0.37,-0.12,-1.28,-1.89,-2.44,397,467,246,318,233
225,0.93,-0.36,-0.12,-0.31,-1.83,-3.23,401,474,246,317,238
226,0.92,-0.37,-0.13,0.24,-2.01,-3.48,399,472,242,314,233
227,0.93,-0.37,-0.14,0.18,-0.73,-3.66,398,468,246,312,236
228,0.93,-0.36,-0.13,1.4,-2.62,-2.93,401,475,246,316,235
229,0.93,-0.36,-0.12,0.0,-1.83,-2.75,400,470,241,314,235
230,0.94,-0.37,-0.14,-0.67,-3.23,-1.28,399,470,246,314,236
231,0.93,-0.37,-0.13,1.53,-4.52,-0.37,395,474,244,311,235
232,0.93,-0.37,-0.11,0.73,-3.54,-2.75,402,468,240,314,233
233,0.92,-0.36,-0.11,-0.43,-3.05,-1.28,398,480,242,315,234
234,0.92,-0.36,-0.12,1.1,-2.62,-1.04,399,473,246,315,238
235,0.92,-0.37,-0.11,-1.46,-0.43,-2.5,402,466,246,315,237
236,0.92,-0.37,-0.11,-0.85,-4.39,-1.89,398,474,244,312,238
237,0.92,-0.37,-0.12,-0.55,-3.54,-2.69,398,471,246,314,234
238,0.92,-0.37,-0.13,-0.24,-2.75,-3.17,402,474,245,312,233
239,0.92,-0.36,-0.1,-1.1,-2.26,-2.08,401,474,245,316,237
240,0.92,-0.37,-0.11,0.06,-2.87,-2.81,398,474,244,313,236
241,0.92,-0.36,-0.1,0.85,-1.77,-3.36,400,470,256,314,236
242,0.93,-0.36,-0.1,-0.55,-2.14,-1.95,402,472,242,315,239
243,0.93,-0.37,-0.11,-0.85,-2.93,-2.93,399,473,241,314,234
244,0.93,-0.37,-0.12,2.56,-4.88,-2.5,402,469,243,311,238
245,0.92,-0.37,-0.12,1.95,-4.03,-2.14,401,471,244,313,239
246,0.92,-0.37,-0.11,0.31,-5.37,-2.26,395,473,244,315,240
247,0.93,-0.36,-0.13,-0.73,-0.61,-0.92,389,471,245,313,235
248,0.92,-0.37,-0.11,0.43,-0.85,-0.61,399,470,244,317,238
249,0.94,-0.36,-0.1,0.18,-2.2,-0.55,400,466,247,314,238
250,0.93,-0.37,-0.11,-0.12,-3.6,-2.5,400,467,248,315,236
251,0.92,-0.37,-0.11,-0.85,-4.15,-1.71,400,472,246,318,236
252,0.92,-0.38,-0.12,-0.61,-4.39,-1.65,401,470,243,312,234
253,0.92,-0.37,-0.12,1.04,-2.87,-1.4,398,474,242,315,237
254,0.9,-0.39,-0.13,-1.22,-0.92,0.18,402,472,246,312,233
255,0.9,-0.39,-0.1,-3.85,-3.36,-3.36,400,475,242,312,236
256,0.9,-0.39,-0.13,-1.71,-4.88,-0.73,402,471,246,315,237
257,0.91,-0.38,-0.12,2.56,-2.81,-1.65,399,468,246,319,237
258,0.91,-0.39,-0.11,-2.87,-0.85,-4.33,400,469,243,314,235
259,0.9,-0.4,-0.1,1.53,-3.72,-3.17,400,470,246,316,236
260,0.9,-0.4,-0.12,1.59,-7.08,-0.67,400,469,247,321,239
261,0.92,-0.4,-0.14,4.27,-2.81,-3.11,401,468,247,313,240
262,0.91,-0.41,-0.14,2.5,-2.01,-2.32,403,470,243,312,241
263,0.91,-0.41,-0.12,0.67,-1.95,-1.1,400,467,242,316,235
264,0.9,-0.41,-0.1,2.14,-0.92,-3.36,399,474,243,311,235
265,0.92,-0.4,-0.11,0.49,-3.54,-3.11,397,471,238,308,237
266,0.91,-0.4,-0.1,2.08,-3.48,-4.03,401,472,237,307,234
267,0.91,-0.4,-0.11,1.4,-3.72,-3.66,398,470,237,308,235
268,0.91,-0.4,-0.11,0.43,-4.03,-0.49,391,471,238,308,234
269,0.9,-0.41,-0.11,-0.12,-2.99,-3.36,398,473,240,309,235
270,0.9,-0.41,-0.11,0.61,-3.6,-2.5,395,470,237,308,234
271,0.92,-0.41,-0.13,-3.42,-2.44,-3.54,400,466,238,310,235
272,0.88,-0.43,-0.15,-2.87,-6.04,-2.01,396,470,238,303,234
273,0.89,-0.39,-0.1,-0.24,-2.38,-1.53,397,473,236,308,238
274,0.92,-0.39,-0.14,-1.89,-4.27,1.65,402,471,241,307,235
275,0.86,-0.4,-0.12,8.73,-7.08,6.65,395,469,235,310,236
276,0.92,-0.4,-0.17,-1.83,-1.89,-4.82,401,470,234,304,234
277,0.9,-0.39,-0.15,-0.37,-4.46,-2.44,396,469,240,309,236
278,0.89,-0.38,-0.14,-0.67,-1.53,-1.04,397,468,236,307,234
279,0.87,-0.4,-0.17,-0.12,-4.82,0.31,403,470,238,310,232
280,0.91,-0.39,-0.14,0.24,0.43,0.12,400,468,241,307,266
281,0.89,-0.4,-0.16,3.97,-1.71,-3.48,401,470,252,305,236
282,0.92,-0.4,-0.17,-1.95,-0.43,-3.66,400,469,235,308,234
283,0.94,-0.41,-0.16,1.59,-4.52,-3.48,392,469,239,311,235
284,0.9,-0.42,-0.16,1.28,-2.81,-4.39,400,465,236,309,234
285,0.89,-0.4,-0.14,0.67,-2.08,-2.5,400,473,241,307,235
286,0.92,-0.4,-0.18,0.49,-3.97,-3.78,398,467,241,310,237
287,0.91,-0.39,-0.15,0.31,-2.32,-3.11,393,469,238,309,233
288,0.91,-0.4,-0.17,1.65,-2.81,-3.17,398,470,241,309,234
289,0.87,-0.42,-0.15,-3.23,-2.87,-2.81,397,471,238,304,235
290,0.9,-0.4,-0.14,1.77,-3.05,-2.5,400,468,236,309,235
291,0.93,-0.41,-0.21,3.72,-4.94,-1.83,398,465,238,308,236
292,0.93,-0.37,-0.16,1.4,-1.53,-2.69,395,470,241,310,232
293,0.9,-0.39,-0.18,0.49,-2.75,-3.66,396,474,240,310,236
294,0.93,-0.37,-0.14,0.98,-5.0,-0.67,394,470,236,310,250
295,0.91,-0.37,-0.14,1.53,-1.89,-2.56,398,470,237,308,233
296,0.91,-0.39,-0.17,4.76,-6.53,-4.76,394,470,240,308,236
297,0.88,-0.39,-0.13,3.97,-1.4,-1.77,398,471,239,311,235
298,0.92,-0.38,-0.16,-2.75,-3.05,-3.66,395,474,239,310,238
299,0.94,-0.39,-0.13,-5.19,-7.81,4.64,396,465,241,306,233
300,0.9,-0.39,-0.12,-1.53,-2.69,-2.14,396,470,238,326,232
301,0.9,-0.4,-0.16,-2.69,-3.11,-1.53,396,472,240,318,236
302,0.91,-0.39,-0.13,-0.55,-5.07,-3.11,398,469,237,311,235
303,0.93,-0.37,-0.14,6.59,-0.79,-5.07,400,468,236,309,234
304,0.91,-0.37,-0.11,1.59,-2.32,-5.19,396,469,235,309,243
305,0.87,-0.42,-0.14,-2.56,-2.26,4.7,398,478,239,309,233
306,0.87,-0.42,-0.11,5.37,-7.51,1.65,406,470,241,311,235
307,0.93,-0.41,-0.15,-0.98,-1.95,-2.5,398,465,237,308,235
308,0.91,-0.41,-0.17,6.35,2.01,-7.32,401,472,238,311,234
309,0.88,-0.41,-0.12,-1.89,2.01,-1.65,399,467,235,311,238
310,0.9,-0.41,-0.13,-1.1,-2.62,-3.36,398,467,238,311,235
311,0.89,-0.42,-0.15,-0.12,-3.48,-2.32,402,468,238,311,235
312,0.91,-0.41,-0.15,4.88,-3.3,-5.98,399,470,248,306,232
313,0.92,-0.39,-0.16,4.21,-2.62,-2.81,398,466,239,312,235
314,0.95,-0.38,-0.17,2.75,-20.63,-0.18,399,471,236,306,236
315,0.9,-0.38,-0.14,1.22,-2.32,-2.5,400,465,240,309,235
316,0.88,-0.4,-0.17,-2.38,-3.97,-0.61,399,464,237,312,237
317,0.92,-0.41,-0.18,1.46,-8.18,1.46,400,467,240,309,236
318,0.91,-0.4,-0.14,-4.94,-0.85,-0.98,398,471,236,309,235
319,0.91,-0.41,-0.16,3.42,-2.87,-2.56,399,466,241,311,235
320,0.89,-0.41,-0.16,0.18,-3.36,-2.01,398,465,243,308,232
321,0.88,-0.43,-0.18,3.42,-4.46,-2.99,400,470,238,308,236
322,0.89,-0.42,-0.16,-0.98,-4.82,-2.87,395,470,238,308,235
323,0.88,-0.43,-0.17,0.92,-4.94,-0.73,398,465,238,310,237
324,0.9,-0.41,-0.17,-0.31,-2.26,-2.14,400,475,240,309,247
325,0.89,-0.41,-0.17,2.08,-2.99,-3.54,394,475,240,310,235
326,0.89,-0.42,-0.18,-2.38,-3.11,-2.93,395,476,239,310,235
327,0.88,-0.42,-0.16,-1.04,-3.17,0.43,397,473,240,311,237
328,0.91,-0.4,-0.15,2.26,-2.26,-5.19,400,470,237,308,236
329,0.9,-0.39,-0.16,1.77,-0.85,-2.08,397,470,235,312,235
330,0.89,-0.4,-0.14,1.65,-2.38,-0.85,397,473,241,309,237
331,0.91,-0.4,-0.13,-0.37,-2.26,-0.61,399,471,237,308,238
332,0.91,-0.4,-0.14,-0.31,-3.36,-2.99,400,468,241,312,235
333,0.88,-0.41,-0.15,-1.28,-2.5,-2.75,394,471,238,308,242
334,0.9,-0.41,-0.16,-0.18,-4.58,-0.37,400,466,237,307,235
335,0.92,-0.4,-0.15,0.79,-2.69,-1.77,396,472,237,309,237
336,0.91,-0.41,-0.16,0.55,-3.3,-1.77,397,474,238,311,232
337,0.9,-0.41,-0.16,-0.67,-3.97,-2.93,399,468,241,309,228
338,0.91,-0.4,-0.16,0.79,-4.82,-3.54,399,475,238,312,235
339,0.9,-0.4,-0.16,1.46,-1.83,-3.78,397,470,241,306,236
340,0.9,-0.4,-0.14,0.12,-1.71,-1.65,398,471,240,311,233
341,0.91,-0.4,-0.15,0.24,-2.69,-1.59,398,472,240,309,235
342,0.92,-0.39,-0.13,0.43,-2.2,-3.54,397,469,236,312,236
343,0.9,-0.4,-0.14,-0.24,-4.27,0.24,397,470,238,311,234
344,0.92,-0.39,-0.14,-0.31,-0.43,-2.81,397,470,241,312,235
345,0.91,-0.4,-0.16,-1.16,-2.87,-4.27,398,468,242,310,235
346,0.92,-0.39,-0.15,1.77,-2.26,-6.16,397,472,240,310,236
347,0.9,-0.39,-0.15,1.04,-1.65,-2.93,398,474,240,311,238
348,0.9,-0.39,-0.12,1.89,-2.38,-1.53,401,474,241,311,235
349,0.9,-0.41,-0.13,-0.98,-2.32,0.0,398,471,242,309,252
350,0.91,-0.41,-0.15,0.43,-4.33,-1.4,394,467,245,312,234
351,0.91,-0.4,-0.13,-1.46,-4.52,-2.2,398,470,238,305,235
352,0.91,-0.4,-0.15,-0.06,-4.27,-1.65,401,468,238,309,238
353,0.91,-0.39,-0.15,1.22,-2.75,-2.69,400,474,241,310,234
354,0.91,-0.4,-0.15,2.2,-3.78,-3.54,394,474,237,314,235
355,0.92,-0.4,-0.14,2.5,-4.09,-1.95,398,472,241,313,235
356,0.89,-0.4,-0.15,-0.55,-3.91,-2.5,398,465,238,311,237
357,0.91,-0.4,-0.14,0.98,-3.72,-2.75,399,477,238,313,243
358,0.91,-0.39,-0.14,0.98,-2.38,-1.59,394,470,238,306,247
359,0.91,-0.39,-0.13,1.1,-2.2,-1.95,397,474,240,315,236
360,0.89,-0.41,-0.16,1.1,-5.86,-3.91,397,473,236,310,235
361,0.89,-0.41,-0.15,1.04,-2.99,-4.46,398,471,237,313,242
362,0.89,-0.41,-0.14,0.43,-3.42,-0.49,398,471,237,309,235
363,0.92,-0.39,-0.12,2.62,-2.99,0.18,399,471,235,309,234
364,0.93,-0.38,-0.11,3.6,-2.81,-1.65,399,470,238,309,232
365,0.91,-0.38,-0.1,0.55,-3.42,-0.61,395,470,238,308,236
366,0.91,-0.39,-0.13,-4.88,-3.78,1.71,399,471,241,312,232
367,0.92,-0.39,-0.13,-0.55,-3.42,-2.2,399,475,238,308,236
368,0.91,-0.39,-0.12,1.83,-1.4,-2.75,398,466,241,310,235
369,0.91,-0.4,-0.13,2.75,-3.05,-2.32,395,474,238,309,236
370,0.92,-0.39,-0.12,0.79,-2.2,-2.14,396,465,239,310,233
371,0.92,-0.4,-0.13,1.16,-2.5,-3.54,396,465,241,312,232
372,0.9,-0.39,-0.11,0.31,-2.87,-2.32,394,469,238,310,238
373,0.9,-0.4,-0.14,-0.49,-2.44,-2.26,400,464,241,311,237
374,0.91,-0.41,-0.14,-0.12,-3.36,-3.48,400,469,238,311,235
375,0.91,-0.4,-0.15,0.12,-3.11,-3.66,396,465,239,308,236
376,0.91,-0.39,-0.15,-2.32,-4.15,-1.71,400,470,239,311,233
377,0.92,-0.38,-0.13,1.4,-2.93,-2.26,399,470,237,310,236
378,0.93,-0.39,-0.17,-0.49,-4.33,-1.46,398,475,239,310,236
379,0.89,-0.4,-0.16,-1.04,-4.88,-1.34,399,471,241,310,236
380,0.91,-0.39,-0.17,-1.22,-2.75,-4.15,396,470,240,312,235
381,0.92,-0.39,-0.18,1.83,-2.01,-3.54,400,469,237,310,238
382,0.91,-0.38,-0.15,0.43,-2.14,-2.14,398,464,238,307,236
383,0.92,-0.38,-0.15,1.77,-2.99,-2.32,397,473,238,310,232
384,0.9,-0.39,-0.16,6.9,-2.5,-5.49,397,472,238,310,239
385,0.9,-0.38,-0.15,-2.2,-4.03,-0.37,398,464,238,311,238
386,0.92,-0.38,-0.15,-1.22,-4.03,-2.38,398,472,244,307,238
387,0.9,-0.38,-0.14,-0.06,-3.91,-1.4,398,470,241,312,236
388,0.9,-0.37,-0.12,-3.85,-2.08,-3.91,397,471,242,311,237
389,0.91,-0.36,-0.12,3.3,-3.36,-8.79,401,470,240,309,239
390,0.89,-0.39,-0.16,5.19,-1.04,10.56,397,468,238,314,236
391,0.91,-0.41,-0.2,0.37,-2.44,-2.44,397,464,239,307,235
392,0.93,-0.39,-0.16,2.01,-2.56,-0.55,395,475,240,313,238
393,0.92,-0.39,-0.15,-0.06,-3.23,-2.75,398,469,241,307,235
394,0.92,-0.4,-0.17,0.24,-2.93,-1.95,398,475,239,310,235
395,0.9,-0.39,-0.16,-2.01,-4.09,-2.44,397,471,239,311,235
396,0.9,-0.39,-0.15,-0.12,-3.17,-1.65,394,472,237,308,233
397,0.93,-0.39,-0.18,-1.28,-3.11,-1.89,400,471,240,310,235
398,0.91,-0.39,-0.16,-0.31,-3.11,-1.22,399,468,239,311,237
399,0.9,-0.4,-0.16,1.89,-3.23,-2.08,400,474,236,310,238
400,0.89,-0.4,-0.15,-1.4,-3.3,0.12,400,469,236,309,235
401,0.9,-0.4,-0.16,-0.18,-3.3,-2.14,394,473,241,311,235
402,0.9,-0.4,-0.15,-0.61,-3.85,-2.01,398,464,239,311,238
403,0.91,-0.4,-0.17,-1.1,-2.87,-2.5,401,481,238,312,236
404,0.89,-0.4,-0.17,0.12,-3.23,-2.38,399,470,239,313,235
405,0.9,-0.4,-0.16,0.85,-2.62,-2.44,398,468,241,313,237
406,0.89,-0.41,-0.16,-1.04,-2.32,-2.14,398,468,241,312,238
407,0.89,-0.42,-0.17,-0.24,-2.62,-1.95,398,469,241,311,235
408,0.89,-0.41,-0.15,1.59,-2.75,-2.93,398,471,238,313,235
409,0.89,-0.41,-0.16,0.12,-3.17,-1.83,395,471,237,311,235
410,0.9,-0.4,-0.15,0.0,-2.69,-2.56,397,465,239,309,235
411,0.9,-0.41,-0.16,0.37,-2.93,-2.38,399,474,237,310,234
412,0.9,-0.4,-0.16,0.92,-3.54,-2.75,398,470,237,313,233
413,0.9,-0.41,-0.17,1.95,-3.72,-3.05,394,470,243,314,234
414,0.89,-0.41,-0.17,0.0,-2.26,-1.65,396,466,241,310,245
415,0.9,-0.41,-0.16,0.98,-4.09,-0.67,394,469,239,309,235
416,0.89,-0.41,-0.16,0.06,-1.89,-0.24,402,472,240,306,235
417,0.91,-0.41,-0.15,2.08,-2.87,-2.69,399,471,239,310,236
418,0.9,-0.41,-0.14,1.04,-3.6,-2.32,400,477,242,308,236
419,0.9,-0.41,-0.16,0.0,-4.09,-2.01,398,470,237,313,236
420,0.91,-0.41,-0.17,0.43,-5.13,-2.81,397,473,241,314,238
421,0.91,-0.4,-0.15,1.46,-3.6,-2.62,398,466,239,311,237
422,0.91,-0.4,-0.14,1.95,-1.1,-3.3,397,473,241,310,235
423,0.92,-0.4,-0.15,1.28,-2.56,-2.75,397,470,233,312,237
424,0.92,-0.39,-0.13,-2.32,-4.27,-0.55,393,473,241,309,238
425,0.9,-0.4,-0.15,-0.12,-3.36,-2.5,397,464,239,309,236
426,0.91,-0.4,-0.14,0.92,-5.31,-1.46,400,472,241,311,235
427,0.92,-0.4,-0.15,0.31,-4.82,-1.89,397,473,242,312,237
428,0.91,-0.4,-0.15,0.37,-1.28,-4.09,395,464,239,311,265
429,0.9,-0.4,-0.14,-0.55,-0.79,-1.04,396,472,241,312,238
430,0.91,-0.4,-0.14,-0.49,-2.62,-2.01,393,468,241,311,237
431,0.92,-0.4,-0.13,-1.95,-4.21,-1.59,396,470,241,309,239
432,0.93,-0.4,-0.14,-0.12,-3.85,-3.85,400,481,239,314,244
433,0.92,-0.4,-0.14,-0.79,-3.66,-3.72,396,470,241,310,239
434,0.9,-0.41,-0.15,1.77,-4.33,-2.56,398,473,250,310,238
435,0.91,-0.4,-0.15,1.22,-4.15,-1.89,398,469,239,313,236
436,0.9,-0.41,-0.14,-0.61,-2.81,-1.65,399,470,241,312,233
437,0.9,-0.4,-0.14,-0.31,-4.21,-1.59,399,465,242,312,236
438,0.91,-0.41,-0.14,0.67,-3.48,-2.14,393,465,243,311,236
439,0.91,-0.4,-0.14,0.61,-2.5,-2.44,398,464,240,311,238
440,0.88,-0.44,-0.15,8.85,-5.98,-1.89,398,468,240,314,236
441,0.86,-0.44,-0.21,-3.66,-11.78,0.61,395,475,240,314,239
442,0.91,-0.42,-0.17,-4.03,1.46,-3.48,398,465,250,316,240
443,0.89,-0.39,-0.16,2.62,-3.23,-8.18,396,473,239,314,266
444,0.9,-0.38,-0.17,-0.79,-0.79,0.18,394,471,240,310,235
445,0.9,-0.39,-0.17,-0.31,-1.65,-2.26,398,465,239,309,235
446,0.91,-0.4,-0.18,-0.24,-1.77,-3.42,398,469,237,311,239
447,0.89,-0.41,-0.17,0.12,-2.01,-1.59,397,474,242,313,235
448,0.9,-0.41,-0.18,0.73,-2.2,-2.38,399,461,242,313,236
449,0.9,-0.42,-0.18,0.37,-2.56,-3.54,397,470,240,312,236
450,0.89,-0.41,-0.17,0.92,-2.5,-2.69,394,471,245,313,239
451,0.9,-0.41,-0.17,-0.73,-4.03,-1.59,401,471,243,313,239
452,0.9,-0.41,-0.18,-0.43,-3.11,-1.53,398,470,239,311,238
453,0.9,-0.41,-0.18,0.31,-3.11,-1.95,396,474,240,313,236
454,0.89,-0.41,-0.18,0.06,-2.44,-1.16,400,471,240,312,236
455,0.96,-0.39,-0.16,5.25,0.37,2.87,398,470,239,313,237
456,0.92,-0.39,-0.14,0.18,-2.99,-5.43,399,475,240,312,236
457,0.9,-0.42,-0.15,0.49,-1.28,-3.66,398,470,242,314,236
458,0.89,-0.42,-0.15,0.24,-2.81,-2.62,399,467,240,313,234
459,0.91,-0.41,-0.17,1.16,-3.97,-2.62,401,470,242,312,245
460,0.91,-0.4,-0.14,0.61,-2.5,-1.89,401,474,243,315,237
461,0.9,-0.4,-0.14,0.92,-1.4,-2.99,397,471,238,315,240
462,0.9,-0.41,-0.15,-0.37,-1.16,-2.81,397,470,238,312,238
463,0.9,-0.41,-0.14,-0.06,-1.83,-2.08,398,468,242,313,239
464,0.9,-0.41,-0.15,1.1,-2.5,-2.99,399,471,240,313,236
465,0.91,-0.41,-0.14,1.46,-2.87,-3.23,398,470,240,316,239
466,0.9,-0.41,-0.13,0.73,-3.72,-2.5,394,472,239,313,235
467,0.91,-0.4,-0.13,0.79,-3.48,-2.56,397,471,244,311,240
468,0.9,-0.41,-0.14,0.18,-3.11,-2.69,396,465,239,315,237
469,0.91,-0.41,-0.14,0.92,-3.11,-1.83,396,474,242,313,238
470,0.91,-0.41,-0.15,0.31,-3.72,-1.89,396,469,242,312,235
471,0.91,-0.41,-0.13,0.37,-2.69,-2.69,398,470,237,318,237
472,0.89,-0.41,-0.12,-1.46,-2.69,-2.38,398,469,240,314,237
473,0.9,-0.41,-0.14,3.6,-4.39,-1.83,397,465,242,315,236
474,0.9,-0.41,-0.13,0.55,-2.01,-3.23,399,474,240,314,237
475,0.9,-0.41,-0.13,0.61,-3.36,-1.1,398,470,242,316,240
476,0.9,-0.41,-0.12,-0.31,-2.01,-2.69,396,467,238,314,239
477,0.89,-0.42,-0.14,0.49,-3.85,-1.16,399,470,240,312,237
478,0.91,-0.41,-0.12,0.85,-3.3,-2.38,397,471,238,315,266
479,0.9,-0.42,-0.12,-0.24,-2.26,-2.81,394,474,240,311,240
480,0.9,-0.42,-0.12,-0.98,-6.35,-0.49,397,465,243,310,239
481,0.91,-0.41,-0.13,1.04,-4.58,-2.62,400,470,242,314,237
482,0.91,-0.4,-0.12,-1.77,-0.06,-4.76,396,474,238,314,238
483,0.91,-0.4,-0.12,0.85,-3.66,-1.46,397,465,240,312,237
484,0.92,-0.4,-0.12,0.43,-1.89,-4.03,397,473,240,316,236
485,0.91,-0.41,-0.13,1.77,-1.95,-4.33,399,467,242,314,240
486,0.91,-0.41,-0.12,0.85,-2.75,-3.05,394,468,243,313,240
487,0.9,-0.41,-0.11,-0.55,-2.75,-1.59,398,474,242,313,239
488,0.89,-0.41,-0.12,-0.49,-3.48,-2.75,400,466,243,315,237
489,0.91,-0.4,-0.13,-1.34,-3.3,-2.99,400,472,240,315,238
490,0.91,-0.4,-0.13,-0.12,-1.89,-3.3,399,473,240,312,235
491,0.9,-0.4,-0.12,0.79,-3.42,-2.87,397,473,240,313,237
492,0.9,-0.4,-0.12,-1.1,-2.87,-2.62,399,465,238,314,234
493,0.91,-0.4,-0.11,0.67,-2.93,-1.71,398,473,238,316,235
494,0.9,-0.4,-0.12,2.5,-3.42,-1.04,395,474,242,317,235
495,0.9,-0.41,-0.12,1.77,-2.5,-2.87,395,466,243,316,237
496,0.9,-0.41,-0.14,0.37,-3.6,-2.5,397,466,238,313,237
497,0.91,-0.4,-0.14,0.61,-3.66,-2.38,398,465,239,313,239
498,0.9,-0.4,-0.14,1.77,-2.38,-2.56,399,471,238,314,233
499,0.91,-0.4,-0.12,0.92,-2.26,-2.75,397,472,240,314,241
500,0.91,-0.4,-0.13,0.55,-3.66,-2.5,398,471,239,312,240
501,0.91,-0.38,-0.17,-1.4,-2.32,-2.56,392,465,234,308,227
502,0.94,-0.37,-0.17,-0.18,1.34,0.24,395,463,239,309,232
503,0.94,-0.36,-0.16,-2.38,-1.65,-7.26,393,468,237,307,230
504,0.92,-0.36,-0.17,-0.31,-3.78,-3.66,395,465,237,307,233
505,0.93,-0.35,-0.15,2.32,-9.03,-4.15,394,466,240,309,230
506,0.96,-0.34,-0.18,1.95,-2.81,-1.28,395,465,240,307,231
507,0.93,-0.34,-0.17,2.14,-3.36,-2.26,397,466,238,309,230
508,0.92,-0.36,-0.18,-0.79,-2.99,-0.73,400,463,240,309,230
509,0.91,-0.36,-0.18,3.05,-5.8,-0.79,398,466,235,304,233
510,0.91,-0.37,-0.18,-0.43,0.0,-2.99,393,471,239,305,229
511,0.92,-0.36,-0.17,-1.83,-2.08,-2.32,396,463,240,307,232
512,0.91,-0.37,-0.17,1.71,-2.69,-4.64,396,477,241,306,232
513,0.92,-0.36,-0.17,0.55,-0.85,-1.1,398,466,235,307,231
514,0.92,-0.37,-0.18,2.14,-1.34,-7.2,397,467,238,308,234
515,0.95,-0.34,-0.18,2.08,-2.38,-4.09,403,463,236,310,234
516,0.94,-0.35,-0.15,2.75,-5.43,-1.95,400,474,240,308,233
517,0.92,-0.35,-0.15,0.18,-3.11,-2.2,395,465,238,320,230
518,0.93,-0.36,-0.16,-1.34,4.27,-5.31,399,471,240,308,235
519,0.92,-0.36,-0.15,1.28,-2.2,-3.85,398,466,238,308,236
520,0.93,-0.36,-0.16,1.53,-4.82,-3.54,401,470,236,309,234
521,0.92,-0.36,-0.17,0.24,-3.78,-2.01,400,468,239,307,235
522,0.95,-0.36,-0.17,0.67,2.44,0.37,400,465,250,312,230
523,0.95,-0.36,-0.15,1.83,-3.72,-7.57,398,470,241,307,232
524,0.91,-0.38,-0.16,0.79,-0.79,-5.31,398,466,237,308,233
525,0.9,-0.39,-0.16,-1.28,-11.35,-2.26,397,466,247,307,234
526,0.9,-0.39,-0.17,1.89,-1.28,1.53,399,472,240,306,231
527,0.87,-0.4,-0.17,0.43,-3.72,-2.87,398,471,241,324,232
528,0.9,-0.4,-0.18,-1.1,-2.08,-1.4,400,466,237,310,234
529,0.9,-0.39,-0.17,0.61,-2.93,-2.38,400,467,244,307,234
530,0.91,-0.38,-0.16,5.86,-2.32,-1.71,398,463,236,307,230
531,0.9,-0.39,-0.16,0.18,-2.62,-4.33,399,464,237,306,233
532,0.89,-0.39,-0.16,2.38,-0.12,-1.71,396,468,239,310,232
533,0.88,-0.39,-0.15,-0.85,-1.4,-2.62,399,472,237,309,235
534,0.92,-0.38,-0.18,3.11,0.85,-3.66,398,463,236,308,234
535,0.9,-0.38,-0.16,1.4,-1.83,-3.66,402,469,238,311,233
536,0.91,-0.39,-0.15,-0.37,-2.08,-2.44,395,469,240,308,234
537,0.9,-0.38,-0.14,-0.85,-0.92,-3.54,394,463,235,318,233
538,0.9,-0.38,-0.12,-1.4,2.14,-7.26,399,473,240,318,234
539,0.92,-0.38,-0.14,-1.28,-3.91,-2.81,401,474,237,313,241
540,0.91,-0.38,-0.16,1.71,-4.39,-5.37,398,464,240,311,233
541,0.89,-0.38,-0.15,-1.34,-5.07,-5.07,399,469,238,309,233
542,0.92,-0.37,-0.14,4.46,-5.25,4.82,401,469,240,309,233
543,0.9,-0.37,-0.12,1.95,0.37,-4.7,400,464,241,305,232
544,0.92,-0.37,-0.13,-4.09,-0.18,-1.04,397,461,244,310,231
545,0.92,-0.38,-0.13,0.61,-3.72,-1.95,398,473,237,312,234
546,0.94,-0.37,-0.15,3.54,-6.23,-2.62,400,464,242,310,231
547,0.92,-0.37,-0.13,1.71,-2.14,-1.71,399,469,242,302,235
548,0.93,-0.36,-0.14,0.49,-3.6,-1.71,402,473,238,312,236
549,0.92,-0.37,-0.15,0.0,-4.52,-2.62,402,468,241,310,236
550,0.91,-0.37,-0.13,1.65,-3.91,-2.75,397,468,241,310,232
551,0.92,-0.36,-0.14,3.72,-4.39,-2.99,401,467,240,309,236
552,0.92,-0.36,-0.14,0.24,-1.83,-3.3,399,468,242,311,235
553,0.92,-0.36,-0.13,-0.43,-1.89,-3.54,400,468,241,309,235
554,0.91,-0.36,-0.13,0.49,-2.44,-2.5,400,472,240,313,235
555,0.92,-0.37,-0.15,2.44,-3.85,-3.17,399,473,238,311,235
556,0.92,-0.36,-0.14,1.04,-3.17,-2.93,400,471,240,309,235
557,0.93,-0.36,-0.14,-0.79,-2.32,-2.14,398,472,238,311,233
558,0.93,-0.35,-0.14,-0.85,-3.11,-2.08,402,470,240,309,248
559,0.93,-0.36,-0.15,0.18,-2.99,-2.56,399,469,238,310,250
560,0.93,-0.36,-0.13,0.55,-0.61,-3.36,396,469,239,309,237
561,0.93,-0.36,-0.14,-0.61,-1.1,-2.38,397,470,237,320,236
562,0.92,-0.36,-0.14,-0.67,-2.32,-1.4,400,469,238,312,240
563,0.92,-0.36,-0.14,0.98,-2.69,-2.75,396,466,238,308,237
564,0.93,-0.36,-0.14,0.0,-2.2,-2.5,396,470,239,308,234
565,0.93,-0.36,-0.13,0.18,-2.69,-1.71,400,467,240,308,235
566,0.93,-0.36,-0.14,0.92,-2.87,-2.2,403,469,241,312,235
567,0.92,-0.37,-0.16,0.43,-3.48,-3.3,400,467,240,312,235
568,0.92,-0.36,-0.14,-0.24,-3.42,-2.38,398,465,240,313,232
569,0.93,-0.36,-0.14,0.67,-2.93,-2.69,401,468,241,312,235
570,0.92,-0.37,-0.14,-1.04,-3.66,-3.36,403,469,243,311,235
571,0.91,-0.36,-0.14,0.55,-3.91,-1.59,398,472,241,309,237
572,0.92,-0.36,-0.14,0.24,-3.6,-2.75,400,472,238,313,235
573,0.92,-0.36,-0.15,0.43,-3.72,-3.17,400,467,239,309,237
574,0.92,-0.36,-0.14,2.08,-3.42,-3.3,399,467,240,309,232
575,0.92,-0.34,-0.13,1.16,-0.37,-5.74,402,465,244,314,234
576,0.93,-0.35,-0.15,0.18,-3.48,-4.52,401,474,244,310,234
577,0.92,-0.35,-0.16,2.14,-3.17,-3.97,398,472,238,311,276
578,0.93,-0.34,-0.14,0.12,-2.2,-1.83,401,470,240,314,236
579,0.93,-0.36,-0.15,1.83,-2.99,-3.05,398,470,241,310,235
580,0.93,-0.35,-0.15,2.93,-2.93,-3.17,398,469,242,309,235
581,0.93,-0.35,-0.14,1.95,-2.93,-2.69,401,473,242,314,238
582,0.95,-0.35,-0.14,0.24,-4.52,-1.28,404,469,243,311,237
583,0.94,-0.35,-0.13,2.26,-4.03,-2.5,400,467,246,312,237
584,0.93,-0.35,-0.12,0.49,-2.81,-3.3,398,466,242,311,237
585,0.92,-0.35,-0.11,3.42,-3.66,-1.46,401,477,244,313,255
586,0.93,-0.35,-0.11,-1.4,-2.87,-2.93,400,469,244,314,239
587,0.93,-0.35,-0.11,-0.18,-2.62,-3.42,401,469,243,313,236
588,0.93,-0.36,-0.1,0.85,-3.3,-3.42,401,472,239,312,237
589,0.92,-0.36,-0.12,1.28,-2.62,-1.4,402,463,243,311,236
590,0.93,-0.35,-0.12,2.38,-2.81,-2.14,401,471,246,309,232
591,0.92,-0.36,-0.13,1.22,-3.11,-3.85,403,485,241,311,238
592,0.91,-0.36,-0.12,-0.67,-3.6,-2.14,403,469,248,314,233
593,0.94,-0.37,-0.13,-0.24,-3.36,-2.14,400,473,243,313,239
594,0.91,-0.35,-0.11,1.46,-2.2,0.67,397,472,246,315,237
595,0.94,-0.36,-0.15,-2.26,-2.08,-3.48,401,467,240,311,237
596,0.92,-0.37,-0.16,0.49,-6.9,-2.14,399,470,241,311,238
597,0.89,-0.38,-0.15,1.1,-0.37,-1.1,403,470,242,312,238
598,0.92,-0.38,-0.15,0.67,-2.32,-3.6,400,470,243,312,231
599,0.91,-0.37,-0.16,-0.92,-2.5,-3.48,401,469,245,311,236
600,0.92,-0.37,-0.14,2.69,-2.38,-2.56,399,467,245,314,235
601,0.93,-0.37,-0.16,1.65,-3.66,-3.23,402,469,244,314,238
602,0.92,-0.37,-0.15,-0.24,-3.11,-3.23,399,464,242,315,238
603,0.91,-0.37,-0.15,-1.16,-3.17,-2.5,404,468,243,311,235
604,0.89,-0.39,-0.18,0.79,-2.44,-4.39,399,473,241,314,236
605,0.9,-0.38,-0.18,-1.1,-0.61,-4.58,399,472,244,312,240
606,0.94,-0.36,-0.18,-0.24,-3.97,-1.59,398,469,243,314,236
607,0.93,-0.36,-0.17,0.24,-3.66,-2.5,401,466,242,314,236
608,0.92,-0.36,-0.14,0.06,-2.5,-3.05,398,470,244,313,234
609,0.93,-0.35,-0.16,1.4,-2.87,1.34,404,471,245,314,244
610,0.91,-0.37,-0.15,0.18,-3.05,-2.01,398,470,242,309,236
611,0.92,-0.36,-0.15,0.73,-4.15,-0.43,406,468,244,309,239
612,0.93,-0.35,-0.14,-0.61,-2.01,-2.01,400,471,244,310,236
613,0.93,-0.34,-0.13,-0.24,-3.54,-0.49,399,473,241,315,239
614,0.95,-0.35,-0.15,-0.24,-3.05,-4.03,399,471,243,309,234
615,0.94,-0.34,-0.13,2.93,-4.94,-3.17,398,474,244,314,237
616,0.91,-0.34,-0.14,-2.5,8.67,-15.01,400,469,241,309,239
617,0.93,-0.34,-0.12,-0.31,1.65,-6.53,400,473,243,311,239
618,0.95,-0.32,-0.12,0.49,-0.73,-4.03,400,468,242,312,239
619,0.94,-0.33,-0.13,-0.73,-2.62,-2.81,397,470,243,312,234
620,0.94,-0.33,-0.12,1.04,-3.91,-3.54,400,470,244,313,237
621,0.93,-0.33,-0.12,-0.98,-3.48,-1.16,404,474,244,314,236
622,0.93,-0.34,-0.13,0.92,-2.75,-2.2,401,469,243,314,238
623,0.94,-0.33,-0.14,0.31,-5.49,-2.62,401,466,242,314,235
624,0.93,-0.34,-0.14,-0.37,-2.2,-1.95,400,471,244,312,239
625,0.94,-0.34,-0.13,-1.34,-3.48,-2.93,400,472,241,311,236
626,0.93,-0.34,-0.14,3.48,-2.14,-3.36,400,471,243,312,238
627,0.92,-0.35,-0.15,2.01,-2.44,-2.2,400,469,240,314,238
628,0.94,-0.37,-0.18,2.14,-5.37,-3.97,400,469,240,313,236
629,0.92,-0.36,-0.15,0.18,-1.95,-1.95,396,469,241,311,238
630,0.93,-0.36,-0.15,-1.53,-1.77,-4.7,400,465,244,308,235
631,0.94,-0.35,-0.17,2.01,-2.32,-4.03,400,472,244,314,234
632,0.93,-0.36,-0.15,0.61,-3.17,-2.08,405,469,241,313,237
633,0.94,-0.35,-0.14,0.73,-3.85,-1.16,400,473,245,315,239
634,0.92,-0.36,-0.14,-2.87,-3.05,-0.55,405,469,239,311,237
635,0.93,-0.35,-0.14,1.83,-3.36,-2.62,398,469,241,308,235
636,0.92,-0.35,-0.14,2.2,-2.38,-2.81,401,468,243,312,237
637,0.91,-0.35,-0.13,0.92,-3.85,-2.08,400,464,245,312,236
638,0.91,-0.36,-0.15,-0.73,-6.53,-1.71,402,469,239,312,238
639,0.93,-0.35,-0.15,1.16,-2.87,-2.81,401,469,244,312,238
640,0.93,-0.36,-0.15,1.95,-2.56,-2.2,403,469,244,315,239
641,0.93,-0.36,-0.14,1.34,-3.97,-1.53,395,471,240,313,233
642,0.92,-0.35,-0.14,0.37,-3.11,-1.89,397,470,241,312,238
643,0.93,-0.35,-0.14,1.83,-2.56,-2.26,401,474,242,318,236
644,0.92,-0.36,-0.14,0.37,-2.81,-2.5,395,466,245,314,254
645,0.92,-0.36,-0.14,-0.79,-1.65,-2.32,401,471,246,312,238
646,0.92,-0.36,-0.14,0.12,-2.5,-2.32,398,473,243,312,238
647,0.92,-0.36,-0.15,-0.37,-3.48,-1.65,399,472,242,310,238
648,0.92,-0.35,-0.13,-1.1,-2.44,-2.81,400,470,245,313,238
649,0.91,-0.36,-0.15,0.31,-2.26,-3.6,402,466,243,314,237
650,0.92,-0.36,-0.13,-0.37,-2.14,-2.32,395,470,248,315,236
651,0.93,-0.36,-0.14,0.18,-2.38,-2.32,398,470,242,315,236
652,0.93,-0.35,-0.13,-0.06,-1.46,-3.54,400,469,242,312,236
653,0.93,-0.36,-0.15,0.85,-2.99,-3.05,399,470,243,312,248
654,0.93,-0.36,-0.15,0.98,-2.87,-2.26,401,470,242,312,235
655,0.94,-0.36,-0.15,0.92,-2.62,-1.71,398,470,245,312,239
656,0.93,-0.36,-0.14,0.67,-2.2,-2.14,400,469,247,312,259
657,0.92,-0.36,-0.14,0.61,-3.42,-1.71,411,467,243,312,235
658,0.92,-0.36,-0.15,0.37,-2.08,-2.99,401,470,241,312,239
659,0.92,-0.36,-0.14,-0.37,-1.89,-3.91,401,467,243,315,236
660,0.92,-0.36,-0.14,0.61,-2.69,-3.36,400,469,245,311,236
661,0.93,-0.36,-0.16,0.37,-2.75,-1.83,398,471,247,312,239
662,0.92,-0.36,-0.15,0.67,-3.42,-2.5,402,466,248,314,237
663,0.93,-0.35,-0.13,-0.18,-2.38,-2.87,398,470,245,313,238
664,0.93,-0.36,-0.14,-0.61,-0.24,-1.95,402,468,243,313,239
665,0.92,-0.36,-0.13,0.24,-0.92,-3.05,399,474,242,315,236
666,0.92,-0.36,-0.13,-0.55,-1.59,-2.69,400,469,246,313,239
667,0.91,-0.37,-0.14,1.28,-3.36,-1.16,399,465,244,312,238
668,0.92,-0.37,-0.15,-0.43,-3.23,-3.23,399,466,243,313,238
669,0.91,-0.37,-0.15,1.04,-3.11,-1.53,399,473,244,315,236
670,0.91,-0.36,-0.14,-0.12,-3.23,-2.69,400,466,243,312,234
671,0.92,-0.36,-0.13,1.04,-2.38,-2.69,398,470,243,312,237
672,0.92,-0.36,-0.14,0.98,-1.65,-2.32,399,470,244,313,237
673,0.92,-0.37,-0.13,-2.14,-3.78,-1.28,397,470,245,313,238
674,0.94,-0.36,-0.14,0.06,-1.04,-4.21,401,464,243,312,237
675,0.94,-0.36,-0.13,3.11,-4.82,-4.76,401,468,246,310,236
676,0.93,-0.35,-0.12,2.32,-4.39,-1.83,398,471,244,314,232
677,0.92,-0.37,-0.15,0.49,-4.03,-4.88,396,469,245,310,239
678,0.92,-0.36,-0.14,-0.12,-4.33,-5.07,397,470,243,313,236
679,0.88,-0.38,-0.14,-2.5,-2.26,-0.98,402,465,242,313,237
680,0.92,-0.38,-0.17,-0.79,-5.74,-0.73,396,469,246,312,237
681,0.92,-0.37,-0.15,-0.55,-2.56,-2.08,402,473,242,314,235
682,0.92,-0.37,-0.15,0.12,-2.87,-2.5,400,473,242,316,275
683,0.95,-0.35,-0.13,1.16,-3.85,-3.6,403,469,247,313,235
684,0.93,-0.36,-0.16,4.03,-2.87,-0.73,395,466,246,326,238
685,0.92,-0.35,-0.13,-0.67,-1.77,-3.78,400,471,242,313,239
686,0.94,-0.36,-0.17,2.62,-1.65,-6.23,399,467,243,311,237
687,0.94,-0.37,-0.12,3.97,-1.22,-0.12,400,467,249,313,259
688,0.92,-0.39,-0.14,-0.06,-2.69,-3.17,396,466,247,316,232
689,0.92,-0.38,-0.12,-2.14,-4.03,-2.26,399,469,244,315,233
690,0.93,-0.37,-0.13,1.77,-2.87,-3.3,395,471,243,316,231
691,0.91,-0.38,-0.13,-0.61,-1.46,-2.32,399,472,241,313,232
692,0.91,-0.38,-0.12,0.49,-0.67,-3.36,397,470,240,315,235
693,0.91,-0.38,-0.13,0.37,-2.69,-3.66,399,469,243,313,230
694,0.91,-0.37,-0.12,-1.89,-2.99,-1.95,400,474,242,314,230
695,0.93,-0.37,-0.14,0.55,-2.93,-2.01,401,470,257,315,233
696,0.92,-0.37,-0.13,-1.95,-4.46,-2.08,393,472,244,313,232
697,0.93,-0.36,-0.12,0.43,-2.2,-3.72,396,469,244,312,237
698,0.93,-0.36,-0.11,1.83,-2.2,-3.42,398,470,238,315,240
699,0.93,-0.37,-0.12,1.77,-1.77,-3.05,398,473,246,313,234
700,0.92,-0.37,-0.13,-0.67,-1.34,-2.01,402,469,244,315,237
701,0.91,-0.37,-0.14,1.16,-3.11,-4.46,399,472,246,312,237
702,0.92,-0.36,-0.13,-0.24,-2.26,-2.93,396,470,245,314,234
703,0.92,-0.37,-0.14,1.1,-3.3,-3.36,397,471,242,312,235
704,0.92,-0.37,-0.14,0.61,-3.11,-1.71,393,470,243,316,234
705,0.92,-0.37,-0.13,1.89,-0.31,-3.36,398,465,243,313,237
706,0.92,-0.36,-0.11,1.71,-2.44,-3.78,399,474,245,308,234
707,0.93,-0.37,-0.13,6.23,-4.03,-0.37,397,468,242,314,233
708,0.92,-0.38,-0.12,-0.92,-3.6,-2.08,394,474,246,315,235
709,0.91,-0.38,-0.12,-0.06,-2.99,-1.77,399,470,244,314,232
710,0.9,-0.38,-0.12,-0.43,-2.5,-3.36,394,469,242,326,237
711,0.92,-0.38,-0.12,0.73,-3.05,-4.21,394,472,244,314,235
712,0.93,-0.38,-0.13,1.53,-4.82,-2.44,398,474,246,313,236
713,0.92,-0.37,-0.13,-0.61,-2.2,-1.4,400,469,240,315,237
714,0.91,-0.38,-0.12,0.18,-2.26,-2.69,401,469,246,317,237
715,0.92,-0.37,-0.12,0.37,-2.38,-3.3,398,464,241,313,233
716,0.92,-0.35,-0.11,3.78,-4.15,-1.4,397,471,243,318,237
717,0.92,-0.37,-0.12,1.1,-3.6,-1.95,398,476,244,316,231
718,0.92,-0.36,-0.09,1.16,-2.69,-1.46,394,467,241,317,237
719,0.92,-0.37,-0.11,-0.73,-3.48,-1.83,399,464,242,315,236
720,0.92,-0.37,-0.12,0.0,-3.48,-2.5,401,470,241,315,238
721,0.92,-0.37,-0.13,-0.55,-2.81,-2.14,400,470,244,318,237
722,0.91,-0.37,-0.12,-0.06,-1.28,-3.05,398,475,243,310,238
723,0.93,-0.37,-0.12,-0.24,-2.01,-1.71,400,469,243,316,236
724,0.91,-0.37,-0.12,0.0,-2.26,-2.14,400,473,246,318,238
725,0.92,-0.37,-0.12,-1.28,-1.89,-2.44,397,467,246,318,233
726,0.93,-0.36,-0.12,-0.31,-1.83,-3.23,401,474,246,317,238
727,0.92,-0.37,-0.13,0.24,-2.01,-3.48,399,472,242,314,233
728,0.93,-0.37,-0.14,0.18,-0.73,-3.66,398,468,246,312,236
729,0.93,-0.36,-0.13,1.4,-2.62,-2.93,401,475,246,316,235
730,0.93,-0.36,-0.12,0.0,-1.83,-2.75,400,470,241,314,235
731,0.94,-0.37,-0.14,-0.67,-3.23,-1.28,399,470,246,314,236
732,0.93,-0.37,-0.13,1.53,-4.52,-0.37,395,474,244,311,235
733,0.93,-0.37,-0.11,0.73,-3.54,-2.75,402,468,240,314,233
734,0.92,-0.36,-0.11,-0.43,-3.05,-1.28,398,480,242,315,234
735,0.92,-0.36,-0.12,1.1,-2.62,-1.04,399,473,246,315,238
736,0.92,-0.37,-0.11,-1.46,-0.43,-2.5,402,466,246,315,237
737,0.92,-0.37,-0.11,-0.85,-4.39,-1.89,398,474,244,312,238
738,0.92,-0.37,-0.12,-0.55,-3.54,-2.69,398,471,246,314,234
739,0.92,-0.37,-0.13,-0.24,-2.75,-3.17,402,474,245,312,233
740,0.92,-0.36,-0.1,-1.1,-2.26,-2.08,401,474,245,316,237
741,0.92,-0.37,-0.11,0.06,-2.87,-2.81,398,474,244,313,236
742,0.92,-0.36,-0.1,0.85,-1.77,-3.36,400,470,256,314,236
743,0.93,-0.36,-0.1,-0.55,-2.14,-1.95,402,472,242,315,239
744,0.93,-0.37,-0.11,-0.85,-2.93,-2.93,399,473,241,314,234
745,0.93,-0.37,-0.12,2.56,-4.88,-2.5,402,469,243,311,238
746,0.92,-0.37,-0.12,1.95,-4.03,-2.14,401,471,244,313,239
747,0.92,-0.37,-0.11,0.31,-5.37,-2.26,395,473,244,315,240
748,0.93,-0.36,-0.13,-0.73,-0.61,-0.92,389,471,245,313,235
749,0.92,-0.37,-0.11,0.43,-0.85,-0.61,399,470,244,317,238
750,0.94,-0.36,-0.1,0.18,-2.2,-0.55,400,466,247,314,238
751,0.93,-0.37,-0.11,-0.12,-3.6,-2.5,400,467,248,315,236
752,0.92,-0.37,-0.11,-0.85,-4.15,-1.71,400,472,246,318,236
753,0.92,-0.38,-0.12,-0.61,-4.39,-1.65,401,470,243,312,234
754,0.92,-0.37,-0.12,1.04,-2.87,-1.4,398,474,242,315,237
755,0.9,-0.39,-0.13,-1.22,-0.92,0.18,402,472,246,312,233
756,0.9,-0.39,-0.1,-3.85,-3.36,-3.36,400,475,242,312,236
757,0.9,-0.39,-0.13,-1.71,-4.88,-0.73,402,471,246,315,237
758,0.91,-0.38,-0.12,2.56,-2.81,-1.65,399,468,246,319,237
759,0.91,-0.39,-0.11,-2.87,-0.85,-4.33,400,469,243,314,235
760,0.9,-0.4,-0.1,1.53,-3.72,-3.17,400,470,246,316,236
761,0.9,-0.4,-0.12,1.59,-7.08,-0.67,400,469,247,321,239
762,0.92,-0.4,-0.14,4.27,-2.81,-3.11,401,468,247,313,240
763,0.91,-0.41,-0.14,2.5,-2.01,-2.32,403,470,243,312,241
764,0.91,-0.41,-0.12,0.67,-1.95,-1.1,400,467,242,316,235
765,0.9,-0.41,-0.1,2.14,-0.92,-3.36,399,474,243,311,235
766,0.92,-0.4,-0.11,0.49,-3.54,-3.11,397,471,238,308,237
767,0.91,-0.4,-0.1,2.08,-3.48,-4.03,401,472,237,307,234
768,0.91,-0.4,-0.11,1.4,-3.72,-3.66,398,470,237,308,235
769,0.91,-0.4,-0.11,0.43,-4.03,-0.49,391,471,238,308,234
770,0.9,-0.41,-0.11,-0.12,-2.99,-3.36,398,473,240,309,235
771,0.9,-0.41,-0.11,0.61,-3.6,-2.5,395,470,237,308,234
772,0.92,-0.41,-0.13,-3.42,-2.44,-3.54,400,466,238,310,235
773,0.88,-0.43,-0.15,-2.87,-6.04,-2.01,396,470,238,303,234
774,0.89,-0.39,-0.1,-0.24,-2.38,-1.53,397,473,236,308,238
775,0.92,-0.39,-0.14,-1.89,-4.27,1.65,402,471,241,307,235
776,0.86,-0.4,-0.12,8.73,-7.08,6.65,395,469,235,310,236
777,0.92,-0.4,-0.17,-1.83,-1.89,-4.82,401,470,234,304,234
778,0.9,-0.39,-0.15,-0.37,-4.46,-2.44,396,469,240,309,236
779,0.89,-0.38,-0.14,-0.67,-1.53,-1.04,397,468,236,307,234
780,0.87,-0.4,-0.17,-0.12,-4.82,0.31,403,470,238,310,232
781,0.91,-0.39,-0.14,0.24,0.43,0.12,400,468,241,307,266
782,0.89,-0.4,-0.16,3.97,-1.71,-3.48,401,470,252,305,236
783,0.92,-0.4,-0.17,-1.95,-0.43,-3.66,400,469,235,308,234
784,0.94,-0.41,-0.16,1.59,-4.52,-3.48,392,469,239,311,235
785,0.9,-0.42,-0.16,1.28,-2.81,-4.39,400,465,236,309,234
786,0.89,-0.4,-0.14,0.67,-2.08,-2.5,400,473,241,307,235
787,0.92,-0.4,-0.18,0.49,-3.97,-3.78,398,467,241,310,237
788,0.91,-0.39,-0.15,0.31,-2.32,-3.11,393,469,238,309,233
789,0.91,-0.4,-0.17,1.65,-2.81,-3.17,398,470,241,309,234
790,0.87,-0.42,-0.15,-3.23,-2.87,-2.81,397,471,238,304,235
791,0.9,-0.4,-0.14,1.77,-3.05,-2.5,400,468,236,309,235
792,0.93,-0.41,-0.21,3.72,-4.94,-1.83,398,465,238,308,236
793,0.93,-0.37,-0.16,1.4,-1.53,-2.69,395,470,241,310,232
794,0.9,-0.39,-0.18,0.49,-2.75,-3.66,396,474,240,310,236
795,0.93,-0.37,-0.14,0.98,-5.0,-0.67,394,470,236,310,250
796,0.91,-0.37,-0.14,1.53,-1.89,-2.56,398,470,237,308,233
797,0.91,-0.39,-0.17,4.76,-6.53,-4.76,394,470,240,308,236
798,0.88,-0.39,-0.13,3.97,-1.4,-1.77,398,471,239,311,235
799,0.92,-0.38,-0.16,-2.75,-3.05,-3.66,395,474,239,310,238
800,0.94,-0.39,-0.13,-5.19,-7.81,4.64,396,465,241,306,233
801,0.9,-0.39,-0.12,-1.53,-2.69,-2.14,396,470,238,326,232
802,0.9,-0.4,-0.16,-2.69,-3.11,-1.53,396,472,240,318,236
803,0.91,-0.39,-0.13,-0.55,-5.07,-3.11,398,469,237,311,235
804,0.93,-0.37,-0.14,6.59,-0.79,-5.07,400,468,236,309,234
805,0.91,-0.37,-0.11,1.59,-2.32,-5.19,396,469,235,309,243
806,0.87,-0.42,-0.14,-2.56,-2.26,4.7,398,478,239,309,233
807,0.87,-0.42,-0.11,5.37,-7.51,1.65,406,470,241,311,235
808,0.93,-0.41,-0.15,-0.98,-1.95,-2.5,398,465,237,308,235
809,0.91,-0.41,-0.17,6.35,2.01,-7.32,401,472,238,311,234
810,0.88,-0.41,-0.12,-1.89,2.01,-1.65,399,467,235,311,238
811,0.9,-0.41,-0.13,-1.1,-2.62,-3.36,398,467,238,311,235
812,0.89,-0.42,-0.15,-0.12,-3.48,-2.32,402,468,238,311,235
813,0.91,-0.41,-0.15,4.88,-3.3,-5.98,399,470,248,306,232
814,0.92,-0.39,-0.16,4.21,-2.62,-2.81,398,466,239,312,235
815,0.95,-0.38,-0.17,2.75,-20.63,-0.18,399,471,236,306,236
816,0.9,-0.38,-0.14,1.22,-2.32,-2.5,400,465,240,309,235
817,0.88,-0.4,-0.17,-2.38,-3.97,-0.61,399,464,237,312,237
818,0.92,-0.41,-0.18,1.46,-8.18,1.46,400,467,240,309,236
819,0.91,-0.4,-0.14,-4.94,-0.85,-0.98,398,471,236,309,235
820,0.91,-0.41,-0.16,3.42,-2.87,-2.56,399,466,241,311,235
821,0.89,-0.41,-0.16,0.18,-3.36,-2.01,398,465,243,308,232
822,0.88,-0.43,-0.18,3.42,-4.46,-2.99,400,470,238,308,236
823,0.89,-0.42,-0.16,-0.98,-4.82,-2.87,395,470,238,308,235
824,0.88,-0.43,-0.17,0.92,-4.94,-0.73,398,465,238,310,237
825,0.9,-0.41,-0.17,-0.31,-2.26,-2.14,400,475,240,309,247
826,0.89,-0.41,-0.17,2.08,-2.99,-3.54,394,475,240,310,235
827,0.89,-0.42,-0.18,-2.38,-3.11,-2.93,395,476,239,310,235
828,0.88,-0.42,-0.16,-1.04,-3.17,0.43,397,473,240,311,237
829,0.91,-0.4,-0.15,2.26,-2.26,-5.19,400,470,237,308,236
830,0.9,-0.39,-0.16,1.77,-0.85,-2.08,397,470,235,312,235
831,0.89,-0.4,-0.14,1.65,-2.38,-0.85,397,473,241,309,237
832,0.91,-0.4,-0.13,-0.37,-2.26,-0.61,399,471,237,308,238
833,0.91,-0.4,-0.14,-0.31,-3.36,-2.99,400,468,241,312,235
834,0.88,-0.41,-0.15,-1.28,-2.5,-2.75,394,471,238,308,242
835,0.9,-0.41,-0.16,-0.18,-4.58,-0.37,400,466,237,307,235
836,0.92,-0.4,-0.15,0.79,-2.69,-1.77,396,472,237,309,237
837,0.91,-0.41,-0.16,0.55,-3.3,-1.77,397,474,238,311,232
838,0.9,-0.41,-0.16,-0.67,-3.97,-2.93,399,468,241,309,228
839,0.91,-0.4,-0.16,0.79,-4.82,-3.54,399,475,238,312,235
840,0.9,-0.4,-0.16,1.46,-1.83,-3.78,397,470,241,306,236
841,0.9,-0.4,-0.14,0.12,-1.71,-1.65,398,471,240,311,233
842,0.91,-0.4,-0.15,0.24,-2.69,-1.59,398,472,240,309,235
843,0.92,-0.39,-0.13,0.43,-2.2,-3.54,397,469,236,312,236
844,0.9,-0.4,-0.14,-0.24,-4.27,0.24,397,470,238,311,234
845,0.92,-0.39,-0.14,-0.31,-0.43,-2.81,397,470,241,312,235
846,0.91,-0.4,-0.16,-1.16,-2.87,-4.27,398,468,242,310,235
847,0.92,-0.39,-0.15,1.77,-2.26,-6.16,397,472,240,310,236
848,0.9,-0.39,-0.15,1.04,-1.65,-2.93,398,474,240,311,238
849,0.9,-0.39,-0.12,1.89,-2.38,-1.53,401,474,241,311,235
850,0.9,-0.41,-0.13,-0.98,-2.32,0.0,398,471,242,309,252
851,0.91,-0.41,-0.15,0.43,-4.33,-1.4,394,467,245,312,234
852,0.91,-0.4,-0.13,-1.46,-4.52,-2.2,398,470,238,305,235
853,0.91,-0.4,-0.15,-0.06,-4.27,-1.65,401,468,238,309,238
854,0.91,-0.39,-0.15,1.22,-2.75,-2.69,400,474,241,310,234
855,0.91,-0.4,-0.15,2.2,-3.78,-3.54,394,474,237,314,235
856,0.92,-0.4,-0.14,2.5,-4.09,-1.95,398,472,241,313,235
857,0.89,-0.4,-0.15,-0.55,-3.91,-2.5,398,465,238,311,237
858,0.91,-0.4,-0.14,0.98,-3.72,-2.75,399,477,238,313,243
859,0.91,-0.39,-0.14,0.98,-2.38,-1.59,394,470,238,306,247
860,0.91,-0.39,-0.13,1.1,-2.2,-1.95,397,474,240,315,236
861,0.89,-0.41,-0.16,1.1,-5.86,-3.91,397,473,236,310,235
862,0.89,-0.41,-0.15,1.04,-2.99,-4.46,398,471,237,313,242
863,0.89,-0.41,-0.14,0.43,-3.42,-0.49,398,471,237,309,235
864,0.92,-0.39,-0.12,2.62,-2.99,0.18,399,471,235,309,234
865,0.93,-0.38,-0.11,3.6,-2.81,-1.65,399,470,238,309,232
866,0.91,-0.38,-0.1,0.55,-3.42,-0.61,395,470,238,308,236
867,0.91,-0.39,-0.13,-4.88,-3.78,1.71,399,471,241,312,232
868,0.92,-0.39,-0.13,-0.55,-3.42,-2.2,399,475,238,308,236
869,0.91,-0.39,-0.12,1.83,-1.4,-2.75,398,466,241,310,235
870,0.91,-0.4,-0.13,2.75,-3.05,-2.32,395,474,238,309,236
871,0.92,-0.39,-0.12,0.79,-2.2,-2.14,396,465,239,310,233
872,0.92,-0.4,-0.13,1.16,-2.5,-3.54,396,465,241,312,232
873,0.9,-0.39,-0.11,0.31,-2.87,-2.32,394,469,238,310,238
874,0.9,-0.4,-0.14,-0.49,-2.44,-2.26,400,464,241,311,237
875,0.91,-0.41,-0.14,-0.12,-3.36,-3.48,400,469,238,311,235
876,0.91,-0.4,-0.15,0.12,-3.11,-3.66,396,465,239,308,236
877,0.91,-0.39,-0.15,-2.32,-4.15,-1.71,400,470,239,311,233
878,0.92,-0.38,-0.13,1.4,-2.93,-2.26,399,470,237,310,236
879,0.93,-0.39,-0.17,-0.49,-4.33,-1.46,398,475,239,310,236
880,0.89,-0.4,-0.16,-1.04,-4.88,-1.34,399,471,241,310,236
881,0.91,-0.39,-0.17,-1.22,-2.75,-4.15,396,470,240,312,235
882,0.92,-0.39,-0.18,1.83,-2.01,-3.54,400,469,237,310,238
883,0.91,-0.38,-0.15,0.43,-2.14,-2.14,398,464,238,307,236
884,0.92,-0.38,-0.15,1.77,-2.99,-2.32,397,473,238,310,232
885,0.9,-0.39,-0.16,6.9,-2.5,-5.49,397,472,238,310,239
886,0.9,-0.38,-0.15,-2.2,-4.03,-0.37,398,464,238,311,238
887,0.92,-0.38,-0.15,-1.22,-4.03,-2.38,398,472,244,307,238
888,0.9,-0.38,-0.14,-0.06,-3.91,-1.4,398,470,241,312,236
889,0.9,-0.37,-0.12,-3.85,-2.08,-3.91,397,471,242,311,237
890,0.91,-0.36,-0.12,3.3,-3.36,-8.79,401,470,240,309,239
891,0.89,-0.39,-0.16,5.19,-1.04,10.56,397,468,238,314,236
892,0.91,-0.41,-0.2,0.37,-2.44,-2.44,397,464,239,307,235
893,0.93,-0.39,-0.16,2.01,-2.56,-0.55,395,475,240,313,238
894,0.92,-0.39,-0.15,-0.06,-3.23,-2.75,398,469,241,307,235
895,0.92,-0.4,-0.17,0.24,-2.93,-1.95,398,475,239,310,235
896,0.9,-0.39,-0.16,-2.01,-4.09,-2.44,397,471,239,311,235
897,0.9,-0.39,-0.15,-0.12,-3.17,-1.65,394,472,237,308,233
898,0.93,-0.39,-0.18,-1.28,-3.11,-1.89,400,471,240,310,235
899,0.91,-0.39,-0.16,-0.31,-3.11,-1.22,399,468,239,311,237
900,0.9,-0.4,-0.16,1.89,-3.23,-2.08,400,474,236,310,238
901,0.89,-0.4,-0.15,-1.4,-3.3,0.12,400,469,236,309,235
902,0.9,-0.4,-0.16,-0.18,-3.3,-2.14,394,473,241,311,235
903,0.9,-0.4,-0.15,-0.61,-3.85,-2.01,398,464,239,311,238
904,0.91,-0.4,-0.17,-1.1,-2.87,-2.5,401,481,238,312,236
905,0.89,-0.4,-0.17,0.12,-3.23,-2.38,399,470,239,313,235
906,0.9,-0.4,-0.16,0.85,-2.62,-2.44,398,468,241,313,237
907,0.89,-0.41,-0.16,-1.04,-2.32,-2.14,398,468,241,312,238
908,0.89,-0.42,-0.17,-0.24,-2.62,-1.95,398,469,241,311,235
909,0.89,-0.41,-0.15,1.59,-2.75,-2.93,398,471,238,313,235
910,0.89,-0.41,-0.16,0.12,-3.17,-1.83,395,471,237,311,235
911,0.9,-0.4,-0.15,0.0,-2.69,-2.56,397,465,239,309,235
912,0.9,-0.41,-0.16,0.37,-2.93,-2.38,399,474,237,310,234
913,0.9,-0.4,-0.16,0.92,-3.54,-2.75,398,470,237,313,233
914,0.9,-0.41,-0.17,1.95,-3.72,-3.05,394,470,243,314,234
915,0.89,-0.41,-0.17,0.0,-2.26,-1.65,396,466,241,310,245
916,0.9,-0.41,-0.16,0.98,-4.09,-0.67,394,469,239,309,235
917,0.89,-0.41,-0.16,0.06,-1.89,-0.24,402,472,240,306,235
918,0.91,-0.41,-0.15,2.08,-2.87,-2.69,399,471,239,310,236
919,0.9,-0.41,-0.14,1.04,-3.6,-2.32,400,477,242,308,236
920,0.9,-0.41,-0.16,0.0,-4.09,-2.01,398,470,237,313,236
921,0.91,-0.41,-0.17,0.43,-5.13,-2.81,397,473,241,314,238
922,0.91,-0.4,-0.15,1.46,-3.6,-2.62,398,466,239,311,237
923,0.91,-0.4,-0.14,1.95,-1.1,-3.3,397,473,241,310,235
924,0.92,-0.4,-0.15,1.28,-2.56,-2.75,397,470,233,312,237
925,0.92,-0.39,-0.13,-2.32,-4.27,-0.55,393,473,241,309,238
926,0.9,-0.4,-0.15,-0.12,-3.36,-2.5,397,464,239,309,236
927,0.91,-0.4,-0.14,0.92,-5.31,-1.46,400,472,241,311,235
928,0.92,-0.4,-0.15,0.31,-4.82,-1.89,397,473,242,312,237
929,0.91,-0.4,-0.15,0.37,-1.28,-4.09,395,464,239,311,265
930,0.9,-0.4,-0.14,-0.55,-0.79,-1.04,396,472,241,312,238
931,0.91,-0.4,-0.14,-0.49,-2.62,-2.01,393,468,241,311,237
932,0.92,-0.4,-0.13,-1.95,-4.21,-1.59,396,470,241,309,239
933,0.93,-0.4,-0.14,-0.12,-3.85,-3.85,400,481,239,314,244
934,0.92,-0.4,-0.14,-0.79,-3.66,-3.72,396,470,241,310,239
935,0.9,-0.41,-0.15,1.77,-4.33,-2.56,398,473,250,310,238
936,0.91,-0.4,-0.15,1.22,-4.15,-1.89,398,469,239,313,236
937,0.9,-0.41,-0.14,-0.61,-2.81,-1.65,399,470,241,312,233
938,0.9,-0.4,-0.14,-0.31,-4.21,-1.59,399,465,242,312,236
939,0.91,-0.41,-0.14,0.67,-3.48,-2.14,393,465,243,311,236
940,0.91,-0.4,-0.14,0.61,-2.5,-2.44,398,464,240,311,238
941,0.88,-0.44,-0.15,8.85,-5.98,-1.89,398,468,240,314,236
942,0.86,-0.44,-0.21,-3.66,-11.78,0.61,395,475,240,314,239
943,0.91,-0.42,-0.17,-4.03,1.46,-3.48,398,465,250,316,240
944,0.89,-0.39,-0.16,2.62,-3.23,-8.18,396,473,239,314,266
945,0.9,-0.38,-0.17,-0.79,-0.79,0.18,394,471,240,310,235
946,0.9,-0.39,-0.17,-0.31,-1.65,-2.26,398,465,239,309,235
947,0.91,-0.4,-0.18,-0.24,-1.77,-3.42,398,469,237,311,239
948,0.89,-0.41,-0.17,0.12,-2.01,-1.59,397,474,242,313,235
949,0.9,-0.41,-0.18,0.73,-2.2,-2.38,399,461,242,313,236
950,0.9,-0.42,-0.18,0.37,-2.56,-3.54,397,470,240,312,236
951,0.89,-0.41,-0.17,0.92,-2.5,-2.69,394,471,245,313,239
952,0.9,-0.41,-0.17,-0.73,-4.03,-1.59,401,471,243,313,239
953,0.9,-0.41,-0.18,-0.43,-3.11,-1.53,398,470,239,311,238
954,0.9,-0.41,-0.18,0.31,-3.11,-1.95,396,474,240,313,236
955,0.89,-0.41,-0.18,0.06,-2.44,-1.16,400,471,240,312,236
956,0.96,-0.39,-0.16,5.25,0.37,2.87,398,470,239,313,237
957,0.92,-0.39,-0.14,0.18,-2.99,-5.43,399,475,240,312,236
958,0.9,-0.42,-0.15,0.49,-1.28,-3.66,398,470,242,314,236
959,0.89,-0.42,-0.15,0.24,-2.81,-2.62,399,467,240,313,234
960,0.91,-0.41,-0.17,1.16,-3.97,-2.62,401,470,242,312,245
961,0.91,-0.4,-0.14,0.61,-2.5,-1.89,401,474,243,315,237
962,0.9,-0.4,-0.14,0.92,-1.4,-2.99,397,471,238,315,240
963,0.9,-0.41,-0.15,-0.37,-1.16,-2.81,397,470,238,312,238
964,0.9,-0.41,-0.14,-0.06,-1.83,-2.08,398,468,242,313,239
965,0.9,-0.41,-0.15,1.1,-2.5,-2.99,399,471,240,313,236
966,0.91,-0.41,-0.14,1.46,-2.87,-3.23,398,470,240,316,239
967,0.9,-0.41,-0.13,0.73,-3.72,-2.5,394,472,239,313,235
968,0.91,-0.4,-0.13,0.79,-3.48,-2.56,397,471,244,311,240
969,0.9,-0.41,-0.14,0.18,-3.11,-2.69,396,465,239,315,237
970,0.91,-0.41,-0.14,0.92,-3.11,-1.83,396,474,242,313,238
971,0.91,-0.41,-0.15,0.31,-3.72,-1.89,396,469,242,312,235
972,0.91,-0.41,-0.13,0.37,-2.69,-2.69,398,470,237,318,237
973,0.89,-0.41,-0.12,-1.46,-2.69,-2.38,398,469,240,314,237
974,0.9,-0.41,-0.14,3.6,-4.39,-1.83,397,465,242,315,236
975,0.9,-0.41,-0.13,0.55,-2.01,-3.23,399,474,240,314,237
976,0.9,-0.41,-0.13,0.61,-3.36,-1.1,398,470,242,316,240
977,0.9,-0.41,-0.12,-0.31,-2.01,-2.69,396,467,238,314,239
978,0.89,-0.42,-0.14,0.49,-3.85,-1.16,399,470,240,312,237
979,0.91,-0.41,-0.12,0.85,-3.3,-2.38,397,471,238,315,266
980,0.9,-0.42,-0.12,-0.24,-2.26,-2.81,394,474,240,311,240
981,0.9,-0.42,-0.12,-0.98,-6.35,-0.49,397,465,243,310,239
982,0.91,-0.41,-0.13,1.04,-4.58,-2.62,400,470,242,314,237
983,0.91,-0.4,-0.12,-1.77,-0.06,-4.76,396,474,238,314,238
984,0.91,-0.4,-0.12,0.85,-3.66,-1.46,397,465,240,312,237
985,0.92,-0.4,-0.12,0.43,-1.89,-4.03,397,473,240,316,236
986,0.91,-0.41,-0.13,1.77,-1.95,-4.33,399,467,242,314,240
987,0.91,-0.41,-0.12,0.85,-2.75,-3.05,394,468,243,313,240
988,0.9,-0.41,-0.11,-0.55,-2.75,-1.59,398,474,242,313,239
989,0.89,-0.41,-0.12,-0.49,-3.48,-2.75,400,466,243,315,237
990,0.91,-0.4,-0.13,-1.34,-3.3,-2.99,400,472,240,315,238
991,0.91,-0.4,-0.13,-0.12,-1.89,-3.3,399,473,240,312,235
992,0.9,-0.4,-0.12,0.79,-3.42,-2.87,397,473,240,313,237
993,0.9,-0.4,-0.12,-1.1,-2.87,-2.62,399,465,238,314,234
994,0.91,-0.4,-0.11,0.67,-2.93,-1.71,398,473,238,316,235
995,0.9,-0.4,-0.12,2.5,-3.42,-1.04,395,474,242,317,235
996,0.9,-0.41,-0.12,1.77,-2.5,-2.87,395,466,243,316,237
997,0.9,-0.41,-0.14,0.37,-3.6,-2.5,397,466,238,313,237
998,0.91,-0.4,-0.14,0.61,-3.66,-2.38,398,465,239,313,239
999,0.9,-0.4,-0.14,1.77,-2.38,-2.56,399,471,238,314,233
1000,0.91,-0.4,-0.12,0.92,-2.26,-2.75,397,472,240,314,241
1001,0.91,-0.4,-0.13,0.55,-3.66,-2.5,398,471,239,312,240
1002,0.91,-0.38,-0.17,-1.4,-2.32,-2.56,392,465,234,308,227
1003,0.94,-0.37,-0.17,-0.18,1.34,0.24,395,463,239,309,232
1004,0.94,-0.36,-0.16,-2.38,-1.65,-7.26,393,468,237,307,230
1005,0.92,-0.36,-0.17,-0.31,-3.78,-3.66,395,465,237,307,233
1006,0.93,-0.35,-0.15,2.32,-9.03,-4.15,394,466,240,309,230
1007,0.96,-0.34,-0.18,1.95,-2.81,-1.28,395,465,240,307,231
1008,0.93,-0.34,-0.17,2.14,-3.36,-2.26,397,466,238,309,230
1009,0.92,-0.36,-0.18,-0.79,-2.99,-0.73,400,463,240,309,230
1010,0.91,-0.36,-0.18,3.05,-5.8,-0.79,398,466,235,304,233
1011,0.91,-0.37,-0.18,-0.43,0.0,-2.99,393,471,239,305,229
1012,0.92,-0.36,-0.17,-1.83,-2.08,-2.32,396,463,240,307,232
1013,0.91,-0.37,-0.17,1.71,-2.69,-4.64,396,477,241,306,232
1014,0.92,-0.36,-0.17,0.55,-0.85,-1.1,398,466,235,307,231
1015,0.92,-0.37,-0.18,2.14,-1.34,-7.2,397,467,238,308,234
1016,0.95,-0.34,-0.18,2.08,-2.38,-4.09,403,463,236,310,234
1017,0.94,-0.35,-0.15,2.75,-5.43,-1.95,400,474,240,308,233
1018,0.92,-0.35,-0.15,0.18,-3.11,-2.2,395,465,238,320,230
1019,0.93,-0.36,-0.16,-1.34,4.27,-5.31,399,471,240,308,235
1020,0.92,-0.36,-0.15,1.28,-2.2,-3.85,398,466,238,308,236
1021,0.93,-0.36,-0.16,1.53,-4.82,-3.54,401,470,236,309,234
1022,0.92,-0.36,-0.17,0.24,-3.78,-2.01,400,468,239,307,235
1023,0.95,-0.36,-0.17,0.67,2.44,0.37,400,465,250,312,230
1024,0.95,-0.36,-0.15,1.83,-3.72,-7.57,398,470,241,307,232
1025,0.91,-0.38,-0.16,0.79,-0.79,-5.31,398,466,237,308,233
1026,0.9,-0.39,-0.16,-1.28,-11.35,-2.26,397,466,247,307,234
1027,0.9,-0.39,-0.17,1.89,-1.28,1.53,399,472,240,306,231
1028,0.87,-0.4,-0.17,0.43,-3.72,-2.87,398,471,241,324,232
1029,0.9,-0.4,-0.18,-1.1,-2.08,-1.4,400,466,237,310,234
1030,0.9,-0.39,-0.17,0.61,-2.93,-2.38,400,467,244,307,234
1031,0.91,-0.38,-0.16,5.86,-2.32,-1.71,398,463,236,307,230
1032,0.9,-0.39,-0.16,0.18,-2.62,-4.33,399,464,237,306,233
1033,0.89,-0.39,-0.16,2.38,-0.12,-1.71,396,468,239,310,232
1034,0.88,-0.39,-0.15,-0.85,-1.4,-2.62,399,472,237,309,235
1035,0.92,-0.38,-0.18,3.11,0.85,-3.66,398,463,236,308,234
1036,0.9,-0.38,-0.16,1.4,-1.83,-3.66,402,469,238,311,233
1037,0.91,-0.39,-0.15,-0.37,-2.08,-2.44,395,469,240,308,234
1038,0.9,-0.38,-0.14,-0.85,-0.92,-3.54,394,463,235,318,233
1039,0.9,-0.38,-0.12,-1.4,2.14,-7.26,399,473,240,318,234
1040,0.92,-0.38,-0.14,-1.28,-3.91,-2.81,401,474,237,313,241
1041,0.91,-0.38,-0.16,1.71,-4.39,-5.37,398,464,240,311,233
1042,0.89,-0.38,-0.15,-1.34,-5.07,-5.07,399,469,238,309,233
1043,0.92,-0.37,-0.14,4.46,-5.25,4.82,401,469,240,309,233
1044,0.9,-0.37,-0.12,1.95,0.37,-4.7,400,464,241,305,232
1045,0.92,-0.37,-0.13,-4.09,-0.18,-1.04,397,461,244,310,231
1046,0.92,-0.38,-0.13,0.61,-3.72,-1.95,398,473,237,312,234
1047,0.94,-0.37,-0.15,3.54,-6.23,-2.62,400,464,242,310,231
1048,0.92,-0.37,-0.13,1.71,-2.14,-1.71,399,469,242,302,235
1049,0.93,-0.36,-0.14,0.49,-3.6,-1.71,402,473,238,312,236
1050,0.92,-0.37,-0.15,0.0,-4.52,-2.62,402,468,241,310,236
1051,0.91,-0.37,-0.13,1.65,-3.91,-2.75,397,468,241,310,232
1052,0.92,-0.36,-0.14,3.72,-4.39,-2.99,401,467,240,309,236
1053,0.92,-0.36,-0.14,0.24,-1.83,-3.3,399,468,242,311,235
1054,0.92,-0.36,-0.13,-0.43,-1.89,-3.54,400,468,241,309,235
1055,0.91,-0.36,-0.13,0.49,-2.44,-2.5,400,472,240,313,235
1056,0.92,-0.37,-0.15,2.44,-3.85,-3.17,399,473,238,311,235
1057,0.92,-0.36,-0.14,1.04,-3.17,-2.93,400,471,240,309,235
1058,0.93,-0.36,-0.14,-0.79,-2.32,-2.14,398,472,238,311,233
1059,0.93,-0.35,-0.14,-0.85,-3.11,-2.08,402,470,240,309,248
1060,0.93,-0.36,-0.15,0.18,-2.99,-2.56,399,469,238,310,250
1061,0.93,-0.36,-0.13,0.55,-0.61,-3.36,396,469,239,309,237
1062,0.93,-0.36,-0.14,-0.61,-1.1,-2.38,397,470,237,320,236
1063,0.92,-0.36,-0.14,-0.67,-2.32,-1.4,400,469,238,312,240
1064,0.92,-0.36,-0.14,0.98,-2.69,-2.75,396,466,238,308,237
1065,0.93,-0.36,-0.14,0.0,-2.2,-2.5,396,470,239,308,234
1066,0.93,-0.36,-0.13,0.18,-2.69,-1.71,400,467,240,308,235
1067,0.93,-0.36,-0.14,0.92,-2.87,-2.2,403,469,241,312,235
1068,0.92,-0.37,-0.16,0.43,-3.48,-3.3,400,467,240,312,235
1069,0.92,-0.36,-0.14,-0.24,-3.42,-2.38,398,465,240,313,232
1070,0.93,-0.36,-0.14,0.67,-2.93,-2.69,401,468,241,312,235
1071,0.92,-0.37,-0.14,-1.04,-3.66,-3.36,403,469,243,311,235
1072,0.91,-0.36,-0.14,0.55,-3.91,-1.59,398,472,241,309,237
1073,0.92,-0.36,-0.14,0.24,-3.6,-2.75,400,472,238,313,235
1074,0.92,-0.36,-0.15,0.43,-3.72,-3.17,400,467,239,309,237
1075,0.92,-0.36,-0.14,2.08,-3.42,-3.3,399,467,240,309,232
1076,0.92,-0.34,-0.13,1.16,-0.37,-5.74,402,465,244,314,234
1077,0.93,-0.35,-0.15,0.18,-3.48,-4.52,401,474,244,310,234
1078,0.92,-0.35,-0.16,2.14,-3.17,-3.97,398,472,238,311,276
1079,0.93,-0.34,-0.14,0.12,-2.2,-1.83,401,470,240,314,236
1080,0.93,-0.36,-0.15,1.83,-2.99,-3.05,398,470,241,310,235
1081,0.93,-0.35,-0.15,2.93,-2.93,-3.17,398,469,242,309,235
1082,0.93,-0.35,-0.14,1.95,-2.93,-2.69,401,473,242,314,238
1083,0.95,-0.35,-0.14,0.24,-4.52,-1.28,404,469,243,311,237
1084,0.94,-0.35,-0.13,2.26,-4.03,-2.5,400,467,246,312,237
1085,0.93,-0.35,-0.12,0.49,-2.81,-3.3,398,466,242,311,237
1086,0.92,-0.35,-0.11,3.42,-3.66,-1.46,401,477,244,313,255
1087,0.93,-0.35,-0.11,-1.4,-2.87,-2.93,400,469,244,314,239
1088,0.93,-0.35,-0.11,-0.18,-2.62,-3.42,401,469,243,313,236
1089,0.93,-0.36,-0.1,0.85,-3.3,-3.42,401,472,239,312,237
1090,0.92,-0.36,-0.12,1.28,-2.62,-1.4,402,463,243,311,236
1091,0.93,-0.35,-0.12,2.38,-2.81,-2.14,401,471,246,309,232
1092,0.92,-0.36,-0.13,1.22,-3.11,-3.85,403,485,241,311,238
1093,0.91,-0.36,-0.12,-0.67,-3.6,-2.14,403,469,248,314,233
1094,0.94,-0.37,-0.13,-0.24,-3.36,-2.14,400,473,243,313,239
1095,0.91,-0.35,-0.11,1.46,-2.2,0.67,397,472,246,315,237
1096,0.94,-0.36,-0.15,-2.26,-2.08,-3.48,401,467,240,311,237
1097,0.92,-0.37,-0.16,0.49,-6.9,-2.14,399,470,241,311,238
1098,0.89,-0.38,-0.15,1.1,-0.37,-1.1,403,470,242,312,238
1099,0.92,-0.38,-0.15,0.67,-2.32,-3.6,400,470,243,312,231
1100,0.91,-0.37,-0.16,-0.92,-2.5,-3.48,401,469,245,311,236
1101,0.92,-0.37,-0.14,2.69,-2.38,-2.56,399,467,245,314,235
1102,0.93,-0.37,-0.16,1.65,-3.66,-3.23,402,469,244,314,238
1103,0.92,-0.37,-0.15,-0.24,-3.11,-3.23,399,464,242,315,238
1104,0.91,-0.37,-0.15,-1.16,-3.17,-2.5,404,468,243,311,235
1105,0.89,-0.39,-0.18,0.79,-2.44,-4.39,399,473,241,314,236
1106,0.9,-0.38,-0.18,-1.1,-0.61,-4.58,399,472,244,312,240
1107,0.94,-0.36,-0.18,-0.24,-3.97,-1.59,398,469,243,314,236
1108,0.93,-0.36,-0.17,0.24,-3.66,-2.5,401,466,242,314,236
1109,0.92,-0.36,-0.14,0.06,-2.5,-3.05,398,470,244,313,234
1110,0.93,-0.35,-0.16,1.4,-2.87,1.34,404,471,245,314,244
1111,0.91,-0.37,-0.15,0.18,-3.05,-2.01,398,470,242,309,236
1112,0.92,-0.36,-0.15,0.73,-4.15,-0.43,406,468,244,309,239
1113,0.93,-0.35,-0.14,-0.61,-2.01,-2.01,400,471,244,310,236
1114,0.93,-0.34,-0.13,-0.24,-3.54,-0.49,399,473,241,315,239
1115,0.95,-0.35,-0.15,-0.24,-3.05,-4.03,399,471,243,309,234
1116,0.94,-0.34,-0.13,2.93,-4.94,-3.17,398,474,244,314,237
1117,0.91,-0.34,-0.14,-2.5,8.67,-15.01,400,469,241,309,239
1118,0.93,-0.34,-0.12,-0.31,1.65,-6.53,400,473,243,311,239
1119,0.95,-0.32,-0.12,0.49,-0.73,-4.03,400,468,242,312,239
1120,0.94,-0.33,-0.13,-0.73,-2.62,-2.81,397,470,243,312,234
1121,0.94,-0.33,-0.12,1.04,-3.91,-3.54,400,470,244,313,237
1122,0.93,-0.33,-0.12,-0.98,-3.48,-1.16,404,474,244,314,236
1123,0.93,-0.34,-0.13,0.92,-2.75,-2.2,401,469,243,314,238
1124,0.94,-0.33,-0.14,0.31,-5.49,-2.62,401,466,242,314,235
1125,0.93,-0.34,-0.14,-0.37,-2.2,-1.95,400,471,244,312,239
1126,0.94,-0.34,-0.13,-1.34,-3.48,-2.93,400,472,241,311,236
1127,0.93,-0.34,-0.14,3.48,-2.14,-3.36,400,471,243,312,238
1128,0.92,-0.35,-0.15,2.01,-2.44,-2.2,400,469,240,314,238
1129,0.94,-0.37,-0.18,2.14,-5.37,-3.97,400,469,240,313,236
1130,0.92,-0.36,-0.15,0.18,-1.95,-1.95,396,469,241,311,238
1131,0.93,-0.36,-0.15,-1.53,-1.77,-4.7,400,465,244,308,235
1132,0.94,-0.35,-0.17,2.01,-2.32,-4.03,400,472,244,314,234
1133,0.93,-0.36,-0.15,0.61,-3.17,-2.08,405,469,241,313,237
1134,0.94,-0.35,-0.14,0.73,-3.85,-1.16,400,473,245,315,239
1135,0.92,-0.36,-0.14,-2.87,-3.05,-0.55,405,469,239,311,237
1136,0.93,-0.35,-0.14,1.83,-3.36,-2.62,398,469,241,308,235
1137,0.92,-0.35,-0.14,2.2,-2.38,-2.81,401,468,243,312,237
1138,0.91,-0.35,-0.13,0.92,-3.85,-2.08,400,464,245,312,236
1139,0.91,-0.36,-0.15,-0.73,-6.53,-1.71,402,469,239,312,238
1140,0.93,-0.35,-0.15,1.16,-2.87,-2.81,401,469,244,312,238
1141,0.93,-0.36,-0.15,1.95,-2.56,-2.2,403,469,244,315,239
1142,0.93,-0.36,-0.14,1.34,-3.97,-1.53,395,471,240,313,233
1143,0.92,-0.35,-0.14,0.37,-3.11,-1.89,397,470,241,312,238
1144,0.93,-0.35,-0.14,1.83,-2.56,-2.26,401,474,242,318,236
1145,0.92,-0.36,-0.14,0.37,-2.81,-2.5,395,466,245,314,254
1146,0.92,-0.36,-0.14,-0.79,-1.65,-2.32,401,471,246,312,238
1147,0.92,-0.36,-0.14,0.12,-2.5,-2.32,398,473,243,312,238
1148,0.92,-0.36,-0.15,-0.37,-3.48,-1.65,399,472,242,310,238
1149,0.92,-0.35,-0.13,-1.1,-2.44,-2.81,400,470,245,313,238
1150,0.91,-0.36,-0.15,0.31,-2.26,-3.6,402,466,243,314,237
1151,0.92,-0.36,-0.13,-0.37,-2.14,-2.32,395,470,248,315,236
1152,0.93,-0.36,-0.14,0.18,-2.38,-2.32,398,470,242,315,236
1153,0.93,-0.35,-0.13,-0.06,-1.46,-3.54,400,469,242,312,236
1154,0.93,-0.36,-0.15,0.85,-2.99,-3.05,399,470,243,312,248
1155,0.93,-0.36,-0.15,0.98,-2.87,-2.26,401,470,242,312,235
1156,0.94,-0.36,-0.15,0.92,-2.62,-1.71,398,470,245,312,239
1157,0.93,-0.36,-0.14,0.67,-2.2,-2.14,400,469,247,312,259
1158,0.92,-0.36,-0.14,0.61,-3.42,-1.71,411,467,243,312,235
1159,0.92,-0.36,-0.15,0.37,-2.08,-2.99,401,470,241,312,239
1160,0.92,-0.36,-0.14,-0.37,-1.89,-3.91,401,467,243,315,236
1161,0.92,-0.36,-0.14,0.61,-2.69,-3.36,400,469,245,311,236
1162,0.93,-0.36,-0.16,0.37,-2.75,-1.83,398,471,247,312,239
1163,0.92,-0.36,-0.15,0.67,-3.42,-2.5,402,466,248,314,237
1164,0.93,-0.35,-0.13,-0.18,-2.38,-2.87,398,470,245,313,238
1165,0.93,-0.36,-0.14,-0.61,-0.24,-1.95,402,468,243,313,239
1166,0.92,-0.36,-0.13,0.24,-0.92,-3.05,399,474,242,315,236
1167,0.92,-0.36,-0.13,-0.55,-1.59,-2.69,400,469,246,313,239
1168,0.91,-0.37,-0.14,1.28,-3.36,-1.16,399,465,244,312,238
1169,0.92,-0.37,-0.15,-0.43,-3.23,-3.23,399,466,243,313,238
1170,0.91,-0.37,-0.15,1.04,-3.11,-1.53,399,473,244,315,236
1171,0.91,-0.36,-0.14,-0.12,-3.23,-2.69,400,466,243,312,234
1172,0.92,-0.36,-0.13,1.04,-2.38,-2.69,398,470,243,312,237
1173,0.92,-0.36,-0.14,0.98,-1.65,-2.32,399,470,244,313,237
1174,0.92,-0.37,-0.13,-2.14,-3.78,-1.28,397,470,245,313,238
1175,0.94,-0.36,-0.14,0.06,-1.04,-4.21,401,464,243,312,237
1176,0.94,-0.36,-0.13,3.11,-4.82,-4.76,401,468,246,310,236
1177,0.93,-0.35,-0.12,2.32,-4.39,-1.83,398,471,244,314,232
1178,0.92,-0.37,-0.15,0.49,-4.03,-4.88,396,469,245,310,239
1179,0.92,-0.36,-0.14,-0.12,-4.33,-5.07,397,470,243,313,236
1180,0.88,-0.38,-0.14,-2.5,-2.26,-0.98,402,465,242,313,237
1181,0.92,-0.38,-0.17,-0.79,-5.74,-0.73,396,469,246,312,237
1182,0.92,-0.37,-0.15,-0.55,-2.56,-2.08,402,473,242,314,235
1183,0.92,-0.37,-0.15,0.12,-2.87,-2.5,400,473,242,316,275
1184,0.95,-0.35,-0.13,1.16,-3.85,-3.6,403,469,247,313,235
1185,0.93,-0.36,-0.16,4.03,-2.87,-0.73,395,466,246,326,238
1186,0.92,-0.35,-0.13,-0.67,-1.77,-3.78,400,471,242,313,239
1187,0.94,-0.36,-0.17,2.62,-1.65,-6.23,399,467,243,311,237
1188,0.94,-0.37,-0.12,3.97,-1.22,-0.12,400,467,249,313,259
1189,0.92,-0.39,-0.14,-0.06,-2.69,-3.17,396,466,247,316,232
1190,0.92,-0.38,-0.12,-2.14,-4.03,-2.26,399,469,244,315,233
1191,0.93,-0.37,-0.13,1.77,-2.87,-3.3,395,471,243,316,231
1192,0.91,-0.38,-0.13,-0.61,-1.46,-2.32,399,472,241,313,232
1193,0.91,-0.38,-0.12,0.49,-0.67,-3.36,397,470,240,315,235
1194,0.91,-0.38,-0.13,0.37,-2.69,-3.66,399,469,243,313,230
1195,0.91,-0.37,-0.12,-1.89,-2.99,-1.95,400,474,242,314,230
1196,0.93,-0.37,-0.14,0.55,-2.93,-2.01,401,470,257,315,233
1197,0.92,-0.37,-0.13,-1.95,-4.46,-2.08,393,472,244,313,232
1198,0.93,-0.36,-0.12,0.43,-2.2,-3.72,396,469,244,312,237
1199,0.93,-0.36,-0.11,1.83,-2.2,-3.42,398,470,238,315,240
1200,0.93,-0.37,-0.12,1.77,-1.77,-3.05,398,473,246,313,234
1201,0.92,-0.37,-0.13,-0.67,-1.34,-2.01,402,469,244,315,237
1202,0.91,-0.37,-0.14,1.16,-3.11,-4.46,399,472,246,312,237
1203,0.92,-0.36,-0.13,-0.24,-2.26,-2.93,396,470,245,314,234
1204,0.92,-0.37,-0.14,1.1,-3.3,-3.36,397,471,242,312,235
1205,0.92,-0.37,-0.14,0.61,-3.11,-1.71,393,470,243,316,234
1206,0.92,-0.37,-0.13,1.89,-0.31,-3.36,398,465,243,313,237
1207,0.92,-0.36,-0.11,1.71,-2.44,-3.78,399,474,245,308,234
1208,0.93,-0.37,-0.13,6.23,-4.03,-0.37,397,468,242,314,233
1209,0.92,-0.38,-0.12,-0.92,-3.6,-2.08,394,474,246,315,235
1210,0.91,-0.38,-0.12,-0.06,-2.99,-1.77,399,470,244,314,232
1211,0.9,-0.38,-0.12,-0.43,-2.5,-3.36,394,469,242,326,237
1212,0.92,-0.38,-0.12,0.73,-3.05,-4.21,394,472,244,314,235
1213,0.93,-0.38,-0.13,1.53,-4.82,-2.44,398,474,246,313,236
1214,0.92,-0.37,-0.13,-0.61,-2.2,-1.4,400,469,240,315,237
1215,0.91,-0.38,-0.12,0.18,-2.26,-2.69,401,469,246,317,237
1216,0.92,-0.37,-0.12,0.37,-2.38,-3.3,398,464,241,313,233
1217,0.92,-0.35,-0.11,3.78,-4.15,-1.4,397,471,243,318,237
1218,0.92,-0.37,-0.12,1.1,-3.6,-1.95,398,476,244,316,231
1219,0.92,-0.36,-0.09,1.16,-2.69,-1.46,394,467,241,317,237
1220,0.92,-0.37,-0.11,-0.73,-3.48,-1.83,399,464,242,315,236
1221,0.92,-0.37,-0.12,0.0,-3.48,-2.5,401,470,241,315,238
1222,0.92,-0.37,-0.13,-0.55,-2.81,-2.14,400,470,244,318,237
1223,0.91,-0.37,-0.12,-0.06,-1.28,-3.05,398,475,243,310,238
1224,0.93,-0.37,-0.12,-0.24,-2.01,-1.71,400,469,243,316,236
1225,0.91,-0.37,-0.12,0.0,-2.26,-2.14,400,473,246,318,238
1226,0.92,-0.37,-0.12,-1.28,-1.89,-2.44,397,467,246,318,233
1227,0.93,-0.36,-0.12,-0.31,-1.83,-3.23,401,474,246,317,238
1228,0.92,-0.37,-0.13,0.24,-2.01,-3.48,399,472,242,314,233
1229,0.93,-0.37,-0.14,0.18,-0.73,-3.66,398,468,246,312,236
1230,0.93,-0.36,-0.13,1.4,-2.62,-2.93,401,475,246,316,235
1231,0.93,-0.36,-0.12,0.0,-1.83,-2.75,400,470,241,314,235
1232,0.94,-0.37,-0.14,-0.67,-3.23,-1.28,399,470,246,314,236
1233,0.93,-0.37,-0.13,1.53,-4.52,-0.37,395,474,244,311,235
1234,0.93,-0.37,-0.11,0.73,-3.54,-2.75,402,468,240,314,233
1235,0.92,-0.36,-0.11,-0.43,-3.05,-1.28,398,480,242,315,234
1236,0.92,-0.36,-0.12,1.1,-2.62,-1.04,399,473,246,315,238
1237,0.92,-0.37,-0.11,-1.46,-0.43,-2.5,402,466,246,315,237
1238,0.92,-0.37,-0.11,-0.85,-4.39,-1.89,398,474,244,312,238
1239,0.92,-0.37,-0.12,-0.55,-3.54,-2.69,398,471,246,314,234
1240,0.92,-0.37,-0.13,-0.24,-2.75,-3.17,402,474,245,312,233
1241,0.92,-0.36,-0.1,-1.1,-2.26,-2.08,401,474,245,316,237
1242,0.92,-0.37,-0.11,0.06,-2.87,-2.81,398,474,244,313,236
1243,0.92,-0.36,-0.1,0.85,-1.77,-3.36,400,470,256,314,236
1244,0.93,-0.36,-0.1,-0.55,-2.14,-1.95,402,472,242,315,239
1245,0.93,-0.37,-0.11,-0.85,-2.93,-2.93,399,473,241,314,234
1246,0.93,-0.37,-0.12,2.56,-4.88,-2.5,402,469,243,311,238
1247,0.92,-0.37,-0.12,1.95,-4.03,-2.14,401,471,244,313,239
1248,0.92,-0.37,-0.11,0.31,-5.37,-2.26,395,473,244,315,240
1249,0.93,-0.36,-0.13,-0.73,-0.61,-0.92,389,471,245,313,235
1250,0.92,-0.37,-0.11,0.43,-0.85,-0.61,399,470,244,317,238
1251,0.94,-0.36,-0.1,0.18,-2.2,-0.55,400,466,247,314,238
1252,0.93,-0.37,-0.11,-0.12,-3.6,-2.5,400,467,248,315,236
1253,0.92,-0.37,-0.11,-0.85,-4.15,-1.71,400,472,246,318,236
1254,0.92,-0.38,-0.12,-0.61,-4.39,-1.65,401,470,243,312,234
1255,0.92,-0.37,-0.12,1.04,-2.87,-1.4,398,474,242,315,237
1256,0.9,-0.39,-0.13,-1.22,-0.92,0.18,402,472,246,312,233
1257,0.9,-0.39,-0.1,-3.85,-3.36,-3.36,400,475,242,312,236
1258,0.9,-0.39,-0.13,-1.71,-4.88,-0.73,402,471,246,315,237
1259,0.91,-0.38,-0.12,2.56,-2.81,-1.65,399,468,246,319,237
1260,0.91,-0.39,-0.11,-2.87,-0.85,-4.33,400,469,243,314,235
1261,0.9,-0.4,-0.1,1.53,-3.72,-3.17,400,470,246,316,236
1262,0.9,-0.4,-0.12,1.59,-7.08,-0.67,400,469,247,321,239
1263,0.92,-0.4,-0.14,4.27,-2.81,-3.11,401,468,247,313,240
1264,0.91,-0.41,-0.14,2.5,-2.01,-2.32,403,470,243,312,241
1265,0.91,-0.41,-0.12,0.67,-1.95,-1.1,400,467,242,316,235
1266,0.9,-0.41,-0.1,2.14,-0.92,-3.36,399,474,243,311,235
1267,0.92,-0.4,-0.11,0.49,-3.54,-3.11,397,471,238,308,237
1268,0.91,-0.4,-0.1,2.08,-3.48,-4.03,401,472,237,307,234
1269,0.91,-0.4,-0.11,1.4,-3.72,-3.66,398,470,237,308,235
1270,0.91,-0.4,-0.11,0.43,-4.03,-0.49,391,471,238,308,234
1271,0.9,-0.41,-0.11,-0.12,-2.99,-3.36,398,473,240,309,235
1272,0.9,-0.41,-0.11,0.61,-3.6,-2.5,395,470,237,308,234
1273,0.92,-0.41,-0.13,-3.42,-2.44,-3.54,400,466,238,310,235
1274,0.88,-0.43,-0.15,-2.87,-6.04,-2.01,396,470,238,303,234
1275,0.89,-0.39,-0.1,-0.24,-2.38,-1.53,397,473,236,308,238
1276,0.92,-0.39,-0.14,-1.89,-4.27,1.65,402,471,241,307,235
1277,0.86,-0.4,-0.12,8.73,-7.08,6.65,395,469,235,310,236
1278,0.92,-0.4,-0.17,-1.83,-1.89,-4.82,401,470,234,304,234
1279,0.9,-0.39,-0.15,-0.37,-4.46,-2.44,396,469,240,309,236
1280,0.89,-0.38,-0.14,-0.67,-1.53,-1.04,397,468,236,307,234
1281,0.87,-0.4,-0.17,-0.12,-4.82,0.31,403,470,238,310,232
1282,0.91,-0.39,-0.14,0.24,0.43,0.12,400,468,241,307,266
1283,0.89,-0.4,-0.16,3.97,-1.71,-3.48,401,470,252,305,236
1284,0.92,-0.4,-0.17,-1.95,-0.43,-3.66,400,469,235,308,234
1285,0.94,-0.41,-0.16,1.59,-4.52,-3.48,392,469,239,311,235
1286,0.9,-0.42,-0.16,1.28,-2.81,-4.39,400,465,236,309,234
1287,0.89,-0.4,-0.14,0.67,-2.08,-2.5,400,473,241,307,235
1288,0.92,-0.4,-0.18,0.49,-3.97,-3.78,398,467,241,310,237
1289,0.91,-0.39,-0.15,0.31,-2.32,-3.11,393,469,238,309,233
1290,0.91,-0.4,-0.17,1.65,-2.81,-3.17,398,470,241,309,234
1291,0.87,-0.42,-0.15,-3.23,-2.87,-2.81,397,471,238,304,235
1292,0.9,-0.4,-0.14,1.77,-3.05,-2.5,400,468,236,309,235
1293,0.93,-0.41,-0.21,3.72,-4.94,-1.83,398,465,238,308,236
1294,0.93,-0.37,-0.16,1.4,-1.53,-2.69,395,470,241,310,232
1295,0.9,-0.39,-0.18,0.49,-2.75,-3.66,396,474,240,310,236
1296,0.93,-0.37,-0.14,0.98,-5.0,-0.67,394,470,236,310,250
1297,0.91,-0.37,-0.14,1.53,-1.89,-2.56,398,470,237,308,233
1298,0.91,-0.39,-0.17,4.76,-6.53,-4.76,394,470,240,308,236
1299,0.88,-0.39,-0.13,3.97,-1.4,-1.77,398,471,239,311,235
1300,0.92,-0.38,-0.16,-2.75,-3.05,-3.66,395,474,239,310,238
1301,0.94,-0.39,-0.13,-5.19,-7.81,4.64,396,465,241,306,233
1302,0.9,-0.39,-0.12,-1.53,-2.69,-2.14,396,470,238,326,232
1303,0.9,-0.4,-0.16,-2.69,-3.11,-1.53,396,472,240,318,236
1304,0.91,-0.39,-0.13,-0.55,-5.07,-3.11,398,469,237,311,235
1305,0.93,-0.37,-0.14,6.59,-0.79,-5.07,400,468,236,309,234
1306,0.91,-0.37,-0.11,1.59,-2.32,-5.19,396,469,235,309,243
1307,0.87,-0.42,-0.14,-2.56,-2.26,4.7,398,478,239,309,233
1308,0.87,-0.42,-0.11,5.37,-7.51,1.65,406,470,241,311,235
1309,0.93,-0.41,-0.15,-0.98,-1.95,-2.5,398,465,237,308,235
1310,0.91,-0.41,-0.17,6.35,2.01,-7.32,401,472,238,311,234
1311,0.88,-0.41,-0.12,-1.89,2.01,-1.65,399,467,235,311,238
1312,0.9,-0.41,-0.13,-1.1,-2.62,-3.36,398,467,238,311,235
1313,0.89,-0.42,-0.15,-0.12,-3.48,-2.32,402,468,238,311,235
1314,0.91,-0.41,-0.15,4.88,-3.3,-5.98,399,470,248,306,232
1315,0.92,-0.39,-0.16,4.21,-2.62,-2.81,398,466,239,312,235
1316,0.95,-0.38,-0.17,2.75,-20.63,-0.18,399,471,236,306,236
1317,0.9,-0.38,-0.14,1.22,-2.32,-2.5,400,465,240,309,235
1318,0.88,-0.4,-0.17,-2.38,-3.97,-0.61,399,464,237,312,237
1319,0.92,-0.41,-0.18,1.46,-8.18,1.46,400,467,240,309,236
1320,0.91,-0.4,-0.14,-4.94,-0.85,-0.98,398,471,236,309,235
1321,0.91,-0.41,-0.16,3.42,-2.87,-2.56,399,466,241,311,235
1322,0.89,-0.41,-0.16,0.18,-3.36,-2.01,398,465,243,308,232
1323,0.88,-0.43,-0.18,3.42,-4.46,-2.99,400,470,238,308,236
1324,0.89,-0.42,-0.16,-0.98,-4.82,-2.87,395,470,238,308,235
1325,0.88,-0.43,-0.17,0.92,-4.94,-0.73,398,465,238,310,237
1326,0.9,-0.41,-0.17,-0.31,-2.26,-2.14,400,475,240,309,247
1327,0.89,-0.41,-0.17,2.08,-2.99,-3.54,394,475,240,310,235
1328,0.89,-0.42,-0.18,-2.38,-3.11,-2.93,395,476,239,310,235
1329,0.88,-0.42,-0.16,-1.04,-3.17,0.43,397,473,240,311,237
1330,0.91,-0.4,-0.15,2.26,-2.26,-5.19,400,470,237,308,236
1331,0.9,-0.39,-0.16,1.77,-0.85,-2.08,397,470,235,312,235
1332,0.89,-0.4,-0.14,1.65,-2.38,-0.85,397,473,241,309,237
1333,0.91,-0.4,-0.13,-0.37,-2.26,-0.61,399,471,237,308,238
1334,0.91,-0.4,-0.14,-0.31,-3.36,-2.99,400,468,241,312,235
1335,0.88,-0.41,-0.15,-1.28,-2.5,-2.75,394,471,238,308,242
1336,0.9,-0.41,-0.16,-0.18,-4.58,-0.37,400,466,237,307,235
1337,0.92,-0.4,-0.15,0.79,-2.69,-1.77,396,472,237,309,237
1338,0.91,-0.41,-0.16,0.55,-3.3,-1.77,397,474,238,311,232
1339,0.9,-0.41,-0.16,-0.67,-3.97,-2.93,399,468,241,309,228
1340,0.91,-0.4,-0.16,0.79,-4.82,-3.54,399,475,238,312,235
1341,0.9,-0.4,-0.16,1.46,-1.83,-3.78,397,470,241,306,236
1342,0.9,-0.4,-0.14,0.12,-1.71,-1.65,398,471,240,311,233
1343,0.91,-0.4,-0.15,0.24,-2.69,-1.59,398,472,240,309,235
1344,0.92,-0.39,-0.13,0.43,-2.2,-3.54,397,469,236,312,236
1345,0.9,-0.4,-0.14,-0.24,-4.27,0.24,397,470,238,311,234
1346,0.92,-0.39,-0.14,-0.31,-0.43,-2.81,397,470,241,312,235
1347,0.91,-0.4,-0.16,-1.16,-2.87,-4.27,398,468,242,310,235
1348,0.92,-0.39,-0.15,1.77,-2.26,-6.16,397,472,240,310,236
1349,0.9,-0.39,-0.15,1.04,-1.65,-2.93,398,474,240,311,238
1350,0.9,-0.39,-0.12,1.89,-2.38,-1.53,401,474,241,311,235
1351,0.9,-0.41,-0.13,-0.98,-2.32,0.0,398,471,242,309,252
1352,0.91,-0.41,-0.15,0.43,-4.33,-1.4,394,467,245,312,234
1353,0.91,-0.4,-0.13,-1.46,-4.52,-2.2,398,470,238,305,235
1354,0.91,-0.4,-0.15,-0.06,-4.27,-1.65,401,468,238,309,238
1355,0.91,-0.39,-0.15,1.22,-2.75,-2.69,400,474,241,310,234
1356,0.91,-0.4,-0.15,2.2,-3.78,-3.54,394,474,237,314,235
1357,0.92,-0.4,-0.14,2.5,-4.09,-1.95,398,472,241,313,235
1358,0.89,-0.4,-0.15,-0.55,-3.91,-2.5,398,465,238,311,237
1359,0.91,-0.4,-0.14,0.98,-3.72,-2.75,399,477,238,313,243
1360,0.91,-0.39,-0.14,0.98,-2.38,-1.59,394,470,238,306,247
1361,0.91,-0.39,-0.13,1.1,-2.2,-1.95,397,474,240,315,236
1362,0.89,-0.41,-0.16,1.1,-5.86,-3.91,397,473,236,310,235
1363,0.89,-0.41,-0.15,1.04,-2.99,-4.46,398,471,237,313,242
1364,0.89,-0.41,-0.14,0.43,-3.42,-0.49,398,471,237,309,235
1365,0.92,-0.39,-0.12,2.62,-2.99,0.18,399,471,235,309,234
1366,0.93,-0.38,-0.11,3.6,-2.81,-1.65,399,470,238,309,232
1367,0.91,-0.38,-0.1,0.55,-3.42,-0.61,395,470,238,308,236
1368,0.91,-0.39,-0.13,-4.88,-3.78,1.71,399,471,241,312,232
1369,0.92,-0.39,-0.13,-0.55,-3.42,-2.2,399,475,238,308,236
1370,0.91,-0.39,-0.12,1.83,-1.4,-2.75,398,466,241,310,235
1371,0.91,-0.4,-0.13,2.75,-3.05,-2.32,395,474,238,309,236
1372,0.92,-0.39,-0.12,0.79,-2.2,-2.14,396,465,239,310,233
1373,0.92,-0.4,-0.13,1.16,-2.5,-3.54,396,465,241,312,232
1374,0.9,-0.39,-0.11,0.31,-2.87,-2.32,394,469,238,310,238
1375,0.9,-0.4,-0.14,-0.49,-2.44,-2.26,400,464,241,311,237
1376,0.91,-0.41,-0.14,-0.12,-3.36,-3.48,400,469,238,311,235
1377,0.91,-0.4,-0.15,0.12,-3.11,-3.66,396,465,239,308,236
1378,0.91,-0.39,-0.15,-2.32,-4.15,-1.71,400,470,239,311,233
1379,0.92,-0.38,-0.13,1.4,-2.93,-2.26,399,470,237,310,236
1380,0.93,-0.39,-0.17,-0.49,-4.33,-1.46,398,475,239,310,236
1381,0.89,-0.4,-0.16,-1.04,-4.88,-1.34,399,471,241,310,236
1382,0.91,-0.39,-0.17,-1.22,-2.75,-4.15,396,470,240,312,235
1383,0.92,-0.39,-0.18,1.83,-2.01,-3.54,400,469,237,310,238
1384,0.91,-0.38,-0.15,0.43,-2.14,-2.14,398,464,238,307,236
1385,0.92,-0.38,-0.15,1.77,-2.99,-2.32,397,473,238,310,232
1386,0.9,-0.39,-0.16,6.9,-2.5,-5.49,397,472,238,310,239
1387,0.9,-0.38,-0.15,-2.2,-4.03,-0.37,398,464,238,311,238
1388,0.92,-0.38,-0.15,-1.22,-4.03,-2.38,398,472,244,307,238
1389,0.9,-0.38,-0.14,-0.06,-3.91,-1.4,398,470,241,312,236
1390,0.9,-0.37,-0.12,-3.85,-2.08,-3.91,397,471,242,311,237
1391,0.91,-0.36,-0.12,3.3,-3.36,-8.79,401,470,240,309,239
1392,0.89,-0.39,-0.16,5.19,-1.04,10.56,397,468,238,314,236
1393,0.91,-0.41,-0.2,0.37,-2.44,-2.44,397,464,239,307,235
1394,0.93,-0.39,-0.16,2.01,-2.56,-0.55,395,475,240,313,238
1395,0.92,-0.39,-0.15,-0.06,-3.23,-2.75,398,469,241,307,235
1396,0.92,-0.4,-0.17,0.24,-2.93,-1.95,398,475,239,310,235
1397,0.9,-0.39,-0.16,-2.01,-4.09,-2.44,397,471,239,311,235
1398,0.9,-0.39,-0.15,-0.12,-3.17,-1.65,394,472,237,308,233
1399,0.93,-0.39,-0.18,-1.28,-3.11,-1.89,400,471,240,310,235
1400,0.91,-0.39,-0.16,-0.31,-3.11,-1.22,399,468,239,311,237
1401,0.9,-0.4,-0.16,1.89,-3.23,-2.08,400,474,236,310,238
1402,0.89,-0.4,-0.15,-1.4,-3.3,0.12,400,469,236,309,235
1403,0.9,-0.4,-0.16,-0.18,-3.3,-2.14,394,473,241,311,235
1404,0.9,-0.4,-0.15,-0.61,-3.85,-2.01,398,464,239,311,238
1405,0.91,-0.4,-0.17,-1.1,-2.87,-2.5,401,481,238,312,236
1406,0.89,-0.4,-0.17,0.12,-3.23,-2.38,399,470,239,313,235
1407,0.9,-0.4,-0.16,0.85,-2.62,-2.44,398,468,241,313,237
1408,0.89,-0.41,-0.16,-1.04,-2.32,-2.14,398,468,241,312,238
1409,0.89,-0.42,-0.17,-0.24,-2.62,-1.95,398,469,241,311,235
1410,0.89,-0.41,-0.15,1.59,-2.75,-2.93,398,471,238,313,235
1411,0.89,-0.41,-0.16,0.12,-3.17,-1.83,395,471,237,311,235
1412,0.9,-0.4,-0.15,0.0,-2.69,-2.56,397,465,239,309,235
1413,0.9,-0.41,-0.16,0.37,-2.93,-2.38,399,474,237,310,234
1414,0.9,-0.4,-0.16,0.92,-3.54,-2.75,398,470,237,313,233
1415,0.9,-0.41,-0.17,1.95,-3.72,-3.05,394,470,243,314,234
1416,0.89,-0.41,-0.17,0.0,-2.26,-1.65,396,466,241,310,245
1417,0.9,-0.41,-0.16,0.98,-4.09,-0.67,394,469,239,309,235
1418,0.89,-0.41,-0.16,0.06,-1.89,-0.24,402,472,240,306,235
1419,0.91,-0.41,-0.15,2.08,-2.87,-2.69,399,471,239,310,236
1420,0.9,-0.41,-0.14,1.04,-3.6,-2.32,400,477,242,308,236
1421,0.9,-0.41,-0.16,0.0,-4.09,-2.01,398,470,237,313,236
1422,0.91,-0.41,-0.17,0.43,-5.13,-2.81,397,473,241,314,238
1423,0.91,-0.4,-0.15,1.46,-3.6,-2.62,398,466,239,311,237
1424,0.91,-0.4,-0.14,1.95,-1.1,-3.3,397,473,241,310,235
1425,0.92,-0.4,-0.15,1.28,-2.56,-2.75,397,470,233,312,237
1426,0.92,-0.39,-0.13,-2.32,-4.27,-0.55,393,473,241,309,238
1427,0.9,-0.4,-0.15,-0.12,-3.36,-2.5,397,464,239,309,236
1428,0.91,-0.4,-0.14,0.92,-5.31,-1.46,400,472,241,311,235
1429,0.92,-0.4,-0.15,0.31,-4.82,-1.89,397,473,242,312,237
1430,0.91,-0.4,-0.15,0.37,-1.28,-4.09,395,464,239,311,265
1431,0.9,-0.4,-0.14,-0.55,-0.79,-1.04,396,472,241,312,238
1432,0.91,-0.4,-0.14,-0.49,-2.62,-2.01,393,468,241,311,237
1433,0.92,-0.4,-0.13,-1.95,-4.21,-1.59,396,470,241,309,239
1434,0.93,-0.4,-0.14,-0.12,-3.85,-3.85,400,481,239,314,244
1435,0.92,-0.4,-0.14,-0.79,-3.66,-3.72,396,470,241,310,239
1436,0.9,-0.41,-0.15,1.77,-4.33,-2.56,398,473,250,310,238
1437,0.91,-0.4,-0.15,1.22,-4.15,-1.89,398,469,239,313,236
1438,0.9,-0.41,-0.14,-0.61,-2.81,-1.65,399,470,241,312,233
1439,0.9,-0.4,-0.14,-0.31,-4.21,-1.59,399,465,242,312,236
1440,0.91,-0.41,-0.14,0.67,-3.48,-2.14,393,465,243,311,236
1441,0.91,-0.4,-0.14,0.61,-2.5,-2.44,398,464,240,311,238
1442,0.88,-0.44,-0.15,8.85,-5.98,-1.89,398,468,240,314,236
1443,0.86,-0.44,-0.21,-3.66,-11.78,0.61,395,475,240,314,239
1444,0.91,-0.42,-0.17,-4.03,1.46,-3.48,398,465,250,316,240
1445,0.89,-0.39,-0.16,2.62,-3.23,-8.18,396,473,239,314,266
1446,0.9,-0.38,-0.17,-0.79,-0.79,0.18,394,471,240,310,235
1447,0.9,-0.39,-0.17,-0.31,-1.65,-2.26,398,465,239,309,235
1448,0.91,-0.4,-0.18,-0.24,-1.77,-3.42,398,469,237,311,239
1449,0.89,-0.41,-0.17,0.12,-2.01,-1.59,397,474,242,313,235
1450,0.9,-0.41,-0.18,0.73,-2.2,-2.38,399,461,242,313,236
1451,0.9,-0.42,-0.18,0.37,-2.56,-3.54,397,470,240,312,236
1452,0.89,-0.41,-0.17,0.92,-2.5,-2.69,394,471,245,313,239
1453,0.9,-0.41,-0.17,-0.73,-4.03,-1.59,401,471,243,313,239
1454,0.9,-0.41,-0.18,-0.43,-3.11,-1.53,398,470,239,311,238
1455,0.9,-0.41,-0.18,0.31,-3.11,-1.95,396,474,240,313,236
1456,0.89,-0.41,-0.18,0.06,-2.44,-1.16,400,471,240,312,236
1457,0.96,-0.39,-0.16,5.25,0.37,2.87,398,470,239,313,237
1458,0.92,-0.39,-0.14,0.18,-2.99,-5.43,399,475,240,312,236
1459,0.9,-0.42,-0.15,0.49,-1.28,-3.66,398,470,242,314,236
1460,0.89,-0.42,-0.15,0.24,-2.81,-2.62,399,467,240,313,234
1461,0.91,-0.41,-0.17,1.16,-3.97,-2.62,401,470,242,312,245
1462,0.91,-0.4,-0.14,0.61,-2.5,-1.89,401,474,243,315,237
1463,0.9,-0.4,-0.14,0.92,-1.4,-2.99,397,471,238,315,240
1464,0.9,-0.41,-0.15,-0.37,-1.16,-2.81,397,470,238,312,238
1465,0.9,-0.41,-0.14,-0.06,-1.83,-2.08,398,468,242,313,239
1466,0.9,-0.41,-0.15,1.1,-2.5,-2.99,399,471,240,313,236
1467,0.91,-0.41,-0.14,1.46,-2.87,-3.23,398,470,240,316,239
1468,0.9,-0.41,-0.13,0.73,-3.72,-2.5,394,472,239,313,235
1469,0.91,-0.4,-0.13,0.79,-3.48,-2.56,397,471,244,311,240
1470,0.9,-0.41,-0.14,0.18,-3.11,-2.69,396,465,239,315,237
1471,0.91,-0.41,-0.14,0.92,-3.11,-1.83,396,474,242,313,238
1472,0.91,-0.41,-0.15,0.31,-3.72,-1.89,396,469,242,312,235
1473,0.91,-0.41,-0.13,0.37,-2.69,-2.69,398,470,237,318,237
1474,0.89,-0.41,-0.12,-1.46,-2.69,-2.38,398,469,240,314,237
1475,0.9,-0.41,-0.14,3.6,-4.39,-1.83,397,465,242,315,236
1476,0.9,-0.41,-0.13,0.55,-2.01,-3.23,399,474,240,314,237
1477,0.9,-0.41,-0.13,0.61,-3.36,-1.1,398,470,242,316,240
1478,0.9,-0.41,-0.12,-0.31,-2.01,-2.69,396,467,238,314,239
1479,0.89,-0.42,-0.14,0.49,-3.85,-1.16,399,470,240,312,237
1480,0.91,-0.41,-0.12,0.85,-3.3,-2.38,397,471,238,315,266
1481,0.9,-0.42,-0.12,-0.24,-2.26,-2.81,394,474,240,311,240
1482,0.9,-0.42,-0.12,-0.98,-6.35,-0.49,397,465,243,310,239
1483,0.91,-0.41,-0.13,1.04,-4.58,-2.62,400,470,242,314,237
1484,0.91,-0.4,-0.12,-1.77,-0.06,-4.76,396,474,238,314,238
1485,0.91,-0.4,-0.12,0.85,-3.66,-1.46,397,465,240,312,237
1486,0.92,-0.4,-0.12,0.43,-1.89,-4.03,397,473,240,316,236
1487,0.91,-0.41,-0.13,1.77,-1.95,-4.33,399,467,242,314,240
1488,0.91,-0.41,-0.12,0.85,-2.75,-3.05,394,468,243,313,240
1489,0.9,-0.41,-0.11,-0.55,-2.75,-1.59,398,474,242,313,239
1490,0.89,-0.41,-0.12,-0.49,-3.48,-2.75,400,466,243,315,237
1491,0.91,-0.4,-0.13,-1.34,-3.3,-2.99,400,472,240,315,238
1492,0.91,-0.4,-0.13,-0.12,-1.89,-3.3,399,473,240,312,235
1493,0.9,-0.4,-0.12,0.79,-3.42,-2.87,397,473,240,313,237
1494,0.9,-0.4,-0.12,-1.1,-2.87,-2.62,399,465,238,314,234
1495,0.91,-0.4,-0.11,0.67,-2.93,-1.71,398,473,238,316,235
1496,0.9,-0.4,-0.12,2.5,-3.42,-1.04,395,474,242,317,235
1497,0.9,-0.41,-0.12,1.77,-2.5,-2.87,395,466,243,316,237
1498,0.9,-0.41,-0.14,0.37,-3.6,-2.5,397,466,238,313,237
1499,0.91,-0.4,-0.14,0.61,-3.66,-2.38,398,465,239,313,239
1500,0.9,-0.4,-0.14,1.77,-2.38,-2.56,399,471,238,314,233
1501,0.91,-0.4,-0.12,0.92,-2.26,-2.75,397,472,240,314,241
1502,0.91,-0.4,-0.13,0.55,-3.66,-2.5,398,471,239,312,240
1503,0.91,-0.38,-0.17,-1.4,-2.32,-2.56,392,465,234,308,227
1504,0.94,-0.37,-0.17,-0.18,1.34,0.24,395,463,239,309,232
1505,0.94,-0.36,-0.16,-2.38,-1.65,-7.26,393,468,237,307,230
1506,0.92,-0.36,-0.17,-0.31,-3.78,-3.66,395,465,237,307,233
1507,0.93,-0.35,-0.15,2.32,-9.03,-4.15,394,466,240,309,230
1508,0.96,-0.34,-0.18,1.95,-2.81,-1.28,395,465,240,307,231
1509,0.93,-0.34,-0.17,2.14,-3.36,-2.26,397,466,238,309,230
1510,0.92,-0.36,-0.18,-0.79,-2.99,-0.73,400,463,240,309,230
1511,0.91,-0.36,-0.18,3.05,-5.8,-0.79,398,466,235,304,233
1512,0.91,-0.37,-0.18,-0.43,0.0,-2.99,393,471,239,305,229
1513,0.92,-0.36,-0.17,-1.83,-2.08,-2.32,396,463,240,307,232
1514,0.91,-0.37,-0.17,1.71,-2.69,-4.64,396,477,241,306,232
1515,0.92,-0.36,-0.17,0.55,-0.85,-1.1,398,466,235,307,231
1516,0.92,-0.37,-0.18,2.14,-1.34,-7.2,397,467,238,308,234
1517,0.95,-0.34,-0.18,2.08,-2.38,-4.09,403,463,236,310,234
1518,0.94,-0.35,-0.15,2.75,-5.43,-1.95,400,474,240,308,233
1519,0.92,-0.35,-0.15,0.18,-3.11,-2.2,395,465,238,320,230
1520,0.93,-0.36,-0.16,-1.34,4.27,-5.31,399,471,240,308,235
1521,0.92,-0.36,-0.15,1.28,-2.2,-3.85,398,466,238,308,236
1522,0.93,-0.36,-0.16,1.53,-4.82,-3.54,401,470,236,309,234
1523,0.92,-0.36,-0.17,0.24,-3.78,-2.01,400,468,239,307,235
1524,0.95,-0.36,-0.17,0.67,2.44,0.37,400,465,250,312,230
1525,0.95,-0.36,-0.15,1.83,-3.72,-7.57,398,470,241,307,232
1526,0.91,-0.38,-0.16,0.79,-0.79,-5.31,398,466,237,308,233
1527,0.9,-0.39,-0.16,-1.28,-11.35,-2.26,397,466,247,307,234
1528,0.9,-0.39,-0.17,1.89,-1.28,1.53,399,472,240,306,231
1529,0.87,-0.4,-0.17,0.43,-3.72,-2.87,398,471,241,324,232
1530,0.9,-0.4,-0.18,-1.1,-2.08,-1.4,400,466,237,310,234
1531,0.9,-0.39,-0.17,0.61,-2.93,-2.38,400,467,244,307,234
1532,0.91,-0.38,-0.16,5.86,-2.32,-1.71,398,463,236,307,230
1533,0.9,-0.39,-0.16,0.18,-2.62,-4.33,399,464,237,306,233
1534,0.89,-0.39,-0.16,2.38,-0.12,-1.71,396,468,239,310,232
1535,0.88,-0.39,-0.15,-0.85,-1.4,-2.62,399,472,237,309,235
1536,0.92,-0.38,-0.18,3.11,0.85,-3.66,398,463,236,308,234
1537,0.9,-0.38,-0.16,1.4,-1.83,-3.66,402,469,238,311,233
1538,0.91,-0.39,-0.15,-0.37,-2.08,-2.44,395,469,240,308,234
1539,0.9,-0.38,-0.14,-0.85,-0.92,-3.54,394,463,235,318,233
1540,0.9,-0.38,-0.12,-1.4,2.14,-7.26,399,473,240,318,234
1541,0.92,-0.38,-0.14,-1.28,-3.91,-2.81,401,474,237,313,241
1542,0.91,-0.38,-0.16,1.71,-4.39,-5.37,398,464,240,311,233
1543,0.89,-0.38,-0.15,-1.34,-5.07,-5.07,399,469,238,309,233
1544,0.92,-0.37,-0.14,4.46,-5.25,4.82,401,469,240,309,233
1545,0.9,-0.37,-0.12,1.95,0.37,-4.7,400,464,241,305,232
1546,0.92,-0.37,-0.13,-4.09,-0.18,-1.04,397,461,244,310,231
1547,0.92,-0.38,-0.13,0.61,-3.72,-1.95,398,473,237,312,234
1548,0.94,-0.37,-0.15,3.54,-6.23,-2.62,400,464,242,310,231
1549,0.92,-0.37,-0.13,1.71,-2.14,-1.71,399,469,242,302,235
1550,0.93,-0.36,-0.14,0.49,-3.6,-1.71,402,473,238,312,236
1551,0.92,-0.37,-0.15,0.0,-4.52,-2.62,402,468,241,310,236
1552,0.91,-0.37,-0.13,1.65,-3.91,-2.75,397,468,241,310,232
1553,0.92,-0.36,-0.14,3.72,-4.39,-2.99,401,467,240,309,236
1554,0.92,-0.36,-0.14,0.24,-1.83,-3.3,399,468,242,311,235
1555,0.92,-0.36,-0.13,-0.43,-1.89,-3.54,400,468,241,309,235
1556,0.91,-0.36,-0.13,0.49,-2.44,-2.5,400,472,240,313,235
1557,0.92,-0.37,-0.15,2.44,-3.85,-3.17,399,473,238,311,235
1558,0.92,-0.36,-0.14,1.04,-3.17,-2.93,400,471,240,309,235
1559,0.93,-0.36,-0.14,-0.79,-2.32,-2.14,398,472,238,311,233
1560,0.93,-0.35,-0.14,-0.85,-3.11,-2.08,402,470,240,309,248
1561,0.93,-0.36,-0.15,0.18,-2.99,-2.56,399,469,238,310,250
1562,0.93,-0.36,-0.13,0.55,-0.61,-3.36,396,469,239,309,237
1563,0.93,-0.36,-0.14,-0.61,-1.1,-2.38,397,470,237,320,236
1564,0.92,-0.36,-0.14,-0.67,-2.32,-1.4,400,469,238,312,240
1565,0.92,-0.36,-0.14,0.98,-2.69,-2.75,396,466,238,308,237
1566,0.93,-0.36,-0.14,0.0,-2.2,-2.5,396,470,239,308,234
1567,0.93,-0.36,-0.13,0.18,-2.69,-1.71,400,467,240,308,235
1568,0.93,-0.36,-0.14,0.92,-2.87,-2.2,403,469,241,312,235
1569,0.92,-0.37,-0.16,0.43,-3.48,-3.3,400,467,240,312,235
1570,0.92,-0.36,-0.14,-0.24,-3.42,-2.38,398,465,240,313,232
1571,0.93,-0.36,-0.14,0.67,-2.93,-2.69,401,468,241,312,235
1572,0.92,-0.37,-0.14,-1.04,-3.66,-3.36,403,469,243,311,235
1573,0.91,-0.36,-0.14,0.55,-3.91,-1.59,398,472,241,309,237
1574,0.92,-0.36,-0.14,0.24,-3.6,-2.75,400,472,238,313,235
1575,0.92,-0.36,-0.15,0.43,-3.72,-3.17,400,467,239,309,237
1576,0.92,-0.36,-0.14,2.08,-3.42,-3.3,399,467,240,309,232
1577,0.92,-0.34,-0.13,1.16,-0.37,-5.74,402,465,244,314,234
1578,0.93,-0.35,-0.15,0.18,-3.48,-4.52,401,474,244,310,234
1579,0.92,-0.35,-0.16,2.14,-3.17,-3.97,398,472,238,311,276
1580,0.93,-0.34,-0.14,0.12,-2.2,-1.83,401,470,240,314,236
1581,0.93,-0.36,-0.15,1.83,-2.99,-3.05,398,470,241,310,235
1582,0.93,-0.35,-0.15,2.93,-2.93,-3.17,398,469,242,309,235
1583,0.93,-0.35,-0.14,1.95,-2.93,-2.69,401,473,242,314,238
1584,0.95,-0.35,-0.14,0.24,-4.52,-1.28,404,469,243,311,237
1585,0.94,-0.35,-0.13,2.26,-4.03,-2.5,400,467,246,312,237
1586,0.93,-0.35,-0.12,0.49,-2.81,-3.3,398,466,242,311,237
1587,0.92,-0.35,-0.11,3.42,-3.66,-1.46,401,477,244,313,255
1588,0.93,-0.35,-0.11,-1.4,-2.87,-2.93,400,469,244,314,239
1589,0.93,-0.35,-0.11,-0.18,-2.62,-3.42,401,469,243,313,236
1590,0.93,-0.36,-0.1,0.85,-3.3,-3.42,401,472,239,312,237
1591,0.92,-0.36,-0.12,1.28,-2.62,-1.4,402,463,243,311,236
1592,0.93,-0.35,-0.12,2.38,-2.81,-2.14,401,471,246,309,232
1593,0.92,-0.36,-0.13,1.22,-3.11,-3.85,403,485,241,311,238
1594,0.91,-0.36,-0.12,-0.67,-3.6,-2.14,403,469,248,314,233
1595,0.94,-0.37,-0.13,-0.24,-3.36,-2.14,400,473,243,313,239
1596,0.91,-0.35,-0.11,1.46,-2.2,0.67,397,472,246,315,237
1597,0.94,-0.36,-0.15,-2.26,-2.08,-3.48,401,467,240,311,237
1598,0.92,-0.37,-0.16,0.49,-6.9,-2.14,399,470,241,311,238
1599,0.89,-0.38,-0.15,1.1,-0.37,-1.1,403,470,242,312,238
1600,0.92,-0.38,-0.15,0.67,-2.32,-3.6,400,470,243,312,231
1601,0.91,-0.37,-0.16,-0.92,-2.5,-3.48,401,469,245,311,236
1602,0.92,-0.37,-0.14,2.69,-2.38,-2.56,399,467,245,314,235
1603,0.93,-0.37,-0.16,1.65,-3.66,-3.23,402,469,244,314,238
1604,0.92,-0.37,-0.15,-0.24,-3.11,-3.23,399,464,242,315,238
1605,0.91,-0.37,-0.15,-1.16,-3.17,-2.5,404,468,243,311,235
1606,0.89,-0.39,-0.18,0.79,-2.44,-4.39,399,473,241,314,236
1607,0.9,-0.38,-0.18,-1.1,-0.61,-4.58,399,472,244,312,240
1608,0.94,-0.36,-0.18,-0.24,-3.97,-1.59,398,469,243,314,236
1609,0.93,-0.36,-0.17,0.24,-3.66,-2.5,401,466,242,314,236
1610,0.92,-0.36,-0.14,0.06,-2.5,-3.05,398,470,244,313,234
1611,0.93,-0.35,-0.16,1.4,-2.87,1.34,404,471,245,314,244
1612,0.91,-0.37,-0.15,0.18,-3.05,-2.01,398,470,242,309,236
1613,0.92,-0.36,-0.15,0.73,-4.15,-0.43,406,468,244,309,239
1614,0.93,-0.35,-0.14,-0.61,-2.01,-2.01,400,471,244,310,236
1615,0.93,-0.34,-0.13,-0.24,-3.54,-0.49,399,473,241,315,239
1616,0.95,-0.35,-0.15,-0.24,-3.05,-4.03,399,471,243,309,234
1617,0.94,-0.34,-0.13,2.93,-4.94,-3.17,398,474,244,314,237
1618,0.91,-0.34,-0.14,-2.5,8.67,-15.01,400,469,241,309,239
1619,0.93,-0.34,-0.12,-0.31,1.65,-6.53,400,473,243,311,239
1620,0.95,-0.32,-0.12,0.49,-0.73,-4.03,400,468,242,312,239
1621,0.94,-0.33,-0.13,-0.73,-2.62,-2.81,397,470,243,312,234
1622,0.94,-0.33,-0.12,1.04,-3.91,-3.54,400,470,244,313,237
1623,0.93,-0.33,-0.12,-0.98,-3.48,-1.16,404,474,244,314,236
1624,0.93,-0.34,-0.13,0.92,-2.75,-2.2,401,469,243,314,238
1625,0.94,-0.33,-0.14,0.31,-5.49,-2.62,401,466,242,314,235
1626,0.93,-0.34,-0.14,-0.37,-2.2,-1.95,400,471,244,312,239
1627,0.94,-0.34,-0.13,-1.34,-3.48,-2.93,400,472,241,311,236
1628,0.93,-0.34,-0.14,3.48,-2.14,-3.36,400,471,243,312,238
1629,0.92,-0.35,-0.15,2.01,-2.44,-2.2,400,469,240,314,238
1630,0.94,-0.37,-0.18,2.14,-5.37,-3.97,400,469,240,313,236
1631,0.92,-0.36,-0.15,0.18,-1.95,-1.95,396,469,241,311,238
1632,0.93,-0.36,-0.15,-1.53,-1.77,-4.7,400,465,244,308,235
1633,0.94,-0.35,-0.17,2.01,-2.32,-4.03,400,472,244,314,234
1634,0.93,-0.36,-0.15,0.61,-3.17,-2.08,405,469,241,313,237
1635,0.94,-0.35,-0.14,0.73,-3.85,-1.16,400,473,245,315,239
1636,0.92,-0.36,-0.14,-2.87,-3.05,-0.55,405,469,239,311,237
1637,0.93,-0.35,-0.14,1.83,-3.36,-2.62,398,469,241,308,235
1638,0.92,-0.35,-0.14,2.2,-2.38,-2.81,401,468,243,312,237
1639,0.91,-0.35,-0.13,0.92,-3.85,-2.08,400,464,245,312,236
1640,0.91,-0.36,-0.15,-0.73,-6.53,-1.71,402,469,239,312,238
1641,0.93,-0.35,-0.15,1.16,-2.87,-2.81,401,469,244,312,238
1642,0.93,-0.36,-0.15,1.95,-2.56,-2.2,403,469,244,315,239
1643,0.93,-0.36,-0.14,1.34,-3.97,-1.53,395,471,240,313,233
1644,0.92,-0.35,-0.14,0.37,-3.11,-1.89,397,470,241,312,238
1645,0.93,-0.35,-0.14,1.83,-2.56,-2.26,401,474,242,318,236
1646,0.92,-0.36,-0.14,0.37,-2.81,-2.5,395,466,245,314,254
1647,0.92,-0.36,-0.14,-0.79,-1.65,-2.32,401,471,246,312,238
1648,0.92,-0.36,-0.14,0.12,-2.5,-2.32,398,473,243,312,238
1649,0.92,-0.36,-0.15,-0.37,-3.48,-1.65,399,472,242,310,238
1650,0.92,-0.35,-0.13,-1.1,-2.44,-2.81,400,470,245,313,238
1651,0.91,-0.36,-0.15,0.31,-2.26,-3.6,402,466,243,314,237
1652,0.92,-0.36,-0.13,-0.37,-2.14,-2.32,395,470,248,315,236
1653,0.93,-0.36,-0.14,0.18,-2.38,-2.32,398,470,242,315,236
1654,0.93,-0.35,-0.13,-0.06,-1.46,-3.54,400,469,242,312,236
1655,0.93,-0.36,-0.15,0.85,-2.99,-3.05,399,470,243,312,248
1656,0.93,-0.36,-0.15,0.98,-2.87,-2.26,401,470,242,312,235
1657,0.94,-0.36,-0.15,0.92,-2.62,-1.71,398,470,245,312,239
1658,0.93,-0.36,-0.14,0.67,-2.2,-2.14,400,469,247,312,259
1659,0.92,-0.36,-0.14,0.61,-3.42,-1.71,411,467,243,312,235
1660,0.92,-0.36,-0.15,0.37,-2.08,-2.99,401,470,241,312,239
1661,0.92,-0.36,-0.14,-0.37,-1.89,-3.91,401,467,243,315,236
1662,0.92,-0.36,-0.14,0.61,-2.69,-3.36,400,469,245,311,236
1663,0.93,-0.36,-0.16,0.37,-2.75,-1.83,398,471,247,312,239
1664,0.92,-0.36,-0.15,0.67,-3.42,-2.5,402,466,248,314,237
1665,0.93,-0.35,-0.13,-0.18,-2.38,-2.87,398,470,245,313,238
1666,0.93,-0.36,-0.14,-0.61,-0.24,-1.95,402,468,243,313,239
1667,0.92,-0.36,-0.13,0.24,-0.92,-3.05,399,474,242,315,236
1668,0.92,-0.36,-0.13,-0.55,-1.59,-2.69,400,469,246,313,239
1669,0.91,-0.37,-0.14,1.28,-3.36,-1.16,399,465,244,312,238
1670,0.92,-0.37,-0.15,-0.43,-3.23,-3.23,399,466,243,313,238
1671,0.91,-0.37,-0.15,1.04,-3.11,-1.53,399,473,244,315,236
1672,0.91,-0.36,-0.14,-0.12,-3.23,-2.69,400,466,243,312,234
1673,0.92,-0.36,-0.13,1.04,-2.38,-2.69,398,470,243,312,237
1674,0.92,-0.36,-0.14,0.98,-1.65,-2.32,399,470,244,313,237
1675,0.92,-0.37,-0.13,-2.14,-3.78,-1.28,397,470,245,313,238
1676,0.94,-0.36,-0.14,0.06,-1.04,-4.21,401,464,243,312,237
1677,0.94,-0.36,-0.13,3.11,-4.82,-4.76,401,468,246,310,236
1678,0.93,-0.35,-0.12,2.32,-4.39,-1.83,398,471,244,314,232
1679,0.92,-0.37,-0.15,0.49,-4.03,-4.88,396,469,245,310,239
1680,0.92,-0.36,-0.14,-0.12,-4.33,-5.07,397,470,243,313,236
1681,0.88,-0.38,-0.14,-2.5,-2.26,-0.98,402,465,242,313,237
1682,0.92,-0.38,-0.17,-0.79,-5.74,-0.73,396,469,246,312,237
1683,0.92,-0.37,-0.15,-0.55,-2.56,-2.08,402,473,242,314,235
1684,0.92,-0.37,-0.15,0.12,-2.87,-2.5,400,473,242,316,275
1685,0.95,-0.35,-0.13,1.16,-3.85,-3.6,403,469,247,313,235
1686,0.93,-0.36,-0.16,4.03,-2.87,-0.73,395,466,246,326,238
1687,0.92,-0.35,-0.13,-0.67,-1.77,-3.78,400,471,242,313,239
1688,0.94,-0.36,-0.17,2.62,-1.65,-6.23,399,467,243,311,237
1689,0.94,-0.37,-0.12,3.97,-1.22,-0.12,400,467,249,313,259
1690,0.92,-0.39,-0.14,-0.06,-2.69,-3.17,396,466,247,316,232
1691,0.92,-0.38,-0.12,-2.14,-4.03,-2.26,399,469,244,315,233
1692,0.93,-0.37,-0.13,1.77,-2.87,-3.3,395,471,243,316,231
1693,0.91,-0.38,-0.13,-0.61,-1.46,-2.32,399,472,241,313,232
1694,0.91,-0.38,-0.12,0.49,-0.67,-3.36,397,470,240,315,235
1695,0.91,-0.38,-0.13,0.37,-2.69,-3.66,399,469,243,313,230
1696,0.91,-0.37,-0.12,-1.89,-2.99,-1.95,400,474,242,314,230
1697,0.93,-0.37,-0.14,0.55,-2.93,-2.01,401,470,257,315,233
1698,0.92,-0.37,-0.13,-1.95,-4.46,-2.08,393,472,244,313,232
1699,0.93,-0.36,-0.12,0.43,-2.2,-3.72,396,469,244,312,237
1700,0.93,-0.36,-0.11,1.83,-2.2,-3.42,398,470,238,315,240
1701,0.93,-0.37,-0.12,1.77,-1.77,-3.05,398,473,246,313,234
1702,0.92,-0.37,-0.13,-0.67,-1.34,-2.01,402,469,244,315,237
1703,0.91,-0.37,-0.14,1.16,-3.11,-4.46,399,472,246,312,237
1704,0.92,-0.36,-0.13,-0.24,-2.26,-2.93,396,470,245,314,234
1705,0.92,-0.37,-0.14,1.1,-3.3,-3.36,397,471,242,312,235
1706,0.92,-0.37,-0.14,0.61,-3.11,-1.71,393,470,243,316,234
1707,0.92,-0.37,-0.13,1.89,-0.31,-3.36,398,465,243,313,237
1708,0.92,-0.36,-0.11,1.71,-2.44,-3.78,399,474,245,308,234
1709,0.93,-0.37,-0.13,6.23,-4.03,-0.37,397,468,242,314,233
1710,0.92,-0.38,-0.12,-0.92,-3.6,-2.08,394,474,246,315,235
1711,0.91,-0.38,-0.12,-0.06,-2.99,-1.77,399,470,244,314,232
1712,0.9,-0.38,-0.12,-0.43,-2.5,-3.36,394,469,242,326,237
1713,0.92,-0.38,-0.12,0.73,-3.05,-4.21,394,472,244,314,235
1714,0.93,-0.38,-0.13,1.53,-4.82,-2.44,398,474,246,313,236
1715,0.92,-0.37,-0.13,-0.61,-2.2,-1.4,400,469,240,315,237
1716,0.91,-0.38,-0.12,0.18,-2.26,-2.69,401,469,246,317,237
1717,0.92,-0.37,-0.12,0.37,-2.38,-3.3,398,464,241,313,233
1718,0.92,-0.35,-0.11,3.78,-4.15,-1.4,397,471,243,318,237
1719,0.92,-0.37,-0.12,1.1,-3.6,-1.95,398,476,244,316,231
1720,0.92,-0.36,-0.09,1.16,-2.69,-1.46,394,467,241,317,237
1721,0.92,-0.37,-0.11,-0.73,-3.48,-1.83,399,464,242,315,236
1722,0.92,-0.37,-0.12,0.0,-3.48,-2.5,401,470,241,315,238
1723,0.92,-0.37,-0.13,-0.55,-2.81,-2.14,400,470,244,318,237
1724,0.91,-0.37,-0.12,-0.06,-1.28,-3.05,398,475,243,310,238
1725,0.93,-0.37,-0.12,-0.24,-2.01,-1.71,400,469,243,316,236
1726,0.91,-0.37,-0.12,0.0,-2.26,-2.14,400,473,246,318,238
1727,0.92,-0.37,-0.12,-1.28,-1.89,-2.44,397,467,246,318,233
1728,0.93,-0.36,-0.12,-0.31,-1.83,-3.23,401,474,246,317,238
1729,0.92,-0.37,-0.13,0.24,-2.01,-3.48,399,472,242,314,233
1730,0.93,-0.37,-0.14,0.18,-0.73,-3.66,398,468,246,312,236
1731,0.93,-0.36,-0.13,1.4,-2.62,-2.93,401,475,246,316,235
1732,0.93,-0.36,-0.12,0.0,-1.83,-2.75,400,470,241,314,235
1733,0.94,-0.37,-0.14,-0.67,-3.23,-1.28,399,470,246,314,236
1734,0.93,-0.37,-0.13,1.53,-4.52,-0.37,395,474,244,311,235
1735,0.93,-0.37,-0.11,0.73,-3.54,-2.75,402,468,240,314,233
1736,0.92,-0.36,-0.11,-0.43,-3.05,-1.28,398,480,242,315,234
1737,0.92,-0.36,-0.12,1.1,-2.62,-1.04,399,473,246,315,238
1738,0.92,-0.37,-0.11,-1.46,-0.43,-2.5,402,466,246,315,237
1739,0.92,-0.37,-0.11,-0.85,-4.39,-1.89,398,474,244,312,238
1740,0.92,-0.37,-0.12,-0.55,-3.54,-2.69,398,471,246,314,234
1741,0.92,-0.37,-0.13,-0.24,-2.75,-3.17,402,474,245,312,233
1742,0.92,-0.36,-0.1,-1.1,-2.26,-2.08,401,474,245,316,237
1743,0.92,-0.37,-0.11,0.06,-2.87,-2.81,398,474,244,313,236
1744,0.92,-0.36,-0.1,0.85,-1.77,-3.36,400,470,256,314,236
1745,0.93,-0.36,-0.1,-0.55,-2.14,-1.95,402,472,242,315,239
1746,0.93,-0.37,-0.11,-0.85,-2.93,-2.93,399,473,241,314,234
1747,0.93,-0.37,-0.12,2.56,-4.88,-2.5,402,469,243,311,238
1748,0.92,-0.37,-0.12,1.95,-4.03,-2.14,401,471,244,313,239
1749,0.92,-0.37,-0.11,0.31,-5.37,-2.26,395,473,244,315,240
1750,0.93,-0.36,-0.13,-0.73,-0.61,-0.92,389,471,245,313,235
1751,0.92,-0.37,-0.11,0.43,-0.85,-0.61,399,470,244,317,238
1752,0.94,-0.36,-0.1,0.18,-2.2,-0.55,400,466,247,314,238
1753,0.93,-0.37,-0.11,-0.12,-3.6,-2.5,400,467,248,315,236
1754,0.92,-0.37,-0.11,-0.85,-4.15,-1.71,400,472,246,318,236
1755,0.92,-0.38,-0.12,-0.61,-4.39,-1.65,401,470,243,312,234
1756,0.92,-0.37,-0.12,1.04,-2.87,-1.4,398,474,242,315,237
1757,0.9,-0.39,-0.13,-1.22,-0.92,0.18,402,472,246,312,233
1758,0.9,-0.39,-0.1,-3.85,-3.36,-3.36,400,475,242,312,236
1759,0.9,-0.39,-0.13,-1.71,-4.88,-0.73,402,471,246,315,237
1760,0.91,-0.38,-0.12,2.56,-2.81,-1.65,399,468,246,319,237
1761,0.91,-0.39,-0.11,-2.87,-0.85,-4.33,400,469,243,314,235
1762,0.9,-0.4,-0.1,1.53,-3.72,-3.17,400,470,246,316,236
1763,0.9,-0.4,-0.12,1.59,-7.08,-0.67,400,469,247,321,239
1764,0.92,-0.4,-0.14,4.27,-2.81,-3.11,401,468,247,313,240
1765,0.91,-0.41,-0.14,2.5,-2.01,-2.32,403,470,243,312,241
1766,0.91,-0.41,-0.12,0.67,-1.95,-1.1,400,467,242,316,235
1767,0.9,-0.41,-0.1,2.14,-0.92,-3.36,399,474,243,311,235
1768,0.92,-0.4,-0.11,0.49,-3.54,-3.11,397,471,238,308,237
1769,0.91,-0.4,-0.1,2.08,-3.48,-4.03,401,472,237,307,234
1770,0.91,-0.4,-0.11,1.4,-3.72,-3.66,398,470,237,308,235
1771,0.91,-0.4,-0.11,0.43,-4.03,-0.49,391,471,238,308,234
1772,0.9,-0.41,-0.11,-0.12,-2.99,-3.36,398,473,240,309,235
1773,0.9,-0.41,-0.11,0.61,-3.6,-2.5,395,470,237,308,234
1774,0.92,-0.41,-0.13,-3.42,-2.44,-3.54,400,466,238,310,235
1775,0.88,-0.43,-0.15,-2.87,-6.04,-2.01,396,470,238,303,234
1776,0.89,-0.39,-0.1,-0.24,-2.38,-1.53,397,473,236,308,238
1777,0.92,-0.39,-0.14,-1.89,-4.27,1.65,402,471,241,307,235
1778,0.86,-0.4,-0.12,8.73,-7.08,6.65,395,469,235,310,236
1779,0.92,-0.4,-0.17,-1.83,-1.89,-4.82,401,470,234,304,234
1780,0.9,-0.39,-0.15,-0.37,-4.46,-2.44,396,469,240,309,236
1781,0.89,-0.38,-0.14,-0.67,-1.53,-1.04,397,468,236,307,234
1782,0.87,-0.4,-0.17,-0.12,-4.82,0.31,403,470,238,310,232
1783,0.91,-0.39,-0.14,0.24,0.43,0.12,400,468,241,307,266
1784,0.89,-0.4,-0.16,3.97,-1.71,-3.48,401,470,252,305,236
1785,0.92,-0.4,-0.17,-1.95,-0.43,-3.66,400,469,235,308,234
1786,0.94,-0.41,-0.16,1.59,-4.52,-3.48,392,469,239,311,235
1787,0.9,-0.42,-0.16,1.28,-2.81,-4.39,400,465,236,309,234
1788,0.89,-0.4,-0.14,0.67,-2.08,-2.5,400,473,241,307,235
1789,0.92,-0.4,-0.18,0.49,-3.97,-3.78,398,467,241,310,237
1790,0.91,-0.39,-0.15,0.31,-2.32,-3.11,393,469,238,309,233
1791,0.91,-0.4,-0.17,1.65,-2.81,-3.17,398,470,241,309,234
1792,0.87,-0.42,-0.15,-3.23,-2.87,-2.81,397,471,238,304,235
1793,0.9,-0.4,-0.14,1.77,-3.05,-2.5,400,468,236,309,235
1794,0.93,-0.41,-0.21,3.72,-4.94,-1.83,398,465,238,308,236
1795,0.93,-0.37,-0.16,1.4,-1.53,-2.69,395,470,241,310,232
1796,0.9,-0.39,-0.18,0.49,-2.75,-3.66,396,474,240,310,236
1797,0.93,-0.37,-0.14,0.98,-5.0,-0.67,394,470,236,310,250
1798,0.91,-0.37,-0.14,1.53,-1.89,-2.56,398,470,237,308,233
1799,0.91,-0.39,-0.17,4.76,-6.53,-4.76,394,470,240,308,236
1800,0.88,-0.39,-0.13,3.97,-1.4,-1.77,398,471,239,311,235
1801,0.92,-0.38,-0.16,-2.75,-3.05,-3.66,395,474,239,310,238
1802,0.94,-0.39,-0.13,-5.19,-7.81,4.64,396,465,241,306,233
1803,0.9,-0.39,-0.12,-1.53,-2.69,-2.14,396,470,238,326,232
1804,0.9,-0.4,-0.16,-2.69,-3.11,-1.53,396,472,240,318,236
1805,0.91,-0.39,-0.13,-0.55,-5.07,-3.11,398,469,237,311,235
1806,0.93,-0.37,-0.14,6.59,-0.79,-5.07,400,468,236,309,234
1807,0.91,-0.37,-0.11,1.59,-2.32,-5.19,396,469,235,309,243
1808,0.87,-0.42,-0.14,-2.56,-2.26,4.7,398,478,239,309,233
1809,0.87,-0.42,-0.11,5.37,-7.51,1.65,406,470,241,311,235
1810,0.93,-0.41,-0.15,-0.98,-1.95,-2.5,398,465,237,308,235
1811,0.91,-0.41,-0.17,6.35,2.01,-7.32,401,472,238,311,234
1812,0.88,-0.41,-0.12,-1.89,2.01,-1.65,399,467,235,311,238
1813,0.9,-0.41,-0.13,-1.1,-2.62,-3.36,398,467,238,311,235
1814,0.89,-0.42,-0.15,-0.12,-3.48,-2.32,402,468,238,311,235
1815,0.91,-0.41,-0.15,4.88,-3.3,-5.98,399,470,248,306,232
1816,0.92,-0.39,-0.16,4.21,-2.62,-2.81,398,466,239,312,235
1817,0.95,-0.38,-0.17,2.75,-20.63,-0.18,399,471,236,306,236
1818,0.9,-0.38,-0.14,1.22,-2.32,-2.5,400,465,240,309,235
1819,0.88,-0.4,-0.17,-2.38,-3.97,-0.61,399,464,237,312,237
1820,0.92,-0.41,-0.18,1.46,-8.18,1.46,400,467,240,309,236
1821,0.91,-0.4,-0.14,-4.94,-0.85,-0.98,398,471,236,309,235
1822,0.91,-0.41,-0.16,3.42,-2.87,-2.56,399,466,241,311,235
1823,0.89,-0.41,-0.16,0.18,-3.36,-2.01,398,465,243,308,232
1824,0.88,-0.43,-0.18,3.42,-4.46,-2.99,400,470,238,308,236
1825,0.89,-0.42,-0.16,-0.98,-4.82,-2.87,395,470,238,308,235
1826,0.88,-0.43,-0.17,0.92,-4.94,-0.73,398,465,238,310,237
1827,0.9,-0.41,-0.17,-0.31,-2.26,-2.14,400,475,240,309,247
1828,0.89,-0.41,-0.17,2.08,-2.99,-3.54,394,475,240,310,235
1829,0.89,-0.42,-0.18,-2.38,-3.11,-2.93,395,476,239,310,235
1830,0.88,-0.42,-0.16,-1.04,-3.17,0.43,397,473,240,311,237
1831,0.91,-0.4,-0.15,2.26,-2.26,-5.19,400,470,237,308,236
1832,0.9,-0.39,-0.16,1.77,-0.85,-2.08,397,470,235,312,235
1833,0.89,-0.4,-0.14,1.65,-2.38,-0.85,397,473,241,309,237
1834,0.91,-0.4,-0.13,-0.37,-2.26,-0.61,399,471,237,308,238
1835,0.91,-0.4,-0.14,-0.31,-3.36,-2.99,400,468,241,312,235
1836,0.88,-0.41,-0.15,-1.28,-2.5,-2.75,394,471,238,308,242
1837,0.9,-0.41,-0.16,-0.18,-4.58,-0.37,400,466,237,307,235
1838,0.92,-0.4,-0.15,0.79,-2.69,-1.77,396,472,237,309,237
1839,0.91,-0.41,-0.16,0.55,-3.3,-1.77,397,474,238,311,232
1840,0.9,-0.41,-0.16,-0.67,-3.97,-2.93,399,468,241,309,228
1841,0.91,-0.4,-0.16,0.79,-4.82,-3.54,399,475,238,312,235
1842,0.9,-0.4,-0.16,1.46,-1.83,-3.78,397,470,241,306,236
1843,0.9,-0.4,-0.14,0.12,-1.71,-1.65,398,471,240,311,233
1844,0.91,-0.4,-0.15,0.24,-2.69,-1.59,398,472,240,309,235
1845,0.92,-0.39,-0.13,0.43,-2.2,-3.54,397,469,236,312,236
1846,0.9,-0.4,-0.14,-0.24,-4.27,0.24,397,470,238,311,234
1847,0.92,-0.39,-0.14,-0.31,-0.43,-2.81,397,470,241,312,235
1848,0.91,-0.4,-0.16,-1.16,-2.87,-4.27,398,468,242,310,235
1849,0.92,-0.39,-0.15,1.77,-2.26,-6.16,397,472,240,310,236
1850,0.9,-0.39,-0.15,1.04,-1.65,-2.93,398,474,240,311,238
1851,0.9,-0.39,-0.12,1.89,-2.38,-1.53,401,474,241,311,235
1852,0.9,-0.41,-0.13,-0.98,-2.32,0.0,398,471,242,309,252
1853,0.91,-0.41,-0.15,0.43,-4.33,-1.4,394,467,245,312,234
1854,0.91,-0.4,-0.13,-1.46,-4.52,-2.2,398,470,238,305,235
1855,0.91,-0.4,-0.15,-0.06,-4.27,-1.65,401,468,238,309,238
1856,0.91,-0.39,-0.15,1.22,-2.75,-2.69,400,474,241,310,234
1857,0.91,-0.4,-0.15,2.2,-3.78,-3.54,394,474,237,314,235
1858,0.92,-0.4,-0.14,2.5,-4.09,-1.95,398,472,241,313,235
1859,0.89,-0.4,-0.15,-0.55,-3.91,-2.5,398,465,238,311,237
1860,0.91,-0.4,-0.14,0.98,-3.72,-2.75,399,477,238,313,243
1861,0.91,-0.39,-0.14,0.98,-2.38,-1.59,394,470,238,306,247
1862,0.91,-0.39,-0.13,1.1,-2.2,-1.95,397,474,240,315,236
1863,0.89,-0.41,-0.16,1.1,-5.86,-3.91,397,473,236,310,235
1864,0.89,-0.41,-0.15,1.04,-2.99,-4.46,398,471,237,313,242
1865,0.89,-0.41,-0.14,0.43,-3.42,-0.49,398,471,237,309,235
1866,0.92,-0.39,-0.12,2.62,-2.99,0.18,399,471,235,309,234
1867,0.93,-0.38,-0.11,3.6,-2.81,-1.65,399,470,238,309,232
1868,0.91,-0.38,-0.1,0.55,-3.42,-0.61,395,470,238,308,236
1869,0.91,-0.39,-0.13,-4.88,-3.78,1.71,399,471,241,312,232
1870,0.92,-0.39,-0.13,-0.55,-3.42,-2.2,399,475,238,308,236
1871,0.91,-0.39,-0.12,1.83,-1.4,-2.75,398,466,241,310,235
1872,0.91,-0.4,-0.13,2.75,-3.05,-2.32,395,474,238,309,236
1873,0.92,-0.39,-0.12,0.79,-2.2,-2.14,396,465,239,310,233
1874,0.92,-0.4,-0.13,1.16,-2.5,-3.54,396,465,241,312,232
1875,0.9,-0.39,-0.11,0.31,-2.87,-2.32,394,469,238,310,238
1876,0.9,-0.4,-0.14,-0.49,-2.44,-2.26,400,464,241,311,237
1877,0.91,-0.41,-0.14,-0.12,-3.36,-3.48,400,469,238,311,235
1878,0.91,-0.4,-0.15,0.12,-3.11,-3.66,396,465,239,308,236
1879,0.91,-0.39,-0.15,-2.32,-4.15,-1.71,400,470,239,311,233
1880,0.92,-0.38,-0.13,1.4,-2.93,-2.26,399,470,237,310,236
1881,0.93,-0.39,-0.17,-0.49,-4.33,-1.46,398,475,239,310,236
1882,0.89,-0.4,-0.16,-1.04,-4.88,-1.34,399,471,241,310,236
1883,0.91,-0.39,-0.17,-1.22,-2.75,-4.15,396,470,240,312,235
1884,0.92,-0.39,-0.18,1.83,-2.01,-3.54,400,469,237,310,238
1885,0.91,-0.38,-0.15,0.43,-2.14,-2.14,398,464,238,307,236
1886,0.92,-0.38,-0.15,1.77,-2.99,-2.32,397,473,238,310,232
1887,0.9,-0.39,-0.16,6.9,-2.5,-5.49,397,472,238,310,239
1888,0.9,-0.38,-0.15,-2.2,-4.03,-0.37,398,464,238,311,238
1889,0.92,-0.38,-0.15,-1.22,-4.03,-2.38,398,472,244,307,238
1890,0.9,-0.38,-0.14,-0.06,-3.91,-1.4,398,470,241,312,236
1891,0.9,-0.37,-0.12,-3.85,-2.08,-3.91,397,471,242,311,237
1892,0.91,-0.36,-0.12,3.3,-3.36,-8.79,401,470,240,309,239
1893,0.89,-0.39,-0.16,5.19,-1.04,10.56,397,468,238,314,236
1894,0.91,-0.41,-0.2,0.37,-2.44,-2.44,397,464,239,307,235
1895,0.93,-0.39,-0.16,2.01,-2.56,-0.55,395,475,240,313,238
1896,0.92,-0.39,-0.15,-0.06,-3.23,-2.75,398,469,241,307,235
1897,0.92,-0.4,-0.17,0.24,-2.93,-1.95,398,475,239,310,235
1898,0.9,-0.39,-0.16,-2.01,-4.09,-2.44,397,471,239,311,235
1899,0.9,-0.39,-0.15,-0.12,-3.17,-1.65,394,472,237,308,233
1900,0.93,-0.39,-0.18,-1.28,-3.11,-1.89,400,471,240,310,235
1901,0.91,-0.39,-0.16,-0.31,-3.11,-1.22,399,468,239,311,237
1902,0.9,-0.4,-0.16,1.89,-3.23,-2.08,400,474,236,310,238
1903,0.89,-0.4,-0.15,-1.4,-3.3,0.12,400,469,236,309,235
1904,0.9,-0.4,-0.16,-0.18,-3.3,-2.14,394,473,241,311,235
1905,0.9,-0.4,-0.15,-0.61,-3.85,-2.01,398,464,239,311,238
1906,0.91,-0.4,-0.17,-1.1,-2.87,-2.5,401,481,238,312,236
1907,0.89,-0.4,-0.17,0.12,-3.23,-2.38,399,470,239,313,235
1908,0.9,-0.4,-0.16,0.85,-2.62,-2.44,398,468,241,313,237
1909,0.89,-0.41,-0.16,-1.04,-2.32,-2.14,398,468,241,312,238
1910,0.89,-0.42,-0.17,-0.24,-2.62,-1.95,398,469,241,311,235
1911,0.89,-0.41,-0.15,1.59,-2.75,-2.93,398,471,238,313,235
1912,0.89,-0.41,-0.16,0.12,-3.17,-1.83,395,471,237,311,235
1913,0.9,-0.4,-0.15,0.0,-2.69,-2.56,397,465,239,309,235
1914,0.9,-0.41,-0.16,0.37,-2.93,-2.38,399,474,237,310,234
1915,0.9,-0.4,-0.16,0.92,-3.54,-2.75,398,470,237,313,233
1916,0.9,-0.41,-0.17,1.95,-3.72,-3.05,394,470,243,314,234
1917,0.89,-0.41,-0.17,0.0,-2.26,-1.65,396,466,241,310,245
1918,0.9,-0.41,-0.16,0.98,-4.09,-0.67,394,469,239,309,235
1919,0.89,-0.41,-0.16,0.06,-1.89,-0.24,402,472,240,306,235
1920,0.91,-0.41,-0.15,2.08,-2.87,-2.69,399,471,239,310,236
1921,0.9,-0.41,-0.14,1.04,-3.6,-2.32,400,477,242,308,236
1922,0.9,-0.41,-0.16,0.0,-4.09,-2.01,398,470,237,313,236
1923,0.91,-0.41,-0.17,0.43,-5.13,-2.81,397,473,241,314,238
1924,0.91,-0.4,-0.15,1.46,-3.6,-2.62,398,466,239,311,237
1925,0.91,-0.4,-0.14,1.95,-1.1,-3.3,397,473,241,310,235
1926,0.92,-0.4,-0.15,1.28,-2.56,-2.75,397,470,233,312,237
1927,0.92,-0.39,-0.13,-2.32,-4.27,-0.55,393,473,241,309,238
1928,0.9,-0.4,-0.15,-0.12,-3.36,-2.5,397,464,239,309,236
1929,0.91,-0.4,-0.14,0.92,-5.31,-1.46,400,472,241,311,235
1930,0.92,-0.4,-0.15,0.31,-4.82,-1.89,397,473,242,312,237
1931,0.91,-0.4,-0.15,0.37,-1.28,-4.09,395,464,239,311,265
1932,0.9,-0.4,-0.14,-0.55,-0.79,-1.04,396,472,241,312,238
1933,0.91,-0.4,-0.14,-0.49,-2.62,-2.01,393,468,241,311,237
1934,0.92,-0.4,-0.13,-1.95,-4.21,-1.59,396,470,241,309,239
1935,0.93,-0.4,-0.14,-0.12,-3.85,-3.85,400,481,239,314,244
1936,0.92,-0.4,-0.14,-0.79,-3.66,-3.72,396,470,241,310,239
1937,0.9,-0.41,-0.15,1.77,-4.33,-2.56,398,473,250,310,238
1938,0.91,-0.4,-0.15,1.22,-4.15,-1.89,398,469,239,313,236
1939,0.9,-0.41,-0.14,-0.61,-2.81,-1.65,399,470,241,312,233
1940,0.9,-0.4,-0.14,-0.31,-4.21,-1.59,399,465,242,312,236
1941,0.91,-0.41,-0.14,0.67,-3.48,-2.14,393,465,243,311,236
1942,0.91,-0.4,-0.14,0.61,-2.5,-2.44,398,464,240,311,238
1943,0.88,-0.44,-0.15,8.85,-5.98,-1.89,398,468,240,314,236
1944,0.86,-0.44,-0.21,-3.66,-11.78,0.61,395,475,240,314,239
1945,0.91,-0.42,-0.17,-4.03,1.46,-3.48,398,465,250,316,240
1946,0.89,-0.39,-0.16,2.62,-3.23,-8.18,396,473,239,314,266
1947,0.9,-0.38,-0.17,-0.79,-0.79,0.18,394,471,240,310,235
1948,0.9,-0.39,-0.17,-0.31,-1.65,-2.26,398,465,239,309,235
1949,0.91,-0.4,-0.18,-0.24,-1.77,-3.42,398,469,237,311,239
1950,0.89,-0.41,-0.17,0.12,-2.01,-1.59,397,474,242,313,235
1951,0.9,-0.41,-0.18,0.73,-2.2,-2.38,399,461,242,313,236
1952,0.9,-0.42,-0.18,0.37,-2.56,-3.54,397,470,240,312,236
1953,0.89,-0.41,-0.17,0.92,-2.5,-2.69,394,471,245,313,239
1954,0.9,-0.41,-0.17,-0.73,-4.03,-1.59,401,471,243,313,239
1955,0.9,-0.41,-0.18,-0.43,-3.11,-1.53,398,470,239,311,238
1956,0.9,-0.41,-0.18,0.31,-3.11,-1.95,396,474,240,313,236
1957,0.89,-0.41,-0.18,0.06,-2.44,-1.16,400,471,240,312,236
1958,0.96,-0.39,-0.16,5.25,0.37,2.87,398,470,239,313,237
1959,0.92,-0.39,-0.14,0.18,-2.99,-5.43,399,475,240,312,236
1960,0.9,-0.42,-0.15,0.49,-1.28,-3.66,398,470,242,314,236
1961,0.89,-0.42,-0.15,0.24,-2.81,-2.62,399,467,240,313,234
1962,0.91,-0.41,-0.17,1.16,-3.97,-2.62,401,470,242,312,245
1963,0.91,-0.4,-0.14,0.61,-2.5,-1.89,401,474,243,315,237
1964,0.9,-0.4,-0.14,0.92,-1.4,-2.99,397,471,238,315,240
1965,0.9,-0.41,-0.15,-0.37,-1.16,-2.81,397,470,238,312,238
1966,0.9,-0.41,-0.14,-0.06,-1.83,-2.08,398,468,242,313,239
1967,0.9,-0.41,-0.15,1.1,-2.5,-2.99,399,471,240,313,236
1968,0.91,-0.41,-0.14,1.46,-2.87,-3.23,398,470,240,316,239
1969,0.9,-0.41,-0.13,0.73,-3.72,-2.5,394,472,239,313,235
1970,0.91,-0.4,-0.13,0.79,-3.48,-2.56,397,471,244,311,240
1971,0.9,-0.41,-0.14,0.18,-3.11,-2.69,396,465,239,315,237
1972,0.91,-0.41,-0.14,0.92,-3.11,-1.83,396,474,242,313,238
1973,0.91,-0.41,-0.15,0.31,-3.72,-1.89,396,469,242,312,235
1974,0.91,-0.41,-0.13,0.37,-2.69,-2.69,398,470,237,318,237
1975,0.89,-0.41,-0.12,-1.46,-2.69,-2.38,398,469,240,314,237
1976,0.9,-0.41,-0.14,3.6,-4.39,-1.83,397,465,242,315,236
1977,0.9,-0.41,-0.13,0.55,-2.01,-3.23,399,474,240,314,237
1978,0.9,-0.41,-0.13,0.61,-3.36,-1.1,398,470,242,316,240
1979,0.9,-0.41,-0.12,-0.31,-2.01,-2.69,396,467,238,314,239
1980,0.89,-0.42,-0.14,0.49,-3.85,-1.16,399,470,240,312,237
1981,0.91,-0.41,-0.12,0.85,-3.3,-2.38,397,471,238,315,266
1982,0.9,-0.42,-0.12,-0.24,-2.26,-2.81,394,474,240,311,240
1983,0.9,-0.42,-0.12,-0.98,-6.35,-0.49,397,465,243,310,239
1984,0.91,-0.41,-0.13,1.04,-4.58,-2.62,400,470,242,314,237
1985,0.91,-0.4,-0.12,-1.77,-0.06,-4.76,396,474,238,314,238
1986,0.91,-0.4,-0.12,0.85,-3.66,-1.46,397,465,240,312,237
1987,0.92,-0.4,-0.12,0.43,-1.89,-4.03,397,473,240,316,236
1988,0.91,-0.41,-0.13,1.77,-1.95,-4.33,399,467,242,314,240
1989,0.91,-0.41,-0.12,0.85,-2.75,-3.05,394,468,243,313,240
1990,0.9,-0.41,-0.11,-0.55,-2.75,-1.59,398,474,242,313,239
1991,0.89,-0.41,-0.12,-0.49,-3.48,-2.75,400,466,243,315,237
1992,0.91,-0.4,-0.13,-1.34,-3.3,-2.99,400,472,240,315,238
1993,0.91,-0.4,-0.13,-0.12,-1.89,-3.3,399,473,240,312,235
1994,0.9,-0.4,-0.12,0.79,-3.42,-2.87,397,473,240,313,237
1995,0.9,-0.4,-0.12,-1.1,-2.87,-2.62,399,465,238,314,234
1996,0.91,-0.4,-0.11,0.67,-2.93,-1.71,398,473,238,316,235
1997,0.9,-0.4,-0.12,2.5,-3.42,-1.04,395,474,242,317,235
1998,0.9,-0.41,-0.12,1.77,-2.5,-2.87,395,466,243,316,237
1999,0.9,-0.41,-0.14,0.37,-3.6,-2.5,397,466,238,313,237
2000,0.91,-0.4,-0.14,0.61,-3.66,-2.38,398,465,239,313,239
2001,0.9,-0.4,-0.14,1.77,-2.38,-2.56,399,471,238,314,233
2002,0.91,-0.4,-0.12,0.92,-2.26,-2.75,397,472,240,314,241
2003,0.91,-0.4,-0.13,0.55,-3.66,-2.5,398,471,239,312,240
