,aX,aY,aZ,gX,gY,gZ,little,ring,middle,index,thumb
0,0.97,-0.23,0.17,-2.62,-5.98,-2.62,327,445,442,281,248
1,0.98,-0.22,0.14,0.67,-4.46,-2.56,327,456,441,285,248
2,0.97,-0.22,0.15,-0.92,-2.08,-2.38,328,451,446,283,247
3,0.97,-0.23,0.15,0.73,-2.87,-1.65,328,459,444,286,245
4,0.96,-0.22,0.16,0.0,-2.38,-2.38,328,447,442,299,247
5,0.97,-0.23,0.16,1.1,-3.3,-2.26,333,455,439,283,246
6,0.97,-0.23,0.16,1.34,-3.48,-1.1,327,455,445,283,247
7,0.96,-0.22,0.16,-1.83,-5.49,-3.72,330,452,440,283,246
8,0.97,-0.22,0.15,-0.49,-3.11,-4.52,330,449,439,284,245
9,0.98,-0.23,0.15,-3.23,-5.8,-2.56,329,451,438,283,248
10,0.97,-0.22,0.15,0.61,-3.66,-1.59,327,452,439,280,247
11,0.97,-0.22,0.15,2.08,-2.93,-1.59,330,454,438,286,248
12,0.97,-0.22,0.17,0.18,-2.69,-1.1,329,451,444,281,246
13,0.97,-0.23,0.16,0.61,-2.56,-1.83,330,452,437,290,245
14,0.98,-0.22,0.16,0.24,-2.01,-1.89,331,452,433,284,247
15,0.96,-0.24,0.16,-1.46,-4.15,-0.24,331,455,436,284,248
16,0.96,-0.24,0.17,0.24,-3.23,-1.65,328,452,437,288,245
17,0.96,-0.24,0.16,-0.98,-3.3,-3.23,330,453,438,286,245
18,0.95,-0.25,0.17,-2.87,-2.44,-2.87,333,453,436,280,246
19,0.96,-0.23,0.18,1.04,-3.85,-2.14,330,452,436,282,244
20,0.96,-0.25,0.17,2.26,-2.5,-1.71,333,448,434,282,247
21,0.97,-0.25,0.16,1.4,-3.48,-4.03,331,452,430,286,247
22,0.95,-0.26,0.16,0.31,-3.48,-2.32,332,455,434,283,243
23,0.96,-0.26,0.16,0.61,-3.17,-1.77,331,456,438,284,245
24,0.96,-0.25,0.17,0.98,-2.75,-1.89,331,452,435,290,245
25,0.95,-0.26,0.16,1.04,-2.5,-2.62,333,452,433,280,246
26,0.95,-0.26,0.17,0.85,-1.16,-2.26,330,456,433,289,243
27,0.94,-0.25,0.18,-0.31,-0.98,-2.14,330,455,433,283,265
28,0.97,-0.25,0.17,0.92,-2.69,-1.34,327,453,433,286,245
29,0.95,-0.25,0.18,-0.06,-3.66,-2.2,334,453,435,286,245
30,0.95,-0.25,0.18,0.55,-2.44,-2.08,333,455,432,283,245
31,0.95,-0.26,0.18,1.28,-2.08,-2.5,332,454,433,286,245
32,0.96,-0.25,0.19,-0.06,-3.97,-1.89,330,453,432,290,245
33,0.96,-0.25,0.19,1.1,-2.56,-3.05,329,461,429,291,247
34,0.95,-0.25,0.19,-0.67,-2.87,-2.99,331,453,433,282,247
35,0.95,-0.25,0.19,0.79,-3.05,-2.81,334,453,443,281,247
36,0.96,-0.25,0.18,0.98,-3.78,-2.81,328,449,433,287,247
37,0.96,-0.26,0.18,0.0,-2.26,-4.09,333,455,430,287,248
38,0.95,-0.25,0.18,0.24,-2.08,-2.75,330,455,431,284,244
39,0.97,-0.26,0.18,2.99,-3.17,-2.26,332,450,431,286,245
40,0.95,-0.25,0.2,-1.04,-2.87,-3.42,330,456,433,291,245
41,0.95,-0.25,0.19,-1.34,-3.66,-2.26,331,458,434,287,248
42,0.96,-0.25,0.19,1.04,-3.72,-3.54,331,452,427,284,248
43,0.97,-0.25,0.19,2.26,-3.17,-3.6,332,459,432,283,248
44,0.96,-0.25,0.19,0.79,-2.87,-2.01,329,456,428,285,247
45,0.95,-0.25,0.19,1.1,-3.17,-2.32,330,457,428,285,247
46,0.95,-0.25,0.2,0.85,-2.93,-2.56,332,456,428,285,245
47,0.95,-0.27,0.19,-2.44,0.06,-4.39,331,456,434,287,250
48,0.96,-0.24,0.21,0.06,-3.36,-4.33,331,457,428,286,249
49,0.97,-0.26,0.18,0.31,-3.17,-4.88,331,453,427,282,248
50,0.97,-0.25,0.18,1.46,-1.28,-1.59,333,454,431,285,247
51,0.95,-0.26,0.19,-0.43,-2.87,-2.26,329,450,428,285,245
52,0.95,-0.26,0.19,-1.83,-5.43,0.79,327,454,429,282,248
53,0.95,-0.26,0.19,0.98,-2.14,-3.6,332,453,429,286,247
54,0.97,-0.27,0.17,3.91,-3.17,-3.97,331,453,427,285,243
55,0.96,-0.27,0.17,1.34,-2.99,-2.56,332,453,429,283,247
56,0.94,-0.26,0.19,1.65,-3.3,-1.71,328,455,428,286,253
57,0.94,-0.27,0.19,1.46,-2.14,-1.95,331,457,427,285,247
58,0.94,-0.25,0.2,0.31,-2.26,-1.89,329,454,429,286,246
59,0.96,-0.25,0.18,-0.79,-2.2,-0.79,327,460,424,282,245
60,0.95,-0.25,0.19,-2.01,-2.69,-0.12,333,455,428,288,247
61,0.95,-0.26,0.18,0.18,-2.99,-2.81,331,449,428,285,246
62,0.95,-0.26,0.18,0.49,-2.5,-3.97,329,454,425,284,244
63,0.95,-0.27,0.17,0.49,-3.42,-2.44,333,457,426,285,246
64,0.94,-0.27,0.18,-0.98,-1.46,-0.98,329,455,426,286,246
65,0.94,-0.27,0.18,-0.92,-2.32,-0.37,328,454,426,284,247
66,0.94,-0.26,0.19,-1.28,-2.62,-1.71,332,454,428,286,247
67,0.97,-0.27,0.17,-1.53,-1.71,-4.09,333,455,431,286,243
68,0.95,-0.25,0.2,1.04,-3.48,-2.08,331,457,425,287,246
69,0.96,-0.26,0.18,-1.53,-1.4,-6.53,332,456,425,285,244
70,0.93,-0.26,0.19,-0.73,-0.31,-5.13,332,457,425,282,246
71,0.96,-0.25,0.19,-0.55,-2.99,-2.08,333,454,426,284,247
72,0.94,-0.25,0.2,-0.92,-2.87,-2.38,333,453,425,284,242
73,0.95,-0.24,0.22,1.04,-1.53,-2.32,331,454,426,285,246
74,0.94,-0.26,0.21,1.04,-2.87,-4.82,332,454,427,287,248
75,0.95,-0.25,0.2,-0.73,-2.44,-2.08,332,453,425,285,247
76,0.96,-0.25,0.2,0.55,-3.42,-3.11,335,451,421,293,245
77,0.95,-0.25,0.21,-1.04,-2.08,-2.01,332,458,424,283,245
78,0.94,-0.24,0.22,-0.73,-2.81,-1.16,332,453,424,287,248
79,0.95,-0.24,0.22,-0.12,-3.3,-0.43,333,459,424,285,244
80,0.97,-0.24,0.21,0.98,-4.39,-3.11,331,452,424,286,244
81,0.94,-0.24,0.22,1.46,-2.93,-2.32,334,456,424,286,248
82,0.96,-0.23,0.22,2.14,-1.83,-1.89,334,457,421,288,247
83,0.96,-0.26,0.19,1.34,-4.03,-3.23,333,458,422,283,244
84,0.95,-0.25,0.21,1.1,-5.31,-1.28,330,450,423,287,246
85,0.94,-0.25,0.22,0.37,-4.09,-4.15,334,454,426,287,245
86,0.97,-0.23,0.22,-1.53,-1.95,-4.21,332,455,422,284,246
87,0.96,-0.24,0.2,2.87,-2.5,-3.42,332,454,420,294,245
88,0.96,-0.24,0.21,-1.04,-2.32,-3.05,330,455,427,287,242
89,0.95,-0.24,0.22,-1.83,-2.93,-3.3,329,458,423,286,246
90,0.94,-0.24,0.23,1.77,-3.11,-1.65,332,454,425,292,246
91,0.96,-0.27,0.19,0.43,-1.53,-1.04,333,455,425,286,243
92,0.96,-0.24,0.22,1.1,-2.38,-2.38,333,455,423,282,249
93,0.94,-0.25,0.22,1.28,-1.95,-2.93,335,455,421,283,246
94,0.98,-0.25,0.21,1.53,-3.72,0.06,332,455,424,285,249
95,0.97,-0.27,0.21,-2.08,-0.67,-1.46,333,455,422,286,244
96,0.94,-0.3,0.23,-0.61,-1.77,-1.89,328,455,424,285,247
97,0.92,-0.31,0.21,-3.48,-2.5,-1.22,334,459,424,287,247
98,0.93,-0.31,0.21,-1.04,-4.52,-3.97,332,454,426,289,245
99,0.95,-0.29,0.22,1.89,-2.44,-5.68,331,454,437,289,247
100,0.94,-0.28,0.23,0.24,-2.2,-4.94,329,451,422,293,243
101,0.94,-0.28,0.22,-1.46,-3.72,-2.14,336,454,416,285,248
102,0.94,-0.29,0.22,-1.04,-1.89,-2.5,334,459,420,287,248
103,0.95,-0.28,0.23,-0.06,-2.5,-3.48,333,454,421,285,248
104,0.93,-0.29,0.23,1.28,-2.62,-3.11,333,456,419,285,247
105,0.93,-0.29,0.24,1.28,-4.64,-3.85,329,456,426,286,245
106,0.95,-0.29,0.22,1.59,-3.11,-3.17,335,450,424,286,246
107,0.91,-0.29,0.24,-0.31,-1.95,-2.14,333,455,423,286,247
108,0.93,-0.29,0.24,3.85,-3.78,-0.79,333,455,420,289,247
109,0.92,-0.3,0.24,1.4,-2.26,1.04,333,455,422,284,245
110,0.92,-0.3,0.24,-0.79,-3.72,-0.98,332,455,419,284,245
111,0.92,-0.3,0.23,2.08,-4.09,-3.17,334,459,433,287,249
112,0.92,-0.29,0.22,0.92,-2.5,-2.44,332,459,421,286,245
113,0.93,-0.3,0.22,-0.55,-2.87,-0.98,333,455,421,286,245
114,0.92,-0.3,0.22,1.04,-3.17,-1.46,329,456,433,287,274
115,0.95,-0.28,0.23,1.34,-2.62,-3.11,332,455,421,287,246
116,0.92,-0.29,0.23,-1.28,-1.71,-2.38,332,460,423,286,245
117,0.94,-0.3,0.23,-0.37,-2.32,-2.81,332,455,418,289,249
118,0.95,-0.29,0.24,0.37,-4.58,0.12,329,459,420,288,256
119,0.97,-0.3,0.2,5.74,-1.65,-2.32,333,455,420,286,244
120,0.92,-0.3,0.22,0.43,-2.75,-5.92,336,453,420,286,270
121,0.93,-0.29,0.23,5.8,-0.43,1.77,332,453,420,287,235
122,0.92,-0.3,0.25,1.71,-3.91,-2.08,336,455,420,285,245
123,0.9,-0.3,0.25,-1.4,-3.42,-2.26,331,455,417,284,241
124,0.93,-0.28,0.24,-0.12,-2.2,-0.61,333,455,419,288,244
125,0.94,-0.29,0.24,-0.85,-3.3,-1.83,332,458,421,290,245
126,0.94,-0.29,0.24,0.92,-3.23,-1.59,333,451,419,285,247
127,0.94,-0.28,0.25,1.65,-3.23,-1.83,332,460,415,292,246
128,0.93,-0.3,0.24,0.61,-2.44,-3.05,328,460,420,288,248
129,0.91,-0.29,0.27,-0.12,-3.17,-1.71,337,456,421,294,245
130,0.93,-0.28,0.27,0.61,-2.93,-1.89,329,450,419,289,248
131,0.96,-0.3,0.24,2.81,-2.62,-2.2,333,450,418,287,244
132,0.92,-0.3,0.25,1.59,-2.81,-3.54,340,459,418,288,245
133,0.95,-0.29,0.26,0.98,-2.32,-2.99,333,454,419,286,246
134,0.96,-0.27,0.27,4.15,-3.72,-4.88,331,459,418,287,247
135,0.93,-0.29,0.25,0.43,-2.93,-2.99,330,456,419,290,245
136,0.93,-0.29,0.25,0.85,-3.23,-2.69,334,458,417,287,244
137,0.93,-0.3,0.25,0.0,-2.75,-2.75,332,456,418,289,247
138,0.94,-0.29,0.25,1.4,-2.32,-2.01,332,459,418,287,268
139,0.94,-0.29,0.25,-0.55,-3.11,-1.89,333,461,418,286,245
140,0.96,-0.28,0.25,1.46,-2.69,-1.53,335,454,419,295,248
141,0.95,-0.29,0.25,2.75,-3.91,-3.3,334,455,416,285,246
142,0.93,-0.3,0.24,-0.06,-2.01,-2.99,333,457,418,286,245
143,0.93,-0.29,0.25,0.06,-2.99,-3.11,330,458,418,289,248
144,0.92,-0.29,0.25,-0.12,-3.97,-2.81,334,459,424,288,245
145,0.93,-0.29,0.25,-0.55,-3.11,-2.99,333,456,417,288,247
146,0.93,-0.28,0.26,0.12,-1.83,-2.93,336,457,417,285,245
147,0.92,-0.29,0.26,-0.61,-2.26,-3.05,335,454,417,286,245
148,0.94,-0.28,0.26,1.71,-2.38,-2.14,327,459,417,286,247
149,0.94,-0.28,0.26,2.32,-2.69,-3.66,333,459,416,283,244
150,0.93,-0.29,0.25,0.49,-2.81,-2.08,333,458,416,285,248
151,0.93,-0.29,0.26,0.43,-3.05,-2.08,330,455,415,286,246
152,0.93,-0.29,0.26,-1.22,-2.62,-2.5,334,457,418,292,244
153,0.93,-0.29,0.25,0.0,-2.75,-2.56,329,454,411,286,245
154,0.92,-0.31,0.24,-0.06,-3.72,-2.93,334,450,417,286,245
155,0.93,-0.3,0.24,-0.61,-2.32,-2.93,334,457,414,288,244
156,0.94,-0.29,0.24,-0.24,-3.17,-2.81,334,460,414,287,247
157,0.93,-0.29,0.25,1.04,-3.17,-3.36,333,457,415,291,245
158,0.93,-0.29,0.25,0.73,-3.85,-2.44,333,459,413,286,243
159,0.93,-0.28,0.26,0.06,-3.05,-1.95,334,456,412,286,272
160,0.94,-0.29,0.25,0.18,-2.62,-2.44,333,456,411,283,244
161,0.93,-0.29,0.26,0.85,-3.23,-1.95,334,457,415,286,244
162,0.93,-0.28,0.25,-0.43,-3.85,-2.14,331,457,412,286,248
163,0.94,-0.29,0.25,2.62,-2.56,-2.32,334,459,418,287,248
164,0.93,-0.29,0.25,0.55,-3.6,-2.38,333,456,413,284,247
165,0.94,-0.3,0.24,1.1,-2.01,-2.26,333,451,415,296,247
166,0.93,-0.28,0.26,0.79,-2.99,-3.72,334,455,415,285,245
167,0.93,-0.28,0.26,-0.61,-2.38,-2.62,332,462,418,288,245
168,0.94,-0.28,0.25,-0.85,-2.81,-3.23,333,453,428,292,247
169,0.94,-0.29,0.24,1.28,-4.15,-1.95,329,455,414,287,245
170,0.93,-0.28,0.25,0.73,-2.81,-2.87,336,451,415,287,245
171,0.94,-0.27,0.26,0.12,-2.93,-3.23,333,458,415,290,242
172,0.93,-0.28,0.26,-0.24,-2.5,-2.75,322,450,414,287,249
173,0.94,-0.27,0.26,1.04,-2.14,-3.72,333,458,417,287,245
174,0.93,-0.27,0.26,1.04,-3.11,-3.3,333,460,417,288,246
175,0.94,-0.27,0.26,-0.18,-3.48,-2.62,332,460,415,288,245
176,0.94,-0.27,0.25,0.06,-2.38,-2.26,331,458,412,288,246
177,0.93,-0.27,0.26,-0.31,-2.93,-2.56,333,450,410,290,249
178,0.92,-0.28,0.25,-1.4,-2.75,-2.56,335,459,415,287,248
179,0.93,-0.28,0.25,-0.12,-3.11,-2.56,331,459,415,290,245
180,0.93,-0.27,0.26,-0.12,-2.38,-2.38,330,455,413,289,247
181,0.94,-0.27,0.25,-0.06,-1.83,-2.5,332,459,417,285,247
182,0.94,-0.27,0.25,0.49,-3.91,-1.65,332,455,413,289,247
183,0.93,-0.27,0.25,0.18,-2.93,-2.32,335,460,411,287,245
184,0.94,-0.27,0.25,1.16,-3.36,-3.17,333,455,411,290,247
185,0.93,-0.27,0.25,0.67,-2.62,-2.75,335,459,411,290,247
186,0.93,-0.27,0.25,-0.55,-2.32,-2.99,335,453,414,287,243
187,0.94,-0.27,0.25,0.79,-2.99,-2.62,336,450,416,288,248
188,0.94,-0.27,0.25,0.98,-2.32,-1.71,332,457,409,287,248
189,0.94,-0.25,0.27,-2.32,-3.85,-3.11,336,463,415,291,247
190,0.95,-0.25,0.26,-1.4,-2.38,-4.64,334,456,410,289,247
191,0.92,-0.25,0.28,-0.37,-3.17,-0.31,334,458,411,287,243
192,0.94,-0.27,0.25,0.98,-3.3,-1.1,332,453,411,290,245
193,0.92,-0.26,0.26,0.49,-2.75,-2.32,332,458,415,288,245
194,0.94,-0.26,0.25,0.79,-1.34,-4.21,333,457,414,291,247
195,0.94,-0.26,0.26,1.53,-3.05,-2.14,333,454,411,285,248
196,0.95,-0.25,0.26,2.2,-3.23,-2.93,333,458,413,288,246
197,0.93,-0.26,0.26,0.18,-3.05,-3.23,332,454,412,286,243
198,0.94,-0.28,0.25,-0.43,-4.15,-1.95,331,452,408,287,245
199,0.94,-0.28,0.25,-0.85,-3.66,-2.5,336,458,416,288,246
200,0.93,-0.26,0.26,1.34,-2.93,-3.42,333,456,412,288,246
201,0.93,-0.27,0.25,0.85,-3.97,-2.01,335,455,414,288,246
202,0.94,-0.27,0.25,1.28,-3.6,-2.5,333,455,414,288,246
203,0.94,-0.27,0.25,-0.61,-2.26,-2.32,335,451,414,286,247
204,0.94,-0.27,0.25,-0.12,-2.2,-2.69,331,459,412,290,243
205,0.95,-0.28,0.24,-0.31,-3.48,-0.24,330,450,408,291,246
206,0.94,-0.27,0.25,-1.04,-5.25,-4.39,334,455,413,290,249
207,0.91,-0.26,0.28,-5.98,-4.76,-5.07,335,458,416,287,244
208,0.94,-0.27,0.23,1.16,-2.69,-2.56,331,459,411,287,246
209,0.96,-0.28,0.22,1.4,-2.62,-0.85,330,456,414,291,246
210,0.95,-0.29,0.22,1.59,-3.6,-3.23,332,456,411,286,249
211,0.94,-0.28,0.23,-1.77,-3.05,0.67,329,454,413,288,245
212,0.93,-0.27,0.25,-2.75,-3.05,-1.83,327,453,416,289,248
213,0.94,-0.29,0.22,-0.98,-3.91,-0.98,334,455,413,288,246
214,0.92,-0.32,0.22,1.22,-3.6,-5.43,335,451,408,285,244
215,0.95,-0.31,0.21,4.58,-5.74,-4.58,333,454,410,289,248
216,0.92,-0.29,0.23,0.18,-2.99,-4.52,338,458,414,291,246
217,0.92,-0.29,0.21,-1.59,-3.42,-2.08,332,455,412,285,247
218,0.93,-0.28,0.23,-1.04,-2.08,-0.73,334,455,409,291,246
219,0.93,-0.29,0.22,0.0,-1.77,-1.34,333,451,413,291,249
220,0.93,-0.27,0.24,0.98,-2.2,-2.87,333,450,411,291,247
221,0.93,-0.29,0.23,-0.31,-2.62,-2.62,333,459,414,291,248
222,0.95,-0.27,0.24,0.55,-2.01,-3.17,330,458,414,285,248
223,0.96,-0.27,0.23,0.92,-4.46,-2.62,335,454,411,287,249
224,0.94,-0.28,0.23,0.49,-5.0,-1.95,333,458,410,287,247
225,0.94,-0.27,0.23,1.95,-2.56,-2.56,332,458,411,287,245
226,0.94,-0.26,0.24,0.49,-2.01,-2.69,335,454,410,290,243
227,0.93,-0.27,0.24,1.4,-3.78,-2.81,334,450,411,288,246
228,0.94,-0.28,0.22,0.85,-2.87,-2.56,334,455,411,291,250
229,0.94,-0.27,0.23,0.31,-3.6,-2.08,333,453,414,289,246
230,0.94,-0.27,0.23,0.61,-3.36,-2.44,334,455,411,289,249
231,0.95,-0.27,0.23,1.04,-3.17,-1.46,334,450,407,289,246
232,0.94,-0.26,0.24,0.55,-3.36,-3.23,335,458,413,288,244
233,0.94,-0.27,0.24,1.77,-2.56,-3.11,334,454,410,290,248
234,0.94,-0.27,0.24,0.31,-2.87,-2.14,336,452,408,295,246
235,0.94,-0.26,0.25,1.28,-2.99,-2.69,330,452,411,289,248
236,0.93,-0.27,0.24,0.73,-3.48,-2.81,334,457,410,287,244
237,0.93,-0.25,0.26,0.67,-2.62,-2.14,335,454,411,294,246
238,0.93,-0.26,0.25,0.61,-2.69,-3.11,334,460,409,289,250
239,0.94,-0.26,0.25,1.59,-1.89,-2.26,334,455,409,289,247
240,0.94,-0.27,0.24,0.06,-3.54,-1.83,330,453,406,291,246
241,0.94,-0.26,0.24,0.61,-2.08,-3.66,333,455,411,291,246
242,0.94,-0.26,0.25,-0.12,-2.69,-1.77,336,459,411,288,247
243,0.94,-0.26,0.25,-0.06,-4.15,-1.34,334,455,408,288,248
244,0.94,-0.25,0.26,0.12,-3.11,-1.65,334,450,411,288,246
245,0.94,-0.27,0.25,0.24,-2.87,-2.26,337,454,411,289,273
246,0.93,-0.26,0.25,0.85,-2.75,-2.44,331,452,406,290,254
247,0.94,-0.28,0.24,0.92,-2.75,-2.69,333,450,409,291,246
248,0.93,-0.27,0.25,-0.67,-3.85,-3.85,334,451,409,289,248
249,0.94,-0.26,0.25,-0.12,-2.08,-3.91,334,456,409,291,249
250,0.94,-0.27,0.24,0.43,-2.75,-2.2,334,455,410,290,247
251,0.94,-0.27,0.25,-0.67,-2.93,-1.46,332,452,409,291,246
252,0.94,-0.27,0.24,1.46,-4.03,-3.42,331,453,410,291,247
253,0.94,-0.27,0.24,0.85,-4.33,-4.52,336,456,409,288,247
254,0.94,-0.25,0.26,0.98,-2.62,-2.93,334,450,411,289,246
255,0.93,-0.26,0.25,0.24,-3.05,-2.87,334,455,406,293,247
256,0.95,-0.26,0.25,1.04,-2.14,-3.48,333,451,411,290,246
257,0.93,-0.27,0.24,-0.12,-2.93,-2.01,336,455,409,288,249
258,0.93,-0.27,0.25,0.37,-2.81,-3.36,335,457,408,288,244
259,0.94,-0.26,0.25,1.1,-2.75,-2.87,332,455,407,288,248
260,0.95,-0.25,0.25,0.85,-3.48,-2.56,334,459,408,291,246
261,0.94,-0.26,0.25,0.37,-1.89,-2.44,336,455,412,291,248
262,0.96,-0.26,0.25,1.28,-4.64,-3.11,329,452,408,288,249
263,0.94,-0.26,0.25,0.31,-2.5,-2.87,334,456,411,288,247
264,0.94,-0.27,0.24,-0.18,-2.99,-4.03,334,453,409,291,244
265,0.93,-0.27,0.24,-0.98,-2.44,-2.69,333,455,407,290,254
266,0.93,-0.27,0.24,-1.77,-4.33,-2.26,331,456,406,287,248
267,0.94,-0.26,0.24,-0.37,-4.09,-2.2,332,458,408,289,250
268,0.94,-0.28,0.23,0.06,-3.72,-1.4,335,459,406,288,237
269,0.92,-0.26,0.25,0.24,-4.94,1.04,334,455,412,288,247
270,0.93,-0.3,0.2,-1.04,-2.32,-4.64,335,458,408,294,256
271,0.94,-0.28,0.22,0.31,-1.53,-1.71,333,457,410,291,245
272,0.94,-0.28,0.22,-1.65,-1.53,-3.3,334,455,408,290,248
273,0.94,-0.28,0.23,0.31,-3.97,-3.85,331,456,408,288,247
274,0.95,-0.28,0.22,-1.59,-2.14,-2.62,335,459,408,288,247
275,0.95,-0.27,0.22,-0.67,-2.81,-0.73,334,453,408,289,246
276,0.94,-0.28,0.23,0.37,-2.01,0.0,336,458,410,292,249
277,0.94,-0.28,0.23,-0.31,-2.5,-2.56,333,454,406,292,247
278,0.91,-0.3,0.22,0.12,-4.03,-1.22,336,458,407,290,248
279,0.92,-0.3,0.2,-2.26,-1.71,-0.55,332,451,409,294,248
280,0.94,-0.29,0.21,2.01,-3.6,-4.64,340,461,409,290,246
281,0.94,-0.27,0.23,1.04,-3.23,-2.26,334,454,407,289,250
282,0.93,-0.32,0.19,-4.33,-4.27,-2.87,336,450,408,290,246
283,0.96,-0.29,0.21,-1.28,-4.52,1.46,334,451,401,288,249
284,0.94,-0.3,0.22,4.88,-5.37,-3.05,334,455,405,287,247
285,0.93,-0.33,0.2,1.46,-1.65,-3.36,331,459,407,286,263
286,0.94,-0.32,0.2,1.89,-1.1,-3.85,337,454,404,287,246
287,0.94,-0.3,0.22,4.58,-4.03,-6.53,334,456,407,288,247
288,0.97,-0.32,0.16,0.43,-6.77,-10.01,335,458,404,285,249
289,0.96,-0.25,0.2,3.54,4.15,-9.16,342,453,405,289,247
290,0.97,-0.25,0.2,3.42,-2.99,-4.03,337,459,405,290,248
291,0.94,-0.25,0.21,-0.49,-0.67,-1.77,337,454,406,289,249
292,0.95,-0.24,0.22,0.37,-1.53,0.06,341,460,404,291,248
293,0.96,-0.25,0.21,1.46,-2.26,-3.23,334,458,406,289,249
294,0.95,-0.26,0.21,0.92,-3.11,-1.59,334,455,418,286,250
295,0.95,-0.25,0.21,-0.18,-3.11,-2.87,336,457,410,287,249
296,0.95,-0.25,0.23,0.61,-3.36,-2.2,332,459,408,291,250
297,0.95,-0.26,0.21,2.93,-1.89,-2.81,334,455,405,288,255
298,0.95,-0.27,0.21,1.04,-3.05,-2.62,336,460,407,292,250
299,0.95,-0.26,0.22,0.92,-1.4,-2.62,335,459,407,293,248
300,0.95,-0.26,0.22,-0.73,-2.81,-1.46,337,456,408,292,248
301,0.95,-0.25,0.24,-0.61,-2.38,-1.34,335,460,409,293,249
302,0.94,-0.26,0.23,-0.73,-3.11,-1.89,336,455,405,292,249
303,0.94,-0.26,0.24,1.89,-2.38,-2.01,339,465,406,292,250
304,0.93,-0.26,0.23,0.37,-2.32,-2.32,335,455,407,290,250
305,0.94,-0.26,0.23,1.22,-3.05,-1.65,334,459,408,291,248
306,0.93,-0.27,0.23,1.59,-2.75,-1.22,335,466,405,290,248
307,0.95,-0.26,0.22,0.55,-3.97,-2.75,345,450,408,289,245
308,0.93,-0.26,0.24,-1.89,-2.26,-2.62,333,460,410,289,247
309,0.93,-0.27,0.23,0.18,-3.17,-2.75,335,455,405,288,250
310,0.95,-0.27,0.23,-1.77,-1.77,-4.03,335,457,405,293,263
311,0.96,-0.26,0.22,0.73,-4.58,-2.44,334,453,407,288,243
312,0.95,-0.27,0.22,1.22,-2.69,-2.87,336,455,405,290,250
313,0.95,-0.27,0.23,1.77,-2.81,-2.87,336,456,404,292,249
314,0.95,-0.26,0.23,0.92,-2.2,-3.05,333,459,407,296,249
315,0.94,-0.26,0.24,1.22,-2.81,-2.26,337,455,404,289,253
316,0.94,-0.26,0.24,1.16,-2.93,-2.81,331,458,406,290,256
317,0.95,-0.26,0.24,-0.79,-2.69,-2.93,330,457,402,292,248
318,0.94,-0.26,0.24,0.24,-2.87,-3.3,337,455,404,289,247
319,0.94,-0.26,0.23,0.18,-3.05,-3.66,336,451,404,289,249
320,0.93,-0.27,0.23,2.01,-3.42,-3.05,335,456,403,288,250
321,0.94,-0.26,0.23,1.22,-3.3,-2.5,336,459,404,286,249
322,0.95,-0.26,0.23,-0.24,-1.77,-2.2,335,449,400,293,248
323,0.95,-0.26,0.23,1.53,-2.56,-2.62,331,457,398,293,248
324,0.95,-0.27,0.23,0.43,-2.69,-2.08,337,454,397,292,248
325,0.95,-0.27,0.23,0.43,-3.42,-1.65,330,456,400,287,249
326,0.94,-0.26,0.23,-0.61,-2.93,-2.75,335,455,402,291,250
327,0.94,-0.26,0.23,0.31,-3.91,-1.83,339,459,405,292,251
328,0.95,-0.26,0.23,0.49,-3.54,-2.38,335,455,398,291,250
329,0.95,-0.25,0.24,-0.85,-2.69,-2.38,330,459,398,285,248
330,0.94,-0.26,0.24,0.12,-2.93,-1.83,334,459,402,289,250
331,0.94,-0.26,0.24,0.79,-2.14,-3.42,332,458,403,289,249
332,0.95,-0.26,0.24,-1.04,-3.42,-1.65,332,450,401,292,262
333,0.94,-0.26,0.25,0.61,-2.38,-2.26,335,456,403,289,249
334,0.94,-0.26,0.24,0.43,-3.78,-1.59,337,450,397,291,254
335,0.94,-0.26,0.23,-0.49,-3.42,-2.69,336,457,405,286,251
336,0.94,-0.26,0.24,0.98,-2.38,-2.56,343,459,402,286,250
337,0.93,-0.27,0.24,0.0,-2.2,-3.23,337,458,396,292,248
338,0.94,-0.28,0.23,-1.04,-2.99,-2.38,337,453,402,290,250
339,0.94,-0.27,0.23,1.34,-3.23,-2.26,331,456,402,286,250
340,0.95,-0.27,0.24,1.04,-3.3,-2.69,330,450,402,292,250
341,0.95,-0.26,0.24,0.43,-4.03,-2.26,333,455,399,289,250
342,0.94,-0.27,0.24,1.22,-3.54,-2.69,334,454,400,289,247
343,0.95,-0.27,0.24,0.18,-3.23,-1.34,336,457,400,285,247
344,0.93,-0.27,0.23,-0.55,-3.48,-1.34,339,450,402,290,248
345,0.94,-0.27,0.24,1.4,-3.05,-1.65,335,456,397,286,246
346,0.93,-0.26,0.25,0.67,-3.17,-2.44,337,457,400,290,247
347,0.94,-0.26,0.25,0.31,-2.69,-2.99,334,456,398,292,247
348,0.94,-0.27,0.25,-0.43,-4.46,-1.59,334,450,402,289,250
349,0.93,-0.27,0.24,1.1,-3.11,-2.14,334,459,403,289,250
350,0.94,-0.27,0.24,-0.85,-3.42,-1.89,328,455,402,293,247
351,0.94,-0.28,0.23,0.24,-3.23,-3.11,338,456,398,291,248
352,0.94,-0.27,0.24,1.59,-2.56,-2.81,334,456,400,289,275
353,0.94,-0.27,0.25,-0.12,-2.62,-2.44,336,456,400,290,249
354,0.93,-0.27,0.25,0.49,-3.42,-1.46,331,459,400,290,247
355,0.93,-0.27,0.25,0.73,-2.56,-2.44,334,456,399,289,249
356,0.94,-0.27,0.24,0.43,-2.75,-3.05,333,451,405,292,277
357,0.95,-0.27,0.24,0.92,-2.75,-2.75,335,457,400,292,248
358,0.94,-0.27,0.24,0.98,-2.87,-2.69,334,457,401,292,247
359,0.94,-0.29,0.23,2.08,-3.36,-3.36,337,459,400,290,245
360,0.92,-0.29,0.23,-0.18,-3.97,-4.58,337,454,403,288,249
361,0.93,-0.27,0.25,-0.73,-2.81,-2.56,333,453,402,290,247
362,0.93,-0.28,0.24,0.49,-3.05,-2.75,335,456,400,293,247
363,0.93,-0.28,0.24,1.16,-3.78,-2.87,342,451,400,287,250
364,0.94,-0.26,0.25,2.69,-4.58,-2.32,333,455,403,289,247
365,0.96,-0.26,0.23,2.32,-2.26,-1.95,333,453,401,292,248
366,0.94,-0.29,0.23,0.55,-2.75,-2.56,334,457,401,292,248
367,0.94,-0.27,0.25,1.34,-2.87,-2.56,335,456,399,289,250
368,0.94,-0.27,0.24,2.38,-2.75,-4.15,332,460,396,290,247
369,0.93,-0.27,0.23,2.2,-4.58,-2.01,333,455,398,290,252
370,0.91,-0.27,0.24,-1.34,-4.46,-4.21,338,452,399,286,250
371,0.93,-0.25,0.25,-3.17,-0.49,-0.43,331,457,404,290,248
372,0.94,-0.26,0.24,0.49,-3.66,-0.73,336,459,403,291,247
373,0.94,-0.26,0.24,1.16,-2.75,-3.48,337,452,398,287,244
374,0.94,-0.26,0.24,-0.06,-3.05,-2.56,334,459,399,289,247
375,0.93,-0.26,0.24,-2.38,-2.99,-3.05,334,456,400,293,250
376,0.94,-0.25,0.25,-0.12,-2.93,-0.61,335,460,400,287,250
377,0.95,-0.26,0.23,-2.5,-2.26,-4.64,335,456,400,289,248
378,0.94,-0.25,0.24,-1.95,-1.71,-2.56,334,456,398,291,247
379,0.93,-0.25,0.25,-0.31,-2.5,-1.65,334,455,402,293,247
380,0.94,-0.24,0.25,0.12,-2.08,-2.2,334,460,399,292,250
381,0.95,-0.25,0.25,0.37,-2.14,-3.6,334,462,401,291,253
382,0.94,-0.26,0.24,0.98,-2.14,-2.75,331,459,402,292,259
383,0.94,-0.25,0.25,1.22,-3.91,-2.75,335,451,397,293,248
384,0.95,-0.26,0.24,1.28,-2.62,-2.69,334,455,396,286,248
385,0.94,-0.24,0.25,2.44,-3.72,-2.75,334,459,398,292,249
386,0.96,-0.25,0.24,2.01,-4.46,-2.87,334,458,399,290,246
387,0.94,-0.24,0.25,1.16,-3.23,-2.44,334,457,399,290,247
388,0.94,-0.24,0.24,-0.31,-2.93,-2.32,336,456,400,289,249
389,0.94,-0.25,0.24,-0.67,-2.44,-2.26,330,452,400,292,244
390,0.95,-0.24,0.25,0.98,-2.01,-2.14,331,459,401,291,248
391,0.96,-0.23,0.24,-3.17,-6.53,-1.77,333,456,395,287,247
392,0.91,-0.27,0.24,2.5,-5.25,-0.61,333,455,401,291,245
393,0.93,-0.28,0.21,-0.12,-2.69,-2.5,334,457,399,290,248
394,0.94,-0.29,0.2,-0.06,-2.81,-1.71,337,457,401,291,249
395,0.94,-0.26,0.22,-0.61,-1.34,-4.27,335,457,397,289,249
396,0.96,-0.26,0.2,-1.16,-1.83,-1.65,334,451,398,290,244
397,0.94,-0.26,0.21,1.65,-2.5,-3.17,334,450,400,294,248
398,0.95,-0.25,0.22,-0.06,-4.33,-1.71,335,456,400,290,249
399,0.94,-0.25,0.22,0.49,-2.44,-1.71,335,451,396,288,257
400,0.94,-0.26,0.21,-1.1,-2.26,-2.62,332,455,398,292,247
401,0.96,-0.26,0.2,-0.18,-1.4,-2.2,332,453,397,292,248
402,0.95,-0.25,0.22,-0.37,-2.01,-3.11,335,455,398,290,247
403,0.94,-0.26,0.23,0.31,-3.11,-1.22,335,455,398,292,247
404,0.94,-0.27,0.22,-0.31,-2.01,-2.01,332,458,402,292,248
405,0.95,-0.27,0.22,0.55,-3.54,-2.38,334,454,398,289,248
406,0.94,-0.27,0.22,-0.49,-2.62,-2.81,331,457,398,290,250
407,0.94,-0.26,0.23,0.43,-1.89,-2.01,335,451,398,291,244
408,0.96,-0.27,0.22,-0.55,-1.83,-1.65,336,461,401,291,271
409,0.96,-0.26,0.23,1.04,-3.48,-2.5,332,455,398,289,252
410,0.95,-0.27,0.23,0.79,-3.05,-1.22,331,450,399,292,247
411,0.94,-0.27,0.23,-0.06,-2.38,-1.4,335,455,396,291,250
412,0.95,-0.27,0.23,-0.79,-3.23,-1.34,335,462,396,291,249
413,0.91,-0.28,0.24,-1.16,-2.26,-0.79,333,449,398,291,249
414,0.94,-0.29,0.22,2.32,-3.78,-3.23,334,465,400,292,250
415,0.94,-0.28,0.23,-0.31,-2.69,-2.2,334,455,397,294,248
416,0.95,-0.27,0.24,1.53,-2.93,-1.28,333,455,394,291,249
417,0.94,-0.27,0.24,0.43,-2.75,-1.59,334,457,396,292,249
418,0.94,-0.27,0.24,-0.92,-2.56,-1.89,336,459,397,293,247
419,0.93,-0.28,0.23,0.67,-2.62,-3.36,337,458,399,290,249
420,0.94,-0.27,0.24,1.71,-2.99,-3.17,336,463,400,292,276
421,0.94,-0.27,0.23,0.79,-3.42,-2.81,335,458,400,292,250
422,0.95,-0.27,0.23,1.34,-3.36,-2.69,338,456,397,292,250
423,0.94,-0.27,0.24,0.43,-3.54,-2.32,331,459,397,289,247
424,0.94,-0.28,0.23,1.65,-2.99,-2.93,331,451,399,290,248
425,0.94,-0.27,0.24,0.0,-2.56,-3.54,335,455,394,292,251
426,0.93,-0.27,0.23,0.18,-2.5,-2.5,333,454,397,290,248
427,0.94,-0.26,0.24,0.31,-2.81,-3.6,335,458,400,291,248
428,0.94,-0.27,0.23,0.79,-2.69,-2.62,333,455,400,293,246
429,0.94,-0.26,0.25,1.1,-2.99,-1.95,333,458,399,297,249
430,0.95,-0.27,0.23,-2.69,-3.05,-4.15,338,453,396,290,247
431,0.94,-0.27,0.23,1.4,-2.87,-3.11,334,458,399,288,244
432,0.94,-0.27,0.23,1.34,-3.05,-3.17,338,451,397,292,247
433,0.94,-0.26,0.24,-0.37,-1.65,-2.81,337,456,396,291,249
434,0.94,-0.27,0.23,0.79,-2.14,-3.11,337,455,397,292,249
435,0.94,-0.26,0.24,0.24,-2.5,-1.77,333,455,397,289,248
436,0.95,-0.27,0.24,0.43,-3.11,-2.69,332,456,395,292,247
437,0.95,-0.27,0.23,0.49,-3.54,-2.87,336,455,396,291,250
438,0.95,-0.26,0.23,0.31,-3.78,-2.38,337,459,397,290,248
439,0.94,-0.26,0.24,1.22,-4.03,-2.5,335,456,397,292,248
440,0.94,-0.27,0.23,-0.18,-1.83,-2.5,335,456,396,291,250
441,0.95,-0.28,0.22,0.31,-2.2,-1.89,331,456,393,289,248
442,0.95,-0.28,0.23,0.12,-2.44,-2.2,336,451,393,292,249
443,0.93,-0.28,0.23,2.75,-3.42,-3.97,332,456,396,290,243
444,0.92,-0.27,0.25,0.43,-3.3,-2.01,334,454,395,291,247
445,0.93,-0.27,0.24,0.73,-2.99,-3.85,333,456,397,287,245
446,0.94,-0.27,0.25,1.1,-3.97,-2.75,334,454,393,293,247
447,0.94,-0.27,0.24,2.38,-3.78,-2.93,336,455,395,286,247
448,0.96,-0.26,0.24,1.83,-4.52,-4.03,337,456,395,292,250
449,0.94,-0.28,0.23,1.89,-2.81,-3.17,336,456,397,292,243
450,0.94,-0.28,0.23,-0.49,-2.99,-2.38,332,456,397,287,249
451,0.95,-0.27,0.23,2.56,-3.05,-2.2,335,455,403,291,245
452,0.94,-0.28,0.23,-0.06,-2.69,-2.26,330,464,396,288,250
453,0.94,-0.27,0.24,-0.49,-2.44,-2.44,335,455,400,289,250
454,0.94,-0.28,0.24,1.1,-3.36,-1.77,332,458,399,288,248
455,0.93,-0.28,0.23,-0.06,-3.85,-3.54,335,455,397,292,250
456,0.94,-0.27,0.23,0.37,-2.99,-2.14,335,455,397,290,248
457,0.93,-0.27,0.24,1.34,-3.72,-2.87,334,457,396,292,249
458,0.95,-0.26,0.24,1.34,-2.2,-1.22,334,460,401,287,249
459,0.95,-0.26,0.24,0.24,-3.05,-3.36,334,459,397,291,251
460,0.92,-0.29,0.23,3.42,-3.91,-5.07,332,455,401,292,247
461,0.92,-0.28,0.23,-1.16,-3.23,-2.5,334,459,396,291,251
462,0.94,-0.26,0.25,-1.22,-1.83,-2.62,336,455,397,290,248
463,0.95,-0.26,0.23,-1.04,-3.42,-2.99,335,455,396,293,248
464,0.97,-0.23,0.27,5.68,-8.48,-3.48,336,455,396,291,247
465,0.95,-0.22,0.26,1.77,-2.87,-2.5,337,455,398,293,245
466,0.95,-0.23,0.26,1.77,-3.23,-3.42,335,451,396,289,262
467,0.95,-0.22,0.27,0.0,-2.56,-2.44,336,455,393,290,247
468,0.94,-0.24,0.25,-0.98,-3.42,-0.98,335,455,395,293,248
469,0.93,-0.24,0.26,0.67,-3.91,-1.53,334,458,395,290,249
470,0.95,-0.23,0.26,0.24,-2.99,-2.56,333,456,396,287,248
471,0.95,-0.24,0.25,-0.18,-1.77,-3.17,334,460,395,293,246
472,0.94,-0.25,0.25,-0.73,-2.38,-2.26,337,459,396,292,249
473,0.95,-0.24,0.26,-0.73,-2.99,-2.01,336,452,397,293,249
474,0.95,-0.23,0.27,1.04,-2.99,-1.71,334,458,394,296,250
475,0.94,-0.24,0.26,0.24,-2.81,-2.26,334,455,395,291,249
476,0.95,-0.24,0.26,1.22,-3.23,-2.87,331,452,396,289,247
477,0.95,-0.25,0.25,1.1,-2.62,-2.75,335,452,398,296,250
478,0.95,-0.24,0.26,2.44,-2.75,-3.11,335,451,391,291,247
479,0.95,-0.23,0.26,0.92,-3.48,-2.2,335,450,398,290,247
480,0.94,-0.24,0.26,0.37,-2.32,-2.5,335,454,400,293,249
481,0.94,-0.24,0.26,0.49,-2.44,-2.69,334,450,395,290,248
482,0.94,-0.24,0.26,-0.61,-3.85,-2.08,334,454,393,291,247
483,0.94,-0.25,0.25,0.85,-4.15,-2.87,334,457,397,294,249
484,0.94,-0.25,0.25,-0.73,-1.77,-2.56,334,457,396,291,249
485,0.95,-0.25,0.25,-0.37,-2.87,-2.75,334,455,395,288,250
486,0.93,-0.25,0.26,-0.55,-1.95,-3.6,338,458,392,290,247
487,0.93,-0.25,0.25,-0.73,-2.62,-3.05,335,459,396,290,250
488,0.94,-0.25,0.25,1.1,-2.93,-1.95,333,454,396,290,248
489,0.97,-0.25,0.26,1.34,-3.78,-2.32,337,455,393,293,247
490,0.94,-0.24,0.27,0.92,-3.36,-3.85,336,458,396,292,249
491,0.94,-0.25,0.26,-0.49,-2.56,-3.23,332,458,393,293,250
492,0.94,-0.24,0.26,-0.06,-2.2,-3.17,333,455,397,290,248
493,0.95,-0.25,0.25,0.73,-2.14,-2.56,332,459,398,290,249
494,0.95,-0.24,0.26,1.65,-3.54,-2.2,333,456,395,291,256
495,0.94,-0.24,0.27,0.49,-2.2,-2.81,337,450,393,292,250
496,0.94,-0.24,0.26,0.55,-3.17,-2.38,337,454,395,291,251
497,0.94,-0.25,0.25,0.49,-3.66,-3.66,335,460,395,291,248
498,0.94,-0.24,0.26,1.04,-3.48,-2.2,334,453,394,294,246
499,0.95,-0.24,0.26,-1.1,-1.34,-3.17,335,455,395,291,251
500,0.94,-0.24,0.26,-0.55,-2.01,-2.08,337,450,394,294,251
501,0.97,-0.23,0.17,-2.62,-5.98,-2.62,327,445,442,281,248
502,0.98,-0.22,0.14,0.67,-4.46,-2.56,327,456,441,285,248
503,0.97,-0.22,0.15,-0.92,-2.08,-2.38,328,451,446,283,247
504,0.97,-0.23,0.15,0.73,-2.87,-1.65,328,459,444,286,245
505,0.96,-0.22,0.16,0.0,-2.38,-2.38,328,447,442,299,247
506,0.97,-0.23,0.16,1.1,-3.3,-2.26,333,455,439,283,246
507,0.97,-0.23,0.16,1.34,-3.48,-1.1,327,455,445,283,247
508,0.96,-0.22,0.16,-1.83,-5.49,-3.72,330,452,440,283,246
509,0.97,-0.22,0.15,-0.49,-3.11,-4.52,330,449,439,284,245
510,0.98,-0.23,0.15,-3.23,-5.8,-2.56,329,451,438,283,248
511,0.97,-0.22,0.15,0.61,-3.66,-1.59,327,452,439,280,247
512,0.97,-0.22,0.15,2.08,-2.93,-1.59,330,454,438,286,248
513,0.97,-0.22,0.17,0.18,-2.69,-1.1,329,451,444,281,246
514,0.97,-0.23,0.16,0.61,-2.56,-1.83,330,452,437,290,245
515,0.98,-0.22,0.16,0.24,-2.01,-1.89,331,452,433,284,247
516,0.96,-0.24,0.16,-1.46,-4.15,-0.24,331,455,436,284,248
517,0.96,-0.24,0.17,0.24,-3.23,-1.65,328,452,437,288,245
518,0.96,-0.24,0.16,-0.98,-3.3,-3.23,330,453,438,286,245
519,0.95,-0.25,0.17,-2.87,-2.44,-2.87,333,453,436,280,246
520,0.96,-0.23,0.18,1.04,-3.85,-2.14,330,452,436,282,244
521,0.96,-0.25,0.17,2.26,-2.5,-1.71,333,448,434,282,247
522,0.97,-0.25,0.16,1.4,-3.48,-4.03,331,452,430,286,247
523,0.95,-0.26,0.16,0.31,-3.48,-2.32,332,455,434,283,243
524,0.96,-0.26,0.16,0.61,-3.17,-1.77,331,456,438,284,245
525,0.96,-0.25,0.17,0.98,-2.75,-1.89,331,452,435,290,245
526,0.95,-0.26,0.16,1.04,-2.5,-2.62,333,452,433,280,246
527,0.95,-0.26,0.17,0.85,-1.16,-2.26,330,456,433,289,243
528,0.94,-0.25,0.18,-0.31,-0.98,-2.14,330,455,433,283,265
529,0.97,-0.25,0.17,0.92,-2.69,-1.34,327,453,433,286,245
530,0.95,-0.25,0.18,-0.06,-3.66,-2.2,334,453,435,286,245
531,0.95,-0.25,0.18,0.55,-2.44,-2.08,333,455,432,283,245
532,0.95,-0.26,0.18,1.28,-2.08,-2.5,332,454,433,286,245
533,0.96,-0.25,0.19,-0.06,-3.97,-1.89,330,453,432,290,245
534,0.96,-0.25,0.19,1.1,-2.56,-3.05,329,461,429,291,247
535,0.95,-0.25,0.19,-0.67,-2.87,-2.99,331,453,433,282,247
536,0.95,-0.25,0.19,0.79,-3.05,-2.81,334,453,443,281,247
537,0.96,-0.25,0.18,0.98,-3.78,-2.81,328,449,433,287,247
538,0.96,-0.26,0.18,0.0,-2.26,-4.09,333,455,430,287,248
539,0.95,-0.25,0.18,0.24,-2.08,-2.75,330,455,431,284,244
540,0.97,-0.26,0.18,2.99,-3.17,-2.26,332,450,431,286,245
541,0.95,-0.25,0.2,-1.04,-2.87,-3.42,330,456,433,291,245
542,0.95,-0.25,0.19,-1.34,-3.66,-2.26,331,458,434,287,248
543,0.96,-0.25,0.19,1.04,-3.72,-3.54,331,452,427,284,248
544,0.97,-0.25,0.19,2.26,-3.17,-3.6,332,459,432,283,248
545,0.96,-0.25,0.19,0.79,-2.87,-2.01,329,456,428,285,247
546,0.95,-0.25,0.19,1.1,-3.17,-2.32,330,457,428,285,247
547,0.95,-0.25,0.2,0.85,-2.93,-2.56,332,456,428,285,245
548,0.95,-0.27,0.19,-2.44,0.06,-4.39,331,456,434,287,250
549,0.96,-0.24,0.21,0.06,-3.36,-4.33,331,457,428,286,249
550,0.97,-0.26,0.18,0.31,-3.17,-4.88,331,453,427,282,248
551,0.97,-0.25,0.18,1.46,-1.28,-1.59,333,454,431,285,247
552,0.95,-0.26,0.19,-0.43,-2.87,-2.26,329,450,428,285,245
553,0.95,-0.26,0.19,-1.83,-5.43,0.79,327,454,429,282,248
554,0.95,-0.26,0.19,0.98,-2.14,-3.6,332,453,429,286,247
555,0.97,-0.27,0.17,3.91,-3.17,-3.97,331,453,427,285,243
556,0.96,-0.27,0.17,1.34,-2.99,-2.56,332,453,429,283,247
557,0.94,-0.26,0.19,1.65,-3.3,-1.71,328,455,428,286,253
558,0.94,-0.27,0.19,1.46,-2.14,-1.95,331,457,427,285,247
559,0.94,-0.25,0.2,0.31,-2.26,-1.89,329,454,429,286,246
560,0.96,-0.25,0.18,-0.79,-2.2,-0.79,327,460,424,282,245
561,0.95,-0.25,0.19,-2.01,-2.69,-0.12,333,455,428,288,247
562,0.95,-0.26,0.18,0.18,-2.99,-2.81,331,449,428,285,246
563,0.95,-0.26,0.18,0.49,-2.5,-3.97,329,454,425,284,244
564,0.95,-0.27,0.17,0.49,-3.42,-2.44,333,457,426,285,246
565,0.94,-0.27,0.18,-0.98,-1.46,-0.98,329,455,426,286,246
566,0.94,-0.27,0.18,-0.92,-2.32,-0.37,328,454,426,284,247
567,0.94,-0.26,0.19,-1.28,-2.62,-1.71,332,454,428,286,247
568,0.97,-0.27,0.17,-1.53,-1.71,-4.09,333,455,431,286,243
569,0.95,-0.25,0.2,1.04,-3.48,-2.08,331,457,425,287,246
570,0.96,-0.26,0.18,-1.53,-1.4,-6.53,332,456,425,285,244
571,0.93,-0.26,0.19,-0.73,-0.31,-5.13,332,457,425,282,246
572,0.96,-0.25,0.19,-0.55,-2.99,-2.08,333,454,426,284,247
573,0.94,-0.25,0.2,-0.92,-2.87,-2.38,333,453,425,284,242
574,0.95,-0.24,0.22,1.04,-1.53,-2.32,331,454,426,285,246
575,0.94,-0.26,0.21,1.04,-2.87,-4.82,332,454,427,287,248
576,0.95,-0.25,0.2,-0.73,-2.44,-2.08,332,453,425,285,247
577,0.96,-0.25,0.2,0.55,-3.42,-3.11,335,451,421,293,245
578,0.95,-0.25,0.21,-1.04,-2.08,-2.01,332,458,424,283,245
579,0.94,-0.24,0.22,-0.73,-2.81,-1.16,332,453,424,287,248
580,0.95,-0.24,0.22,-0.12,-3.3,-0.43,333,459,424,285,244
581,0.97,-0.24,0.21,0.98,-4.39,-3.11,331,452,424,286,244
582,0.94,-0.24,0.22,1.46,-2.93,-2.32,334,456,424,286,248
583,0.96,-0.23,0.22,2.14,-1.83,-1.89,334,457,421,288,247
584,0.96,-0.26,0.19,1.34,-4.03,-3.23,333,458,422,283,244
585,0.95,-0.25,0.21,1.1,-5.31,-1.28,330,450,423,287,246
586,0.94,-0.25,0.22,0.37,-4.09,-4.15,334,454,426,287,245
587,0.97,-0.23,0.22,-1.53,-1.95,-4.21,332,455,422,284,246
588,0.96,-0.24,0.2,2.87,-2.5,-3.42,332,454,420,294,245
589,0.96,-0.24,0.21,-1.04,-2.32,-3.05,330,455,427,287,242
590,0.95,-0.24,0.22,-1.83,-2.93,-3.3,329,458,423,286,246
591,0.94,-0.24,0.23,1.77,-3.11,-1.65,332,454,425,292,246
592,0.96,-0.27,0.19,0.43,-1.53,-1.04,333,455,425,286,243
593,0.96,-0.24,0.22,1.1,-2.38,-2.38,333,455,423,282,249
594,0.94,-0.25,0.22,1.28,-1.95,-2.93,335,455,421,283,246
595,0.98,-0.25,0.21,1.53,-3.72,0.06,332,455,424,285,249
596,0.97,-0.27,0.21,-2.08,-0.67,-1.46,333,455,422,286,244
597,0.94,-0.3,0.23,-0.61,-1.77,-1.89,328,455,424,285,247
598,0.92,-0.31,0.21,-3.48,-2.5,-1.22,334,459,424,287,247
599,0.93,-0.31,0.21,-1.04,-4.52,-3.97,332,454,426,289,245
600,0.95,-0.29,0.22,1.89,-2.44,-5.68,331,454,437,289,247
601,0.94,-0.28,0.23,0.24,-2.2,-4.94,329,451,422,293,243
602,0.94,-0.28,0.22,-1.46,-3.72,-2.14,336,454,416,285,248
603,0.94,-0.29,0.22,-1.04,-1.89,-2.5,334,459,420,287,248
604,0.95,-0.28,0.23,-0.06,-2.5,-3.48,333,454,421,285,248
605,0.93,-0.29,0.23,1.28,-2.62,-3.11,333,456,419,285,247
606,0.93,-0.29,0.24,1.28,-4.64,-3.85,329,456,426,286,245
607,0.95,-0.29,0.22,1.59,-3.11,-3.17,335,450,424,286,246
608,0.91,-0.29,0.24,-0.31,-1.95,-2.14,333,455,423,286,247
609,0.93,-0.29,0.24,3.85,-3.78,-0.79,333,455,420,289,247
610,0.92,-0.3,0.24,1.4,-2.26,1.04,333,455,422,284,245
611,0.92,-0.3,0.24,-0.79,-3.72,-0.98,332,455,419,284,245
612,0.92,-0.3,0.23,2.08,-4.09,-3.17,334,459,433,287,249
613,0.92,-0.29,0.22,0.92,-2.5,-2.44,332,459,421,286,245
614,0.93,-0.3,0.22,-0.55,-2.87,-0.98,333,455,421,286,245
615,0.92,-0.3,0.22,1.04,-3.17,-1.46,329,456,433,287,274
616,0.95,-0.28,0.23,1.34,-2.62,-3.11,332,455,421,287,246
617,0.92,-0.29,0.23,-1.28,-1.71,-2.38,332,460,423,286,245
618,0.94,-0.3,0.23,-0.37,-2.32,-2.81,332,455,418,289,249
619,0.95,-0.29,0.24,0.37,-4.58,0.12,329,459,420,288,256
620,0.97,-0.3,0.2,5.74,-1.65,-2.32,333,455,420,286,244
621,0.92,-0.3,0.22,0.43,-2.75,-5.92,336,453,420,286,270
622,0.93,-0.29,0.23,5.8,-0.43,1.77,332,453,420,287,235
623,0.92,-0.3,0.25,1.71,-3.91,-2.08,336,455,420,285,245
624,0.9,-0.3,0.25,-1.4,-3.42,-2.26,331,455,417,284,241
625,0.93,-0.28,0.24,-0.12,-2.2,-0.61,333,455,419,288,244
626,0.94,-0.29,0.24,-0.85,-3.3,-1.83,332,458,421,290,245
627,0.94,-0.29,0.24,0.92,-3.23,-1.59,333,451,419,285,247
628,0.94,-0.28,0.25,1.65,-3.23,-1.83,332,460,415,292,246
629,0.93,-0.3,0.24,0.61,-2.44,-3.05,328,460,420,288,248
630,0.91,-0.29,0.27,-0.12,-3.17,-1.71,337,456,421,294,245
631,0.93,-0.28,0.27,0.61,-2.93,-1.89,329,450,419,289,248
632,0.96,-0.3,0.24,2.81,-2.62,-2.2,333,450,418,287,244
633,0.92,-0.3,0.25,1.59,-2.81,-3.54,340,459,418,288,245
634,0.95,-0.29,0.26,0.98,-2.32,-2.99,333,454,419,286,246
635,0.96,-0.27,0.27,4.15,-3.72,-4.88,331,459,418,287,247
636,0.93,-0.29,0.25,0.43,-2.93,-2.99,330,456,419,290,245
637,0.93,-0.29,0.25,0.85,-3.23,-2.69,334,458,417,287,244
638,0.93,-0.3,0.25,0.0,-2.75,-2.75,332,456,418,289,247
639,0.94,-0.29,0.25,1.4,-2.32,-2.01,332,459,418,287,268
640,0.94,-0.29,0.25,-0.55,-3.11,-1.89,333,461,418,286,245
641,0.96,-0.28,0.25,1.46,-2.69,-1.53,335,454,419,295,248
642,0.95,-0.29,0.25,2.75,-3.91,-3.3,334,455,416,285,246
643,0.93,-0.3,0.24,-0.06,-2.01,-2.99,333,457,418,286,245
644,0.93,-0.29,0.25,0.06,-2.99,-3.11,330,458,418,289,248
645,0.92,-0.29,0.25,-0.12,-3.97,-2.81,334,459,424,288,245
646,0.93,-0.29,0.25,-0.55,-3.11,-2.99,333,456,417,288,247
647,0.93,-0.28,0.26,0.12,-1.83,-2.93,336,457,417,285,245
648,0.92,-0.29,0.26,-0.61,-2.26,-3.05,335,454,417,286,245
649,0.94,-0.28,0.26,1.71,-2.38,-2.14,327,459,417,286,247
650,0.94,-0.28,0.26,2.32,-2.69,-3.66,333,459,416,283,244
651,0.93,-0.29,0.25,0.49,-2.81,-2.08,333,458,416,285,248
652,0.93,-0.29,0.26,0.43,-3.05,-2.08,330,455,415,286,246
653,0.93,-0.29,0.26,-1.22,-2.62,-2.5,334,457,418,292,244
654,0.93,-0.29,0.25,0.0,-2.75,-2.56,329,454,411,286,245
655,0.92,-0.31,0.24,-0.06,-3.72,-2.93,334,450,417,286,245
656,0.93,-0.3,0.24,-0.61,-2.32,-2.93,334,457,414,288,244
657,0.94,-0.29,0.24,-0.24,-3.17,-2.81,334,460,414,287,247
658,0.93,-0.29,0.25,1.04,-3.17,-3.36,333,457,415,291,245
659,0.93,-0.29,0.25,0.73,-3.85,-2.44,333,459,413,286,243
660,0.93,-0.28,0.26,0.06,-3.05,-1.95,334,456,412,286,272
661,0.94,-0.29,0.25,0.18,-2.62,-2.44,333,456,411,283,244
662,0.93,-0.29,0.26,0.85,-3.23,-1.95,334,457,415,286,244
663,0.93,-0.28,0.25,-0.43,-3.85,-2.14,331,457,412,286,248
664,0.94,-0.29,0.25,2.62,-2.56,-2.32,334,459,418,287,248
665,0.93,-0.29,0.25,0.55,-3.6,-2.38,333,456,413,284,247
666,0.94,-0.3,0.24,1.1,-2.01,-2.26,333,451,415,296,247
667,0.93,-0.28,0.26,0.79,-2.99,-3.72,334,455,415,285,245
668,0.93,-0.28,0.26,-0.61,-2.38,-2.62,332,462,418,288,245
669,0.94,-0.28,0.25,-0.85,-2.81,-3.23,333,453,428,292,247
670,0.94,-0.29,0.24,1.28,-4.15,-1.95,329,455,414,287,245
671,0.93,-0.28,0.25,0.73,-2.81,-2.87,336,451,415,287,245
672,0.94,-0.27,0.26,0.12,-2.93,-3.23,333,458,415,290,242
673,0.93,-0.28,0.26,-0.24,-2.5,-2.75,322,450,414,287,249
674,0.94,-0.27,0.26,1.04,-2.14,-3.72,333,458,417,287,245
675,0.93,-0.27,0.26,1.04,-3.11,-3.3,333,460,417,288,246
676,0.94,-0.27,0.26,-0.18,-3.48,-2.62,332,460,415,288,245
677,0.94,-0.27,0.25,0.06,-2.38,-2.26,331,458,412,288,246
678,0.93,-0.27,0.26,-0.31,-2.93,-2.56,333,450,410,290,249
679,0.92,-0.28,0.25,-1.4,-2.75,-2.56,335,459,415,287,248
680,0.93,-0.28,0.25,-0.12,-3.11,-2.56,331,459,415,290,245
681,0.93,-0.27,0.26,-0.12,-2.38,-2.38,330,455,413,289,247
682,0.94,-0.27,0.25,-0.06,-1.83,-2.5,332,459,417,285,247
683,0.94,-0.27,0.25,0.49,-3.91,-1.65,332,455,413,289,247
684,0.93,-0.27,0.25,0.18,-2.93,-2.32,335,460,411,287,245
685,0.94,-0.27,0.25,1.16,-3.36,-3.17,333,455,411,290,247
686,0.93,-0.27,0.25,0.67,-2.62,-2.75,335,459,411,290,247
687,0.93,-0.27,0.25,-0.55,-2.32,-2.99,335,453,414,287,243
688,0.94,-0.27,0.25,0.79,-2.99,-2.62,336,450,416,288,248
689,0.94,-0.27,0.25,0.98,-2.32,-1.71,332,457,409,287,248
690,0.94,-0.25,0.27,-2.32,-3.85,-3.11,336,463,415,291,247
691,0.95,-0.25,0.26,-1.4,-2.38,-4.64,334,456,410,289,247
692,0.92,-0.25,0.28,-0.37,-3.17,-0.31,334,458,411,287,243
693,0.94,-0.27,0.25,0.98,-3.3,-1.1,332,453,411,290,245
694,0.92,-0.26,0.26,0.49,-2.75,-2.32,332,458,415,288,245
695,0.94,-0.26,0.25,0.79,-1.34,-4.21,333,457,414,291,247
696,0.94,-0.26,0.26,1.53,-3.05,-2.14,333,454,411,285,248
697,0.95,-0.25,0.26,2.2,-3.23,-2.93,333,458,413,288,246
698,0.93,-0.26,0.26,0.18,-3.05,-3.23,332,454,412,286,243
699,0.94,-0.28,0.25,-0.43,-4.15,-1.95,331,452,408,287,245
700,0.94,-0.28,0.25,-0.85,-3.66,-2.5,336,458,416,288,246
701,0.93,-0.26,0.26,1.34,-2.93,-3.42,333,456,412,288,246
702,0.93,-0.27,0.25,0.85,-3.97,-2.01,335,455,414,288,246
703,0.94,-0.27,0.25,1.28,-3.6,-2.5,333,455,414,288,246
704,0.94,-0.27,0.25,-0.61,-2.26,-2.32,335,451,414,286,247
705,0.94,-0.27,0.25,-0.12,-2.2,-2.69,331,459,412,290,243
706,0.95,-0.28,0.24,-0.31,-3.48,-0.24,330,450,408,291,246
707,0.94,-0.27,0.25,-1.04,-5.25,-4.39,334,455,413,290,249
708,0.91,-0.26,0.28,-5.98,-4.76,-5.07,335,458,416,287,244
709,0.94,-0.27,0.23,1.16,-2.69,-2.56,331,459,411,287,246
710,0.96,-0.28,0.22,1.4,-2.62,-0.85,330,456,414,291,246
711,0.95,-0.29,0.22,1.59,-3.6,-3.23,332,456,411,286,249
712,0.94,-0.28,0.23,-1.77,-3.05,0.67,329,454,413,288,245
713,0.93,-0.27,0.25,-2.75,-3.05,-1.83,327,453,416,289,248
714,0.94,-0.29,0.22,-0.98,-3.91,-0.98,334,455,413,288,246
715,0.92,-0.32,0.22,1.22,-3.6,-5.43,335,451,408,285,244
716,0.95,-0.31,0.21,4.58,-5.74,-4.58,333,454,410,289,248
717,0.92,-0.29,0.23,0.18,-2.99,-4.52,338,458,414,291,246
718,0.92,-0.29,0.21,-1.59,-3.42,-2.08,332,455,412,285,247
719,0.93,-0.28,0.23,-1.04,-2.08,-0.73,334,455,409,291,246
720,0.93,-0.29,0.22,0.0,-1.77,-1.34,333,451,413,291,249
721,0.93,-0.27,0.24,0.98,-2.2,-2.87,333,450,411,291,247
722,0.93,-0.29,0.23,-0.31,-2.62,-2.62,333,459,414,291,248
723,0.95,-0.27,0.24,0.55,-2.01,-3.17,330,458,414,285,248
724,0.96,-0.27,0.23,0.92,-4.46,-2.62,335,454,411,287,249
725,0.94,-0.28,0.23,0.49,-5.0,-1.95,333,458,410,287,247
726,0.94,-0.27,0.23,1.95,-2.56,-2.56,332,458,411,287,245
727,0.94,-0.26,0.24,0.49,-2.01,-2.69,335,454,410,290,243
728,0.93,-0.27,0.24,1.4,-3.78,-2.81,334,450,411,288,246
729,0.94,-0.28,0.22,0.85,-2.87,-2.56,334,455,411,291,250
730,0.94,-0.27,0.23,0.31,-3.6,-2.08,333,453,414,289,246
731,0.94,-0.27,0.23,0.61,-3.36,-2.44,334,455,411,289,249
732,0.95,-0.27,0.23,1.04,-3.17,-1.46,334,450,407,289,246
733,0.94,-0.26,0.24,0.55,-3.36,-3.23,335,458,413,288,244
734,0.94,-0.27,0.24,1.77,-2.56,-3.11,334,454,410,290,248
735,0.94,-0.27,0.24,0.31,-2.87,-2.14,336,452,408,295,246
736,0.94,-0.26,0.25,1.28,-2.99,-2.69,330,452,411,289,248
737,0.93,-0.27,0.24,0.73,-3.48,-2.81,334,457,410,287,244
738,0.93,-0.25,0.26,0.67,-2.62,-2.14,335,454,411,294,246
739,0.93,-0.26,0.25,0.61,-2.69,-3.11,334,460,409,289,250
740,0.94,-0.26,0.25,1.59,-1.89,-2.26,334,455,409,289,247
741,0.94,-0.27,0.24,0.06,-3.54,-1.83,330,453,406,291,246
742,0.94,-0.26,0.24,0.61,-2.08,-3.66,333,455,411,291,246
743,0.94,-0.26,0.25,-0.12,-2.69,-1.77,336,459,411,288,247
744,0.94,-0.26,0.25,-0.06,-4.15,-1.34,334,455,408,288,248
745,0.94,-0.25,0.26,0.12,-3.11,-1.65,334,450,411,288,246
746,0.94,-0.27,0.25,0.24,-2.87,-2.26,337,454,411,289,273
747,0.93,-0.26,0.25,0.85,-2.75,-2.44,331,452,406,290,254
748,0.94,-0.28,0.24,0.92,-2.75,-2.69,333,450,409,291,246
749,0.93,-0.27,0.25,-0.67,-3.85,-3.85,334,451,409,289,248
750,0.94,-0.26,0.25,-0.12,-2.08,-3.91,334,456,409,291,249
751,0.94,-0.27,0.24,0.43,-2.75,-2.2,334,455,410,290,247
752,0.94,-0.27,0.25,-0.67,-2.93,-1.46,332,452,409,291,246
753,0.94,-0.27,0.24,1.46,-4.03,-3.42,331,453,410,291,247
754,0.94,-0.27,0.24,0.85,-4.33,-4.52,336,456,409,288,247
755,0.94,-0.25,0.26,0.98,-2.62,-2.93,334,450,411,289,246
756,0.93,-0.26,0.25,0.24,-3.05,-2.87,334,455,406,293,247
757,0.95,-0.26,0.25,1.04,-2.14,-3.48,333,451,411,290,246
758,0.93,-0.27,0.24,-0.12,-2.93,-2.01,336,455,409,288,249
759,0.93,-0.27,0.25,0.37,-2.81,-3.36,335,457,408,288,244
760,0.94,-0.26,0.25,1.1,-2.75,-2.87,332,455,407,288,248
761,0.95,-0.25,0.25,0.85,-3.48,-2.56,334,459,408,291,246
762,0.94,-0.26,0.25,0.37,-1.89,-2.44,336,455,412,291,248
763,0.96,-0.26,0.25,1.28,-4.64,-3.11,329,452,408,288,249
764,0.94,-0.26,0.25,0.31,-2.5,-2.87,334,456,411,288,247
765,0.94,-0.27,0.24,-0.18,-2.99,-4.03,334,453,409,291,244
766,0.93,-0.27,0.24,-0.98,-2.44,-2.69,333,455,407,290,254
767,0.93,-0.27,0.24,-1.77,-4.33,-2.26,331,456,406,287,248
768,0.94,-0.26,0.24,-0.37,-4.09,-2.2,332,458,408,289,250
769,0.94,-0.28,0.23,0.06,-3.72,-1.4,335,459,406,288,237
770,0.92,-0.26,0.25,0.24,-4.94,1.04,334,455,412,288,247
771,0.93,-0.3,0.2,-1.04,-2.32,-4.64,335,458,408,294,256
772,0.94,-0.28,0.22,0.31,-1.53,-1.71,333,457,410,291,245
773,0.94,-0.28,0.22,-1.65,-1.53,-3.3,334,455,408,290,248
774,0.94,-0.28,0.23,0.31,-3.97,-3.85,331,456,408,288,247
775,0.95,-0.28,0.22,-1.59,-2.14,-2.62,335,459,408,288,247
776,0.95,-0.27,0.22,-0.67,-2.81,-0.73,334,453,408,289,246
777,0.94,-0.28,0.23,0.37,-2.01,0.0,336,458,410,292,249
778,0.94,-0.28,0.23,-0.31,-2.5,-2.56,333,454,406,292,247
779,0.91,-0.3,0.22,0.12,-4.03,-1.22,336,458,407,290,248
780,0.92,-0.3,0.2,-2.26,-1.71,-0.55,332,451,409,294,248
781,0.94,-0.29,0.21,2.01,-3.6,-4.64,340,461,409,290,246
782,0.94,-0.27,0.23,1.04,-3.23,-2.26,334,454,407,289,250
783,0.93,-0.32,0.19,-4.33,-4.27,-2.87,336,450,408,290,246
784,0.96,-0.29,0.21,-1.28,-4.52,1.46,334,451,401,288,249
785,0.94,-0.3,0.22,4.88,-5.37,-3.05,334,455,405,287,247
786,0.93,-0.33,0.2,1.46,-1.65,-3.36,331,459,407,286,263
787,0.94,-0.32,0.2,1.89,-1.1,-3.85,337,454,404,287,246
788,0.94,-0.3,0.22,4.58,-4.03,-6.53,334,456,407,288,247
789,0.97,-0.32,0.16,0.43,-6.77,-10.01,335,458,404,285,249
790,0.96,-0.25,0.2,3.54,4.15,-9.16,342,453,405,289,247
791,0.97,-0.25,0.2,3.42,-2.99,-4.03,337,459,405,290,248
792,0.94,-0.25,0.21,-0.49,-0.67,-1.77,337,454,406,289,249
793,0.95,-0.24,0.22,0.37,-1.53,0.06,341,460,404,291,248
794,0.96,-0.25,0.21,1.46,-2.26,-3.23,334,458,406,289,249
795,0.95,-0.26,0.21,0.92,-3.11,-1.59,334,455,418,286,250
796,0.95,-0.25,0.21,-0.18,-3.11,-2.87,336,457,410,287,249
797,0.95,-0.25,0.23,0.61,-3.36,-2.2,332,459,408,291,250
798,0.95,-0.26,0.21,2.93,-1.89,-2.81,334,455,405,288,255
799,0.95,-0.27,0.21,1.04,-3.05,-2.62,336,460,407,292,250
800,0.95,-0.26,0.22,0.92,-1.4,-2.62,335,459,407,293,248
801,0.95,-0.26,0.22,-0.73,-2.81,-1.46,337,456,408,292,248
802,0.95,-0.25,0.24,-0.61,-2.38,-1.34,335,460,409,293,249
803,0.94,-0.26,0.23,-0.73,-3.11,-1.89,336,455,405,292,249
804,0.94,-0.26,0.24,1.89,-2.38,-2.01,339,465,406,292,250
805,0.93,-0.26,0.23,0.37,-2.32,-2.32,335,455,407,290,250
806,0.94,-0.26,0.23,1.22,-3.05,-1.65,334,459,408,291,248
807,0.93,-0.27,0.23,1.59,-2.75,-1.22,335,466,405,290,248
808,0.95,-0.26,0.22,0.55,-3.97,-2.75,345,450,408,289,245
809,0.93,-0.26,0.24,-1.89,-2.26,-2.62,333,460,410,289,247
810,0.93,-0.27,0.23,0.18,-3.17,-2.75,335,455,405,288,250
811,0.95,-0.27,0.23,-1.77,-1.77,-4.03,335,457,405,293,263
812,0.96,-0.26,0.22,0.73,-4.58,-2.44,334,453,407,288,243
813,0.95,-0.27,0.22,1.22,-2.69,-2.87,336,455,405,290,250
814,0.95,-0.27,0.23,1.77,-2.81,-2.87,336,456,404,292,249
815,0.95,-0.26,0.23,0.92,-2.2,-3.05,333,459,407,296,249
816,0.94,-0.26,0.24,1.22,-2.81,-2.26,337,455,404,289,253
817,0.94,-0.26,0.24,1.16,-2.93,-2.81,331,458,406,290,256
818,0.95,-0.26,0.24,-0.79,-2.69,-2.93,330,457,402,292,248
819,0.94,-0.26,0.24,0.24,-2.87,-3.3,337,455,404,289,247
820,0.94,-0.26,0.23,0.18,-3.05,-3.66,336,451,404,289,249
821,0.93,-0.27,0.23,2.01,-3.42,-3.05,335,456,403,288,250
822,0.94,-0.26,0.23,1.22,-3.3,-2.5,336,459,404,286,249
823,0.95,-0.26,0.23,-0.24,-1.77,-2.2,335,449,400,293,248
824,0.95,-0.26,0.23,1.53,-2.56,-2.62,331,457,398,293,248
825,0.95,-0.27,0.23,0.43,-2.69,-2.08,337,454,397,292,248
826,0.95,-0.27,0.23,0.43,-3.42,-1.65,330,456,400,287,249
827,0.94,-0.26,0.23,-0.61,-2.93,-2.75,335,455,402,291,250
828,0.94,-0.26,0.23,0.31,-3.91,-1.83,339,459,405,292,251
829,0.95,-0.26,0.23,0.49,-3.54,-2.38,335,455,398,291,250
830,0.95,-0.25,0.24,-0.85,-2.69,-2.38,330,459,398,285,248
831,0.94,-0.26,0.24,0.12,-2.93,-1.83,334,459,402,289,250
832,0.94,-0.26,0.24,0.79,-2.14,-3.42,332,458,403,289,249
833,0.95,-0.26,0.24,-1.04,-3.42,-1.65,332,450,401,292,262
834,0.94,-0.26,0.25,0.61,-2.38,-2.26,335,456,403,289,249
835,0.94,-0.26,0.24,0.43,-3.78,-1.59,337,450,397,291,254
836,0.94,-0.26,0.23,-0.49,-3.42,-2.69,336,457,405,286,251
837,0.94,-0.26,0.24,0.98,-2.38,-2.56,343,459,402,286,250
838,0.93,-0.27,0.24,0.0,-2.2,-3.23,337,458,396,292,248
839,0.94,-0.28,0.23,-1.04,-2.99,-2.38,337,453,402,290,250
840,0.94,-0.27,0.23,1.34,-3.23,-2.26,331,456,402,286,250
841,0.95,-0.27,0.24,1.04,-3.3,-2.69,330,450,402,292,250
842,0.95,-0.26,0.24,0.43,-4.03,-2.26,333,455,399,289,250
843,0.94,-0.27,0.24,1.22,-3.54,-2.69,334,454,400,289,247
844,0.95,-0.27,0.24,0.18,-3.23,-1.34,336,457,400,285,247
845,0.93,-0.27,0.23,-0.55,-3.48,-1.34,339,450,402,290,248
846,0.94,-0.27,0.24,1.4,-3.05,-1.65,335,456,397,286,246
847,0.93,-0.26,0.25,0.67,-3.17,-2.44,337,457,400,290,247
848,0.94,-0.26,0.25,0.31,-2.69,-2.99,334,456,398,292,247
849,0.94,-0.27,0.25,-0.43,-4.46,-1.59,334,450,402,289,250
850,0.93,-0.27,0.24,1.1,-3.11,-2.14,334,459,403,289,250
851,0.94,-0.27,0.24,-0.85,-3.42,-1.89,328,455,402,293,247
852,0.94,-0.28,0.23,0.24,-3.23,-3.11,338,456,398,291,248
853,0.94,-0.27,0.24,1.59,-2.56,-2.81,334,456,400,289,275
854,0.94,-0.27,0.25,-0.12,-2.62,-2.44,336,456,400,290,249
855,0.93,-0.27,0.25,0.49,-3.42,-1.46,331,459,400,290,247
856,0.93,-0.27,0.25,0.73,-2.56,-2.44,334,456,399,289,249
857,0.94,-0.27,0.24,0.43,-2.75,-3.05,333,451,405,292,277
858,0.95,-0.27,0.24,0.92,-2.75,-2.75,335,457,400,292,248
859,0.94,-0.27,0.24,0.98,-2.87,-2.69,334,457,401,292,247
860,0.94,-0.29,0.23,2.08,-3.36,-3.36,337,459,400,290,245
861,0.92,-0.29,0.23,-0.18,-3.97,-4.58,337,454,403,288,249
862,0.93,-0.27,0.25,-0.73,-2.81,-2.56,333,453,402,290,247
863,0.93,-0.28,0.24,0.49,-3.05,-2.75,335,456,400,293,247
864,0.93,-0.28,0.24,1.16,-3.78,-2.87,342,451,400,287,250
865,0.94,-0.26,0.25,2.69,-4.58,-2.32,333,455,403,289,247
866,0.96,-0.26,0.23,2.32,-2.26,-1.95,333,453,401,292,248
867,0.94,-0.29,0.23,0.55,-2.75,-2.56,334,457,401,292,248
868,0.94,-0.27,0.25,1.34,-2.87,-2.56,335,456,399,289,250
869,0.94,-0.27,0.24,2.38,-2.75,-4.15,332,460,396,290,247
870,0.93,-0.27,0.23,2.2,-4.58,-2.01,333,455,398,290,252
871,0.91,-0.27,0.24,-1.34,-4.46,-4.21,338,452,399,286,250
872,0.93,-0.25,0.25,-3.17,-0.49,-0.43,331,457,404,290,248
873,0.94,-0.26,0.24,0.49,-3.66,-0.73,336,459,403,291,247
874,0.94,-0.26,0.24,1.16,-2.75,-3.48,337,452,398,287,244
875,0.94,-0.26,0.24,-0.06,-3.05,-2.56,334,459,399,289,247
876,0.93,-0.26,0.24,-2.38,-2.99,-3.05,334,456,400,293,250
877,0.94,-0.25,0.25,-0.12,-2.93,-0.61,335,460,400,287,250
878,0.95,-0.26,0.23,-2.5,-2.26,-4.64,335,456,400,289,248
879,0.94,-0.25,0.24,-1.95,-1.71,-2.56,334,456,398,291,247
880,0.93,-0.25,0.25,-0.31,-2.5,-1.65,334,455,402,293,247
881,0.94,-0.24,0.25,0.12,-2.08,-2.2,334,460,399,292,250
882,0.95,-0.25,0.25,0.37,-2.14,-3.6,334,462,401,291,253
883,0.94,-0.26,0.24,0.98,-2.14,-2.75,331,459,402,292,259
884,0.94,-0.25,0.25,1.22,-3.91,-2.75,335,451,397,293,248
885,0.95,-0.26,0.24,1.28,-2.62,-2.69,334,455,396,286,248
886,0.94,-0.24,0.25,2.44,-3.72,-2.75,334,459,398,292,249
887,0.96,-0.25,0.24,2.01,-4.46,-2.87,334,458,399,290,246
888,0.94,-0.24,0.25,1.16,-3.23,-2.44,334,457,399,290,247
889,0.94,-0.24,0.24,-0.31,-2.93,-2.32,336,456,400,289,249
890,0.94,-0.25,0.24,-0.67,-2.44,-2.26,330,452,400,292,244
891,0.95,-0.24,0.25,0.98,-2.01,-2.14,331,459,401,291,248
892,0.96,-0.23,0.24,-3.17,-6.53,-1.77,333,456,395,287,247
893,0.91,-0.27,0.24,2.5,-5.25,-0.61,333,455,401,291,245
894,0.93,-0.28,0.21,-0.12,-2.69,-2.5,334,457,399,290,248
895,0.94,-0.29,0.2,-0.06,-2.81,-1.71,337,457,401,291,249
896,0.94,-0.26,0.22,-0.61,-1.34,-4.27,335,457,397,289,249
897,0.96,-0.26,0.2,-1.16,-1.83,-1.65,334,451,398,290,244
898,0.94,-0.26,0.21,1.65,-2.5,-3.17,334,450,400,294,248
899,0.95,-0.25,0.22,-0.06,-4.33,-1.71,335,456,400,290,249
900,0.94,-0.25,0.22,0.49,-2.44,-1.71,335,451,396,288,257
901,0.94,-0.26,0.21,-1.1,-2.26,-2.62,332,455,398,292,247
902,0.96,-0.26,0.2,-0.18,-1.4,-2.2,332,453,397,292,248
903,0.95,-0.25,0.22,-0.37,-2.01,-3.11,335,455,398,290,247
904,0.94,-0.26,0.23,0.31,-3.11,-1.22,335,455,398,292,247
905,0.94,-0.27,0.22,-0.31,-2.01,-2.01,332,458,402,292,248
906,0.95,-0.27,0.22,0.55,-3.54,-2.38,334,454,398,289,248
907,0.94,-0.27,0.22,-0.49,-2.62,-2.81,331,457,398,290,250
908,0.94,-0.26,0.23,0.43,-1.89,-2.01,335,451,398,291,244
909,0.96,-0.27,0.22,-0.55,-1.83,-1.65,336,461,401,291,271
910,0.96,-0.26,0.23,1.04,-3.48,-2.5,332,455,398,289,252
911,0.95,-0.27,0.23,0.79,-3.05,-1.22,331,450,399,292,247
912,0.94,-0.27,0.23,-0.06,-2.38,-1.4,335,455,396,291,250
913,0.95,-0.27,0.23,-0.79,-3.23,-1.34,335,462,396,291,249
914,0.91,-0.28,0.24,-1.16,-2.26,-0.79,333,449,398,291,249
915,0.94,-0.29,0.22,2.32,-3.78,-3.23,334,465,400,292,250
916,0.94,-0.28,0.23,-0.31,-2.69,-2.2,334,455,397,294,248
917,0.95,-0.27,0.24,1.53,-2.93,-1.28,333,455,394,291,249
918,0.94,-0.27,0.24,0.43,-2.75,-1.59,334,457,396,292,249
919,0.94,-0.27,0.24,-0.92,-2.56,-1.89,336,459,397,293,247
920,0.93,-0.28,0.23,0.67,-2.62,-3.36,337,458,399,290,249
921,0.94,-0.27,0.24,1.71,-2.99,-3.17,336,463,400,292,276
922,0.94,-0.27,0.23,0.79,-3.42,-2.81,335,458,400,292,250
923,0.95,-0.27,0.23,1.34,-3.36,-2.69,338,456,397,292,250
924,0.94,-0.27,0.24,0.43,-3.54,-2.32,331,459,397,289,247
925,0.94,-0.28,0.23,1.65,-2.99,-2.93,331,451,399,290,248
926,0.94,-0.27,0.24,0.0,-2.56,-3.54,335,455,394,292,251
927,0.93,-0.27,0.23,0.18,-2.5,-2.5,333,454,397,290,248
928,0.94,-0.26,0.24,0.31,-2.81,-3.6,335,458,400,291,248
929,0.94,-0.27,0.23,0.79,-2.69,-2.62,333,455,400,293,246
930,0.94,-0.26,0.25,1.1,-2.99,-1.95,333,458,399,297,249
931,0.95,-0.27,0.23,-2.69,-3.05,-4.15,338,453,396,290,247
932,0.94,-0.27,0.23,1.4,-2.87,-3.11,334,458,399,288,244
933,0.94,-0.27,0.23,1.34,-3.05,-3.17,338,451,397,292,247
934,0.94,-0.26,0.24,-0.37,-1.65,-2.81,337,456,396,291,249
935,0.94,-0.27,0.23,0.79,-2.14,-3.11,337,455,397,292,249
936,0.94,-0.26,0.24,0.24,-2.5,-1.77,333,455,397,289,248
937,0.95,-0.27,0.24,0.43,-3.11,-2.69,332,456,395,292,247
938,0.95,-0.27,0.23,0.49,-3.54,-2.87,336,455,396,291,250
939,0.95,-0.26,0.23,0.31,-3.78,-2.38,337,459,397,290,248
940,0.94,-0.26,0.24,1.22,-4.03,-2.5,335,456,397,292,248
941,0.94,-0.27,0.23,-0.18,-1.83,-2.5,335,456,396,291,250
942,0.95,-0.28,0.22,0.31,-2.2,-1.89,331,456,393,289,248
943,0.95,-0.28,0.23,0.12,-2.44,-2.2,336,451,393,292,249
944,0.93,-0.28,0.23,2.75,-3.42,-3.97,332,456,396,290,243
945,0.92,-0.27,0.25,0.43,-3.3,-2.01,334,454,395,291,247
946,0.93,-0.27,0.24,0.73,-2.99,-3.85,333,456,397,287,245
947,0.94,-0.27,0.25,1.1,-3.97,-2.75,334,454,393,293,247
948,0.94,-0.27,0.24,2.38,-3.78,-2.93,336,455,395,286,247
949,0.96,-0.26,0.24,1.83,-4.52,-4.03,337,456,395,292,250
950,0.94,-0.28,0.23,1.89,-2.81,-3.17,336,456,397,292,243
951,0.94,-0.28,0.23,-0.49,-2.99,-2.38,332,456,397,287,249
952,0.95,-0.27,0.23,2.56,-3.05,-2.2,335,455,403,291,245
953,0.94,-0.28,0.23,-0.06,-2.69,-2.26,330,464,396,288,250
954,0.94,-0.27,0.24,-0.49,-2.44,-2.44,335,455,400,289,250
955,0.94,-0.28,0.24,1.1,-3.36,-1.77,332,458,399,288,248
956,0.93,-0.28,0.23,-0.06,-3.85,-3.54,335,455,397,292,250
957,0.94,-0.27,0.23,0.37,-2.99,-2.14,335,455,397,290,248
958,0.93,-0.27,0.24,1.34,-3.72,-2.87,334,457,396,292,249
959,0.95,-0.26,0.24,1.34,-2.2,-1.22,334,460,401,287,249
960,0.95,-0.26,0.24,0.24,-3.05,-3.36,334,459,397,291,251
961,0.92,-0.29,0.23,3.42,-3.91,-5.07,332,455,401,292,247
962,0.92,-0.28,0.23,-1.16,-3.23,-2.5,334,459,396,291,251
963,0.94,-0.26,0.25,-1.22,-1.83,-2.62,336,455,397,290,248
964,0.95,-0.26,0.23,-1.04,-3.42,-2.99,335,455,396,293,248
965,0.97,-0.23,0.27,5.68,-8.48,-3.48,336,455,396,291,247
966,0.95,-0.22,0.26,1.77,-2.87,-2.5,337,455,398,293,245
967,0.95,-0.23,0.26,1.77,-3.23,-3.42,335,451,396,289,262
968,0.95,-0.22,0.27,0.0,-2.56,-2.44,336,455,393,290,247
969,0.94,-0.24,0.25,-0.98,-3.42,-0.98,335,455,395,293,248
970,0.93,-0.24,0.26,0.67,-3.91,-1.53,334,458,395,290,249
971,0.95,-0.23,0.26,0.24,-2.99,-2.56,333,456,396,287,248
972,0.95,-0.24,0.25,-0.18,-1.77,-3.17,334,460,395,293,246
973,0.94,-0.25,0.25,-0.73,-2.38,-2.26,337,459,396,292,249
974,0.95,-0.24,0.26,-0.73,-2.99,-2.01,336,452,397,293,249
975,0.95,-0.23,0.27,1.04,-2.99,-1.71,334,458,394,296,250
976,0.94,-0.24,0.26,0.24,-2.81,-2.26,334,455,395,291,249
977,0.95,-0.24,0.26,1.22,-3.23,-2.87,331,452,396,289,247
978,0.95,-0.25,0.25,1.1,-2.62,-2.75,335,452,398,296,250
979,0.95,-0.24,0.26,2.44,-2.75,-3.11,335,451,391,291,247
980,0.95,-0.23,0.26,0.92,-3.48,-2.2,335,450,398,290,247
981,0.94,-0.24,0.26,0.37,-2.32,-2.5,335,454,400,293,249
982,0.94,-0.24,0.26,0.49,-2.44,-2.69,334,450,395,290,248
983,0.94,-0.24,0.26,-0.61,-3.85,-2.08,334,454,393,291,247
984,0.94,-0.25,0.25,0.85,-4.15,-2.87,334,457,397,294,249
985,0.94,-0.25,0.25,-0.73,-1.77,-2.56,334,457,396,291,249
986,0.95,-0.25,0.25,-0.37,-2.87,-2.75,334,455,395,288,250
987,0.93,-0.25,0.26,-0.55,-1.95,-3.6,338,458,392,290,247
988,0.93,-0.25,0.25,-0.73,-2.62,-3.05,335,459,396,290,250
989,0.94,-0.25,0.25,1.1,-2.93,-1.95,333,454,396,290,248
990,0.97,-0.25,0.26,1.34,-3.78,-2.32,337,455,393,293,247
991,0.94,-0.24,0.27,0.92,-3.36,-3.85,336,458,396,292,249
992,0.94,-0.25,0.26,-0.49,-2.56,-3.23,332,458,393,293,250
993,0.94,-0.24,0.26,-0.06,-2.2,-3.17,333,455,397,290,248
994,0.95,-0.25,0.25,0.73,-2.14,-2.56,332,459,398,290,249
995,0.95,-0.24,0.26,1.65,-3.54,-2.2,333,456,395,291,256
996,0.94,-0.24,0.27,0.49,-2.2,-2.81,337,450,393,292,250
997,0.94,-0.24,0.26,0.55,-3.17,-2.38,337,454,395,291,251
998,0.94,-0.25,0.25,0.49,-3.66,-3.66,335,460,395,291,248
999,0.94,-0.24,0.26,1.04,-3.48,-2.2,334,453,394,294,246
1000,0.95,-0.24,0.26,-1.1,-1.34,-3.17,335,455,395,291,251
1001,0.94,-0.24,0.26,-0.55,-2.01,-2.08,337,450,394,294,251
1002,0.97,-0.23,0.17,-2.62,-5.98,-2.62,327,445,442,281,248
1003,0.98,-0.22,0.14,0.67,-4.46,-2.56,327,456,441,285,248
1004,0.97,-0.22,0.15,-0.92,-2.08,-2.38,328,451,446,283,247
1005,0.97,-0.23,0.15,0.73,-2.87,-1.65,328,459,444,286,245
1006,0.96,-0.22,0.16,0.0,-2.38,-2.38,328,447,442,299,247
1007,0.97,-0.23,0.16,1.1,-3.3,-2.26,333,455,439,283,246
1008,0.97,-0.23,0.16,1.34,-3.48,-1.1,327,455,445,283,247
1009,0.96,-0.22,0.16,-1.83,-5.49,-3.72,330,452,440,283,246
1010,0.97,-0.22,0.15,-0.49,-3.11,-4.52,330,449,439,284,245
1011,0.98,-0.23,0.15,-3.23,-5.8,-2.56,329,451,438,283,248
1012,0.97,-0.22,0.15,0.61,-3.66,-1.59,327,452,439,280,247
1013,0.97,-0.22,0.15,2.08,-2.93,-1.59,330,454,438,286,248
1014,0.97,-0.22,0.17,0.18,-2.69,-1.1,329,451,444,281,246
1015,0.97,-0.23,0.16,0.61,-2.56,-1.83,330,452,437,290,245
1016,0.98,-0.22,0.16,0.24,-2.01,-1.89,331,452,433,284,247
1017,0.96,-0.24,0.16,-1.46,-4.15,-0.24,331,455,436,284,248
1018,0.96,-0.24,0.17,0.24,-3.23,-1.65,328,452,437,288,245
1019,0.96,-0.24,0.16,-0.98,-3.3,-3.23,330,453,438,286,245
1020,0.95,-0.25,0.17,-2.87,-2.44,-2.87,333,453,436,280,246
1021,0.96,-0.23,0.18,1.04,-3.85,-2.14,330,452,436,282,244
1022,0.96,-0.25,0.17,2.26,-2.5,-1.71,333,448,434,282,247
1023,0.97,-0.25,0.16,1.4,-3.48,-4.03,331,452,430,286,247
1024,0.95,-0.26,0.16,0.31,-3.48,-2.32,332,455,434,283,243
1025,0.96,-0.26,0.16,0.61,-3.17,-1.77,331,456,438,284,245
1026,0.96,-0.25,0.17,0.98,-2.75,-1.89,331,452,435,290,245
1027,0.95,-0.26,0.16,1.04,-2.5,-2.62,333,452,433,280,246
1028,0.95,-0.26,0.17,0.85,-1.16,-2.26,330,456,433,289,243
1029,0.94,-0.25,0.18,-0.31,-0.98,-2.14,330,455,433,283,265
1030,0.97,-0.25,0.17,0.92,-2.69,-1.34,327,453,433,286,245
1031,0.95,-0.25,0.18,-0.06,-3.66,-2.2,334,453,435,286,245
1032,0.95,-0.25,0.18,0.55,-2.44,-2.08,333,455,432,283,245
1033,0.95,-0.26,0.18,1.28,-2.08,-2.5,332,454,433,286,245
1034,0.96,-0.25,0.19,-0.06,-3.97,-1.89,330,453,432,290,245
1035,0.96,-0.25,0.19,1.1,-2.56,-3.05,329,461,429,291,247
1036,0.95,-0.25,0.19,-0.67,-2.87,-2.99,331,453,433,282,247
1037,0.95,-0.25,0.19,0.79,-3.05,-2.81,334,453,443,281,247
1038,0.96,-0.25,0.18,0.98,-3.78,-2.81,328,449,433,287,247
1039,0.96,-0.26,0.18,0.0,-2.26,-4.09,333,455,430,287,248
1040,0.95,-0.25,0.18,0.24,-2.08,-2.75,330,455,431,284,244
1041,0.97,-0.26,0.18,2.99,-3.17,-2.26,332,450,431,286,245
1042,0.95,-0.25,0.2,-1.04,-2.87,-3.42,330,456,433,291,245
1043,0.95,-0.25,0.19,-1.34,-3.66,-2.26,331,458,434,287,248
1044,0.96,-0.25,0.19,1.04,-3.72,-3.54,331,452,427,284,248
1045,0.97,-0.25,0.19,2.26,-3.17,-3.6,332,459,432,283,248
1046,0.96,-0.25,0.19,0.79,-2.87,-2.01,329,456,428,285,247
1047,0.95,-0.25,0.19,1.1,-3.17,-2.32,330,457,428,285,247
1048,0.95,-0.25,0.2,0.85,-2.93,-2.56,332,456,428,285,245
1049,0.95,-0.27,0.19,-2.44,0.06,-4.39,331,456,434,287,250
1050,0.96,-0.24,0.21,0.06,-3.36,-4.33,331,457,428,286,249
1051,0.97,-0.26,0.18,0.31,-3.17,-4.88,331,453,427,282,248
1052,0.97,-0.25,0.18,1.46,-1.28,-1.59,333,454,431,285,247
1053,0.95,-0.26,0.19,-0.43,-2.87,-2.26,329,450,428,285,245
1054,0.95,-0.26,0.19,-1.83,-5.43,0.79,327,454,429,282,248
1055,0.95,-0.26,0.19,0.98,-2.14,-3.6,332,453,429,286,247
1056,0.97,-0.27,0.17,3.91,-3.17,-3.97,331,453,427,285,243
1057,0.96,-0.27,0.17,1.34,-2.99,-2.56,332,453,429,283,247
1058,0.94,-0.26,0.19,1.65,-3.3,-1.71,328,455,428,286,253
1059,0.94,-0.27,0.19,1.46,-2.14,-1.95,331,457,427,285,247
1060,0.94,-0.25,0.2,0.31,-2.26,-1.89,329,454,429,286,246
1061,0.96,-0.25,0.18,-0.79,-2.2,-0.79,327,460,424,282,245
1062,0.95,-0.25,0.19,-2.01,-2.69,-0.12,333,455,428,288,247
1063,0.95,-0.26,0.18,0.18,-2.99,-2.81,331,449,428,285,246
1064,0.95,-0.26,0.18,0.49,-2.5,-3.97,329,454,425,284,244
1065,0.95,-0.27,0.17,0.49,-3.42,-2.44,333,457,426,285,246
1066,0.94,-0.27,0.18,-0.98,-1.46,-0.98,329,455,426,286,246
1067,0.94,-0.27,0.18,-0.92,-2.32,-0.37,328,454,426,284,247
1068,0.94,-0.26,0.19,-1.28,-2.62,-1.71,332,454,428,286,247
1069,0.97,-0.27,0.17,-1.53,-1.71,-4.09,333,455,431,286,243
1070,0.95,-0.25,0.2,1.04,-3.48,-2.08,331,457,425,287,246
1071,0.96,-0.26,0.18,-1.53,-1.4,-6.53,332,456,425,285,244
1072,0.93,-0.26,0.19,-0.73,-0.31,-5.13,332,457,425,282,246
1073,0.96,-0.25,0.19,-0.55,-2.99,-2.08,333,454,426,284,247
1074,0.94,-0.25,0.2,-0.92,-2.87,-2.38,333,453,425,284,242
1075,0.95,-0.24,0.22,1.04,-1.53,-2.32,331,454,426,285,246
1076,0.94,-0.26,0.21,1.04,-2.87,-4.82,332,454,427,287,248
1077,0.95,-0.25,0.2,-0.73,-2.44,-2.08,332,453,425,285,247
1078,0.96,-0.25,0.2,0.55,-3.42,-3.11,335,451,421,293,245
1079,0.95,-0.25,0.21,-1.04,-2.08,-2.01,332,458,424,283,245
1080,0.94,-0.24,0.22,-0.73,-2.81,-1.16,332,453,424,287,248
1081,0.95,-0.24,0.22,-0.12,-3.3,-0.43,333,459,424,285,244
1082,0.97,-0.24,0.21,0.98,-4.39,-3.11,331,452,424,286,244
1083,0.94,-0.24,0.22,1.46,-2.93,-2.32,334,456,424,286,248
1084,0.96,-0.23,0.22,2.14,-1.83,-1.89,334,457,421,288,247
1085,0.96,-0.26,0.19,1.34,-4.03,-3.23,333,458,422,283,244
1086,0.95,-0.25,0.21,1.1,-5.31,-1.28,330,450,423,287,246
1087,0.94,-0.25,0.22,0.37,-4.09,-4.15,334,454,426,287,245
1088,0.97,-0.23,0.22,-1.53,-1.95,-4.21,332,455,422,284,246
1089,0.96,-0.24,0.2,2.87,-2.5,-3.42,332,454,420,294,245
1090,0.96,-0.24,0.21,-1.04,-2.32,-3.05,330,455,427,287,242
1091,0.95,-0.24,0.22,-1.83,-2.93,-3.3,329,458,423,286,246
1092,0.94,-0.24,0.23,1.77,-3.11,-1.65,332,454,425,292,246
1093,0.96,-0.27,0.19,0.43,-1.53,-1.04,333,455,425,286,243
1094,0.96,-0.24,0.22,1.1,-2.38,-2.38,333,455,423,282,249
1095,0.94,-0.25,0.22,1.28,-1.95,-2.93,335,455,421,283,246
1096,0.98,-0.25,0.21,1.53,-3.72,0.06,332,455,424,285,249
1097,0.97,-0.27,0.21,-2.08,-0.67,-1.46,333,455,422,286,244
1098,0.94,-0.3,0.23,-0.61,-1.77,-1.89,328,455,424,285,247
1099,0.92,-0.31,0.21,-3.48,-2.5,-1.22,334,459,424,287,247
1100,0.93,-0.31,0.21,-1.04,-4.52,-3.97,332,454,426,289,245
1101,0.95,-0.29,0.22,1.89,-2.44,-5.68,331,454,437,289,247
1102,0.94,-0.28,0.23,0.24,-2.2,-4.94,329,451,422,293,243
1103,0.94,-0.28,0.22,-1.46,-3.72,-2.14,336,454,416,285,248
1104,0.94,-0.29,0.22,-1.04,-1.89,-2.5,334,459,420,287,248
1105,0.95,-0.28,0.23,-0.06,-2.5,-3.48,333,454,421,285,248
1106,0.93,-0.29,0.23,1.28,-2.62,-3.11,333,456,419,285,247
1107,0.93,-0.29,0.24,1.28,-4.64,-3.85,329,456,426,286,245
1108,0.95,-0.29,0.22,1.59,-3.11,-3.17,335,450,424,286,246
1109,0.91,-0.29,0.24,-0.31,-1.95,-2.14,333,455,423,286,247
1110,0.93,-0.29,0.24,3.85,-3.78,-0.79,333,455,420,289,247
1111,0.92,-0.3,0.24,1.4,-2.26,1.04,333,455,422,284,245
1112,0.92,-0.3,0.24,-0.79,-3.72,-0.98,332,455,419,284,245
1113,0.92,-0.3,0.23,2.08,-4.09,-3.17,334,459,433,287,249
1114,0.92,-0.29,0.22,0.92,-2.5,-2.44,332,459,421,286,245
1115,0.93,-0.3,0.22,-0.55,-2.87,-0.98,333,455,421,286,245
1116,0.92,-0.3,0.22,1.04,-3.17,-1.46,329,456,433,287,274
1117,0.95,-0.28,0.23,1.34,-2.62,-3.11,332,455,421,287,246
1118,0.92,-0.29,0.23,-1.28,-1.71,-2.38,332,460,423,286,245
1119,0.94,-0.3,0.23,-0.37,-2.32,-2.81,332,455,418,289,249
1120,0.95,-0.29,0.24,0.37,-4.58,0.12,329,459,420,288,256
1121,0.97,-0.3,0.2,5.74,-1.65,-2.32,333,455,420,286,244
1122,0.92,-0.3,0.22,0.43,-2.75,-5.92,336,453,420,286,270
1123,0.93,-0.29,0.23,5.8,-0.43,1.77,332,453,420,287,235
1124,0.92,-0.3,0.25,1.71,-3.91,-2.08,336,455,420,285,245
1125,0.9,-0.3,0.25,-1.4,-3.42,-2.26,331,455,417,284,241
1126,0.93,-0.28,0.24,-0.12,-2.2,-0.61,333,455,419,288,244
1127,0.94,-0.29,0.24,-0.85,-3.3,-1.83,332,458,421,290,245
1128,0.94,-0.29,0.24,0.92,-3.23,-1.59,333,451,419,285,247
1129,0.94,-0.28,0.25,1.65,-3.23,-1.83,332,460,415,292,246
1130,0.93,-0.3,0.24,0.61,-2.44,-3.05,328,460,420,288,248
1131,0.91,-0.29,0.27,-0.12,-3.17,-1.71,337,456,421,294,245
1132,0.93,-0.28,0.27,0.61,-2.93,-1.89,329,450,419,289,248
1133,0.96,-0.3,0.24,2.81,-2.62,-2.2,333,450,418,287,244
1134,0.92,-0.3,0.25,1.59,-2.81,-3.54,340,459,418,288,245
1135,0.95,-0.29,0.26,0.98,-2.32,-2.99,333,454,419,286,246
1136,0.96,-0.27,0.27,4.15,-3.72,-4.88,331,459,418,287,247
1137,0.93,-0.29,0.25,0.43,-2.93,-2.99,330,456,419,290,245
1138,0.93,-0.29,0.25,0.85,-3.23,-2.69,334,458,417,287,244
1139,0.93,-0.3,0.25,0.0,-2.75,-2.75,332,456,418,289,247
1140,0.94,-0.29,0.25,1.4,-2.32,-2.01,332,459,418,287,268
1141,0.94,-0.29,0.25,-0.55,-3.11,-1.89,333,461,418,286,245
1142,0.96,-0.28,0.25,1.46,-2.69,-1.53,335,454,419,295,248
1143,0.95,-0.29,0.25,2.75,-3.91,-3.3,334,455,416,285,246
1144,0.93,-0.3,0.24,-0.06,-2.01,-2.99,333,457,418,286,245
1145,0.93,-0.29,0.25,0.06,-2.99,-3.11,330,458,418,289,248
1146,0.92,-0.29,0.25,-0.12,-3.97,-2.81,334,459,424,288,245
1147,0.93,-0.29,0.25,-0.55,-3.11,-2.99,333,456,417,288,247
1148,0.93,-0.28,0.26,0.12,-1.83,-2.93,336,457,417,285,245
1149,0.92,-0.29,0.26,-0.61,-2.26,-3.05,335,454,417,286,245
1150,0.94,-0.28,0.26,1.71,-2.38,-2.14,327,459,417,286,247
1151,0.94,-0.28,0.26,2.32,-2.69,-3.66,333,459,416,283,244
1152,0.93,-0.29,0.25,0.49,-2.81,-2.08,333,458,416,285,248
1153,0.93,-0.29,0.26,0.43,-3.05,-2.08,330,455,415,286,246
1154,0.93,-0.29,0.26,-1.22,-2.62,-2.5,334,457,418,292,244
1155,0.93,-0.29,0.25,0.0,-2.75,-2.56,329,454,411,286,245
1156,0.92,-0.31,0.24,-0.06,-3.72,-2.93,334,450,417,286,245
1157,0.93,-0.3,0.24,-0.61,-2.32,-2.93,334,457,414,288,244
1158,0.94,-0.29,0.24,-0.24,-3.17,-2.81,334,460,414,287,247
1159,0.93,-0.29,0.25,1.04,-3.17,-3.36,333,457,415,291,245
1160,0.93,-0.29,0.25,0.73,-3.85,-2.44,333,459,413,286,243
1161,0.93,-0.28,0.26,0.06,-3.05,-1.95,334,456,412,286,272
1162,0.94,-0.29,0.25,0.18,-2.62,-2.44,333,456,411,283,244
1163,0.93,-0.29,0.26,0.85,-3.23,-1.95,334,457,415,286,244
1164,0.93,-0.28,0.25,-0.43,-3.85,-2.14,331,457,412,286,248
1165,0.94,-0.29,0.25,2.62,-2.56,-2.32,334,459,418,287,248
1166,0.93,-0.29,0.25,0.55,-3.6,-2.38,333,456,413,284,247
1167,0.94,-0.3,0.24,1.1,-2.01,-2.26,333,451,415,296,247
1168,0.93,-0.28,0.26,0.79,-2.99,-3.72,334,455,415,285,245
1169,0.93,-0.28,0.26,-0.61,-2.38,-2.62,332,462,418,288,245
1170,0.94,-0.28,0.25,-0.85,-2.81,-3.23,333,453,428,292,247
1171,0.94,-0.29,0.24,1.28,-4.15,-1.95,329,455,414,287,245
1172,0.93,-0.28,0.25,0.73,-2.81,-2.87,336,451,415,287,245
1173,0.94,-0.27,0.26,0.12,-2.93,-3.23,333,458,415,290,242
1174,0.93,-0.28,0.26,-0.24,-2.5,-2.75,322,450,414,287,249
1175,0.94,-0.27,0.26,1.04,-2.14,-3.72,333,458,417,287,245
1176,0.93,-0.27,0.26,1.04,-3.11,-3.3,333,460,417,288,246
1177,0.94,-0.27,0.26,-0.18,-3.48,-2.62,332,460,415,288,245
1178,0.94,-0.27,0.25,0.06,-2.38,-2.26,331,458,412,288,246
1179,0.93,-0.27,0.26,-0.31,-2.93,-2.56,333,450,410,290,249
1180,0.92,-0.28,0.25,-1.4,-2.75,-2.56,335,459,415,287,248
1181,0.93,-0.28,0.25,-0.12,-3.11,-2.56,331,459,415,290,245
1182,0.93,-0.27,0.26,-0.12,-2.38,-2.38,330,455,413,289,247
1183,0.94,-0.27,0.25,-0.06,-1.83,-2.5,332,459,417,285,247
1184,0.94,-0.27,0.25,0.49,-3.91,-1.65,332,455,413,289,247
1185,0.93,-0.27,0.25,0.18,-2.93,-2.32,335,460,411,287,245
1186,0.94,-0.27,0.25,1.16,-3.36,-3.17,333,455,411,290,247
1187,0.93,-0.27,0.25,0.67,-2.62,-2.75,335,459,411,290,247
1188,0.93,-0.27,0.25,-0.55,-2.32,-2.99,335,453,414,287,243
1189,0.94,-0.27,0.25,0.79,-2.99,-2.62,336,450,416,288,248
1190,0.94,-0.27,0.25,0.98,-2.32,-1.71,332,457,409,287,248
1191,0.94,-0.25,0.27,-2.32,-3.85,-3.11,336,463,415,291,247
1192,0.95,-0.25,0.26,-1.4,-2.38,-4.64,334,456,410,289,247
1193,0.92,-0.25,0.28,-0.37,-3.17,-0.31,334,458,411,287,243
1194,0.94,-0.27,0.25,0.98,-3.3,-1.1,332,453,411,290,245
1195,0.92,-0.26,0.26,0.49,-2.75,-2.32,332,458,415,288,245
1196,0.94,-0.26,0.25,0.79,-1.34,-4.21,333,457,414,291,247
1197,0.94,-0.26,0.26,1.53,-3.05,-2.14,333,454,411,285,248
1198,0.95,-0.25,0.26,2.2,-3.23,-2.93,333,458,413,288,246
1199,0.93,-0.26,0.26,0.18,-3.05,-3.23,332,454,412,286,243
1200,0.94,-0.28,0.25,-0.43,-4.15,-1.95,331,452,408,287,245
1201,0.94,-0.28,0.25,-0.85,-3.66,-2.5,336,458,416,288,246
1202,0.93,-0.26,0.26,1.34,-2.93,-3.42,333,456,412,288,246
1203,0.93,-0.27,0.25,0.85,-3.97,-2.01,335,455,414,288,246
1204,0.94,-0.27,0.25,1.28,-3.6,-2.5,333,455,414,288,246
1205,0.94,-0.27,0.25,-0.61,-2.26,-2.32,335,451,414,286,247
1206,0.94,-0.27,0.25,-0.12,-2.2,-2.69,331,459,412,290,243
1207,0.95,-0.28,0.24,-0.31,-3.48,-0.24,330,450,408,291,246
1208,0.94,-0.27,0.25,-1.04,-5.25,-4.39,334,455,413,290,249
1209,0.91,-0.26,0.28,-5.98,-4.76,-5.07,335,458,416,287,244
1210,0.94,-0.27,0.23,1.16,-2.69,-2.56,331,459,411,287,246
1211,0.96,-0.28,0.22,1.4,-2.62,-0.85,330,456,414,291,246
1212,0.95,-0.29,0.22,1.59,-3.6,-3.23,332,456,411,286,249
1213,0.94,-0.28,0.23,-1.77,-3.05,0.67,329,454,413,288,245
1214,0.93,-0.27,0.25,-2.75,-3.05,-1.83,327,453,416,289,248
1215,0.94,-0.29,0.22,-0.98,-3.91,-0.98,334,455,413,288,246
1216,0.92,-0.32,0.22,1.22,-3.6,-5.43,335,451,408,285,244
1217,0.95,-0.31,0.21,4.58,-5.74,-4.58,333,454,410,289,248
1218,0.92,-0.29,0.23,0.18,-2.99,-4.52,338,458,414,291,246
1219,0.92,-0.29,0.21,-1.59,-3.42,-2.08,332,455,412,285,247
1220,0.93,-0.28,0.23,-1.04,-2.08,-0.73,334,455,409,291,246
1221,0.93,-0.29,0.22,0.0,-1.77,-1.34,333,451,413,291,249
1222,0.93,-0.27,0.24,0.98,-2.2,-2.87,333,450,411,291,247
1223,0.93,-0.29,0.23,-0.31,-2.62,-2.62,333,459,414,291,248
1224,0.95,-0.27,0.24,0.55,-2.01,-3.17,330,458,414,285,248
1225,0.96,-0.27,0.23,0.92,-4.46,-2.62,335,454,411,287,249
1226,0.94,-0.28,0.23,0.49,-5.0,-1.95,333,458,410,287,247
1227,0.94,-0.27,0.23,1.95,-2.56,-2.56,332,458,411,287,245
1228,0.94,-0.26,0.24,0.49,-2.01,-2.69,335,454,410,290,243
1229,0.93,-0.27,0.24,1.4,-3.78,-2.81,334,450,411,288,246
1230,0.94,-0.28,0.22,0.85,-2.87,-2.56,334,455,411,291,250
1231,0.94,-0.27,0.23,0.31,-3.6,-2.08,333,453,414,289,246
1232,0.94,-0.27,0.23,0.61,-3.36,-2.44,334,455,411,289,249
1233,0.95,-0.27,0.23,1.04,-3.17,-1.46,334,450,407,289,246
1234,0.94,-0.26,0.24,0.55,-3.36,-3.23,335,458,413,288,244
1235,0.94,-0.27,0.24,1.77,-2.56,-3.11,334,454,410,290,248
1236,0.94,-0.27,0.24,0.31,-2.87,-2.14,336,452,408,295,246
1237,0.94,-0.26,0.25,1.28,-2.99,-2.69,330,452,411,289,248
1238,0.93,-0.27,0.24,0.73,-3.48,-2.81,334,457,410,287,244
1239,0.93,-0.25,0.26,0.67,-2.62,-2.14,335,454,411,294,246
1240,0.93,-0.26,0.25,0.61,-2.69,-3.11,334,460,409,289,250
1241,0.94,-0.26,0.25,1.59,-1.89,-2.26,334,455,409,289,247
1242,0.94,-0.27,0.24,0.06,-3.54,-1.83,330,453,406,291,246
1243,0.94,-0.26,0.24,0.61,-2.08,-3.66,333,455,411,291,246
1244,0.94,-0.26,0.25,-0.12,-2.69,-1.77,336,459,411,288,247
1245,0.94,-0.26,0.25,-0.06,-4.15,-1.34,334,455,408,288,248
1246,0.94,-0.25,0.26,0.12,-3.11,-1.65,334,450,411,288,246
1247,0.94,-0.27,0.25,0.24,-2.87,-2.26,337,454,411,289,273
1248,0.93,-0.26,0.25,0.85,-2.75,-2.44,331,452,406,290,254
1249,0.94,-0.28,0.24,0.92,-2.75,-2.69,333,450,409,291,246
1250,0.93,-0.27,0.25,-0.67,-3.85,-3.85,334,451,409,289,248
1251,0.94,-0.26,0.25,-0.12,-2.08,-3.91,334,456,409,291,249
1252,0.94,-0.27,0.24,0.43,-2.75,-2.2,334,455,410,290,247
1253,0.94,-0.27,0.25,-0.67,-2.93,-1.46,332,452,409,291,246
1254,0.94,-0.27,0.24,1.46,-4.03,-3.42,331,453,410,291,247
1255,0.94,-0.27,0.24,0.85,-4.33,-4.52,336,456,409,288,247
1256,0.94,-0.25,0.26,0.98,-2.62,-2.93,334,450,411,289,246
1257,0.93,-0.26,0.25,0.24,-3.05,-2.87,334,455,406,293,247
1258,0.95,-0.26,0.25,1.04,-2.14,-3.48,333,451,411,290,246
1259,0.93,-0.27,0.24,-0.12,-2.93,-2.01,336,455,409,288,249
1260,0.93,-0.27,0.25,0.37,-2.81,-3.36,335,457,408,288,244
1261,0.94,-0.26,0.25,1.1,-2.75,-2.87,332,455,407,288,248
1262,0.95,-0.25,0.25,0.85,-3.48,-2.56,334,459,408,291,246
1263,0.94,-0.26,0.25,0.37,-1.89,-2.44,336,455,412,291,248
1264,0.96,-0.26,0.25,1.28,-4.64,-3.11,329,452,408,288,249
1265,0.94,-0.26,0.25,0.31,-2.5,-2.87,334,456,411,288,247
1266,0.94,-0.27,0.24,-0.18,-2.99,-4.03,334,453,409,291,244
1267,0.93,-0.27,0.24,-0.98,-2.44,-2.69,333,455,407,290,254
1268,0.93,-0.27,0.24,-1.77,-4.33,-2.26,331,456,406,287,248
1269,0.94,-0.26,0.24,-0.37,-4.09,-2.2,332,458,408,289,250
1270,0.94,-0.28,0.23,0.06,-3.72,-1.4,335,459,406,288,237
1271,0.92,-0.26,0.25,0.24,-4.94,1.04,334,455,412,288,247
1272,0.93,-0.3,0.2,-1.04,-2.32,-4.64,335,458,408,294,256
1273,0.94,-0.28,0.22,0.31,-1.53,-1.71,333,457,410,291,245
1274,0.94,-0.28,0.22,-1.65,-1.53,-3.3,334,455,408,290,248
1275,0.94,-0.28,0.23,0.31,-3.97,-3.85,331,456,408,288,247
1276,0.95,-0.28,0.22,-1.59,-2.14,-2.62,335,459,408,288,247
1277,0.95,-0.27,0.22,-0.67,-2.81,-0.73,334,453,408,289,246
1278,0.94,-0.28,0.23,0.37,-2.01,0.0,336,458,410,292,249
1279,0.94,-0.28,0.23,-0.31,-2.5,-2.56,333,454,406,292,247
1280,0.91,-0.3,0.22,0.12,-4.03,-1.22,336,458,407,290,248
1281,0.92,-0.3,0.2,-2.26,-1.71,-0.55,332,451,409,294,248
1282,0.94,-0.29,0.21,2.01,-3.6,-4.64,340,461,409,290,246
1283,0.94,-0.27,0.23,1.04,-3.23,-2.26,334,454,407,289,250
1284,0.93,-0.32,0.19,-4.33,-4.27,-2.87,336,450,408,290,246
1285,0.96,-0.29,0.21,-1.28,-4.52,1.46,334,451,401,288,249
1286,0.94,-0.3,0.22,4.88,-5.37,-3.05,334,455,405,287,247
1287,0.93,-0.33,0.2,1.46,-1.65,-3.36,331,459,407,286,263
1288,0.94,-0.32,0.2,1.89,-1.1,-3.85,337,454,404,287,246
1289,0.94,-0.3,0.22,4.58,-4.03,-6.53,334,456,407,288,247
1290,0.97,-0.32,0.16,0.43,-6.77,-10.01,335,458,404,285,249
1291,0.96,-0.25,0.2,3.54,4.15,-9.16,342,453,405,289,247
1292,0.97,-0.25,0.2,3.42,-2.99,-4.03,337,459,405,290,248
1293,0.94,-0.25,0.21,-0.49,-0.67,-1.77,337,454,406,289,249
1294,0.95,-0.24,0.22,0.37,-1.53,0.06,341,460,404,291,248
1295,0.96,-0.25,0.21,1.46,-2.26,-3.23,334,458,406,289,249
1296,0.95,-0.26,0.21,0.92,-3.11,-1.59,334,455,418,286,250
1297,0.95,-0.25,0.21,-0.18,-3.11,-2.87,336,457,410,287,249
1298,0.95,-0.25,0.23,0.61,-3.36,-2.2,332,459,408,291,250
1299,0.95,-0.26,0.21,2.93,-1.89,-2.81,334,455,405,288,255
1300,0.95,-0.27,0.21,1.04,-3.05,-2.62,336,460,407,292,250
1301,0.95,-0.26,0.22,0.92,-1.4,-2.62,335,459,407,293,248
1302,0.95,-0.26,0.22,-0.73,-2.81,-1.46,337,456,408,292,248
1303,0.95,-0.25,0.24,-0.61,-2.38,-1.34,335,460,409,293,249
1304,0.94,-0.26,0.23,-0.73,-3.11,-1.89,336,455,405,292,249
1305,0.94,-0.26,0.24,1.89,-2.38,-2.01,339,465,406,292,250
1306,0.93,-0.26,0.23,0.37,-2.32,-2.32,335,455,407,290,250
1307,0.94,-0.26,0.23,1.22,-3.05,-1.65,334,459,408,291,248
1308,0.93,-0.27,0.23,1.59,-2.75,-1.22,335,466,405,290,248
1309,0.95,-0.26,0.22,0.55,-3.97,-2.75,345,450,408,289,245
1310,0.93,-0.26,0.24,-1.89,-2.26,-2.62,333,460,410,289,247
1311,0.93,-0.27,0.23,0.18,-3.17,-2.75,335,455,405,288,250
1312,0.95,-0.27,0.23,-1.77,-1.77,-4.03,335,457,405,293,263
1313,0.96,-0.26,0.22,0.73,-4.58,-2.44,334,453,407,288,243
1314,0.95,-0.27,0.22,1.22,-2.69,-2.87,336,455,405,290,250
1315,0.95,-0.27,0.23,1.77,-2.81,-2.87,336,456,404,292,249
1316,0.95,-0.26,0.23,0.92,-2.2,-3.05,333,459,407,296,249
1317,0.94,-0.26,0.24,1.22,-2.81,-2.26,337,455,404,289,253
1318,0.94,-0.26,0.24,1.16,-2.93,-2.81,331,458,406,290,256
1319,0.95,-0.26,0.24,-0.79,-2.69,-2.93,330,457,402,292,248
1320,0.94,-0.26,0.24,0.24,-2.87,-3.3,337,455,404,289,247
1321,0.94,-0.26,0.23,0.18,-3.05,-3.66,336,451,404,289,249
1322,0.93,-0.27,0.23,2.01,-3.42,-3.05,335,456,403,288,250
1323,0.94,-0.26,0.23,1.22,-3.3,-2.5,336,459,404,286,249
1324,0.95,-0.26,0.23,-0.24,-1.77,-2.2,335,449,400,293,248
1325,0.95,-0.26,0.23,1.53,-2.56,-2.62,331,457,398,293,248
1326,0.95,-0.27,0.23,0.43,-2.69,-2.08,337,454,397,292,248
1327,0.95,-0.27,0.23,0.43,-3.42,-1.65,330,456,400,287,249
1328,0.94,-0.26,0.23,-0.61,-2.93,-2.75,335,455,402,291,250
1329,0.94,-0.26,0.23,0.31,-3.91,-1.83,339,459,405,292,251
1330,0.95,-0.26,0.23,0.49,-3.54,-2.38,335,455,398,291,250
1331,0.95,-0.25,0.24,-0.85,-2.69,-2.38,330,459,398,285,248
1332,0.94,-0.26,0.24,0.12,-2.93,-1.83,334,459,402,289,250
1333,0.94,-0.26,0.24,0.79,-2.14,-3.42,332,458,403,289,249
1334,0.95,-0.26,0.24,-1.04,-3.42,-1.65,332,450,401,292,262
1335,0.94,-0.26,0.25,0.61,-2.38,-2.26,335,456,403,289,249
1336,0.94,-0.26,0.24,0.43,-3.78,-1.59,337,450,397,291,254
1337,0.94,-0.26,0.23,-0.49,-3.42,-2.69,336,457,405,286,251
1338,0.94,-0.26,0.24,0.98,-2.38,-2.56,343,459,402,286,250
1339,0.93,-0.27,0.24,0.0,-2.2,-3.23,337,458,396,292,248
1340,0.94,-0.28,0.23,-1.04,-2.99,-2.38,337,453,402,290,250
1341,0.94,-0.27,0.23,1.34,-3.23,-2.26,331,456,402,286,250
1342,0.95,-0.27,0.24,1.04,-3.3,-2.69,330,450,402,292,250
1343,0.95,-0.26,0.24,0.43,-4.03,-2.26,333,455,399,289,250
1344,0.94,-0.27,0.24,1.22,-3.54,-2.69,334,454,400,289,247
1345,0.95,-0.27,0.24,0.18,-3.23,-1.34,336,457,400,285,247
1346,0.93,-0.27,0.23,-0.55,-3.48,-1.34,339,450,402,290,248
1347,0.94,-0.27,0.24,1.4,-3.05,-1.65,335,456,397,286,246
1348,0.93,-0.26,0.25,0.67,-3.17,-2.44,337,457,400,290,247
1349,0.94,-0.26,0.25,0.31,-2.69,-2.99,334,456,398,292,247
1350,0.94,-0.27,0.25,-0.43,-4.46,-1.59,334,450,402,289,250
1351,0.93,-0.27,0.24,1.1,-3.11,-2.14,334,459,403,289,250
1352,0.94,-0.27,0.24,-0.85,-3.42,-1.89,328,455,402,293,247
1353,0.94,-0.28,0.23,0.24,-3.23,-3.11,338,456,398,291,248
1354,0.94,-0.27,0.24,1.59,-2.56,-2.81,334,456,400,289,275
1355,0.94,-0.27,0.25,-0.12,-2.62,-2.44,336,456,400,290,249
1356,0.93,-0.27,0.25,0.49,-3.42,-1.46,331,459,400,290,247
1357,0.93,-0.27,0.25,0.73,-2.56,-2.44,334,456,399,289,249
1358,0.94,-0.27,0.24,0.43,-2.75,-3.05,333,451,405,292,277
1359,0.95,-0.27,0.24,0.92,-2.75,-2.75,335,457,400,292,248
1360,0.94,-0.27,0.24,0.98,-2.87,-2.69,334,457,401,292,247
1361,0.94,-0.29,0.23,2.08,-3.36,-3.36,337,459,400,290,245
1362,0.92,-0.29,0.23,-0.18,-3.97,-4.58,337,454,403,288,249
1363,0.93,-0.27,0.25,-0.73,-2.81,-2.56,333,453,402,290,247
1364,0.93,-0.28,0.24,0.49,-3.05,-2.75,335,456,400,293,247
1365,0.93,-0.28,0.24,1.16,-3.78,-2.87,342,451,400,287,250
1366,0.94,-0.26,0.25,2.69,-4.58,-2.32,333,455,403,289,247
1367,0.96,-0.26,0.23,2.32,-2.26,-1.95,333,453,401,292,248
1368,0.94,-0.29,0.23,0.55,-2.75,-2.56,334,457,401,292,248
1369,0.94,-0.27,0.25,1.34,-2.87,-2.56,335,456,399,289,250
1370,0.94,-0.27,0.24,2.38,-2.75,-4.15,332,460,396,290,247
1371,0.93,-0.27,0.23,2.2,-4.58,-2.01,333,455,398,290,252
1372,0.91,-0.27,0.24,-1.34,-4.46,-4.21,338,452,399,286,250
1373,0.93,-0.25,0.25,-3.17,-0.49,-0.43,331,457,404,290,248
1374,0.94,-0.26,0.24,0.49,-3.66,-0.73,336,459,403,291,247
1375,0.94,-0.26,0.24,1.16,-2.75,-3.48,337,452,398,287,244
1376,0.94,-0.26,0.24,-0.06,-3.05,-2.56,334,459,399,289,247
1377,0.93,-0.26,0.24,-2.38,-2.99,-3.05,334,456,400,293,250
1378,0.94,-0.25,0.25,-0.12,-2.93,-0.61,335,460,400,287,250
1379,0.95,-0.26,0.23,-2.5,-2.26,-4.64,335,456,400,289,248
1380,0.94,-0.25,0.24,-1.95,-1.71,-2.56,334,456,398,291,247
1381,0.93,-0.25,0.25,-0.31,-2.5,-1.65,334,455,402,293,247
1382,0.94,-0.24,0.25,0.12,-2.08,-2.2,334,460,399,292,250
1383,0.95,-0.25,0.25,0.37,-2.14,-3.6,334,462,401,291,253
1384,0.94,-0.26,0.24,0.98,-2.14,-2.75,331,459,402,292,259
1385,0.94,-0.25,0.25,1.22,-3.91,-2.75,335,451,397,293,248
1386,0.95,-0.26,0.24,1.28,-2.62,-2.69,334,455,396,286,248
1387,0.94,-0.24,0.25,2.44,-3.72,-2.75,334,459,398,292,249
1388,0.96,-0.25,0.24,2.01,-4.46,-2.87,334,458,399,290,246
1389,0.94,-0.24,0.25,1.16,-3.23,-2.44,334,457,399,290,247
1390,0.94,-0.24,0.24,-0.31,-2.93,-2.32,336,456,400,289,249
1391,0.94,-0.25,0.24,-0.67,-2.44,-2.26,330,452,400,292,244
1392,0.95,-0.24,0.25,0.98,-2.01,-2.14,331,459,401,291,248
1393,0.96,-0.23,0.24,-3.17,-6.53,-1.77,333,456,395,287,247
1394,0.91,-0.27,0.24,2.5,-5.25,-0.61,333,455,401,291,245
1395,0.93,-0.28,0.21,-0.12,-2.69,-2.5,334,457,399,290,248
1396,0.94,-0.29,0.2,-0.06,-2.81,-1.71,337,457,401,291,249
1397,0.94,-0.26,0.22,-0.61,-1.34,-4.27,335,457,397,289,249
1398,0.96,-0.26,0.2,-1.16,-1.83,-1.65,334,451,398,290,244
1399,0.94,-0.26,0.21,1.65,-2.5,-3.17,334,450,400,294,248
1400,0.95,-0.25,0.22,-0.06,-4.33,-1.71,335,456,400,290,249
1401,0.94,-0.25,0.22,0.49,-2.44,-1.71,335,451,396,288,257
1402,0.94,-0.26,0.21,-1.1,-2.26,-2.62,332,455,398,292,247
1403,0.96,-0.26,0.2,-0.18,-1.4,-2.2,332,453,397,292,248
1404,0.95,-0.25,0.22,-0.37,-2.01,-3.11,335,455,398,290,247
1405,0.94,-0.26,0.23,0.31,-3.11,-1.22,335,455,398,292,247
1406,0.94,-0.27,0.22,-0.31,-2.01,-2.01,332,458,402,292,248
1407,0.95,-0.27,0.22,0.55,-3.54,-2.38,334,454,398,289,248
1408,0.94,-0.27,0.22,-0.49,-2.62,-2.81,331,457,398,290,250
1409,0.94,-0.26,0.23,0.43,-1.89,-2.01,335,451,398,291,244
1410,0.96,-0.27,0.22,-0.55,-1.83,-1.65,336,461,401,291,271
1411,0.96,-0.26,0.23,1.04,-3.48,-2.5,332,455,398,289,252
1412,0.95,-0.27,0.23,0.79,-3.05,-1.22,331,450,399,292,247
1413,0.94,-0.27,0.23,-0.06,-2.38,-1.4,335,455,396,291,250
1414,0.95,-0.27,0.23,-0.79,-3.23,-1.34,335,462,396,291,249
1415,0.91,-0.28,0.24,-1.16,-2.26,-0.79,333,449,398,291,249
1416,0.94,-0.29,0.22,2.32,-3.78,-3.23,334,465,400,292,250
1417,0.94,-0.28,0.23,-0.31,-2.69,-2.2,334,455,397,294,248
1418,0.95,-0.27,0.24,1.53,-2.93,-1.28,333,455,394,291,249
1419,0.94,-0.27,0.24,0.43,-2.75,-1.59,334,457,396,292,249
1420,0.94,-0.27,0.24,-0.92,-2.56,-1.89,336,459,397,293,247
1421,0.93,-0.28,0.23,0.67,-2.62,-3.36,337,458,399,290,249
1422,0.94,-0.27,0.24,1.71,-2.99,-3.17,336,463,400,292,276
1423,0.94,-0.27,0.23,0.79,-3.42,-2.81,335,458,400,292,250
1424,0.95,-0.27,0.23,1.34,-3.36,-2.69,338,456,397,292,250
1425,0.94,-0.27,0.24,0.43,-3.54,-2.32,331,459,397,289,247
1426,0.94,-0.28,0.23,1.65,-2.99,-2.93,331,451,399,290,248
1427,0.94,-0.27,0.24,0.0,-2.56,-3.54,335,455,394,292,251
1428,0.93,-0.27,0.23,0.18,-2.5,-2.5,333,454,397,290,248
1429,0.94,-0.26,0.24,0.31,-2.81,-3.6,335,458,400,291,248
1430,0.94,-0.27,0.23,0.79,-2.69,-2.62,333,455,400,293,246
1431,0.94,-0.26,0.25,1.1,-2.99,-1.95,333,458,399,297,249
1432,0.95,-0.27,0.23,-2.69,-3.05,-4.15,338,453,396,290,247
1433,0.94,-0.27,0.23,1.4,-2.87,-3.11,334,458,399,288,244
1434,0.94,-0.27,0.23,1.34,-3.05,-3.17,338,451,397,292,247
1435,0.94,-0.26,0.24,-0.37,-1.65,-2.81,337,456,396,291,249
1436,0.94,-0.27,0.23,0.79,-2.14,-3.11,337,455,397,292,249
1437,0.94,-0.26,0.24,0.24,-2.5,-1.77,333,455,397,289,248
1438,0.95,-0.27,0.24,0.43,-3.11,-2.69,332,456,395,292,247
1439,0.95,-0.27,0.23,0.49,-3.54,-2.87,336,455,396,291,250
1440,0.95,-0.26,0.23,0.31,-3.78,-2.38,337,459,397,290,248
1441,0.94,-0.26,0.24,1.22,-4.03,-2.5,335,456,397,292,248
1442,0.94,-0.27,0.23,-0.18,-1.83,-2.5,335,456,396,291,250
1443,0.95,-0.28,0.22,0.31,-2.2,-1.89,331,456,393,289,248
1444,0.95,-0.28,0.23,0.12,-2.44,-2.2,336,451,393,292,249
1445,0.93,-0.28,0.23,2.75,-3.42,-3.97,332,456,396,290,243
1446,0.92,-0.27,0.25,0.43,-3.3,-2.01,334,454,395,291,247
1447,0.93,-0.27,0.24,0.73,-2.99,-3.85,333,456,397,287,245
1448,0.94,-0.27,0.25,1.1,-3.97,-2.75,334,454,393,293,247
1449,0.94,-0.27,0.24,2.38,-3.78,-2.93,336,455,395,286,247
1450,0.96,-0.26,0.24,1.83,-4.52,-4.03,337,456,395,292,250
1451,0.94,-0.28,0.23,1.89,-2.81,-3.17,336,456,397,292,243
1452,0.94,-0.28,0.23,-0.49,-2.99,-2.38,332,456,397,287,249
1453,0.95,-0.27,0.23,2.56,-3.05,-2.2,335,455,403,291,245
1454,0.94,-0.28,0.23,-0.06,-2.69,-2.26,330,464,396,288,250
1455,0.94,-0.27,0.24,-0.49,-2.44,-2.44,335,455,400,289,250
1456,0.94,-0.28,0.24,1.1,-3.36,-1.77,332,458,399,288,248
1457,0.93,-0.28,0.23,-0.06,-3.85,-3.54,335,455,397,292,250
1458,0.94,-0.27,0.23,0.37,-2.99,-2.14,335,455,397,290,248
1459,0.93,-0.27,0.24,1.34,-3.72,-2.87,334,457,396,292,249
1460,0.95,-0.26,0.24,1.34,-2.2,-1.22,334,460,401,287,249
1461,0.95,-0.26,0.24,0.24,-3.05,-3.36,334,459,397,291,251
1462,0.92,-0.29,0.23,3.42,-3.91,-5.07,332,455,401,292,247
1463,0.92,-0.28,0.23,-1.16,-3.23,-2.5,334,459,396,291,251
1464,0.94,-0.26,0.25,-1.22,-1.83,-2.62,336,455,397,290,248
1465,0.95,-0.26,0.23,-1.04,-3.42,-2.99,335,455,396,293,248
1466,0.97,-0.23,0.27,5.68,-8.48,-3.48,336,455,396,291,247
1467,0.95,-0.22,0.26,1.77,-2.87,-2.5,337,455,398,293,245
1468,0.95,-0.23,0.26,1.77,-3.23,-3.42,335,451,396,289,262
1469,0.95,-0.22,0.27,0.0,-2.56,-2.44,336,455,393,290,247
1470,0.94,-0.24,0.25,-0.98,-3.42,-0.98,335,455,395,293,248
1471,0.93,-0.24,0.26,0.67,-3.91,-1.53,334,458,395,290,249
1472,0.95,-0.23,0.26,0.24,-2.99,-2.56,333,456,396,287,248
1473,0.95,-0.24,0.25,-0.18,-1.77,-3.17,334,460,395,293,246
1474,0.94,-0.25,0.25,-0.73,-2.38,-2.26,337,459,396,292,249
1475,0.95,-0.24,0.26,-0.73,-2.99,-2.01,336,452,397,293,249
1476,0.95,-0.23,0.27,1.04,-2.99,-1.71,334,458,394,296,250
1477,0.94,-0.24,0.26,0.24,-2.81,-2.26,334,455,395,291,249
1478,0.95,-0.24,0.26,1.22,-3.23,-2.87,331,452,396,289,247
1479,0.95,-0.25,0.25,1.1,-2.62,-2.75,335,452,398,296,250
1480,0.95,-0.24,0.26,2.44,-2.75,-3.11,335,451,391,291,247
1481,0.95,-0.23,0.26,0.92,-3.48,-2.2,335,450,398,290,247
1482,0.94,-0.24,0.26,0.37,-2.32,-2.5,335,454,400,293,249
1483,0.94,-0.24,0.26,0.49,-2.44,-2.69,334,450,395,290,248
1484,0.94,-0.24,0.26,-0.61,-3.85,-2.08,334,454,393,291,247
1485,0.94,-0.25,0.25,0.85,-4.15,-2.87,334,457,397,294,249
1486,0.94,-0.25,0.25,-0.73,-1.77,-2.56,334,457,396,291,249
1487,0.95,-0.25,0.25,-0.37,-2.87,-2.75,334,455,395,288,250
1488,0.93,-0.25,0.26,-0.55,-1.95,-3.6,338,458,392,290,247
1489,0.93,-0.25,0.25,-0.73,-2.62,-3.05,335,459,396,290,250
1490,0.94,-0.25,0.25,1.1,-2.93,-1.95,333,454,396,290,248
1491,0.97,-0.25,0.26,1.34,-3.78,-2.32,337,455,393,293,247
1492,0.94,-0.24,0.27,0.92,-3.36,-3.85,336,458,396,292,249
1493,0.94,-0.25,0.26,-0.49,-2.56,-3.23,332,458,393,293,250
1494,0.94,-0.24,0.26,-0.06,-2.2,-3.17,333,455,397,290,248
1495,0.95,-0.25,0.25,0.73,-2.14,-2.56,332,459,398,290,249
1496,0.95,-0.24,0.26,1.65,-3.54,-2.2,333,456,395,291,256
1497,0.94,-0.24,0.27,0.49,-2.2,-2.81,337,450,393,292,250
1498,0.94,-0.24,0.26,0.55,-3.17,-2.38,337,454,395,291,251
1499,0.94,-0.25,0.25,0.49,-3.66,-3.66,335,460,395,291,248
1500,0.94,-0.24,0.26,1.04,-3.48,-2.2,334,453,394,294,246
1501,0.95,-0.24,0.26,-1.1,-1.34,-3.17,335,455,395,291,251
1502,0.94,-0.24,0.26,-0.55,-2.01,-2.08,337,450,394,294,251
1503,0.97,-0.23,0.17,-2.62,-5.98,-2.62,327,445,442,281,248
1504,0.98,-0.22,0.14,0.67,-4.46,-2.56,327,456,441,285,248
1505,0.97,-0.22,0.15,-0.92,-2.08,-2.38,328,451,446,283,247
1506,0.97,-0.23,0.15,0.73,-2.87,-1.65,328,459,444,286,245
1507,0.96,-0.22,0.16,0.0,-2.38,-2.38,328,447,442,299,247
1508,0.97,-0.23,0.16,1.1,-3.3,-2.26,333,455,439,283,246
1509,0.97,-0.23,0.16,1.34,-3.48,-1.1,327,455,445,283,247
1510,0.96,-0.22,0.16,-1.83,-5.49,-3.72,330,452,440,283,246
1511,0.97,-0.22,0.15,-0.49,-3.11,-4.52,330,449,439,284,245
1512,0.98,-0.23,0.15,-3.23,-5.8,-2.56,329,451,438,283,248
1513,0.97,-0.22,0.15,0.61,-3.66,-1.59,327,452,439,280,247
1514,0.97,-0.22,0.15,2.08,-2.93,-1.59,330,454,438,286,248
1515,0.97,-0.22,0.17,0.18,-2.69,-1.1,329,451,444,281,246
1516,0.97,-0.23,0.16,0.61,-2.56,-1.83,330,452,437,290,245
1517,0.98,-0.22,0.16,0.24,-2.01,-1.89,331,452,433,284,247
1518,0.96,-0.24,0.16,-1.46,-4.15,-0.24,331,455,436,284,248
1519,0.96,-0.24,0.17,0.24,-3.23,-1.65,328,452,437,288,245
1520,0.96,-0.24,0.16,-0.98,-3.3,-3.23,330,453,438,286,245
1521,0.95,-0.25,0.17,-2.87,-2.44,-2.87,333,453,436,280,246
1522,0.96,-0.23,0.18,1.04,-3.85,-2.14,330,452,436,282,244
1523,0.96,-0.25,0.17,2.26,-2.5,-1.71,333,448,434,282,247
1524,0.97,-0.25,0.16,1.4,-3.48,-4.03,331,452,430,286,247
1525,0.95,-0.26,0.16,0.31,-3.48,-2.32,332,455,434,283,243
1526,0.96,-0.26,0.16,0.61,-3.17,-1.77,331,456,438,284,245
1527,0.96,-0.25,0.17,0.98,-2.75,-1.89,331,452,435,290,245
1528,0.95,-0.26,0.16,1.04,-2.5,-2.62,333,452,433,280,246
1529,0.95,-0.26,0.17,0.85,-1.16,-2.26,330,456,433,289,243
1530,0.94,-0.25,0.18,-0.31,-0.98,-2.14,330,455,433,283,265
1531,0.97,-0.25,0.17,0.92,-2.69,-1.34,327,453,433,286,245
1532,0.95,-0.25,0.18,-0.06,-3.66,-2.2,334,453,435,286,245
1533,0.95,-0.25,0.18,0.55,-2.44,-2.08,333,455,432,283,245
1534,0.95,-0.26,0.18,1.28,-2.08,-2.5,332,454,433,286,245
1535,0.96,-0.25,0.19,-0.06,-3.97,-1.89,330,453,432,290,245
1536,0.96,-0.25,0.19,1.1,-2.56,-3.05,329,461,429,291,247
1537,0.95,-0.25,0.19,-0.67,-2.87,-2.99,331,453,433,282,247
1538,0.95,-0.25,0.19,0.79,-3.05,-2.81,334,453,443,281,247
1539,0.96,-0.25,0.18,0.98,-3.78,-2.81,328,449,433,287,247
1540,0.96,-0.26,0.18,0.0,-2.26,-4.09,333,455,430,287,248
1541,0.95,-0.25,0.18,0.24,-2.08,-2.75,330,455,431,284,244
1542,0.97,-0.26,0.18,2.99,-3.17,-2.26,332,450,431,286,245
1543,0.95,-0.25,0.2,-1.04,-2.87,-3.42,330,456,433,291,245
1544,0.95,-0.25,0.19,-1.34,-3.66,-2.26,331,458,434,287,248
1545,0.96,-0.25,0.19,1.04,-3.72,-3.54,331,452,427,284,248
1546,0.97,-0.25,0.19,2.26,-3.17,-3.6,332,459,432,283,248
1547,0.96,-0.25,0.19,0.79,-2.87,-2.01,329,456,428,285,247
1548,0.95,-0.25,0.19,1.1,-3.17,-2.32,330,457,428,285,247
1549,0.95,-0.25,0.2,0.85,-2.93,-2.56,332,456,428,285,245
1550,0.95,-0.27,0.19,-2.44,0.06,-4.39,331,456,434,287,250
1551,0.96,-0.24,0.21,0.06,-3.36,-4.33,331,457,428,286,249
1552,0.97,-0.26,0.18,0.31,-3.17,-4.88,331,453,427,282,248
1553,0.97,-0.25,0.18,1.46,-1.28,-1.59,333,454,431,285,247
1554,0.95,-0.26,0.19,-0.43,-2.87,-2.26,329,450,428,285,245
1555,0.95,-0.26,0.19,-1.83,-5.43,0.79,327,454,429,282,248
1556,0.95,-0.26,0.19,0.98,-2.14,-3.6,332,453,429,286,247
1557,0.97,-0.27,0.17,3.91,-3.17,-3.97,331,453,427,285,243
1558,0.96,-0.27,0.17,1.34,-2.99,-2.56,332,453,429,283,247
1559,0.94,-0.26,0.19,1.65,-3.3,-1.71,328,455,428,286,253
1560,0.94,-0.27,0.19,1.46,-2.14,-1.95,331,457,427,285,247
1561,0.94,-0.25,0.2,0.31,-2.26,-1.89,329,454,429,286,246
1562,0.96,-0.25,0.18,-0.79,-2.2,-0.79,327,460,424,282,245
1563,0.95,-0.25,0.19,-2.01,-2.69,-0.12,333,455,428,288,247
1564,0.95,-0.26,0.18,0.18,-2.99,-2.81,331,449,428,285,246
1565,0.95,-0.26,0.18,0.49,-2.5,-3.97,329,454,425,284,244
1566,0.95,-0.27,0.17,0.49,-3.42,-2.44,333,457,426,285,246
1567,0.94,-0.27,0.18,-0.98,-1.46,-0.98,329,455,426,286,246
1568,0.94,-0.27,0.18,-0.92,-2.32,-0.37,328,454,426,284,247
1569,0.94,-0.26,0.19,-1.28,-2.62,-1.71,332,454,428,286,247
1570,0.97,-0.27,0.17,-1.53,-1.71,-4.09,333,455,431,286,243
1571,0.95,-0.25,0.2,1.04,-3.48,-2.08,331,457,425,287,246
1572,0.96,-0.26,0.18,-1.53,-1.4,-6.53,332,456,425,285,244
1573,0.93,-0.26,0.19,-0.73,-0.31,-5.13,332,457,425,282,246
1574,0.96,-0.25,0.19,-0.55,-2.99,-2.08,333,454,426,284,247
1575,0.94,-0.25,0.2,-0.92,-2.87,-2.38,333,453,425,284,242
1576,0.95,-0.24,0.22,1.04,-1.53,-2.32,331,454,426,285,246
1577,0.94,-0.26,0.21,1.04,-2.87,-4.82,332,454,427,287,248
1578,0.95,-0.25,0.2,-0.73,-2.44,-2.08,332,453,425,285,247
1579,0.96,-0.25,0.2,0.55,-3.42,-3.11,335,451,421,293,245
1580,0.95,-0.25,0.21,-1.04,-2.08,-2.01,332,458,424,283,245
1581,0.94,-0.24,0.22,-0.73,-2.81,-1.16,332,453,424,287,248
1582,0.95,-0.24,0.22,-0.12,-3.3,-0.43,333,459,424,285,244
1583,0.97,-0.24,0.21,0.98,-4.39,-3.11,331,452,424,286,244
1584,0.94,-0.24,0.22,1.46,-2.93,-2.32,334,456,424,286,248
1585,0.96,-0.23,0.22,2.14,-1.83,-1.89,334,457,421,288,247
1586,0.96,-0.26,0.19,1.34,-4.03,-3.23,333,458,422,283,244
1587,0.95,-0.25,0.21,1.1,-5.31,-1.28,330,450,423,287,246
1588,0.94,-0.25,0.22,0.37,-4.09,-4.15,334,454,426,287,245
1589,0.97,-0.23,0.22,-1.53,-1.95,-4.21,332,455,422,284,246
1590,0.96,-0.24,0.2,2.87,-2.5,-3.42,332,454,420,294,245
1591,0.96,-0.24,0.21,-1.04,-2.32,-3.05,330,455,427,287,242
1592,0.95,-0.24,0.22,-1.83,-2.93,-3.3,329,458,423,286,246
1593,0.94,-0.24,0.23,1.77,-3.11,-1.65,332,454,425,292,246
1594,0.96,-0.27,0.19,0.43,-1.53,-1.04,333,455,425,286,243
1595,0.96,-0.24,0.22,1.1,-2.38,-2.38,333,455,423,282,249
1596,0.94,-0.25,0.22,1.28,-1.95,-2.93,335,455,421,283,246
1597,0.98,-0.25,0.21,1.53,-3.72,0.06,332,455,424,285,249
1598,0.97,-0.27,0.21,-2.08,-0.67,-1.46,333,455,422,286,244
1599,0.94,-0.3,0.23,-0.61,-1.77,-1.89,328,455,424,285,247
1600,0.92,-0.31,0.21,-3.48,-2.5,-1.22,334,459,424,287,247
1601,0.93,-0.31,0.21,-1.04,-4.52,-3.97,332,454,426,289,245
1602,0.95,-0.29,0.22,1.89,-2.44,-5.68,331,454,437,289,247
1603,0.94,-0.28,0.23,0.24,-2.2,-4.94,329,451,422,293,243
1604,0.94,-0.28,0.22,-1.46,-3.72,-2.14,336,454,416,285,248
1605,0.94,-0.29,0.22,-1.04,-1.89,-2.5,334,459,420,287,248
1606,0.95,-0.28,0.23,-0.06,-2.5,-3.48,333,454,421,285,248
1607,0.93,-0.29,0.23,1.28,-2.62,-3.11,333,456,419,285,247
1608,0.93,-0.29,0.24,1.28,-4.64,-3.85,329,456,426,286,245
1609,0.95,-0.29,0.22,1.59,-3.11,-3.17,335,450,424,286,246
1610,0.91,-0.29,0.24,-0.31,-1.95,-2.14,333,455,423,286,247
1611,0.93,-0.29,0.24,3.85,-3.78,-0.79,333,455,420,289,247
1612,0.92,-0.3,0.24,1.4,-2.26,1.04,333,455,422,284,245
1613,0.92,-0.3,0.24,-0.79,-3.72,-0.98,332,455,419,284,245
1614,0.92,-0.3,0.23,2.08,-4.09,-3.17,334,459,433,287,249
1615,0.92,-0.29,0.22,0.92,-2.5,-2.44,332,459,421,286,245
1616,0.93,-0.3,0.22,-0.55,-2.87,-0.98,333,455,421,286,245
1617,0.92,-0.3,0.22,1.04,-3.17,-1.46,329,456,433,287,274
1618,0.95,-0.28,0.23,1.34,-2.62,-3.11,332,455,421,287,246
1619,0.92,-0.29,0.23,-1.28,-1.71,-2.38,332,460,423,286,245
1620,0.94,-0.3,0.23,-0.37,-2.32,-2.81,332,455,418,289,249
1621,0.95,-0.29,0.24,0.37,-4.58,0.12,329,459,420,288,256
1622,0.97,-0.3,0.2,5.74,-1.65,-2.32,333,455,420,286,244
1623,0.92,-0.3,0.22,0.43,-2.75,-5.92,336,453,420,286,270
1624,0.93,-0.29,0.23,5.8,-0.43,1.77,332,453,420,287,235
1625,0.92,-0.3,0.25,1.71,-3.91,-2.08,336,455,420,285,245
1626,0.9,-0.3,0.25,-1.4,-3.42,-2.26,331,455,417,284,241
1627,0.93,-0.28,0.24,-0.12,-2.2,-0.61,333,455,419,288,244
1628,0.94,-0.29,0.24,-0.85,-3.3,-1.83,332,458,421,290,245
1629,0.94,-0.29,0.24,0.92,-3.23,-1.59,333,451,419,285,247
1630,0.94,-0.28,0.25,1.65,-3.23,-1.83,332,460,415,292,246
1631,0.93,-0.3,0.24,0.61,-2.44,-3.05,328,460,420,288,248
1632,0.91,-0.29,0.27,-0.12,-3.17,-1.71,337,456,421,294,245
1633,0.93,-0.28,0.27,0.61,-2.93,-1.89,329,450,419,289,248
1634,0.96,-0.3,0.24,2.81,-2.62,-2.2,333,450,418,287,244
1635,0.92,-0.3,0.25,1.59,-2.81,-3.54,340,459,418,288,245
1636,0.95,-0.29,0.26,0.98,-2.32,-2.99,333,454,419,286,246
1637,0.96,-0.27,0.27,4.15,-3.72,-4.88,331,459,418,287,247
1638,0.93,-0.29,0.25,0.43,-2.93,-2.99,330,456,419,290,245
1639,0.93,-0.29,0.25,0.85,-3.23,-2.69,334,458,417,287,244
1640,0.93,-0.3,0.25,0.0,-2.75,-2.75,332,456,418,289,247
1641,0.94,-0.29,0.25,1.4,-2.32,-2.01,332,459,418,287,268
1642,0.94,-0.29,0.25,-0.55,-3.11,-1.89,333,461,418,286,245
1643,0.96,-0.28,0.25,1.46,-2.69,-1.53,335,454,419,295,248
1644,0.95,-0.29,0.25,2.75,-3.91,-3.3,334,455,416,285,246
1645,0.93,-0.3,0.24,-0.06,-2.01,-2.99,333,457,418,286,245
1646,0.93,-0.29,0.25,0.06,-2.99,-3.11,330,458,418,289,248
1647,0.92,-0.29,0.25,-0.12,-3.97,-2.81,334,459,424,288,245
1648,0.93,-0.29,0.25,-0.55,-3.11,-2.99,333,456,417,288,247
1649,0.93,-0.28,0.26,0.12,-1.83,-2.93,336,457,417,285,245
1650,0.92,-0.29,0.26,-0.61,-2.26,-3.05,335,454,417,286,245
1651,0.94,-0.28,0.26,1.71,-2.38,-2.14,327,459,417,286,247
1652,0.94,-0.28,0.26,2.32,-2.69,-3.66,333,459,416,283,244
1653,0.93,-0.29,0.25,0.49,-2.81,-2.08,333,458,416,285,248
1654,0.93,-0.29,0.26,0.43,-3.05,-2.08,330,455,415,286,246
1655,0.93,-0.29,0.26,-1.22,-2.62,-2.5,334,457,418,292,244
1656,0.93,-0.29,0.25,0.0,-2.75,-2.56,329,454,411,286,245
1657,0.92,-0.31,0.24,-0.06,-3.72,-2.93,334,450,417,286,245
1658,0.93,-0.3,0.24,-0.61,-2.32,-2.93,334,457,414,288,244
1659,0.94,-0.29,0.24,-0.24,-3.17,-2.81,334,460,414,287,247
1660,0.93,-0.29,0.25,1.04,-3.17,-3.36,333,457,415,291,245
1661,0.93,-0.29,0.25,0.73,-3.85,-2.44,333,459,413,286,243
1662,0.93,-0.28,0.26,0.06,-3.05,-1.95,334,456,412,286,272
1663,0.94,-0.29,0.25,0.18,-2.62,-2.44,333,456,411,283,244
1664,0.93,-0.29,0.26,0.85,-3.23,-1.95,334,457,415,286,244
1665,0.93,-0.28,0.25,-0.43,-3.85,-2.14,331,457,412,286,248
1666,0.94,-0.29,0.25,2.62,-2.56,-2.32,334,459,418,287,248
1667,0.93,-0.29,0.25,0.55,-3.6,-2.38,333,456,413,284,247
1668,0.94,-0.3,0.24,1.1,-2.01,-2.26,333,451,415,296,247
1669,0.93,-0.28,0.26,0.79,-2.99,-3.72,334,455,415,285,245
1670,0.93,-0.28,0.26,-0.61,-2.38,-2.62,332,462,418,288,245
1671,0.94,-0.28,0.25,-0.85,-2.81,-3.23,333,453,428,292,247
1672,0.94,-0.29,0.24,1.28,-4.15,-1.95,329,455,414,287,245
1673,0.93,-0.28,0.25,0.73,-2.81,-2.87,336,451,415,287,245
1674,0.94,-0.27,0.26,0.12,-2.93,-3.23,333,458,415,290,242
1675,0.93,-0.28,0.26,-0.24,-2.5,-2.75,322,450,414,287,249
1676,0.94,-0.27,0.26,1.04,-2.14,-3.72,333,458,417,287,245
1677,0.93,-0.27,0.26,1.04,-3.11,-3.3,333,460,417,288,246
1678,0.94,-0.27,0.26,-0.18,-3.48,-2.62,332,460,415,288,245
1679,0.94,-0.27,0.25,0.06,-2.38,-2.26,331,458,412,288,246
1680,0.93,-0.27,0.26,-0.31,-2.93,-2.56,333,450,410,290,249
1681,0.92,-0.28,0.25,-1.4,-2.75,-2.56,335,459,415,287,248
1682,0.93,-0.28,0.25,-0.12,-3.11,-2.56,331,459,415,290,245
1683,0.93,-0.27,0.26,-0.12,-2.38,-2.38,330,455,413,289,247
1684,0.94,-0.27,0.25,-0.06,-1.83,-2.5,332,459,417,285,247
1685,0.94,-0.27,0.25,0.49,-3.91,-1.65,332,455,413,289,247
1686,0.93,-0.27,0.25,0.18,-2.93,-2.32,335,460,411,287,245
1687,0.94,-0.27,0.25,1.16,-3.36,-3.17,333,455,411,290,247
1688,0.93,-0.27,0.25,0.67,-2.62,-2.75,335,459,411,290,247
1689,0.93,-0.27,0.25,-0.55,-2.32,-2.99,335,453,414,287,243
1690,0.94,-0.27,0.25,0.79,-2.99,-2.62,336,450,416,288,248
1691,0.94,-0.27,0.25,0.98,-2.32,-1.71,332,457,409,287,248
1692,0.94,-0.25,0.27,-2.32,-3.85,-3.11,336,463,415,291,247
1693,0.95,-0.25,0.26,-1.4,-2.38,-4.64,334,456,410,289,247
1694,0.92,-0.25,0.28,-0.37,-3.17,-0.31,334,458,411,287,243
1695,0.94,-0.27,0.25,0.98,-3.3,-1.1,332,453,411,290,245
1696,0.92,-0.26,0.26,0.49,-2.75,-2.32,332,458,415,288,245
1697,0.94,-0.26,0.25,0.79,-1.34,-4.21,333,457,414,291,247
1698,0.94,-0.26,0.26,1.53,-3.05,-2.14,333,454,411,285,248
1699,0.95,-0.25,0.26,2.2,-3.23,-2.93,333,458,413,288,246
1700,0.93,-0.26,0.26,0.18,-3.05,-3.23,332,454,412,286,243
1701,0.94,-0.28,0.25,-0.43,-4.15,-1.95,331,452,408,287,245
1702,0.94,-0.28,0.25,-0.85,-3.66,-2.5,336,458,416,288,246
1703,0.93,-0.26,0.26,1.34,-2.93,-3.42,333,456,412,288,246
1704,0.93,-0.27,0.25,0.85,-3.97,-2.01,335,455,414,288,246
1705,0.94,-0.27,0.25,1.28,-3.6,-2.5,333,455,414,288,246
1706,0.94,-0.27,0.25,-0.61,-2.26,-2.32,335,451,414,286,247
1707,0.94,-0.27,0.25,-0.12,-2.2,-2.69,331,459,412,290,243
1708,0.95,-0.28,0.24,-0.31,-3.48,-0.24,330,450,408,291,246
1709,0.94,-0.27,0.25,-1.04,-5.25,-4.39,334,455,413,290,249
1710,0.91,-0.26,0.28,-5.98,-4.76,-5.07,335,458,416,287,244
1711,0.94,-0.27,0.23,1.16,-2.69,-2.56,331,459,411,287,246
1712,0.96,-0.28,0.22,1.4,-2.62,-0.85,330,456,414,291,246
1713,0.95,-0.29,0.22,1.59,-3.6,-3.23,332,456,411,286,249
1714,0.94,-0.28,0.23,-1.77,-3.05,0.67,329,454,413,288,245
1715,0.93,-0.27,0.25,-2.75,-3.05,-1.83,327,453,416,289,248
1716,0.94,-0.29,0.22,-0.98,-3.91,-0.98,334,455,413,288,246
1717,0.92,-0.32,0.22,1.22,-3.6,-5.43,335,451,408,285,244
1718,0.95,-0.31,0.21,4.58,-5.74,-4.58,333,454,410,289,248
1719,0.92,-0.29,0.23,0.18,-2.99,-4.52,338,458,414,291,246
1720,0.92,-0.29,0.21,-1.59,-3.42,-2.08,332,455,412,285,247
1721,0.93,-0.28,0.23,-1.04,-2.08,-0.73,334,455,409,291,246
1722,0.93,-0.29,0.22,0.0,-1.77,-1.34,333,451,413,291,249
1723,0.93,-0.27,0.24,0.98,-2.2,-2.87,333,450,411,291,247
1724,0.93,-0.29,0.23,-0.31,-2.62,-2.62,333,459,414,291,248
1725,0.95,-0.27,0.24,0.55,-2.01,-3.17,330,458,414,285,248
1726,0.96,-0.27,0.23,0.92,-4.46,-2.62,335,454,411,287,249
1727,0.94,-0.28,0.23,0.49,-5.0,-1.95,333,458,410,287,247
1728,0.94,-0.27,0.23,1.95,-2.56,-2.56,332,458,411,287,245
1729,0.94,-0.26,0.24,0.49,-2.01,-2.69,335,454,410,290,243
1730,0.93,-0.27,0.24,1.4,-3.78,-2.81,334,450,411,288,246
1731,0.94,-0.28,0.22,0.85,-2.87,-2.56,334,455,411,291,250
1732,0.94,-0.27,0.23,0.31,-3.6,-2.08,333,453,414,289,246
1733,0.94,-0.27,0.23,0.61,-3.36,-2.44,334,455,411,289,249
1734,0.95,-0.27,0.23,1.04,-3.17,-1.46,334,450,407,289,246
1735,0.94,-0.26,0.24,0.55,-3.36,-3.23,335,458,413,288,244
1736,0.94,-0.27,0.24,1.77,-2.56,-3.11,334,454,410,290,248
1737,0.94,-0.27,0.24,0.31,-2.87,-2.14,336,452,408,295,246
1738,0.94,-0.26,0.25,1.28,-2.99,-2.69,330,452,411,289,248
1739,0.93,-0.27,0.24,0.73,-3.48,-2.81,334,457,410,287,244
1740,0.93,-0.25,0.26,0.67,-2.62,-2.14,335,454,411,294,246
1741,0.93,-0.26,0.25,0.61,-2.69,-3.11,334,460,409,289,250
1742,0.94,-0.26,0.25,1.59,-1.89,-2.26,334,455,409,289,247
1743,0.94,-0.27,0.24,0.06,-3.54,-1.83,330,453,406,291,246
1744,0.94,-0.26,0.24,0.61,-2.08,-3.66,333,455,411,291,246
1745,0.94,-0.26,0.25,-0.12,-2.69,-1.77,336,459,411,288,247
1746,0.94,-0.26,0.25,-0.06,-4.15,-1.34,334,455,408,288,248
1747,0.94,-0.25,0.26,0.12,-3.11,-1.65,334,450,411,288,246
1748,0.94,-0.27,0.25,0.24,-2.87,-2.26,337,454,411,289,273
1749,0.93,-0.26,0.25,0.85,-2.75,-2.44,331,452,406,290,254
1750,0.94,-0.28,0.24,0.92,-2.75,-2.69,333,450,409,291,246
1751,0.93,-0.27,0.25,-0.67,-3.85,-3.85,334,451,409,289,248
1752,0.94,-0.26,0.25,-0.12,-2.08,-3.91,334,456,409,291,249
1753,0.94,-0.27,0.24,0.43,-2.75,-2.2,334,455,410,290,247
1754,0.94,-0.27,0.25,-0.67,-2.93,-1.46,332,452,409,291,246
1755,0.94,-0.27,0.24,1.46,-4.03,-3.42,331,453,410,291,247
1756,0.94,-0.27,0.24,0.85,-4.33,-4.52,336,456,409,288,247
1757,0.94,-0.25,0.26,0.98,-2.62,-2.93,334,450,411,289,246
1758,0.93,-0.26,0.25,0.24,-3.05,-2.87,334,455,406,293,247
1759,0.95,-0.26,0.25,1.04,-2.14,-3.48,333,451,411,290,246
1760,0.93,-0.27,0.24,-0.12,-2.93,-2.01,336,455,409,288,249
1761,0.93,-0.27,0.25,0.37,-2.81,-3.36,335,457,408,288,244
1762,0.94,-0.26,0.25,1.1,-2.75,-2.87,332,455,407,288,248
1763,0.95,-0.25,0.25,0.85,-3.48,-2.56,334,459,408,291,246
1764,0.94,-0.26,0.25,0.37,-1.89,-2.44,336,455,412,291,248
1765,0.96,-0.26,0.25,1.28,-4.64,-3.11,329,452,408,288,249
1766,0.94,-0.26,0.25,0.31,-2.5,-2.87,334,456,411,288,247
1767,0.94,-0.27,0.24,-0.18,-2.99,-4.03,334,453,409,291,244
1768,0.93,-0.27,0.24,-0.98,-2.44,-2.69,333,455,407,290,254
1769,0.93,-0.27,0.24,-1.77,-4.33,-2.26,331,456,406,287,248
1770,0.94,-0.26,0.24,-0.37,-4.09,-2.2,332,458,408,289,250
1771,0.94,-0.28,0.23,0.06,-3.72,-1.4,335,459,406,288,237
1772,0.92,-0.26,0.25,0.24,-4.94,1.04,334,455,412,288,247
1773,0.93,-0.3,0.2,-1.04,-2.32,-4.64,335,458,408,294,256
1774,0.94,-0.28,0.22,0.31,-1.53,-1.71,333,457,410,291,245
1775,0.94,-0.28,0.22,-1.65,-1.53,-3.3,334,455,408,290,248
1776,0.94,-0.28,0.23,0.31,-3.97,-3.85,331,456,408,288,247
1777,0.95,-0.28,0.22,-1.59,-2.14,-2.62,335,459,408,288,247
1778,0.95,-0.27,0.22,-0.67,-2.81,-0.73,334,453,408,289,246
1779,0.94,-0.28,0.23,0.37,-2.01,0.0,336,458,410,292,249
1780,0.94,-0.28,0.23,-0.31,-2.5,-2.56,333,454,406,292,247
1781,0.91,-0.3,0.22,0.12,-4.03,-1.22,336,458,407,290,248
1782,0.92,-0.3,0.2,-2.26,-1.71,-0.55,332,451,409,294,248
1783,0.94,-0.29,0.21,2.01,-3.6,-4.64,340,461,409,290,246
1784,0.94,-0.27,0.23,1.04,-3.23,-2.26,334,454,407,289,250
1785,0.93,-0.32,0.19,-4.33,-4.27,-2.87,336,450,408,290,246
1786,0.96,-0.29,0.21,-1.28,-4.52,1.46,334,451,401,288,249
1787,0.94,-0.3,0.22,4.88,-5.37,-3.05,334,455,405,287,247
1788,0.93,-0.33,0.2,1.46,-1.65,-3.36,331,459,407,286,263
1789,0.94,-0.32,0.2,1.89,-1.1,-3.85,337,454,404,287,246
1790,0.94,-0.3,0.22,4.58,-4.03,-6.53,334,456,407,288,247
1791,0.97,-0.32,0.16,0.43,-6.77,-10.01,335,458,404,285,249
1792,0.96,-0.25,0.2,3.54,4.15,-9.16,342,453,405,289,247
1793,0.97,-0.25,0.2,3.42,-2.99,-4.03,337,459,405,290,248
1794,0.94,-0.25,0.21,-0.49,-0.67,-1.77,337,454,406,289,249
1795,0.95,-0.24,0.22,0.37,-1.53,0.06,341,460,404,291,248
1796,0.96,-0.25,0.21,1.46,-2.26,-3.23,334,458,406,289,249
1797,0.95,-0.26,0.21,0.92,-3.11,-1.59,334,455,418,286,250
1798,0.95,-0.25,0.21,-0.18,-3.11,-2.87,336,457,410,287,249
1799,0.95,-0.25,0.23,0.61,-3.36,-2.2,332,459,408,291,250
1800,0.95,-0.26,0.21,2.93,-1.89,-2.81,334,455,405,288,255
1801,0.95,-0.27,0.21,1.04,-3.05,-2.62,336,460,407,292,250
1802,0.95,-0.26,0.22,0.92,-1.4,-2.62,335,459,407,293,248
1803,0.95,-0.26,0.22,-0.73,-2.81,-1.46,337,456,408,292,248
1804,0.95,-0.25,0.24,-0.61,-2.38,-1.34,335,460,409,293,249
1805,0.94,-0.26,0.23,-0.73,-3.11,-1.89,336,455,405,292,249
1806,0.94,-0.26,0.24,1.89,-2.38,-2.01,339,465,406,292,250
1807,0.93,-0.26,0.23,0.37,-2.32,-2.32,335,455,407,290,250
1808,0.94,-0.26,0.23,1.22,-3.05,-1.65,334,459,408,291,248
1809,0.93,-0.27,0.23,1.59,-2.75,-1.22,335,466,405,290,248
1810,0.95,-0.26,0.22,0.55,-3.97,-2.75,345,450,408,289,245
1811,0.93,-0.26,0.24,-1.89,-2.26,-2.62,333,460,410,289,247
1812,0.93,-0.27,0.23,0.18,-3.17,-2.75,335,455,405,288,250
1813,0.95,-0.27,0.23,-1.77,-1.77,-4.03,335,457,405,293,263
1814,0.96,-0.26,0.22,0.73,-4.58,-2.44,334,453,407,288,243
1815,0.95,-0.27,0.22,1.22,-2.69,-2.87,336,455,405,290,250
1816,0.95,-0.27,0.23,1.77,-2.81,-2.87,336,456,404,292,249
1817,0.95,-0.26,0.23,0.92,-2.2,-3.05,333,459,407,296,249
1818,0.94,-0.26,0.24,1.22,-2.81,-2.26,337,455,404,289,253
1819,0.94,-0.26,0.24,1.16,-2.93,-2.81,331,458,406,290,256
1820,0.95,-0.26,0.24,-0.79,-2.69,-2.93,330,457,402,292,248
1821,0.94,-0.26,0.24,0.24,-2.87,-3.3,337,455,404,289,247
1822,0.94,-0.26,0.23,0.18,-3.05,-3.66,336,451,404,289,249
1823,0.93,-0.27,0.23,2.01,-3.42,-3.05,335,456,403,288,250
1824,0.94,-0.26,0.23,1.22,-3.3,-2.5,336,459,404,286,249
1825,0.95,-0.26,0.23,-0.24,-1.77,-2.2,335,449,400,293,248
1826,0.95,-0.26,0.23,1.53,-2.56,-2.62,331,457,398,293,248
1827,0.95,-0.27,0.23,0.43,-2.69,-2.08,337,454,397,292,248
1828,0.95,-0.27,0.23,0.43,-3.42,-1.65,330,456,400,287,249
1829,0.94,-0.26,0.23,-0.61,-2.93,-2.75,335,455,402,291,250
1830,0.94,-0.26,0.23,0.31,-3.91,-1.83,339,459,405,292,251
1831,0.95,-0.26,0.23,0.49,-3.54,-2.38,335,455,398,291,250
1832,0.95,-0.25,0.24,-0.85,-2.69,-2.38,330,459,398,285,248
1833,0.94,-0.26,0.24,0.12,-2.93,-1.83,334,459,402,289,250
1834,0.94,-0.26,0.24,0.79,-2.14,-3.42,332,458,403,289,249
1835,0.95,-0.26,0.24,-1.04,-3.42,-1.65,332,450,401,292,262
1836,0.94,-0.26,0.25,0.61,-2.38,-2.26,335,456,403,289,249
1837,0.94,-0.26,0.24,0.43,-3.78,-1.59,337,450,397,291,254
1838,0.94,-0.26,0.23,-0.49,-3.42,-2.69,336,457,405,286,251
1839,0.94,-0.26,0.24,0.98,-2.38,-2.56,343,459,402,286,250
1840,0.93,-0.27,0.24,0.0,-2.2,-3.23,337,458,396,292,248
1841,0.94,-0.28,0.23,-1.04,-2.99,-2.38,337,453,402,290,250
1842,0.94,-0.27,0.23,1.34,-3.23,-2.26,331,456,402,286,250
1843,0.95,-0.27,0.24,1.04,-3.3,-2.69,330,450,402,292,250
1844,0.95,-0.26,0.24,0.43,-4.03,-2.26,333,455,399,289,250
1845,0.94,-0.27,0.24,1.22,-3.54,-2.69,334,454,400,289,247
1846,0.95,-0.27,0.24,0.18,-3.23,-1.34,336,457,400,285,247
1847,0.93,-0.27,0.23,-0.55,-3.48,-1.34,339,450,402,290,248
1848,0.94,-0.27,0.24,1.4,-3.05,-1.65,335,456,397,286,246
1849,0.93,-0.26,0.25,0.67,-3.17,-2.44,337,457,400,290,247
1850,0.94,-0.26,0.25,0.31,-2.69,-2.99,334,456,398,292,247
1851,0.94,-0.27,0.25,-0.43,-4.46,-1.59,334,450,402,289,250
1852,0.93,-0.27,0.24,1.1,-3.11,-2.14,334,459,403,289,250
1853,0.94,-0.27,0.24,-0.85,-3.42,-1.89,328,455,402,293,247
1854,0.94,-0.28,0.23,0.24,-3.23,-3.11,338,456,398,291,248
1855,0.94,-0.27,0.24,1.59,-2.56,-2.81,334,456,400,289,275
1856,0.94,-0.27,0.25,-0.12,-2.62,-2.44,336,456,400,290,249
1857,0.93,-0.27,0.25,0.49,-3.42,-1.46,331,459,400,290,247
1858,0.93,-0.27,0.25,0.73,-2.56,-2.44,334,456,399,289,249
1859,0.94,-0.27,0.24,0.43,-2.75,-3.05,333,451,405,292,277
1860,0.95,-0.27,0.24,0.92,-2.75,-2.75,335,457,400,292,248
1861,0.94,-0.27,0.24,0.98,-2.87,-2.69,334,457,401,292,247
1862,0.94,-0.29,0.23,2.08,-3.36,-3.36,337,459,400,290,245
1863,0.92,-0.29,0.23,-0.18,-3.97,-4.58,337,454,403,288,249
1864,0.93,-0.27,0.25,-0.73,-2.81,-2.56,333,453,402,290,247
1865,0.93,-0.28,0.24,0.49,-3.05,-2.75,335,456,400,293,247
1866,0.93,-0.28,0.24,1.16,-3.78,-2.87,342,451,400,287,250
1867,0.94,-0.26,0.25,2.69,-4.58,-2.32,333,455,403,289,247
1868,0.96,-0.26,0.23,2.32,-2.26,-1.95,333,453,401,292,248
1869,0.94,-0.29,0.23,0.55,-2.75,-2.56,334,457,401,292,248
1870,0.94,-0.27,0.25,1.34,-2.87,-2.56,335,456,399,289,250
1871,0.94,-0.27,0.24,2.38,-2.75,-4.15,332,460,396,290,247
1872,0.93,-0.27,0.23,2.2,-4.58,-2.01,333,455,398,290,252
1873,0.91,-0.27,0.24,-1.34,-4.46,-4.21,338,452,399,286,250
1874,0.93,-0.25,0.25,-3.17,-0.49,-0.43,331,457,404,290,248
1875,0.94,-0.26,0.24,0.49,-3.66,-0.73,336,459,403,291,247
1876,0.94,-0.26,0.24,1.16,-2.75,-3.48,337,452,398,287,244
1877,0.94,-0.26,0.24,-0.06,-3.05,-2.56,334,459,399,289,247
1878,0.93,-0.26,0.24,-2.38,-2.99,-3.05,334,456,400,293,250
1879,0.94,-0.25,0.25,-0.12,-2.93,-0.61,335,460,400,287,250
1880,0.95,-0.26,0.23,-2.5,-2.26,-4.64,335,456,400,289,248
1881,0.94,-0.25,0.24,-1.95,-1.71,-2.56,334,456,398,291,247
1882,0.93,-0.25,0.25,-0.31,-2.5,-1.65,334,455,402,293,247
1883,0.94,-0.24,0.25,0.12,-2.08,-2.2,334,460,399,292,250
1884,0.95,-0.25,0.25,0.37,-2.14,-3.6,334,462,401,291,253
1885,0.94,-0.26,0.24,0.98,-2.14,-2.75,331,459,402,292,259
1886,0.94,-0.25,0.25,1.22,-3.91,-2.75,335,451,397,293,248
1887,0.95,-0.26,0.24,1.28,-2.62,-2.69,334,455,396,286,248
1888,0.94,-0.24,0.25,2.44,-3.72,-2.75,334,459,398,292,249
1889,0.96,-0.25,0.24,2.01,-4.46,-2.87,334,458,399,290,246
1890,0.94,-0.24,0.25,1.16,-3.23,-2.44,334,457,399,290,247
1891,0.94,-0.24,0.24,-0.31,-2.93,-2.32,336,456,400,289,249
1892,0.94,-0.25,0.24,-0.67,-2.44,-2.26,330,452,400,292,244
1893,0.95,-0.24,0.25,0.98,-2.01,-2.14,331,459,401,291,248
1894,0.96,-0.23,0.24,-3.17,-6.53,-1.77,333,456,395,287,247
1895,0.91,-0.27,0.24,2.5,-5.25,-0.61,333,455,401,291,245
1896,0.93,-0.28,0.21,-0.12,-2.69,-2.5,334,457,399,290,248
1897,0.94,-0.29,0.2,-0.06,-2.81,-1.71,337,457,401,291,249
1898,0.94,-0.26,0.22,-0.61,-1.34,-4.27,335,457,397,289,249
1899,0.96,-0.26,0.2,-1.16,-1.83,-1.65,334,451,398,290,244
1900,0.94,-0.26,0.21,1.65,-2.5,-3.17,334,450,400,294,248
1901,0.95,-0.25,0.22,-0.06,-4.33,-1.71,335,456,400,290,249
1902,0.94,-0.25,0.22,0.49,-2.44,-1.71,335,451,396,288,257
1903,0.94,-0.26,0.21,-1.1,-2.26,-2.62,332,455,398,292,247
1904,0.96,-0.26,0.2,-0.18,-1.4,-2.2,332,453,397,292,248
1905,0.95,-0.25,0.22,-0.37,-2.01,-3.11,335,455,398,290,247
1906,0.94,-0.26,0.23,0.31,-3.11,-1.22,335,455,398,292,247
1907,0.94,-0.27,0.22,-0.31,-2.01,-2.01,332,458,402,292,248
1908,0.95,-0.27,0.22,0.55,-3.54,-2.38,334,454,398,289,248
1909,0.94,-0.27,0.22,-0.49,-2.62,-2.81,331,457,398,290,250
1910,0.94,-0.26,0.23,0.43,-1.89,-2.01,335,451,398,291,244
1911,0.96,-0.27,0.22,-0.55,-1.83,-1.65,336,461,401,291,271
1912,0.96,-0.26,0.23,1.04,-3.48,-2.5,332,455,398,289,252
1913,0.95,-0.27,0.23,0.79,-3.05,-1.22,331,450,399,292,247
1914,0.94,-0.27,0.23,-0.06,-2.38,-1.4,335,455,396,291,250
1915,0.95,-0.27,0.23,-0.79,-3.23,-1.34,335,462,396,291,249
1916,0.91,-0.28,0.24,-1.16,-2.26,-0.79,333,449,398,291,249
1917,0.94,-0.29,0.22,2.32,-3.78,-3.23,334,465,400,292,250
1918,0.94,-0.28,0.23,-0.31,-2.69,-2.2,334,455,397,294,248
1919,0.95,-0.27,0.24,1.53,-2.93,-1.28,333,455,394,291,249
1920,0.94,-0.27,0.24,0.43,-2.75,-1.59,334,457,396,292,249
1921,0.94,-0.27,0.24,-0.92,-2.56,-1.89,336,459,397,293,247
1922,0.93,-0.28,0.23,0.67,-2.62,-3.36,337,458,399,290,249
1923,0.94,-0.27,0.24,1.71,-2.99,-3.17,336,463,400,292,276
1924,0.94,-0.27,0.23,0.79,-3.42,-2.81,335,458,400,292,250
1925,0.95,-0.27,0.23,1.34,-3.36,-2.69,338,456,397,292,250
1926,0.94,-0.27,0.24,0.43,-3.54,-2.32,331,459,397,289,247
1927,0.94,-0.28,0.23,1.65,-2.99,-2.93,331,451,399,290,248
1928,0.94,-0.27,0.24,0.0,-2.56,-3.54,335,455,394,292,251
1929,0.93,-0.27,0.23,0.18,-2.5,-2.5,333,454,397,290,248
1930,0.94,-0.26,0.24,0.31,-2.81,-3.6,335,458,400,291,248
1931,0.94,-0.27,0.23,0.79,-2.69,-2.62,333,455,400,293,246
1932,0.94,-0.26,0.25,1.1,-2.99,-1.95,333,458,399,297,249
1933,0.95,-0.27,0.23,-2.69,-3.05,-4.15,338,453,396,290,247
1934,0.94,-0.27,0.23,1.4,-2.87,-3.11,334,458,399,288,244
1935,0.94,-0.27,0.23,1.34,-3.05,-3.17,338,451,397,292,247
1936,0.94,-0.26,0.24,-0.37,-1.65,-2.81,337,456,396,291,249
1937,0.94,-0.27,0.23,0.79,-2.14,-3.11,337,455,397,292,249
1938,0.94,-0.26,0.24,0.24,-2.5,-1.77,333,455,397,289,248
1939,0.95,-0.27,0.24,0.43,-3.11,-2.69,332,456,395,292,247
1940,0.95,-0.27,0.23,0.49,-3.54,-2.87,336,455,396,291,250
1941,0.95,-0.26,0.23,0.31,-3.78,-2.38,337,459,397,290,248
1942,0.94,-0.26,0.24,1.22,-4.03,-2.5,335,456,397,292,248
1943,0.94,-0.27,0.23,-0.18,-1.83,-2.5,335,456,396,291,250
1944,0.95,-0.28,0.22,0.31,-2.2,-1.89,331,456,393,289,248
1945,0.95,-0.28,0.23,0.12,-2.44,-2.2,336,451,393,292,249
1946,0.93,-0.28,0.23,2.75,-3.42,-3.97,332,456,396,290,243
1947,0.92,-0.27,0.25,0.43,-3.3,-2.01,334,454,395,291,247
1948,0.93,-0.27,0.24,0.73,-2.99,-3.85,333,456,397,287,245
1949,0.94,-0.27,0.25,1.1,-3.97,-2.75,334,454,393,293,247
1950,0.94,-0.27,0.24,2.38,-3.78,-2.93,336,455,395,286,247
1951,0.96,-0.26,0.24,1.83,-4.52,-4.03,337,456,395,292,250
1952,0.94,-0.28,0.23,1.89,-2.81,-3.17,336,456,397,292,243
1953,0.94,-0.28,0.23,-0.49,-2.99,-2.38,332,456,397,287,249
1954,0.95,-0.27,0.23,2.56,-3.05,-2.2,335,455,403,291,245
1955,0.94,-0.28,0.23,-0.06,-2.69,-2.26,330,464,396,288,250
1956,0.94,-0.27,0.24,-0.49,-2.44,-2.44,335,455,400,289,250
1957,0.94,-0.28,0.24,1.1,-3.36,-1.77,332,458,399,288,248
1958,0.93,-0.28,0.23,-0.06,-3.85,-3.54,335,455,397,292,250
1959,0.94,-0.27,0.23,0.37,-2.99,-2.14,335,455,397,290,248
1960,0.93,-0.27,0.24,1.34,-3.72,-2.87,334,457,396,292,249
1961,0.95,-0.26,0.24,1.34,-2.2,-1.22,334,460,401,287,249
1962,0.95,-0.26,0.24,0.24,-3.05,-3.36,334,459,397,291,251
1963,0.92,-0.29,0.23,3.42,-3.91,-5.07,332,455,401,292,247
1964,0.92,-0.28,0.23,-1.16,-3.23,-2.5,334,459,396,291,251
1965,0.94,-0.26,0.25,-1.22,-1.83,-2.62,336,455,397,290,248
1966,0.95,-0.26,0.23,-1.04,-3.42,-2.99,335,455,396,293,248
1967,0.97,-0.23,0.27,5.68,-8.48,-3.48,336,455,396,291,247
1968,0.95,-0.22,0.26,1.77,-2.87,-2.5,337,455,398,293,245
1969,0.95,-0.23,0.26,1.77,-3.23,-3.42,335,451,396,289,262
1970,0.95,-0.22,0.27,0.0,-2.56,-2.44,336,455,393,290,247
1971,0.94,-0.24,0.25,-0.98,-3.42,-0.98,335,455,395,293,248
1972,0.93,-0.24,0.26,0.67,-3.91,-1.53,334,458,395,290,249
1973,0.95,-0.23,0.26,0.24,-2.99,-2.56,333,456,396,287,248
1974,0.95,-0.24,0.25,-0.18,-1.77,-3.17,334,460,395,293,246
1975,0.94,-0.25,0.25,-0.73,-2.38,-2.26,337,459,396,292,249
1976,0.95,-0.24,0.26,-0.73,-2.99,-2.01,336,452,397,293,249
1977,0.95,-0.23,0.27,1.04,-2.99,-1.71,334,458,394,296,250
1978,0.94,-0.24,0.26,0.24,-2.81,-2.26,334,455,395,291,249
1979,0.95,-0.24,0.26,1.22,-3.23,-2.87,331,452,396,289,247
1980,0.95,-0.25,0.25,1.1,-2.62,-2.75,335,452,398,296,250
1981,0.95,-0.24,0.26,2.44,-2.75,-3.11,335,451,391,291,247
1982,0.95,-0.23,0.26,0.92,-3.48,-2.2,335,450,398,290,247
1983,0.94,-0.24,0.26,0.37,-2.32,-2.5,335,454,400,293,249
1984,0.94,-0.24,0.26,0.49,-2.44,-2.69,334,450,395,290,248
1985,0.94,-0.24,0.26,-0.61,-3.85,-2.08,334,454,393,291,247
1986,0.94,-0.25,0.25,0.85,-4.15,-2.87,334,457,397,294,249
1987,0.94,-0.25,0.25,-0.73,-1.77,-2.56,334,457,396,291,249
1988,0.95,-0.25,0.25,-0.37,-2.87,-2.75,334,455,395,288,250
1989,0.93,-0.25,0.26,-0.55,-1.95,-3.6,338,458,392,290,247
1990,0.93,-0.25,0.25,-0.73,-2.62,-3.05,335,459,396,290,250
1991,0.94,-0.25,0.25,1.1,-2.93,-1.95,333,454,396,290,248
1992,0.97,-0.25,0.26,1.34,-3.78,-2.32,337,455,393,293,247
1993,0.94,-0.24,0.27,0.92,-3.36,-3.85,336,458,396,292,249
1994,0.94,-0.25,0.26,-0.49,-2.56,-3.23,332,458,393,293,250
1995,0.94,-0.24,0.26,-0.06,-2.2,-3.17,333,455,397,290,248
1996,0.95,-0.25,0.25,0.73,-2.14,-2.56,332,459,398,290,249
1997,0.95,-0.24,0.26,1.65,-3.54,-2.2,333,456,395,291,256
1998,0.94,-0.24,0.27,0.49,-2.2,-2.81,337,450,393,292,250
1999,0.94,-0.24,0.26,0.55,-3.17,-2.38,337,454,395,291,251
2000,0.94,-0.25,0.25,0.49,-3.66,-3.66,335,460,395,291,248
2001,0.94,-0.24,0.26,1.04,-3.48,-2.2,334,453,394,294,246
2002,0.95,-0.24,0.26,-1.1,-1.34,-3.17,335,455,395,291,251
2003,0.94,-0.24,0.26,-0.55,-2.01,-2.08,337,450,394,294,251
