,aX,aY,aZ,gX,gY,gZ,little,ring,middle,index,thumb
0,0.32,0.87,0.33,-8.06,8.0,4.21,414,471,412,346,220
1,0.26,0.85,0.41,-18.49,0.73,3.91,416,464,412,346,220
2,0.36,0.83,0.4,-0.85,-4.94,1.59,413,466,406,338,212
3,0.35,0.85,0.42,3.42,-3.97,-1.4,410,464,408,333,208
4,0.36,0.84,0.41,-2.62,3.78,-6.71,410,463,406,330,212
5,0.37,0.81,0.45,-1.65,-3.91,1.4,412,470,406,323,208
6,0.39,0.8,0.44,-7.75,-6.65,-1.83,413,470,407,326,209
7,0.39,0.81,0.45,-1.16,0.43,-1.77,411,466,407,327,211
8,0.37,0.78,0.48,-2.32,-1.16,-0.37,417,467,414,331,213
9,0.37,0.8,0.48,4.64,-3.72,-2.32,417,461,407,332,212
10,0.4,0.81,0.46,-0.37,-3.17,-2.26,415,467,405,334,214
11,0.39,0.79,0.45,-0.12,-2.5,-1.22,419,466,408,332,216
12,0.41,0.8,0.45,0.55,-4.03,-2.14,419,467,405,336,216
13,0.42,0.8,0.44,-0.12,-3.17,-1.04,416,466,404,333,215
14,0.45,0.8,0.42,4.27,-3.85,0.49,414,466,405,334,224
15,0.44,0.8,0.4,2.01,-7.14,-3.6,417,465,406,334,216
16,0.41,0.66,0.52,-25.39,25.09,-10.25,416,465,402,335,213
17,0.29,0.74,0.6,-0.31,56.88,-38.88,417,461,405,336,217
18,0.39,0.78,0.59,-4.58,-25.33,7.14,415,469,404,338,217
19,0.36,0.83,0.57,7.93,2.32,-22.22,417,466,407,340,217
20,0.38,0.79,0.55,-8.91,-2.69,4.76,414,465,405,345,221
21,0.29,0.75,0.56,0.49,7.51,0.37,414,462,406,343,223
22,0.38,0.79,0.58,-2.56,2.44,0.24,417,461,402,346,220
23,0.36,0.69,0.59,1.71,-4.09,7.69,417,465,404,345,222
24,0.4,0.68,0.59,-2.38,-13.31,5.37,414,465,402,350,228
25,0.46,0.67,0.61,1.46,1.71,1.53,417,469,399,351,225
26,0.45,0.61,0.6,1.83,-5.98,0.85,416,468,399,349,229
27,0.46,0.64,0.61,-0.85,-7.32,0.79,415,465,398,349,226
28,0.52,0.66,0.59,-2.62,1.46,-6.53,414,466,394,348,226
29,0.53,0.64,0.58,2.08,-10.19,4.76,417,462,397,349,229
30,0.53,0.63,0.58,1.65,-2.75,-7.69,417,468,395,352,228
31,0.46,0.65,0.62,2.87,-13.67,-0.55,418,461,396,352,227
32,0.47,0.63,0.61,-0.12,2.2,2.14,421,464,401,347,260
33,0.51,0.57,0.62,-7.63,1.16,3.23,418,464,397,351,226
34,0.45,0.66,0.61,11.72,-9.77,-7.26,416,468,398,351,227
35,0.46,0.73,0.56,5.13,-6.84,-0.61,417,460,399,349,231
36,0.46,0.67,0.58,5.0,-15.26,-0.55,420,464,398,351,228
37,0.52,0.69,0.51,3.66,-3.42,-7.87,417,469,392,350,228
38,0.51,0.66,0.55,-4.03,-8.42,0.31,416,469,398,352,240
39,0.56,0.68,0.55,-3.91,-6.35,0.24,421,461,393,348,230
40,0.51,0.62,0.53,5.68,-17.58,9.34,418,465,391,352,231
41,0.59,0.66,0.49,2.26,0.24,-8.85,419,465,393,357,227
42,0.56,0.65,0.48,1.16,-1.83,-8.48,416,467,393,349,230
43,0.58,0.67,0.5,-0.24,0.67,-4.03,422,464,395,350,231
44,0.6,0.69,0.49,2.62,-1.4,-4.27,430,471,389,347,230
45,0.57,0.64,0.49,1.22,-5.0,-7.08,423,469,388,351,229
46,0.54,0.67,0.51,6.16,-3.66,-3.23,420,465,390,348,230
47,0.53,0.7,0.5,6.65,0.55,-8.54,421,464,392,353,230
48,0.54,0.69,0.5,0.92,-3.48,-1.22,422,471,392,351,230
49,0.54,0.68,0.49,2.08,-0.85,-2.62,421,465,394,347,226
50,0.52,0.68,0.49,1.46,-4.27,-3.91,424,472,389,352,231
51,0.53,0.7,0.49,-2.26,-3.72,-2.93,417,460,392,350,221
52,0.53,0.71,0.5,0.12,-1.71,-2.93,426,466,392,348,230
53,0.52,0.7,0.49,0.31,-2.69,-4.52,420,465,392,348,232
54,0.51,0.71,0.48,-0.12,-1.59,-3.54,421,466,391,351,234
55,0.51,0.72,0.49,-0.73,-1.89,-3.97,422,459,393,349,231
56,0.47,0.74,0.51,-4.21,3.6,-7.14,422,465,394,350,233
57,0.4,0.73,0.58,0.06,5.74,-8.18,425,454,395,351,234
58,0.36,0.72,0.58,-4.09,7.63,-10.01,421,461,397,354,234
59,0.37,0.73,0.59,3.23,-11.41,2.5,422,463,400,355,235
60,0.38,0.74,0.58,0.06,-3.23,-2.38,422,465,398,356,237
61,0.39,0.74,0.58,1.46,-3.23,-2.87,425,463,399,355,234
62,0.39,0.74,0.58,-1.04,-3.11,-1.46,422,462,399,356,236
63,0.37,0.74,0.56,-0.85,-2.38,-1.46,424,463,399,358,235
64,0.38,0.73,0.57,0.06,-1.22,-3.66,419,462,395,358,236
65,0.41,0.76,0.56,1.34,-3.11,-2.56,418,463,398,356,236
66,0.38,0.76,0.57,-0.43,-2.56,-1.95,419,462,398,358,237
67,0.37,0.73,0.57,3.85,-1.1,-2.44,423,463,397,359,239
68,0.37,0.75,0.56,1.16,-3.48,-4.64,422,464,398,358,238
69,0.4,0.75,0.56,2.38,-3.17,-0.92,423,459,395,359,238
70,0.39,0.76,0.56,0.92,-3.05,-4.39,419,466,400,361,239
71,0.34,0.77,0.55,5.19,-0.43,-3.85,422,461,398,362,246
72,0.37,0.8,0.55,1.28,-4.03,-1.28,423,458,398,357,241
73,0.34,0.77,0.54,-0.73,0.37,-3.97,424,468,398,360,241
74,0.35,0.75,0.54,-9.09,-2.62,-1.65,421,462,399,360,240
75,0.35,0.77,0.55,1.1,-3.48,-3.11,423,461,398,361,240
76,0.36,0.78,0.55,-2.08,-2.14,-3.6,423,457,406,360,248
77,0.34,0.77,0.55,0.24,-3.54,-5.49,426,461,401,358,241
78,0.34,0.76,0.56,1.53,-2.2,-3.42,419,461,401,358,239
79,0.33,0.76,0.57,-1.1,-2.56,-2.81,421,462,395,361,241
80,0.33,0.77,0.57,0.67,-2.87,-2.14,422,461,401,362,250
81,0.33,0.78,0.55,0.24,-2.81,1.16,424,475,405,359,241
82,0.36,0.76,0.58,-0.18,-4.21,-0.37,421,462,399,362,244
83,0.36,0.76,0.57,2.32,-3.97,-3.72,419,464,397,363,243
84,0.36,0.75,0.55,1.59,-1.53,-2.87,421,460,396,363,238
85,0.34,0.78,0.56,-0.85,-5.74,0.0,423,461,397,362,241
86,0.37,0.74,0.56,-4.33,0.61,-0.31,421,460,399,362,243
87,0.36,0.71,0.58,-1.53,-1.1,-1.83,423,461,395,362,244
88,0.38,0.72,0.58,4.46,-10.13,8.06,423,464,400,360,249
89,0.36,0.73,0.59,6.71,-5.07,-0.37,423,462,398,360,240
90,0.35,0.74,0.6,0.73,-3.23,-2.81,420,466,400,362,243
91,0.37,0.73,0.59,-0.37,-1.77,-2.38,420,465,400,363,244
92,0.36,0.73,0.58,1.71,-2.69,-2.26,422,458,398,357,245
93,0.41,0.73,0.57,-0.18,-6.29,0.79,423,461,398,356,245
94,0.37,0.75,0.58,0.06,-2.32,-3.66,423,461,397,362,243
95,0.36,0.74,0.58,0.12,-3.36,-2.01,423,466,398,360,243
96,0.34,0.76,0.59,1.04,-0.49,-3.23,423,455,400,361,245
97,0.36,0.74,0.58,0.31,-2.75,-3.23,425,453,399,372,243
98,0.35,0.75,0.58,0.73,-2.2,-3.3,421,455,401,360,242
99,0.35,0.75,0.56,2.93,-3.3,-2.99,422,451,397,358,243
100,0.35,0.75,0.58,2.14,-1.95,-2.32,424,449,409,360,244
101,0.35,0.75,0.57,0.31,-2.69,-1.65,424,440,395,361,247
102,0.34,0.75,0.58,-1.59,-2.14,-2.2,425,452,396,362,246
103,0.35,0.76,0.57,-0.49,-2.81,-2.87,425,453,394,362,245
104,0.35,0.74,0.57,-0.37,-2.93,-1.83,420,457,400,362,244
105,0.35,0.75,0.58,-0.18,-2.01,-3.72,423,454,397,359,246
106,0.34,0.76,0.58,0.49,-2.81,-2.5,423,452,397,359,246
107,0.36,0.76,0.58,2.44,-3.36,0.37,419,450,399,365,247
108,0.37,0.74,0.58,3.72,-4.7,-2.38,423,459,400,365,247
109,0.35,0.75,0.58,0.24,-4.21,-1.28,421,453,398,363,243
110,0.34,0.73,0.56,-1.83,-3.48,-1.77,421,453,401,368,244
111,0.35,0.73,0.58,-0.49,-1.53,-1.71,421,453,400,362,246
112,0.35,0.75,0.6,1.04,-2.44,-4.94,421,451,395,365,245
113,0.34,0.73,0.6,-3.36,-5.0,-2.01,423,459,396,361,241
114,0.34,0.74,0.6,0.79,-3.66,-1.59,422,469,400,362,245
115,0.34,0.74,0.59,1.59,-4.09,-2.01,422,452,399,362,246
116,0.34,0.74,0.59,0.43,-3.6,-2.14,426,452,401,358,248
117,0.34,0.74,0.59,0.37,-3.11,-1.83,424,451,397,370,246
118,0.34,0.75,0.59,0.06,-2.38,-1.59,422,450,399,362,255
119,0.34,0.74,0.59,-0.73,-2.75,-3.78,423,457,397,361,246
120,0.34,0.74,0.6,-0.06,-3.17,-1.83,422,448,400,366,245
121,0.33,0.74,0.59,-0.67,-3.11,-2.38,423,454,396,365,247
122,0.32,0.72,0.6,0.24,-2.75,-1.77,425,454,395,360,248
123,0.36,0.73,0.6,0.98,-4.03,0.18,423,456,393,364,248
124,0.34,0.73,0.6,0.37,-2.99,-3.42,419,455,401,362,246
125,0.32,0.75,0.6,1.53,-1.53,-2.93,423,453,397,364,246
126,0.33,0.75,0.61,0.67,-3.48,-1.28,425,453,397,364,249
127,0.34,0.74,0.59,0.61,-3.05,-2.99,424,456,398,364,246
128,0.3,0.74,0.62,-1.16,3.72,-8.97,423,454,397,364,247
129,0.33,0.74,0.6,-0.18,-3.91,-3.3,424,453,398,362,248
130,0.31,0.74,0.6,-0.06,-2.5,-3.36,421,457,396,362,249
131,0.3,0.74,0.6,1.53,-3.66,-2.93,423,453,397,363,247
132,0.31,0.75,0.59,-1.04,-2.62,-2.93,425,454,396,357,242
133,0.32,0.75,0.6,-0.24,-2.5,-2.14,424,453,402,358,283
134,0.31,0.74,0.61,-0.79,-2.56,-3.72,423,450,398,366,245
135,0.3,0.77,0.6,-4.21,-9.52,-7.51,423,453,397,362,269
136,0.27,0.75,0.58,6.65,-5.37,-13.73,426,452,396,360,245
137,0.23,0.74,0.57,0.61,-23.07,-17.58,423,455,396,358,251
138,0.28,0.8,0.55,1.71,-4.64,-6.59,422,452,399,363,248
139,0.28,0.8,0.56,-1.46,-2.44,-0.37,426,450,399,378,243
140,0.26,0.82,0.54,-0.73,-1.77,-2.32,421,459,400,365,245
141,0.27,0.79,0.55,3.85,-2.44,-3.48,422,452,394,363,276
142,0.27,0.78,0.57,-2.44,-1.89,-2.32,424,456,394,362,247
143,0.24,0.78,0.58,-1.16,-2.93,-1.16,422,457,394,363,251
144,0.25,0.79,0.58,-0.24,-1.53,-2.93,423,453,398,360,243
145,0.25,0.81,0.58,3.72,-0.61,-2.81,420,457,397,362,248
146,0.27,0.8,0.56,-1.34,-4.21,-1.83,418,458,400,359,249
147,0.26,0.78,0.57,-2.08,-3.72,-2.62,418,457,400,363,248
148,0.25,0.78,0.54,-2.38,-3.3,-5.07,423,455,403,364,246
149,0.26,0.79,0.59,-8.24,-9.16,-2.38,424,454,399,362,248
150,0.31,0.78,0.6,1.77,0.0,-1.4,426,453,401,365,246
151,0.26,0.8,0.6,-1.71,0.67,-12.94,425,457,397,363,247
152,0.22,0.8,0.6,0.31,-3.23,-15.99,425,454,397,363,246
153,0.13,0.77,0.58,3.78,-4.88,-8.42,422,449,398,365,249
154,0.13,0.77,0.6,5.43,-7.63,-12.08,422,455,400,365,247
155,0.13,0.79,0.62,0.61,-0.49,-7.39,424,455,399,358,250
156,0.11,0.83,0.58,4.52,-6.16,-8.85,422,452,401,364,247
157,0.1,0.8,0.57,-5.86,2.5,-5.92,421,453,394,364,246
158,0.1,0.82,0.58,5.07,-3.36,-2.62,421,453,396,363,246
159,0.14,0.83,0.57,-4.52,-4.52,1.16,417,450,397,364,255
160,0.14,0.82,0.59,0.98,-4.52,-2.26,419,453,393,365,247
161,0.12,0.83,0.57,-11.11,0.0,7.63,422,449,399,361,264
162,0.13,0.82,0.57,-1.1,-2.2,-3.72,423,448,398,363,246
163,0.13,0.83,0.6,3.23,-2.81,-4.58,416,453,395,365,246
164,0.12,0.79,0.52,-1.71,-8.91,2.08,420,454,397,365,244
165,0.13,0.77,0.55,5.31,-0.43,-11.29,420,459,399,365,245
166,0.11,0.81,0.56,-2.14,1.4,-3.97,420,454,397,364,253
167,0.11,0.83,0.58,5.37,1.53,-6.04,418,455,393,360,243
168,0.11,0.82,0.55,-2.69,-10.07,4.09,419,459,395,360,245
169,0.06,0.8,0.57,-3.3,4.33,5.13,419,459,396,361,244
170,0.06,0.8,0.55,-0.98,-0.18,1.04,415,458,393,361,243
171,0.09,0.83,0.59,-2.01,-4.15,-5.37,418,451,397,360,244
172,0.05,0.85,0.66,-9.34,-1.83,-0.79,419,455,398,363,280
173,0.05,0.79,0.64,-10.74,-1.53,-9.4,422,456,393,363,243
174,0.01,0.77,0.66,0.31,-2.69,-6.1,418,456,399,364,248
175,0.03,0.72,0.62,7.2,-1.59,-1.77,421,456,397,362,242
176,0.04,0.75,0.62,2.62,-0.92,-3.54,422,459,396,362,243
177,0.05,0.79,0.62,-1.04,-3.72,-0.18,416,458,396,362,250
178,0.02,0.77,0.62,2.81,-3.85,-9.64,415,451,397,362,246
179,0.06,0.81,0.6,7.32,0.18,5.0,416,459,397,368,236
180,0.04,0.81,0.63,-0.85,1.16,-1.46,419,458,396,362,246
181,0.03,0.84,0.63,1.28,6.41,8.12,420,455,397,364,246
182,0.09,0.8,0.61,0.0,-1.04,-4.33,425,455,396,363,248
183,0.06,0.78,0.63,-3.36,5.55,-8.61,420,456,392,370,247
184,0.06,0.79,0.62,2.26,-10.44,1.16,419,459,396,363,245
185,0.07,0.79,0.6,3.72,-5.74,0.18,421,459,392,363,247
186,0.04,0.8,0.61,0.79,-4.52,-3.66,420,449,397,364,246
187,0.09,0.77,0.59,-0.12,-2.93,-4.46,415,454,397,363,246
188,0.09,0.79,0.62,1.46,-3.11,-0.98,426,454,397,363,248
189,0.11,0.81,0.58,4.82,-4.94,1.16,419,452,397,360,248
190,0.16,0.78,0.59,-1.83,-3.6,-2.81,415,445,393,345,236
191,0.13,0.79,0.6,-6.9,0.98,0.98,416,444,396,342,234
192,0.16,0.78,0.65,-0.67,-7.14,-6.16,415,445,387,341,230
193,0.11,0.78,0.64,-3.36,-7.14,-1.65,417,450,386,341,236
194,0.12,0.75,0.63,-1.53,-1.1,-0.92,418,451,388,344,236
195,0.13,0.77,0.64,0.37,-1.77,-2.93,416,450,388,344,234
196,0.14,0.75,0.65,-5.31,-3.72,-1.95,413,450,388,355,233
197,0.13,0.74,0.65,0.24,-1.28,-3.42,416,448,387,346,251
198,0.12,0.74,0.66,1.46,-3.11,-2.62,417,452,387,346,238
199,0.13,0.74,0.65,-1.1,-1.28,-2.38,418,452,388,349,235
200,0.13,0.75,0.64,2.01,-4.7,-0.37,419,452,388,348,238
201,0.14,0.75,0.64,-0.85,-3.42,-1.71,419,449,388,346,240
202,0.15,0.76,0.65,0.73,-4.21,-0.85,421,453,388,347,240
203,0.14,0.75,0.64,-0.79,-2.32,-2.38,419,452,394,348,239
204,0.13,0.74,0.65,2.38,-2.99,-4.15,419,450,390,353,236
205,0.12,0.76,0.64,-5.19,-0.61,-5.92,420,451,391,352,238
206,0.13,0.75,0.66,-0.43,-1.53,-0.73,418,456,390,351,242
207,0.11,0.75,0.65,1.22,-3.91,-2.75,419,448,392,348,238
208,0.12,0.75,0.65,0.24,-2.2,-1.28,419,454,394,353,250
209,0.12,0.75,0.64,4.88,-3.66,-0.06,416,458,391,354,242
210,0.13,0.75,0.67,3.3,-2.93,-8.3,419,448,391,353,242
211,0.13,0.78,0.65,0.06,-5.86,-2.81,420,453,394,351,241
212,0.13,0.76,0.65,-1.59,-1.89,-0.67,423,449,391,354,242
213,0.13,0.75,0.65,0.0,-1.34,-2.44,415,448,394,353,264
214,0.13,0.74,0.67,1.83,-2.32,-3.36,420,454,393,355,239
215,0.14,0.76,0.67,0.12,-3.54,-0.24,418,451,391,352,243
216,0.11,0.76,0.66,1.59,-3.17,-2.62,420,453,391,351,240
217,0.12,0.74,0.65,2.87,-3.66,-0.92,420,455,391,353,242
218,0.13,0.75,0.64,1.04,-4.03,-2.08,419,446,393,352,238
219,0.12,0.77,0.64,7.02,-4.46,-3.11,422,452,392,347,242
220,0.16,0.79,0.63,1.89,-3.78,-1.28,416,453,393,351,240
221,0.14,0.77,0.62,0.73,-2.38,-2.81,417,455,393,351,234
222,0.15,0.77,0.63,1.34,-2.81,-6.16,418,449,394,351,239
223,0.18,0.78,0.63,-1.65,-3.78,-0.49,421,449,391,349,242
224,0.18,0.78,0.62,2.99,-0.73,-0.55,421,456,388,351,241
225,0.17,0.78,0.6,0.79,-3.23,-2.01,421,449,390,352,229
226,0.17,0.77,0.61,-0.24,-3.48,-2.69,421,451,393,350,238
227,0.18,0.8,0.61,4.64,-3.66,-2.32,423,448,393,351,266
228,0.17,0.74,0.59,-4.94,-2.44,0.49,422,453,391,352,240
229,0.2,0.75,0.61,-5.0,-4.03,-4.27,418,455,387,349,240
230,0.19,0.73,0.62,-4.7,-3.66,-5.49,420,452,402,354,239
231,0.17,0.76,0.65,1.34,-1.65,-2.44,422,452,391,353,241
232,0.19,0.78,0.65,-5.31,5.43,-3.66,423,455,393,353,243
233,0.17,0.72,0.64,-11.41,-2.44,2.32,418,457,388,351,237
234,0.17,0.7,0.67,-3.11,-2.44,-2.44,417,453,389,348,239
235,0.2,0.72,0.68,-4.27,-1.59,-0.55,419,448,389,354,243
236,0.18,0.75,0.67,10.31,-7.45,-7.75,417,451,386,350,240
237,0.17,0.74,0.64,2.93,-3.85,-0.73,420,456,389,351,240
238,0.17,0.76,0.63,0.12,-3.42,-4.7,419,455,392,351,241
239,0.17,0.76,0.63,-5.07,-0.55,-1.65,417,451,387,350,240
240,0.17,0.75,0.63,0.37,-3.97,-2.5,421,453,390,352,241
241,0.12,0.77,0.63,0.67,0.61,0.06,421,455,390,353,240
242,0.11,0.73,0.62,-2.75,-1.28,1.28,417,452,389,352,240
243,0.12,0.75,0.65,2.56,-2.5,-3.05,423,448,390,352,243
244,0.16,0.77,0.65,2.69,-4.64,-2.14,417,450,393,352,241
245,0.13,0.74,0.64,-0.67,-5.49,0.85,418,452,396,364,241
246,0.13,0.73,0.63,2.01,-3.05,-5.92,416,455,395,350,243
247,0.15,0.76,0.61,3.05,-6.65,1.53,421,452,390,354,242
248,0.17,0.76,0.66,1.22,-2.99,-3.11,423,453,393,352,260
249,0.15,0.73,0.63,5.8,-4.64,-3.42,418,448,389,350,244
250,0.16,0.78,0.64,2.2,-3.3,-2.38,421,457,394,350,244
251,0.16,0.76,0.63,0.67,-2.87,-2.56,423,448,391,353,241
252,0.16,0.78,0.63,1.53,-2.2,-3.78,422,456,392,354,263
253,0.14,0.76,0.62,-0.49,-3.78,-2.62,421,447,395,352,244
254,0.15,0.76,0.6,0.67,-2.08,-2.87,420,453,395,350,241
255,0.14,0.78,0.59,1.16,-0.92,-2.01,431,454,389,357,244
256,0.14,0.79,0.6,1.16,-2.87,-3.66,424,452,396,357,245
257,0.14,0.79,0.61,0.37,-2.44,-2.62,421,448,394,353,242
258,0.15,0.78,0.61,-2.14,-3.05,-1.46,421,453,391,352,245
259,0.15,0.78,0.61,0.0,-3.78,-2.08,420,456,392,352,244
260,0.14,0.79,0.61,-1.28,-3.23,-1.89,421,454,394,355,243
261,0.14,0.73,0.59,-0.61,-4.03,-12.02,419,453,393,357,243
262,0.13,0.7,0.59,-0.79,-5.31,-9.28,422,452,393,354,243
263,0.11,0.76,0.65,-2.93,-3.6,-3.42,422,458,394,356,243
264,0.04,0.78,0.67,-7.14,-8.85,-4.39,422,458,394,354,245
265,0.1,0.76,0.69,-1.53,-1.4,-3.48,421,452,392,354,245
266,0.03,0.72,0.65,3.17,-1.71,0.06,418,447,395,355,242
267,0.08,0.75,0.64,1.77,-2.69,-0.37,416,461,397,357,243
268,0.1,0.74,0.64,-2.38,-2.44,-3.05,421,455,396,356,244
269,0.08,0.74,0.66,-0.37,-1.83,-3.42,419,449,393,353,246
270,0.08,0.77,0.66,0.98,-1.22,-3.78,421,457,393,355,245
271,0.08,0.75,0.67,0.12,-2.26,-1.83,418,452,394,353,240
272,0.07,0.76,0.66,1.28,-2.01,-2.69,423,455,392,355,243
273,0.06,0.73,0.66,2.81,-3.05,-2.38,417,456,392,356,244
274,0.06,0.76,0.65,0.85,-4.64,-0.92,421,453,392,352,244
275,0.07,0.75,0.65,-0.24,-3.54,-3.6,419,452,394,355,243
276,0.07,0.76,0.65,2.44,-3.6,-1.65,422,457,394,354,276
277,0.07,0.76,0.66,-0.06,-2.69,-2.81,420,453,394,356,246
278,0.05,0.75,0.63,-4.82,0.12,0.06,421,452,390,355,247
279,0.04,0.74,0.66,-1.16,-2.69,-4.7,420,452,393,358,247
280,0.05,0.76,0.66,0.12,-2.56,-1.71,422,452,393,354,245
281,0.05,0.76,0.67,0.24,-3.66,-2.56,421,453,390,357,244
282,0.05,0.74,0.66,-1.83,-3.05,-2.14,421,451,395,358,241
283,0.04,0.75,0.67,-0.12,-2.26,-1.89,424,453,393,354,242
284,0.05,0.75,0.67,-0.37,-2.93,-2.62,417,450,394,356,246
285,0.05,0.76,0.67,1.46,-3.6,-2.32,419,452,395,354,273
286,0.05,0.76,0.67,2.38,-3.11,-2.08,421,452,398,362,243
287,0.06,0.77,0.66,0.92,-3.66,-3.42,418,455,391,359,248
288,0.06,0.76,0.65,0.06,-2.26,-0.79,418,447,397,356,244
289,0.04,0.77,0.63,0.31,-3.85,-0.85,417,453,392,360,245
290,0.04,0.79,0.62,3.78,-3.91,-2.56,421,462,395,354,251
291,0.05,0.79,0.63,0.18,-3.85,-0.85,419,455,385,359,245
292,0.06,0.79,0.64,-3.42,-3.91,-1.28,421,451,388,356,243
293,0.05,0.78,0.64,1.04,-4.09,-3.72,419,456,387,357,243
294,0.07,0.77,0.64,0.92,-3.36,-0.49,423,452,389,356,246
295,0.06,0.77,0.64,2.44,-2.99,-2.44,420,455,388,354,247
296,0.06,0.75,0.62,-1.16,-7.14,-0.98,419,450,391,353,247
297,0.05,0.76,0.63,0.61,-2.32,-2.08,421,456,388,356,244
298,0.06,0.77,0.63,0.43,-3.72,-1.59,421,453,388,359,245
299,0.07,0.77,0.63,0.55,-3.05,-2.32,419,452,385,356,250
300,0.08,0.77,0.63,-0.24,-3.23,-2.26,418,452,384,366,242
301,0.07,0.77,0.63,0.37,-3.17,-1.89,416,457,388,359,246
302,0.08,0.77,0.62,0.67,-3.78,-3.17,418,457,389,356,248
303,0.08,0.78,0.63,-0.24,-2.81,-2.5,420,447,387,353,241
304,0.07,0.78,0.63,1.16,-1.95,-2.08,421,452,388,356,246
305,0.08,0.78,0.61,0.92,-2.87,-0.31,420,455,388,357,246
306,0.07,0.77,0.62,-1.4,-3.42,0.06,421,452,388,359,246
307,0.08,0.79,0.62,-2.01,-4.33,-3.42,421,454,389,358,245
308,0.07,0.79,0.61,1.16,-2.81,-2.62,420,468,390,365,245
309,0.05,0.8,0.61,0.18,-3.17,-3.66,420,446,386,357,247
310,0.06,0.79,0.62,-1.28,-2.01,-2.44,421,454,390,374,247
311,0.06,0.81,0.61,0.31,-1.95,-2.81,420,452,391,357,245
312,0.04,0.8,0.61,0.55,-1.89,-0.73,420,447,391,359,244
313,0.06,0.79,0.61,1.16,-3.54,-2.08,418,453,391,355,245
314,0.06,0.78,0.61,2.26,-2.56,-2.69,421,456,396,357,242
315,0.06,0.8,0.61,-15.5,-3.36,-1.04,420,454,398,357,245
316,0.06,0.79,0.61,1.59,-2.99,-1.89,421,449,393,357,243
317,0.06,0.8,0.61,-1.83,-3.54,-1.89,420,445,392,357,245
318,0.04,0.81,0.6,-1.4,-2.99,-2.75,422,455,392,357,280
319,0.04,0.81,0.59,-2.01,-3.85,-2.08,420,455,390,356,236
320,0.05,0.79,0.59,0.31,-3.11,-2.38,417,446,393,359,247
321,0.07,0.8,0.61,0.61,-5.49,-2.99,419,455,392,356,246
322,0.01,0.83,0.6,0.24,-1.28,-3.23,421,452,392,355,246
323,0.07,0.76,0.62,-23.8,7.14,0.37,420,450,392,357,248
324,0.06,0.73,0.72,-8.91,-1.83,10.8,422,445,394,359,248
325,0.18,0.59,0.75,2.87,-7.69,20.51,419,449,392,357,247
326,0.27,0.58,0.76,1.89,-1.89,6.41,423,450,397,358,249
327,0.22,0.57,0.8,2.01,-13.37,0.85,417,441,391,360,245
328,0.25,0.62,0.78,-7.02,-3.42,-4.15,418,451,393,364,247
329,0.25,0.53,0.79,-4.46,-8.06,-10.8,422,444,393,359,249
330,0.24,0.58,0.8,2.14,0.06,-9.46,420,451,396,357,248
331,0.19,0.63,0.78,1.53,-8.48,-8.12,422,451,393,360,250
332,0.26,0.59,0.78,8.79,-3.48,-4.94,421,453,393,358,248
333,0.13,0.65,0.73,-12.94,-6.84,5.13,423,451,390,360,254
334,0.15,0.61,0.8,-2.5,-3.66,-10.93,421,453,394,363,247
335,0.15,0.59,0.82,-9.4,-9.22,-9.89,423,447,396,358,251
336,0.22,0.51,0.83,-7.39,4.03,-13.18,420,449,394,359,249
337,0.14,0.52,0.86,-1.83,3.91,-3.97,419,446,394,358,251
338,0.03,0.52,0.9,0.24,6.71,-2.08,418,451,393,364,248
339,0.08,0.55,0.89,5.31,-20.02,15.87,417,448,395,360,247
340,0.1,0.5,0.85,-3.91,-5.98,1.04,421,446,394,359,256
341,0.19,0.49,0.88,-2.26,-7.45,6.16,418,445,394,364,255
342,0.19,0.48,0.89,1.77,-1.95,-2.81,415,448,393,364,254
343,0.19,0.5,0.88,0.0,-2.14,-0.79,419,447,392,362,254
344,0.2,0.48,0.88,0.0,-2.56,-2.69,419,446,392,365,252
345,0.2,0.48,0.87,1.1,-2.44,-1.65,420,447,390,359,254
346,0.19,0.48,0.87,1.83,-0.98,0.12,415,447,390,365,255
347,0.18,0.5,0.88,2.44,-2.44,-0.61,419,449,388,360,255
348,0.19,0.5,0.88,-0.06,-1.65,-1.59,420,447,393,368,256
349,0.19,0.5,0.85,3.42,-2.08,-4.94,418,449,388,363,254
350,0.22,0.58,0.79,19.41,8.12,-0.24,421,448,391,361,255
351,0.14,0.66,0.75,15.38,12.76,-10.93,420,441,403,360,253
352,0.14,0.68,0.72,-1.89,-6.77,1.04,417,447,391,365,252
353,0.14,0.68,0.71,2.75,1.77,-0.61,418,440,389,366,248
354,0.11,0.68,0.7,-0.49,-2.08,-2.75,415,439,388,359,253
355,0.12,0.71,0.71,-1.4,3.42,-6.96,431,441,389,366,252
356,0.1,0.71,0.72,-4.94,-9.22,1.04,418,443,392,361,252
357,0.14,0.7,0.7,1.83,-4.82,-1.1,416,446,395,365,253
358,0.15,0.71,0.7,-2.26,-3.66,-2.69,418,441,392,370,254
359,0.16,0.7,0.71,3.36,-1.16,-1.28,415,440,393,367,256
360,0.14,0.7,0.71,0.37,-0.85,-2.75,415,445,391,364,256
361,0.13,0.69,0.72,-2.75,-2.2,-1.65,416,442,390,361,255
362,0.14,0.71,0.72,0.18,-2.87,-1.34,415,439,395,368,254
363,0.13,0.69,0.73,0.49,-3.48,-0.61,421,444,395,364,252
364,0.1,0.65,0.73,-5.37,-8.12,-2.26,418,444,392,367,259
365,0.11,0.66,0.75,0.06,-1.83,-1.83,420,442,392,366,255
366,0.12,0.66,0.75,0.12,-3.54,-1.16,417,446,391,365,252
367,0.14,0.66,0.76,-0.43,-5.98,-0.67,419,440,392,364,256
368,0.16,0.64,0.76,-1.65,-6.9,-2.38,424,446,395,368,255
369,0.17,0.64,0.76,-1.1,-5.49,-5.98,418,445,393,367,255
370,0.16,0.63,0.77,-1.46,-3.23,-2.81,422,446,390,366,250
371,0.16,0.63,0.77,-0.43,-3.85,-3.05,416,444,389,362,253
372,0.15,0.63,0.77,-1.4,-3.05,-2.14,416,448,393,363,252
373,0.16,0.63,0.78,-1.22,-2.44,-3.48,422,447,393,365,258
374,0.15,0.63,0.78,-1.53,-3.42,-4.94,417,446,389,365,257
375,0.16,0.63,0.78,0.12,-1.04,-3.23,421,448,391,364,258
376,0.17,0.61,0.78,-1.77,-3.23,-1.28,420,445,391,365,268
377,0.16,0.62,0.77,0.31,-2.56,-3.97,420,448,392,366,271
378,0.16,0.63,0.78,2.38,-3.6,-1.34,421,448,395,368,258
379,0.16,0.63,0.78,1.28,-3.42,-2.87,422,447,390,368,257
380,0.16,0.64,0.76,6.96,-6.23,-0.92,421,446,392,366,255
381,0.17,0.64,0.75,2.69,-3.23,-4.15,417,444,393,354,247
382,0.16,0.64,0.75,0.31,-2.38,-1.59,419,444,393,357,247
383,0.18,0.65,0.74,0.67,-4.46,-4.46,416,442,393,361,247
384,0.17,0.64,0.75,-2.08,-2.32,-2.2,421,448,394,358,248
385,0.18,0.64,0.76,-1.22,-1.22,-2.87,422,446,394,363,248
386,0.2,0.65,0.77,-8.61,-5.68,3.66,420,443,390,362,249
387,0.2,0.62,0.78,-10.74,-4.58,6.53,421,446,400,359,247
388,0.22,0.58,0.76,-0.79,0.67,-1.77,427,445,389,358,246
389,0.21,0.61,0.76,1.46,-1.28,-3.23,419,444,392,362,245
390,0.19,0.63,0.77,1.53,-2.44,-0.06,420,449,390,359,239
391,0.21,0.62,0.77,-0.98,-2.56,-1.46,416,449,390,359,248
392,0.21,0.63,0.78,0.0,-4.03,-2.44,415,449,391,361,248
393,0.21,0.62,0.77,2.62,-3.23,-1.95,420,442,390,361,246
394,0.21,0.62,0.77,-0.24,-1.83,-4.09,420,449,387,370,258
395,0.2,0.62,0.77,-0.98,-1.65,-3.23,421,446,403,360,248
396,0.2,0.62,0.77,2.87,-2.99,-3.97,423,448,393,367,250
397,0.19,0.65,0.79,-1.77,-2.32,-2.01,421,446,391,359,250
398,0.19,0.64,0.76,-1.95,-1.71,-0.79,420,444,394,360,247
399,0.19,0.63,0.77,-0.55,-2.56,-0.98,419,446,390,363,251
400,0.2,0.62,0.76,0.24,-1.4,-2.99,415,451,387,360,252
401,0.18,0.65,0.78,-0.06,-3.66,-3.36,417,449,394,360,251
402,0.19,0.62,0.76,0.49,-2.26,-2.2,423,444,389,358,250
403,0.18,0.63,0.77,1.22,-2.38,-2.01,420,447,387,363,249
404,0.2,0.64,0.76,-0.24,-3.42,-2.69,423,446,392,361,251
405,0.19,0.61,0.75,3.11,-2.38,-1.65,411,443,394,365,246
406,0.18,0.65,0.75,1.1,-2.5,-1.46,415,451,391,365,253
407,0.18,0.64,0.76,0.92,-3.11,-2.81,418,449,394,365,255
408,0.17,0.64,0.75,0.12,-3.42,-3.72,420,446,388,367,249
409,0.16,0.64,0.73,-1.04,-4.03,-1.4,419,448,389,367,253
410,0.17,0.66,0.76,-0.37,-3.3,-1.34,421,447,390,368,253
411,0.16,0.67,0.77,-0.73,-3.17,-3.36,422,445,391,365,251
412,0.17,0.65,0.75,2.32,-2.56,-2.81,427,445,389,361,250
413,0.16,0.65,0.74,1.83,-3.6,-1.53,416,446,393,368,247
414,0.17,0.66,0.75,-0.92,-2.69,-0.79,421,440,387,364,251
415,0.18,0.65,0.75,-0.85,-2.69,-1.95,419,456,386,367,250
416,0.18,0.65,0.75,-0.18,-2.14,-2.2,421,447,388,366,248
417,0.17,0.65,0.75,-0.06,-2.62,-2.87,423,451,382,365,250
418,0.17,0.65,0.76,0.55,-3.91,-2.62,416,440,385,365,251
419,0.18,0.64,0.75,0.12,-2.93,-2.81,417,444,386,372,249
420,0.17,0.65,0.76,0.37,-2.81,-2.2,423,446,386,362,253
421,0.18,0.65,0.76,0.0,-2.81,-1.89,420,444,388,367,254
422,0.18,0.65,0.76,0.18,-2.87,-2.93,418,451,386,365,253
423,0.17,0.64,0.76,1.16,-3.97,-2.69,423,450,387,364,254
424,0.17,0.63,0.76,0.67,-2.2,-2.08,420,449,389,368,251
425,0.18,0.64,0.76,0.43,-2.56,-2.56,421,445,387,365,254
426,0.18,0.64,0.76,1.16,-1.77,-3.11,422,450,387,365,250
427,0.18,0.64,0.76,0.18,-4.21,-2.44,420,450,385,368,250
428,0.18,0.64,0.76,0.73,-3.36,-1.71,419,446,387,364,252
429,0.18,0.64,0.76,0.98,-3.54,-1.89,420,447,386,367,250
430,0.18,0.64,0.76,0.0,-3.78,-2.56,415,451,390,366,253
431,0.19,0.64,0.76,-0.12,-3.23,-2.01,418,441,386,363,253
432,0.18,0.64,0.77,0.79,-2.75,-2.26,415,443,386,362,252
433,0.17,0.63,0.76,0.06,-2.38,-2.56,419,450,387,368,255
434,0.18,0.63,0.76,0.49,-3.23,-0.92,416,448,384,369,253
435,0.18,0.65,0.76,-2.93,-3.6,-3.23,418,448,386,369,249
436,0.17,0.64,0.76,1.28,-2.26,-2.26,419,446,393,372,250
437,0.18,0.65,0.75,3.54,-5.0,-1.4,421,447,391,364,247
438,0.18,0.65,0.75,1.77,-3.66,-2.62,418,445,386,365,252
439,0.19,0.67,0.75,1.4,-2.81,-2.2,419,443,385,364,247
440,0.19,0.65,0.75,-1.89,-1.34,-1.1,415,446,386,367,252
441,0.19,0.66,0.76,-6.29,-1.95,3.91,417,451,384,365,249
442,0.24,0.63,0.77,-9.22,-0.55,6.96,420,447,387,369,250
443,0.21,0.61,0.78,3.23,-2.75,-4.64,416,450,384,367,245
444,0.22,0.61,0.78,1.95,-3.66,-3.3,416,448,386,366,249
445,0.21,0.61,0.79,0.31,-2.08,-1.46,418,441,385,361,252
446,0.22,0.6,0.78,-1.28,-5.31,-2.08,414,448,383,362,251
447,0.23,0.6,0.78,-0.12,-3.48,-1.95,418,444,379,361,251
448,0.22,0.6,0.78,-2.08,-3.05,-2.69,418,448,382,363,253
449,0.22,0.6,0.79,-0.12,-2.26,-2.75,419,451,383,366,251
450,0.22,0.61,0.78,-0.37,-2.26,-2.56,416,446,381,364,259
451,0.22,0.62,0.77,1.16,-2.08,-3.6,414,446,381,363,248
452,0.22,0.62,0.78,0.43,-3.23,-2.56,417,441,381,372,250
453,0.21,0.61,0.78,-0.06,-3.97,-2.5,416,448,382,361,253
454,0.22,0.62,0.78,1.77,-3.72,-2.44,419,452,379,364,250
455,0.22,0.62,0.78,0.43,-3.48,-1.59,414,448,380,363,253
456,0.22,0.62,0.77,1.59,-2.75,-3.36,417,448,388,364,252
457,0.22,0.62,0.78,-1.34,-1.1,-2.44,420,458,381,364,259
458,0.21,0.63,0.78,2.38,-0.55,-3.6,418,445,380,366,250
459,0.15,0.65,0.77,10.31,4.09,-8.06,417,455,387,365,253
460,0.13,0.69,0.71,16.42,-5.31,-4.82,414,454,390,366,252
461,0.16,0.81,0.62,6.29,-4.94,-8.48,418,454,392,366,254
462,0.12,0.8,0.61,-0.06,-0.98,-2.44,420,454,388,366,255
463,0.07,0.83,0.64,-7.81,-9.16,-11.84,420,454,390,370,252
464,0.11,0.75,0.65,-1.46,-3.17,-1.53,416,448,388,366,253
465,0.1,0.77,0.65,-3.48,-0.85,-1.22,421,458,392,374,251
466,0.12,0.75,0.68,-0.12,-4.15,-4.7,417,456,391,366,254
467,0.12,0.74,0.65,3.36,-4.27,-1.34,422,455,391,368,250
468,0.14,0.75,0.65,-1.89,-3.23,-0.06,416,455,394,368,253
469,0.14,0.75,0.65,-0.06,-2.69,-2.2,418,457,390,368,253
470,0.13,0.75,0.66,0.18,-2.81,-2.32,418,455,392,365,255
471,0.13,0.75,0.66,-0.24,-1.95,-2.08,420,453,393,368,255
472,0.13,0.75,0.65,-0.85,-2.62,-4.88,419,456,394,365,256
473,0.12,0.74,0.67,-2.26,-3.42,-1.89,414,456,392,366,251
474,0.13,0.75,0.67,1.34,-3.91,-1.28,418,453,389,369,255
475,0.13,0.75,0.66,1.22,-3.23,-1.83,419,452,393,363,254
476,0.12,0.74,0.67,0.85,-2.62,-0.85,419,454,390,367,256
477,0.13,0.76,0.67,0.37,-1.89,-3.11,417,448,392,367,272
478,0.15,0.73,0.66,-1.04,-7.02,-7.57,420,454,390,367,253
479,0.13,0.74,0.67,0.37,-2.32,-2.75,417,454,391,366,254
480,0.12,0.75,0.68,0.61,-3.6,-3.17,421,451,392,364,257
481,0.11,0.74,0.67,1.77,-1.83,-2.26,422,450,391,367,253
482,0.12,0.75,0.68,3.48,0.24,0.12,420,452,392,371,254
483,0.14,0.75,0.67,0.12,-1.89,-3.42,414,448,389,366,254
484,0.13,0.73,0.66,0.06,-3.36,-1.71,416,456,392,370,254
485,0.11,0.74,0.67,1.28,-0.85,-2.99,415,453,392,366,253
486,0.12,0.74,0.69,1.1,-4.15,-2.93,419,456,392,369,257
487,0.12,0.72,0.66,1.16,-5.13,-0.98,417,453,393,363,255
488,0.14,0.76,0.69,0.37,-0.37,-2.5,419,452,391,366,251
489,0.16,0.72,0.67,3.42,-5.49,3.54,420,452,391,364,254
490,0.17,0.72,0.67,6.35,-2.32,-3.23,417,448,392,366,253
491,0.2,0.74,0.71,4.46,-2.5,-1.65,418,456,390,365,254
492,0.2,0.75,0.68,7.2,4.64,-7.32,419,452,389,366,253
493,0.17,0.73,0.69,-0.85,-1.4,-2.5,418,452,387,365,255
494,0.17,0.72,0.68,0.73,-2.62,-3.36,419,453,388,367,253
495,0.18,0.72,0.67,12.15,-1.1,-1.77,419,455,389,364,265
496,0.18,0.73,0.66,0.49,-1.83,-3.3,418,452,391,363,255
497,0.18,0.72,0.66,-1.65,-0.92,-3.42,418,452,390,364,253
498,0.17,0.74,0.68,-1.16,-1.1,-3.48,417,456,388,369,255
499,0.17,0.72,0.68,0.31,-2.62,-2.38,420,451,390,366,252
500,0.17,0.72,0.69,-0.43,-3.23,-3.78,419,448,390,364,253
501,0.17,0.72,0.68,-0.67,-3.85,-1.4,419,453,392,365,254
502,0.18,0.73,0.68,-0.67,-3.11,-1.59,419,454,387,366,253
503,0.32,0.87,0.33,-8.06,8.0,4.21,414,471,412,346,220
504,0.26,0.85,0.41,-18.49,0.73,3.91,416,464,412,346,220
505,0.36,0.83,0.4,-0.85,-4.94,1.59,413,466,406,338,212
506,0.35,0.85,0.42,3.42,-3.97,-1.4,410,464,408,333,208
507,0.36,0.84,0.41,-2.62,3.78,-6.71,410,463,406,330,212
508,0.37,0.81,0.45,-1.65,-3.91,1.4,412,470,406,323,208
509,0.39,0.8,0.44,-7.75,-6.65,-1.83,413,470,407,326,209
510,0.39,0.81,0.45,-1.16,0.43,-1.77,411,466,407,327,211
511,0.37,0.78,0.48,-2.32,-1.16,-0.37,417,467,414,331,213
512,0.37,0.8,0.48,4.64,-3.72,-2.32,417,461,407,332,212
513,0.4,0.81,0.46,-0.37,-3.17,-2.26,415,467,405,334,214
514,0.39,0.79,0.45,-0.12,-2.5,-1.22,419,466,408,332,216
515,0.41,0.8,0.45,0.55,-4.03,-2.14,419,467,405,336,216
516,0.42,0.8,0.44,-0.12,-3.17,-1.04,416,466,404,333,215
517,0.45,0.8,0.42,4.27,-3.85,0.49,414,466,405,334,224
518,0.44,0.8,0.4,2.01,-7.14,-3.6,417,465,406,334,216
519,0.41,0.66,0.52,-25.39,25.09,-10.25,416,465,402,335,213
520,0.29,0.74,0.6,-0.31,56.88,-38.88,417,461,405,336,217
521,0.39,0.78,0.59,-4.58,-25.33,7.14,415,469,404,338,217
522,0.36,0.83,0.57,7.93,2.32,-22.22,417,466,407,340,217
523,0.38,0.79,0.55,-8.91,-2.69,4.76,414,465,405,345,221
524,0.29,0.75,0.56,0.49,7.51,0.37,414,462,406,343,223
525,0.38,0.79,0.58,-2.56,2.44,0.24,417,461,402,346,220
526,0.36,0.69,0.59,1.71,-4.09,7.69,417,465,404,345,222
527,0.4,0.68,0.59,-2.38,-13.31,5.37,414,465,402,350,228
528,0.46,0.67,0.61,1.46,1.71,1.53,417,469,399,351,225
529,0.45,0.61,0.6,1.83,-5.98,0.85,416,468,399,349,229
530,0.46,0.64,0.61,-0.85,-7.32,0.79,415,465,398,349,226
531,0.52,0.66,0.59,-2.62,1.46,-6.53,414,466,394,348,226
532,0.53,0.64,0.58,2.08,-10.19,4.76,417,462,397,349,229
533,0.53,0.63,0.58,1.65,-2.75,-7.69,417,468,395,352,228
534,0.46,0.65,0.62,2.87,-13.67,-0.55,418,461,396,352,227
535,0.47,0.63,0.61,-0.12,2.2,2.14,421,464,401,347,260
536,0.51,0.57,0.62,-7.63,1.16,3.23,418,464,397,351,226
537,0.45,0.66,0.61,11.72,-9.77,-7.26,416,468,398,351,227
538,0.46,0.73,0.56,5.13,-6.84,-0.61,417,460,399,349,231
539,0.46,0.67,0.58,5.0,-15.26,-0.55,420,464,398,351,228
540,0.52,0.69,0.51,3.66,-3.42,-7.87,417,469,392,350,228
541,0.51,0.66,0.55,-4.03,-8.42,0.31,416,469,398,352,240
542,0.56,0.68,0.55,-3.91,-6.35,0.24,421,461,393,348,230
543,0.51,0.62,0.53,5.68,-17.58,9.34,418,465,391,352,231
544,0.59,0.66,0.49,2.26,0.24,-8.85,419,465,393,357,227
545,0.56,0.65,0.48,1.16,-1.83,-8.48,416,467,393,349,230
546,0.58,0.67,0.5,-0.24,0.67,-4.03,422,464,395,350,231
547,0.6,0.69,0.49,2.62,-1.4,-4.27,430,471,389,347,230
548,0.57,0.64,0.49,1.22,-5.0,-7.08,423,469,388,351,229
549,0.54,0.67,0.51,6.16,-3.66,-3.23,420,465,390,348,230
550,0.53,0.7,0.5,6.65,0.55,-8.54,421,464,392,353,230
551,0.54,0.69,0.5,0.92,-3.48,-1.22,422,471,392,351,230
552,0.54,0.68,0.49,2.08,-0.85,-2.62,421,465,394,347,226
553,0.52,0.68,0.49,1.46,-4.27,-3.91,424,472,389,352,231
554,0.53,0.7,0.49,-2.26,-3.72,-2.93,417,460,392,350,221
555,0.53,0.71,0.5,0.12,-1.71,-2.93,426,466,392,348,230
556,0.52,0.7,0.49,0.31,-2.69,-4.52,420,465,392,348,232
557,0.51,0.71,0.48,-0.12,-1.59,-3.54,421,466,391,351,234
558,0.51,0.72,0.49,-0.73,-1.89,-3.97,422,459,393,349,231
559,0.47,0.74,0.51,-4.21,3.6,-7.14,422,465,394,350,233
560,0.4,0.73,0.58,0.06,5.74,-8.18,425,454,395,351,234
561,0.36,0.72,0.58,-4.09,7.63,-10.01,421,461,397,354,234
562,0.37,0.73,0.59,3.23,-11.41,2.5,422,463,400,355,235
563,0.38,0.74,0.58,0.06,-3.23,-2.38,422,465,398,356,237
564,0.39,0.74,0.58,1.46,-3.23,-2.87,425,463,399,355,234
565,0.39,0.74,0.58,-1.04,-3.11,-1.46,422,462,399,356,236
566,0.37,0.74,0.56,-0.85,-2.38,-1.46,424,463,399,358,235
567,0.38,0.73,0.57,0.06,-1.22,-3.66,419,462,395,358,236
568,0.41,0.76,0.56,1.34,-3.11,-2.56,418,463,398,356,236
569,0.38,0.76,0.57,-0.43,-2.56,-1.95,419,462,398,358,237
570,0.37,0.73,0.57,3.85,-1.1,-2.44,423,463,397,359,239
571,0.37,0.75,0.56,1.16,-3.48,-4.64,422,464,398,358,238
572,0.4,0.75,0.56,2.38,-3.17,-0.92,423,459,395,359,238
573,0.39,0.76,0.56,0.92,-3.05,-4.39,419,466,400,361,239
574,0.34,0.77,0.55,5.19,-0.43,-3.85,422,461,398,362,246
575,0.37,0.8,0.55,1.28,-4.03,-1.28,423,458,398,357,241
576,0.34,0.77,0.54,-0.73,0.37,-3.97,424,468,398,360,241
577,0.35,0.75,0.54,-9.09,-2.62,-1.65,421,462,399,360,240
578,0.35,0.77,0.55,1.1,-3.48,-3.11,423,461,398,361,240
579,0.36,0.78,0.55,-2.08,-2.14,-3.6,423,457,406,360,248
580,0.34,0.77,0.55,0.24,-3.54,-5.49,426,461,401,358,241
581,0.34,0.76,0.56,1.53,-2.2,-3.42,419,461,401,358,239
582,0.33,0.76,0.57,-1.1,-2.56,-2.81,421,462,395,361,241
583,0.33,0.77,0.57,0.67,-2.87,-2.14,422,461,401,362,250
584,0.33,0.78,0.55,0.24,-2.81,1.16,424,475,405,359,241
585,0.36,0.76,0.58,-0.18,-4.21,-0.37,421,462,399,362,244
586,0.36,0.76,0.57,2.32,-3.97,-3.72,419,464,397,363,243
587,0.36,0.75,0.55,1.59,-1.53,-2.87,421,460,396,363,238
588,0.34,0.78,0.56,-0.85,-5.74,0.0,423,461,397,362,241
589,0.37,0.74,0.56,-4.33,0.61,-0.31,421,460,399,362,243
590,0.36,0.71,0.58,-1.53,-1.1,-1.83,423,461,395,362,244
591,0.38,0.72,0.58,4.46,-10.13,8.06,423,464,400,360,249
592,0.36,0.73,0.59,6.71,-5.07,-0.37,423,462,398,360,240
593,0.35,0.74,0.6,0.73,-3.23,-2.81,420,466,400,362,243
594,0.37,0.73,0.59,-0.37,-1.77,-2.38,420,465,400,363,244
595,0.36,0.73,0.58,1.71,-2.69,-2.26,422,458,398,357,245
596,0.41,0.73,0.57,-0.18,-6.29,0.79,423,461,398,356,245
597,0.37,0.75,0.58,0.06,-2.32,-3.66,423,461,397,362,243
598,0.36,0.74,0.58,0.12,-3.36,-2.01,423,466,398,360,243
599,0.34,0.76,0.59,1.04,-0.49,-3.23,423,455,400,361,245
600,0.36,0.74,0.58,0.31,-2.75,-3.23,425,453,399,372,243
601,0.35,0.75,0.58,0.73,-2.2,-3.3,421,455,401,360,242
602,0.35,0.75,0.56,2.93,-3.3,-2.99,422,451,397,358,243
603,0.35,0.75,0.58,2.14,-1.95,-2.32,424,449,409,360,244
604,0.35,0.75,0.57,0.31,-2.69,-1.65,424,440,395,361,247
605,0.34,0.75,0.58,-1.59,-2.14,-2.2,425,452,396,362,246
606,0.35,0.76,0.57,-0.49,-2.81,-2.87,425,453,394,362,245
607,0.35,0.74,0.57,-0.37,-2.93,-1.83,420,457,400,362,244
608,0.35,0.75,0.58,-0.18,-2.01,-3.72,423,454,397,359,246
609,0.34,0.76,0.58,0.49,-2.81,-2.5,423,452,397,359,246
610,0.36,0.76,0.58,2.44,-3.36,0.37,419,450,399,365,247
611,0.37,0.74,0.58,3.72,-4.7,-2.38,423,459,400,365,247
612,0.35,0.75,0.58,0.24,-4.21,-1.28,421,453,398,363,243
613,0.34,0.73,0.56,-1.83,-3.48,-1.77,421,453,401,368,244
614,0.35,0.73,0.58,-0.49,-1.53,-1.71,421,453,400,362,246
615,0.35,0.75,0.6,1.04,-2.44,-4.94,421,451,395,365,245
616,0.34,0.73,0.6,-3.36,-5.0,-2.01,423,459,396,361,241
617,0.34,0.74,0.6,0.79,-3.66,-1.59,422,469,400,362,245
618,0.34,0.74,0.59,1.59,-4.09,-2.01,422,452,399,362,246
619,0.34,0.74,0.59,0.43,-3.6,-2.14,426,452,401,358,248
620,0.34,0.74,0.59,0.37,-3.11,-1.83,424,451,397,370,246
621,0.34,0.75,0.59,0.06,-2.38,-1.59,422,450,399,362,255
622,0.34,0.74,0.59,-0.73,-2.75,-3.78,423,457,397,361,246
623,0.34,0.74,0.6,-0.06,-3.17,-1.83,422,448,400,366,245
624,0.33,0.74,0.59,-0.67,-3.11,-2.38,423,454,396,365,247
625,0.32,0.72,0.6,0.24,-2.75,-1.77,425,454,395,360,248
626,0.36,0.73,0.6,0.98,-4.03,0.18,423,456,393,364,248
627,0.34,0.73,0.6,0.37,-2.99,-3.42,419,455,401,362,246
628,0.32,0.75,0.6,1.53,-1.53,-2.93,423,453,397,364,246
629,0.33,0.75,0.61,0.67,-3.48,-1.28,425,453,397,364,249
630,0.34,0.74,0.59,0.61,-3.05,-2.99,424,456,398,364,246
631,0.3,0.74,0.62,-1.16,3.72,-8.97,423,454,397,364,247
632,0.33,0.74,0.6,-0.18,-3.91,-3.3,424,453,398,362,248
633,0.31,0.74,0.6,-0.06,-2.5,-3.36,421,457,396,362,249
634,0.3,0.74,0.6,1.53,-3.66,-2.93,423,453,397,363,247
635,0.31,0.75,0.59,-1.04,-2.62,-2.93,425,454,396,357,242
636,0.32,0.75,0.6,-0.24,-2.5,-2.14,424,453,402,358,283
637,0.31,0.74,0.61,-0.79,-2.56,-3.72,423,450,398,366,245
638,0.3,0.77,0.6,-4.21,-9.52,-7.51,423,453,397,362,269
639,0.27,0.75,0.58,6.65,-5.37,-13.73,426,452,396,360,245
640,0.23,0.74,0.57,0.61,-23.07,-17.58,423,455,396,358,251
641,0.28,0.8,0.55,1.71,-4.64,-6.59,422,452,399,363,248
642,0.28,0.8,0.56,-1.46,-2.44,-0.37,426,450,399,378,243
643,0.26,0.82,0.54,-0.73,-1.77,-2.32,421,459,400,365,245
644,0.27,0.79,0.55,3.85,-2.44,-3.48,422,452,394,363,276
645,0.27,0.78,0.57,-2.44,-1.89,-2.32,424,456,394,362,247
646,0.24,0.78,0.58,-1.16,-2.93,-1.16,422,457,394,363,251
647,0.25,0.79,0.58,-0.24,-1.53,-2.93,423,453,398,360,243
648,0.25,0.81,0.58,3.72,-0.61,-2.81,420,457,397,362,248
649,0.27,0.8,0.56,-1.34,-4.21,-1.83,418,458,400,359,249
650,0.26,0.78,0.57,-2.08,-3.72,-2.62,418,457,400,363,248
651,0.25,0.78,0.54,-2.38,-3.3,-5.07,423,455,403,364,246
652,0.26,0.79,0.59,-8.24,-9.16,-2.38,424,454,399,362,248
653,0.31,0.78,0.6,1.77,0.0,-1.4,426,453,401,365,246
654,0.26,0.8,0.6,-1.71,0.67,-12.94,425,457,397,363,247
655,0.22,0.8,0.6,0.31,-3.23,-15.99,425,454,397,363,246
656,0.13,0.77,0.58,3.78,-4.88,-8.42,422,449,398,365,249
657,0.13,0.77,0.6,5.43,-7.63,-12.08,422,455,400,365,247
658,0.13,0.79,0.62,0.61,-0.49,-7.39,424,455,399,358,250
659,0.11,0.83,0.58,4.52,-6.16,-8.85,422,452,401,364,247
660,0.1,0.8,0.57,-5.86,2.5,-5.92,421,453,394,364,246
661,0.1,0.82,0.58,5.07,-3.36,-2.62,421,453,396,363,246
662,0.14,0.83,0.57,-4.52,-4.52,1.16,417,450,397,364,255
663,0.14,0.82,0.59,0.98,-4.52,-2.26,419,453,393,365,247
664,0.12,0.83,0.57,-11.11,0.0,7.63,422,449,399,361,264
665,0.13,0.82,0.57,-1.1,-2.2,-3.72,423,448,398,363,246
666,0.13,0.83,0.6,3.23,-2.81,-4.58,416,453,395,365,246
667,0.12,0.79,0.52,-1.71,-8.91,2.08,420,454,397,365,244
668,0.13,0.77,0.55,5.31,-0.43,-11.29,420,459,399,365,245
669,0.11,0.81,0.56,-2.14,1.4,-3.97,420,454,397,364,253
670,0.11,0.83,0.58,5.37,1.53,-6.04,418,455,393,360,243
671,0.11,0.82,0.55,-2.69,-10.07,4.09,419,459,395,360,245
672,0.06,0.8,0.57,-3.3,4.33,5.13,419,459,396,361,244
673,0.06,0.8,0.55,-0.98,-0.18,1.04,415,458,393,361,243
674,0.09,0.83,0.59,-2.01,-4.15,-5.37,418,451,397,360,244
675,0.05,0.85,0.66,-9.34,-1.83,-0.79,419,455,398,363,280
676,0.05,0.79,0.64,-10.74,-1.53,-9.4,422,456,393,363,243
677,0.01,0.77,0.66,0.31,-2.69,-6.1,418,456,399,364,248
678,0.03,0.72,0.62,7.2,-1.59,-1.77,421,456,397,362,242
679,0.04,0.75,0.62,2.62,-0.92,-3.54,422,459,396,362,243
680,0.05,0.79,0.62,-1.04,-3.72,-0.18,416,458,396,362,250
681,0.02,0.77,0.62,2.81,-3.85,-9.64,415,451,397,362,246
682,0.06,0.81,0.6,7.32,0.18,5.0,416,459,397,368,236
683,0.04,0.81,0.63,-0.85,1.16,-1.46,419,458,396,362,246
684,0.03,0.84,0.63,1.28,6.41,8.12,420,455,397,364,246
685,0.09,0.8,0.61,0.0,-1.04,-4.33,425,455,396,363,248
686,0.06,0.78,0.63,-3.36,5.55,-8.61,420,456,392,370,247
687,0.06,0.79,0.62,2.26,-10.44,1.16,419,459,396,363,245
688,0.07,0.79,0.6,3.72,-5.74,0.18,421,459,392,363,247
689,0.04,0.8,0.61,0.79,-4.52,-3.66,420,449,397,364,246
690,0.09,0.77,0.59,-0.12,-2.93,-4.46,415,454,397,363,246
691,0.09,0.79,0.62,1.46,-3.11,-0.98,426,454,397,363,248
692,0.11,0.81,0.58,4.82,-4.94,1.16,419,452,397,360,248
693,0.16,0.78,0.59,-1.83,-3.6,-2.81,415,445,393,345,236
694,0.13,0.79,0.6,-6.9,0.98,0.98,416,444,396,342,234
695,0.16,0.78,0.65,-0.67,-7.14,-6.16,415,445,387,341,230
696,0.11,0.78,0.64,-3.36,-7.14,-1.65,417,450,386,341,236
697,0.12,0.75,0.63,-1.53,-1.1,-0.92,418,451,388,344,236
698,0.13,0.77,0.64,0.37,-1.77,-2.93,416,450,388,344,234
699,0.14,0.75,0.65,-5.31,-3.72,-1.95,413,450,388,355,233
700,0.13,0.74,0.65,0.24,-1.28,-3.42,416,448,387,346,251
701,0.12,0.74,0.66,1.46,-3.11,-2.62,417,452,387,346,238
702,0.13,0.74,0.65,-1.1,-1.28,-2.38,418,452,388,349,235
703,0.13,0.75,0.64,2.01,-4.7,-0.37,419,452,388,348,238
704,0.14,0.75,0.64,-0.85,-3.42,-1.71,419,449,388,346,240
705,0.15,0.76,0.65,0.73,-4.21,-0.85,421,453,388,347,240
706,0.14,0.75,0.64,-0.79,-2.32,-2.38,419,452,394,348,239
707,0.13,0.74,0.65,2.38,-2.99,-4.15,419,450,390,353,236
708,0.12,0.76,0.64,-5.19,-0.61,-5.92,420,451,391,352,238
709,0.13,0.75,0.66,-0.43,-1.53,-0.73,418,456,390,351,242
710,0.11,0.75,0.65,1.22,-3.91,-2.75,419,448,392,348,238
711,0.12,0.75,0.65,0.24,-2.2,-1.28,419,454,394,353,250
712,0.12,0.75,0.64,4.88,-3.66,-0.06,416,458,391,354,242
713,0.13,0.75,0.67,3.3,-2.93,-8.3,419,448,391,353,242
714,0.13,0.78,0.65,0.06,-5.86,-2.81,420,453,394,351,241
715,0.13,0.76,0.65,-1.59,-1.89,-0.67,423,449,391,354,242
716,0.13,0.75,0.65,0.0,-1.34,-2.44,415,448,394,353,264
717,0.13,0.74,0.67,1.83,-2.32,-3.36,420,454,393,355,239
718,0.14,0.76,0.67,0.12,-3.54,-0.24,418,451,391,352,243
719,0.11,0.76,0.66,1.59,-3.17,-2.62,420,453,391,351,240
720,0.12,0.74,0.65,2.87,-3.66,-0.92,420,455,391,353,242
721,0.13,0.75,0.64,1.04,-4.03,-2.08,419,446,393,352,238
722,0.12,0.77,0.64,7.02,-4.46,-3.11,422,452,392,347,242
723,0.16,0.79,0.63,1.89,-3.78,-1.28,416,453,393,351,240
724,0.14,0.77,0.62,0.73,-2.38,-2.81,417,455,393,351,234
725,0.15,0.77,0.63,1.34,-2.81,-6.16,418,449,394,351,239
726,0.18,0.78,0.63,-1.65,-3.78,-0.49,421,449,391,349,242
727,0.18,0.78,0.62,2.99,-0.73,-0.55,421,456,388,351,241
728,0.17,0.78,0.6,0.79,-3.23,-2.01,421,449,390,352,229
729,0.17,0.77,0.61,-0.24,-3.48,-2.69,421,451,393,350,238
730,0.18,0.8,0.61,4.64,-3.66,-2.32,423,448,393,351,266
731,0.17,0.74,0.59,-4.94,-2.44,0.49,422,453,391,352,240
732,0.2,0.75,0.61,-5.0,-4.03,-4.27,418,455,387,349,240
733,0.19,0.73,0.62,-4.7,-3.66,-5.49,420,452,402,354,239
734,0.17,0.76,0.65,1.34,-1.65,-2.44,422,452,391,353,241
735,0.19,0.78,0.65,-5.31,5.43,-3.66,423,455,393,353,243
736,0.17,0.72,0.64,-11.41,-2.44,2.32,418,457,388,351,237
737,0.17,0.7,0.67,-3.11,-2.44,-2.44,417,453,389,348,239
738,0.2,0.72,0.68,-4.27,-1.59,-0.55,419,448,389,354,243
739,0.18,0.75,0.67,10.31,-7.45,-7.75,417,451,386,350,240
740,0.17,0.74,0.64,2.93,-3.85,-0.73,420,456,389,351,240
741,0.17,0.76,0.63,0.12,-3.42,-4.7,419,455,392,351,241
742,0.17,0.76,0.63,-5.07,-0.55,-1.65,417,451,387,350,240
743,0.17,0.75,0.63,0.37,-3.97,-2.5,421,453,390,352,241
744,0.12,0.77,0.63,0.67,0.61,0.06,421,455,390,353,240
745,0.11,0.73,0.62,-2.75,-1.28,1.28,417,452,389,352,240
746,0.12,0.75,0.65,2.56,-2.5,-3.05,423,448,390,352,243
747,0.16,0.77,0.65,2.69,-4.64,-2.14,417,450,393,352,241
748,0.13,0.74,0.64,-0.67,-5.49,0.85,418,452,396,364,241
749,0.13,0.73,0.63,2.01,-3.05,-5.92,416,455,395,350,243
750,0.15,0.76,0.61,3.05,-6.65,1.53,421,452,390,354,242
751,0.17,0.76,0.66,1.22,-2.99,-3.11,423,453,393,352,260
752,0.15,0.73,0.63,5.8,-4.64,-3.42,418,448,389,350,244
753,0.16,0.78,0.64,2.2,-3.3,-2.38,421,457,394,350,244
754,0.16,0.76,0.63,0.67,-2.87,-2.56,423,448,391,353,241
755,0.16,0.78,0.63,1.53,-2.2,-3.78,422,456,392,354,263
756,0.14,0.76,0.62,-0.49,-3.78,-2.62,421,447,395,352,244
757,0.15,0.76,0.6,0.67,-2.08,-2.87,420,453,395,350,241
758,0.14,0.78,0.59,1.16,-0.92,-2.01,431,454,389,357,244
759,0.14,0.79,0.6,1.16,-2.87,-3.66,424,452,396,357,245
760,0.14,0.79,0.61,0.37,-2.44,-2.62,421,448,394,353,242
761,0.15,0.78,0.61,-2.14,-3.05,-1.46,421,453,391,352,245
762,0.15,0.78,0.61,0.0,-3.78,-2.08,420,456,392,352,244
763,0.14,0.79,0.61,-1.28,-3.23,-1.89,421,454,394,355,243
764,0.14,0.73,0.59,-0.61,-4.03,-12.02,419,453,393,357,243
765,0.13,0.7,0.59,-0.79,-5.31,-9.28,422,452,393,354,243
766,0.11,0.76,0.65,-2.93,-3.6,-3.42,422,458,394,356,243
767,0.04,0.78,0.67,-7.14,-8.85,-4.39,422,458,394,354,245
768,0.1,0.76,0.69,-1.53,-1.4,-3.48,421,452,392,354,245
769,0.03,0.72,0.65,3.17,-1.71,0.06,418,447,395,355,242
770,0.08,0.75,0.64,1.77,-2.69,-0.37,416,461,397,357,243
771,0.1,0.74,0.64,-2.38,-2.44,-3.05,421,455,396,356,244
772,0.08,0.74,0.66,-0.37,-1.83,-3.42,419,449,393,353,246
773,0.08,0.77,0.66,0.98,-1.22,-3.78,421,457,393,355,245
774,0.08,0.75,0.67,0.12,-2.26,-1.83,418,452,394,353,240
775,0.07,0.76,0.66,1.28,-2.01,-2.69,423,455,392,355,243
776,0.06,0.73,0.66,2.81,-3.05,-2.38,417,456,392,356,244
777,0.06,0.76,0.65,0.85,-4.64,-0.92,421,453,392,352,244
778,0.07,0.75,0.65,-0.24,-3.54,-3.6,419,452,394,355,243
779,0.07,0.76,0.65,2.44,-3.6,-1.65,422,457,394,354,276
780,0.07,0.76,0.66,-0.06,-2.69,-2.81,420,453,394,356,246
781,0.05,0.75,0.63,-4.82,0.12,0.06,421,452,390,355,247
782,0.04,0.74,0.66,-1.16,-2.69,-4.7,420,452,393,358,247
783,0.05,0.76,0.66,0.12,-2.56,-1.71,422,452,393,354,245
784,0.05,0.76,0.67,0.24,-3.66,-2.56,421,453,390,357,244
785,0.05,0.74,0.66,-1.83,-3.05,-2.14,421,451,395,358,241
786,0.04,0.75,0.67,-0.12,-2.26,-1.89,424,453,393,354,242
787,0.05,0.75,0.67,-0.37,-2.93,-2.62,417,450,394,356,246
788,0.05,0.76,0.67,1.46,-3.6,-2.32,419,452,395,354,273
789,0.05,0.76,0.67,2.38,-3.11,-2.08,421,452,398,362,243
790,0.06,0.77,0.66,0.92,-3.66,-3.42,418,455,391,359,248
791,0.06,0.76,0.65,0.06,-2.26,-0.79,418,447,397,356,244
792,0.04,0.77,0.63,0.31,-3.85,-0.85,417,453,392,360,245
793,0.04,0.79,0.62,3.78,-3.91,-2.56,421,462,395,354,251
794,0.05,0.79,0.63,0.18,-3.85,-0.85,419,455,385,359,245
795,0.06,0.79,0.64,-3.42,-3.91,-1.28,421,451,388,356,243
796,0.05,0.78,0.64,1.04,-4.09,-3.72,419,456,387,357,243
797,0.07,0.77,0.64,0.92,-3.36,-0.49,423,452,389,356,246
798,0.06,0.77,0.64,2.44,-2.99,-2.44,420,455,388,354,247
799,0.06,0.75,0.62,-1.16,-7.14,-0.98,419,450,391,353,247
800,0.05,0.76,0.63,0.61,-2.32,-2.08,421,456,388,356,244
801,0.06,0.77,0.63,0.43,-3.72,-1.59,421,453,388,359,245
802,0.07,0.77,0.63,0.55,-3.05,-2.32,419,452,385,356,250
803,0.08,0.77,0.63,-0.24,-3.23,-2.26,418,452,384,366,242
804,0.07,0.77,0.63,0.37,-3.17,-1.89,416,457,388,359,246
805,0.08,0.77,0.62,0.67,-3.78,-3.17,418,457,389,356,248
806,0.08,0.78,0.63,-0.24,-2.81,-2.5,420,447,387,353,241
807,0.07,0.78,0.63,1.16,-1.95,-2.08,421,452,388,356,246
808,0.08,0.78,0.61,0.92,-2.87,-0.31,420,455,388,357,246
809,0.07,0.77,0.62,-1.4,-3.42,0.06,421,452,388,359,246
810,0.08,0.79,0.62,-2.01,-4.33,-3.42,421,454,389,358,245
811,0.07,0.79,0.61,1.16,-2.81,-2.62,420,468,390,365,245
812,0.05,0.8,0.61,0.18,-3.17,-3.66,420,446,386,357,247
813,0.06,0.79,0.62,-1.28,-2.01,-2.44,421,454,390,374,247
814,0.06,0.81,0.61,0.31,-1.95,-2.81,420,452,391,357,245
815,0.04,0.8,0.61,0.55,-1.89,-0.73,420,447,391,359,244
816,0.06,0.79,0.61,1.16,-3.54,-2.08,418,453,391,355,245
817,0.06,0.78,0.61,2.26,-2.56,-2.69,421,456,396,357,242
818,0.06,0.8,0.61,-15.5,-3.36,-1.04,420,454,398,357,245
819,0.06,0.79,0.61,1.59,-2.99,-1.89,421,449,393,357,243
820,0.06,0.8,0.61,-1.83,-3.54,-1.89,420,445,392,357,245
821,0.04,0.81,0.6,-1.4,-2.99,-2.75,422,455,392,357,280
822,0.04,0.81,0.59,-2.01,-3.85,-2.08,420,455,390,356,236
823,0.05,0.79,0.59,0.31,-3.11,-2.38,417,446,393,359,247
824,0.07,0.8,0.61,0.61,-5.49,-2.99,419,455,392,356,246
825,0.01,0.83,0.6,0.24,-1.28,-3.23,421,452,392,355,246
826,0.07,0.76,0.62,-23.8,7.14,0.37,420,450,392,357,248
827,0.06,0.73,0.72,-8.91,-1.83,10.8,422,445,394,359,248
828,0.18,0.59,0.75,2.87,-7.69,20.51,419,449,392,357,247
829,0.27,0.58,0.76,1.89,-1.89,6.41,423,450,397,358,249
830,0.22,0.57,0.8,2.01,-13.37,0.85,417,441,391,360,245
831,0.25,0.62,0.78,-7.02,-3.42,-4.15,418,451,393,364,247
832,0.25,0.53,0.79,-4.46,-8.06,-10.8,422,444,393,359,249
833,0.24,0.58,0.8,2.14,0.06,-9.46,420,451,396,357,248
834,0.19,0.63,0.78,1.53,-8.48,-8.12,422,451,393,360,250
835,0.26,0.59,0.78,8.79,-3.48,-4.94,421,453,393,358,248
836,0.13,0.65,0.73,-12.94,-6.84,5.13,423,451,390,360,254
837,0.15,0.61,0.8,-2.5,-3.66,-10.93,421,453,394,363,247
838,0.15,0.59,0.82,-9.4,-9.22,-9.89,423,447,396,358,251
839,0.22,0.51,0.83,-7.39,4.03,-13.18,420,449,394,359,249
840,0.14,0.52,0.86,-1.83,3.91,-3.97,419,446,394,358,251
841,0.03,0.52,0.9,0.24,6.71,-2.08,418,451,393,364,248
842,0.08,0.55,0.89,5.31,-20.02,15.87,417,448,395,360,247
843,0.1,0.5,0.85,-3.91,-5.98,1.04,421,446,394,359,256
844,0.19,0.49,0.88,-2.26,-7.45,6.16,418,445,394,364,255
845,0.19,0.48,0.89,1.77,-1.95,-2.81,415,448,393,364,254
846,0.19,0.5,0.88,0.0,-2.14,-0.79,419,447,392,362,254
847,0.2,0.48,0.88,0.0,-2.56,-2.69,419,446,392,365,252
848,0.2,0.48,0.87,1.1,-2.44,-1.65,420,447,390,359,254
849,0.19,0.48,0.87,1.83,-0.98,0.12,415,447,390,365,255
850,0.18,0.5,0.88,2.44,-2.44,-0.61,419,449,388,360,255
851,0.19,0.5,0.88,-0.06,-1.65,-1.59,420,447,393,368,256
852,0.19,0.5,0.85,3.42,-2.08,-4.94,418,449,388,363,254
853,0.22,0.58,0.79,19.41,8.12,-0.24,421,448,391,361,255
854,0.14,0.66,0.75,15.38,12.76,-10.93,420,441,403,360,253
855,0.14,0.68,0.72,-1.89,-6.77,1.04,417,447,391,365,252
856,0.14,0.68,0.71,2.75,1.77,-0.61,418,440,389,366,248
857,0.11,0.68,0.7,-0.49,-2.08,-2.75,415,439,388,359,253
858,0.12,0.71,0.71,-1.4,3.42,-6.96,431,441,389,366,252
859,0.1,0.71,0.72,-4.94,-9.22,1.04,418,443,392,361,252
860,0.14,0.7,0.7,1.83,-4.82,-1.1,416,446,395,365,253
861,0.15,0.71,0.7,-2.26,-3.66,-2.69,418,441,392,370,254
862,0.16,0.7,0.71,3.36,-1.16,-1.28,415,440,393,367,256
863,0.14,0.7,0.71,0.37,-0.85,-2.75,415,445,391,364,256
864,0.13,0.69,0.72,-2.75,-2.2,-1.65,416,442,390,361,255
865,0.14,0.71,0.72,0.18,-2.87,-1.34,415,439,395,368,254
866,0.13,0.69,0.73,0.49,-3.48,-0.61,421,444,395,364,252
867,0.1,0.65,0.73,-5.37,-8.12,-2.26,418,444,392,367,259
868,0.11,0.66,0.75,0.06,-1.83,-1.83,420,442,392,366,255
869,0.12,0.66,0.75,0.12,-3.54,-1.16,417,446,391,365,252
870,0.14,0.66,0.76,-0.43,-5.98,-0.67,419,440,392,364,256
871,0.16,0.64,0.76,-1.65,-6.9,-2.38,424,446,395,368,255
872,0.17,0.64,0.76,-1.1,-5.49,-5.98,418,445,393,367,255
873,0.16,0.63,0.77,-1.46,-3.23,-2.81,422,446,390,366,250
874,0.16,0.63,0.77,-0.43,-3.85,-3.05,416,444,389,362,253
875,0.15,0.63,0.77,-1.4,-3.05,-2.14,416,448,393,363,252
876,0.16,0.63,0.78,-1.22,-2.44,-3.48,422,447,393,365,258
877,0.15,0.63,0.78,-1.53,-3.42,-4.94,417,446,389,365,257
878,0.16,0.63,0.78,0.12,-1.04,-3.23,421,448,391,364,258
879,0.17,0.61,0.78,-1.77,-3.23,-1.28,420,445,391,365,268
880,0.16,0.62,0.77,0.31,-2.56,-3.97,420,448,392,366,271
881,0.16,0.63,0.78,2.38,-3.6,-1.34,421,448,395,368,258
882,0.16,0.63,0.78,1.28,-3.42,-2.87,422,447,390,368,257
883,0.16,0.64,0.76,6.96,-6.23,-0.92,421,446,392,366,255
884,0.17,0.64,0.75,2.69,-3.23,-4.15,417,444,393,354,247
885,0.16,0.64,0.75,0.31,-2.38,-1.59,419,444,393,357,247
886,0.18,0.65,0.74,0.67,-4.46,-4.46,416,442,393,361,247
887,0.17,0.64,0.75,-2.08,-2.32,-2.2,421,448,394,358,248
888,0.18,0.64,0.76,-1.22,-1.22,-2.87,422,446,394,363,248
889,0.2,0.65,0.77,-8.61,-5.68,3.66,420,443,390,362,249
890,0.2,0.62,0.78,-10.74,-4.58,6.53,421,446,400,359,247
891,0.22,0.58,0.76,-0.79,0.67,-1.77,427,445,389,358,246
892,0.21,0.61,0.76,1.46,-1.28,-3.23,419,444,392,362,245
893,0.19,0.63,0.77,1.53,-2.44,-0.06,420,449,390,359,239
894,0.21,0.62,0.77,-0.98,-2.56,-1.46,416,449,390,359,248
895,0.21,0.63,0.78,0.0,-4.03,-2.44,415,449,391,361,248
896,0.21,0.62,0.77,2.62,-3.23,-1.95,420,442,390,361,246
897,0.21,0.62,0.77,-0.24,-1.83,-4.09,420,449,387,370,258
898,0.2,0.62,0.77,-0.98,-1.65,-3.23,421,446,403,360,248
899,0.2,0.62,0.77,2.87,-2.99,-3.97,423,448,393,367,250
900,0.19,0.65,0.79,-1.77,-2.32,-2.01,421,446,391,359,250
901,0.19,0.64,0.76,-1.95,-1.71,-0.79,420,444,394,360,247
902,0.19,0.63,0.77,-0.55,-2.56,-0.98,419,446,390,363,251
903,0.2,0.62,0.76,0.24,-1.4,-2.99,415,451,387,360,252
904,0.18,0.65,0.78,-0.06,-3.66,-3.36,417,449,394,360,251
905,0.19,0.62,0.76,0.49,-2.26,-2.2,423,444,389,358,250
906,0.18,0.63,0.77,1.22,-2.38,-2.01,420,447,387,363,249
907,0.2,0.64,0.76,-0.24,-3.42,-2.69,423,446,392,361,251
908,0.19,0.61,0.75,3.11,-2.38,-1.65,411,443,394,365,246
909,0.18,0.65,0.75,1.1,-2.5,-1.46,415,451,391,365,253
910,0.18,0.64,0.76,0.92,-3.11,-2.81,418,449,394,365,255
911,0.17,0.64,0.75,0.12,-3.42,-3.72,420,446,388,367,249
912,0.16,0.64,0.73,-1.04,-4.03,-1.4,419,448,389,367,253
913,0.17,0.66,0.76,-0.37,-3.3,-1.34,421,447,390,368,253
914,0.16,0.67,0.77,-0.73,-3.17,-3.36,422,445,391,365,251
915,0.17,0.65,0.75,2.32,-2.56,-2.81,427,445,389,361,250
916,0.16,0.65,0.74,1.83,-3.6,-1.53,416,446,393,368,247
917,0.17,0.66,0.75,-0.92,-2.69,-0.79,421,440,387,364,251
918,0.18,0.65,0.75,-0.85,-2.69,-1.95,419,456,386,367,250
919,0.18,0.65,0.75,-0.18,-2.14,-2.2,421,447,388,366,248
920,0.17,0.65,0.75,-0.06,-2.62,-2.87,423,451,382,365,250
921,0.17,0.65,0.76,0.55,-3.91,-2.62,416,440,385,365,251
922,0.18,0.64,0.75,0.12,-2.93,-2.81,417,444,386,372,249
923,0.17,0.65,0.76,0.37,-2.81,-2.2,423,446,386,362,253
924,0.18,0.65,0.76,0.0,-2.81,-1.89,420,444,388,367,254
925,0.18,0.65,0.76,0.18,-2.87,-2.93,418,451,386,365,253
926,0.17,0.64,0.76,1.16,-3.97,-2.69,423,450,387,364,254
927,0.17,0.63,0.76,0.67,-2.2,-2.08,420,449,389,368,251
928,0.18,0.64,0.76,0.43,-2.56,-2.56,421,445,387,365,254
929,0.18,0.64,0.76,1.16,-1.77,-3.11,422,450,387,365,250
930,0.18,0.64,0.76,0.18,-4.21,-2.44,420,450,385,368,250
931,0.18,0.64,0.76,0.73,-3.36,-1.71,419,446,387,364,252
932,0.18,0.64,0.76,0.98,-3.54,-1.89,420,447,386,367,250
933,0.18,0.64,0.76,0.0,-3.78,-2.56,415,451,390,366,253
934,0.19,0.64,0.76,-0.12,-3.23,-2.01,418,441,386,363,253
935,0.18,0.64,0.77,0.79,-2.75,-2.26,415,443,386,362,252
936,0.17,0.63,0.76,0.06,-2.38,-2.56,419,450,387,368,255
937,0.18,0.63,0.76,0.49,-3.23,-0.92,416,448,384,369,253
938,0.18,0.65,0.76,-2.93,-3.6,-3.23,418,448,386,369,249
939,0.17,0.64,0.76,1.28,-2.26,-2.26,419,446,393,372,250
940,0.18,0.65,0.75,3.54,-5.0,-1.4,421,447,391,364,247
941,0.18,0.65,0.75,1.77,-3.66,-2.62,418,445,386,365,252
942,0.19,0.67,0.75,1.4,-2.81,-2.2,419,443,385,364,247
943,0.19,0.65,0.75,-1.89,-1.34,-1.1,415,446,386,367,252
944,0.19,0.66,0.76,-6.29,-1.95,3.91,417,451,384,365,249
945,0.24,0.63,0.77,-9.22,-0.55,6.96,420,447,387,369,250
946,0.21,0.61,0.78,3.23,-2.75,-4.64,416,450,384,367,245
947,0.22,0.61,0.78,1.95,-3.66,-3.3,416,448,386,366,249
948,0.21,0.61,0.79,0.31,-2.08,-1.46,418,441,385,361,252
949,0.22,0.6,0.78,-1.28,-5.31,-2.08,414,448,383,362,251
950,0.23,0.6,0.78,-0.12,-3.48,-1.95,418,444,379,361,251
951,0.22,0.6,0.78,-2.08,-3.05,-2.69,418,448,382,363,253
952,0.22,0.6,0.79,-0.12,-2.26,-2.75,419,451,383,366,251
953,0.22,0.61,0.78,-0.37,-2.26,-2.56,416,446,381,364,259
954,0.22,0.62,0.77,1.16,-2.08,-3.6,414,446,381,363,248
955,0.22,0.62,0.78,0.43,-3.23,-2.56,417,441,381,372,250
956,0.21,0.61,0.78,-0.06,-3.97,-2.5,416,448,382,361,253
957,0.22,0.62,0.78,1.77,-3.72,-2.44,419,452,379,364,250
958,0.22,0.62,0.78,0.43,-3.48,-1.59,414,448,380,363,253
959,0.22,0.62,0.77,1.59,-2.75,-3.36,417,448,388,364,252
960,0.22,0.62,0.78,-1.34,-1.1,-2.44,420,458,381,364,259
961,0.21,0.63,0.78,2.38,-0.55,-3.6,418,445,380,366,250
962,0.15,0.65,0.77,10.31,4.09,-8.06,417,455,387,365,253
963,0.13,0.69,0.71,16.42,-5.31,-4.82,414,454,390,366,252
964,0.16,0.81,0.62,6.29,-4.94,-8.48,418,454,392,366,254
965,0.12,0.8,0.61,-0.06,-0.98,-2.44,420,454,388,366,255
966,0.07,0.83,0.64,-7.81,-9.16,-11.84,420,454,390,370,252
967,0.11,0.75,0.65,-1.46,-3.17,-1.53,416,448,388,366,253
968,0.1,0.77,0.65,-3.48,-0.85,-1.22,421,458,392,374,251
969,0.12,0.75,0.68,-0.12,-4.15,-4.7,417,456,391,366,254
970,0.12,0.74,0.65,3.36,-4.27,-1.34,422,455,391,368,250
971,0.14,0.75,0.65,-1.89,-3.23,-0.06,416,455,394,368,253
972,0.14,0.75,0.65,-0.06,-2.69,-2.2,418,457,390,368,253
973,0.13,0.75,0.66,0.18,-2.81,-2.32,418,455,392,365,255
974,0.13,0.75,0.66,-0.24,-1.95,-2.08,420,453,393,368,255
975,0.13,0.75,0.65,-0.85,-2.62,-4.88,419,456,394,365,256
976,0.12,0.74,0.67,-2.26,-3.42,-1.89,414,456,392,366,251
977,0.13,0.75,0.67,1.34,-3.91,-1.28,418,453,389,369,255
978,0.13,0.75,0.66,1.22,-3.23,-1.83,419,452,393,363,254
979,0.12,0.74,0.67,0.85,-2.62,-0.85,419,454,390,367,256
980,0.13,0.76,0.67,0.37,-1.89,-3.11,417,448,392,367,272
981,0.15,0.73,0.66,-1.04,-7.02,-7.57,420,454,390,367,253
982,0.13,0.74,0.67,0.37,-2.32,-2.75,417,454,391,366,254
983,0.12,0.75,0.68,0.61,-3.6,-3.17,421,451,392,364,257
984,0.11,0.74,0.67,1.77,-1.83,-2.26,422,450,391,367,253
985,0.12,0.75,0.68,3.48,0.24,0.12,420,452,392,371,254
986,0.14,0.75,0.67,0.12,-1.89,-3.42,414,448,389,366,254
987,0.13,0.73,0.66,0.06,-3.36,-1.71,416,456,392,370,254
988,0.11,0.74,0.67,1.28,-0.85,-2.99,415,453,392,366,253
989,0.12,0.74,0.69,1.1,-4.15,-2.93,419,456,392,369,257
990,0.12,0.72,0.66,1.16,-5.13,-0.98,417,453,393,363,255
991,0.14,0.76,0.69,0.37,-0.37,-2.5,419,452,391,366,251
992,0.16,0.72,0.67,3.42,-5.49,3.54,420,452,391,364,254
993,0.17,0.72,0.67,6.35,-2.32,-3.23,417,448,392,366,253
994,0.2,0.74,0.71,4.46,-2.5,-1.65,418,456,390,365,254
995,0.2,0.75,0.68,7.2,4.64,-7.32,419,452,389,366,253
996,0.17,0.73,0.69,-0.85,-1.4,-2.5,418,452,387,365,255
997,0.17,0.72,0.68,0.73,-2.62,-3.36,419,453,388,367,253
998,0.18,0.72,0.67,12.15,-1.1,-1.77,419,455,389,364,265
999,0.18,0.73,0.66,0.49,-1.83,-3.3,418,452,391,363,255
1000,0.18,0.72,0.66,-1.65,-0.92,-3.42,418,452,390,364,253
1001,0.17,0.74,0.68,-1.16,-1.1,-3.48,417,456,388,369,255
1002,0.17,0.72,0.68,0.31,-2.62,-2.38,420,451,390,366,252
1003,0.17,0.72,0.69,-0.43,-3.23,-3.78,419,448,390,364,253
1004,0.17,0.72,0.68,-0.67,-3.85,-1.4,419,453,392,365,254
1005,0.18,0.73,0.68,-0.67,-3.11,-1.59,419,454,387,366,253
1006,0.32,0.87,0.33,-8.06,8.0,4.21,414,471,412,346,220
1007,0.26,0.85,0.41,-18.49,0.73,3.91,416,464,412,346,220
1008,0.36,0.83,0.4,-0.85,-4.94,1.59,413,466,406,338,212
1009,0.35,0.85,0.42,3.42,-3.97,-1.4,410,464,408,333,208
1010,0.36,0.84,0.41,-2.62,3.78,-6.71,410,463,406,330,212
1011,0.37,0.81,0.45,-1.65,-3.91,1.4,412,470,406,323,208
1012,0.39,0.8,0.44,-7.75,-6.65,-1.83,413,470,407,326,209
1013,0.39,0.81,0.45,-1.16,0.43,-1.77,411,466,407,327,211
1014,0.37,0.78,0.48,-2.32,-1.16,-0.37,417,467,414,331,213
1015,0.37,0.8,0.48,4.64,-3.72,-2.32,417,461,407,332,212
1016,0.4,0.81,0.46,-0.37,-3.17,-2.26,415,467,405,334,214
1017,0.39,0.79,0.45,-0.12,-2.5,-1.22,419,466,408,332,216
1018,0.41,0.8,0.45,0.55,-4.03,-2.14,419,467,405,336,216
1019,0.42,0.8,0.44,-0.12,-3.17,-1.04,416,466,404,333,215
1020,0.45,0.8,0.42,4.27,-3.85,0.49,414,466,405,334,224
1021,0.44,0.8,0.4,2.01,-7.14,-3.6,417,465,406,334,216
1022,0.41,0.66,0.52,-25.39,25.09,-10.25,416,465,402,335,213
1023,0.29,0.74,0.6,-0.31,56.88,-38.88,417,461,405,336,217
1024,0.39,0.78,0.59,-4.58,-25.33,7.14,415,469,404,338,217
1025,0.36,0.83,0.57,7.93,2.32,-22.22,417,466,407,340,217
1026,0.38,0.79,0.55,-8.91,-2.69,4.76,414,465,405,345,221
1027,0.29,0.75,0.56,0.49,7.51,0.37,414,462,406,343,223
1028,0.38,0.79,0.58,-2.56,2.44,0.24,417,461,402,346,220
1029,0.36,0.69,0.59,1.71,-4.09,7.69,417,465,404,345,222
1030,0.4,0.68,0.59,-2.38,-13.31,5.37,414,465,402,350,228
1031,0.46,0.67,0.61,1.46,1.71,1.53,417,469,399,351,225
1032,0.45,0.61,0.6,1.83,-5.98,0.85,416,468,399,349,229
1033,0.46,0.64,0.61,-0.85,-7.32,0.79,415,465,398,349,226
1034,0.52,0.66,0.59,-2.62,1.46,-6.53,414,466,394,348,226
1035,0.53,0.64,0.58,2.08,-10.19,4.76,417,462,397,349,229
1036,0.53,0.63,0.58,1.65,-2.75,-7.69,417,468,395,352,228
1037,0.46,0.65,0.62,2.87,-13.67,-0.55,418,461,396,352,227
1038,0.47,0.63,0.61,-0.12,2.2,2.14,421,464,401,347,260
1039,0.51,0.57,0.62,-7.63,1.16,3.23,418,464,397,351,226
1040,0.45,0.66,0.61,11.72,-9.77,-7.26,416,468,398,351,227
1041,0.46,0.73,0.56,5.13,-6.84,-0.61,417,460,399,349,231
1042,0.46,0.67,0.58,5.0,-15.26,-0.55,420,464,398,351,228
1043,0.52,0.69,0.51,3.66,-3.42,-7.87,417,469,392,350,228
1044,0.51,0.66,0.55,-4.03,-8.42,0.31,416,469,398,352,240
1045,0.56,0.68,0.55,-3.91,-6.35,0.24,421,461,393,348,230
1046,0.51,0.62,0.53,5.68,-17.58,9.34,418,465,391,352,231
1047,0.59,0.66,0.49,2.26,0.24,-8.85,419,465,393,357,227
1048,0.56,0.65,0.48,1.16,-1.83,-8.48,416,467,393,349,230
1049,0.58,0.67,0.5,-0.24,0.67,-4.03,422,464,395,350,231
1050,0.6,0.69,0.49,2.62,-1.4,-4.27,430,471,389,347,230
1051,0.57,0.64,0.49,1.22,-5.0,-7.08,423,469,388,351,229
1052,0.54,0.67,0.51,6.16,-3.66,-3.23,420,465,390,348,230
1053,0.53,0.7,0.5,6.65,0.55,-8.54,421,464,392,353,230
1054,0.54,0.69,0.5,0.92,-3.48,-1.22,422,471,392,351,230
1055,0.54,0.68,0.49,2.08,-0.85,-2.62,421,465,394,347,226
1056,0.52,0.68,0.49,1.46,-4.27,-3.91,424,472,389,352,231
1057,0.53,0.7,0.49,-2.26,-3.72,-2.93,417,460,392,350,221
1058,0.53,0.71,0.5,0.12,-1.71,-2.93,426,466,392,348,230
1059,0.52,0.7,0.49,0.31,-2.69,-4.52,420,465,392,348,232
1060,0.51,0.71,0.48,-0.12,-1.59,-3.54,421,466,391,351,234
1061,0.51,0.72,0.49,-0.73,-1.89,-3.97,422,459,393,349,231
1062,0.47,0.74,0.51,-4.21,3.6,-7.14,422,465,394,350,233
1063,0.4,0.73,0.58,0.06,5.74,-8.18,425,454,395,351,234
1064,0.36,0.72,0.58,-4.09,7.63,-10.01,421,461,397,354,234
1065,0.37,0.73,0.59,3.23,-11.41,2.5,422,463,400,355,235
1066,0.38,0.74,0.58,0.06,-3.23,-2.38,422,465,398,356,237
1067,0.39,0.74,0.58,1.46,-3.23,-2.87,425,463,399,355,234
1068,0.39,0.74,0.58,-1.04,-3.11,-1.46,422,462,399,356,236
1069,0.37,0.74,0.56,-0.85,-2.38,-1.46,424,463,399,358,235
1070,0.38,0.73,0.57,0.06,-1.22,-3.66,419,462,395,358,236
1071,0.41,0.76,0.56,1.34,-3.11,-2.56,418,463,398,356,236
1072,0.38,0.76,0.57,-0.43,-2.56,-1.95,419,462,398,358,237
1073,0.37,0.73,0.57,3.85,-1.1,-2.44,423,463,397,359,239
1074,0.37,0.75,0.56,1.16,-3.48,-4.64,422,464,398,358,238
1075,0.4,0.75,0.56,2.38,-3.17,-0.92,423,459,395,359,238
1076,0.39,0.76,0.56,0.92,-3.05,-4.39,419,466,400,361,239
1077,0.34,0.77,0.55,5.19,-0.43,-3.85,422,461,398,362,246
1078,0.37,0.8,0.55,1.28,-4.03,-1.28,423,458,398,357,241
1079,0.34,0.77,0.54,-0.73,0.37,-3.97,424,468,398,360,241
1080,0.35,0.75,0.54,-9.09,-2.62,-1.65,421,462,399,360,240
1081,0.35,0.77,0.55,1.1,-3.48,-3.11,423,461,398,361,240
1082,0.36,0.78,0.55,-2.08,-2.14,-3.6,423,457,406,360,248
1083,0.34,0.77,0.55,0.24,-3.54,-5.49,426,461,401,358,241
1084,0.34,0.76,0.56,1.53,-2.2,-3.42,419,461,401,358,239
1085,0.33,0.76,0.57,-1.1,-2.56,-2.81,421,462,395,361,241
1086,0.33,0.77,0.57,0.67,-2.87,-2.14,422,461,401,362,250
1087,0.33,0.78,0.55,0.24,-2.81,1.16,424,475,405,359,241
1088,0.36,0.76,0.58,-0.18,-4.21,-0.37,421,462,399,362,244
1089,0.36,0.76,0.57,2.32,-3.97,-3.72,419,464,397,363,243
1090,0.36,0.75,0.55,1.59,-1.53,-2.87,421,460,396,363,238
1091,0.34,0.78,0.56,-0.85,-5.74,0.0,423,461,397,362,241
1092,0.37,0.74,0.56,-4.33,0.61,-0.31,421,460,399,362,243
1093,0.36,0.71,0.58,-1.53,-1.1,-1.83,423,461,395,362,244
1094,0.38,0.72,0.58,4.46,-10.13,8.06,423,464,400,360,249
1095,0.36,0.73,0.59,6.71,-5.07,-0.37,423,462,398,360,240
1096,0.35,0.74,0.6,0.73,-3.23,-2.81,420,466,400,362,243
1097,0.37,0.73,0.59,-0.37,-1.77,-2.38,420,465,400,363,244
1098,0.36,0.73,0.58,1.71,-2.69,-2.26,422,458,398,357,245
1099,0.41,0.73,0.57,-0.18,-6.29,0.79,423,461,398,356,245
1100,0.37,0.75,0.58,0.06,-2.32,-3.66,423,461,397,362,243
1101,0.36,0.74,0.58,0.12,-3.36,-2.01,423,466,398,360,243
1102,0.34,0.76,0.59,1.04,-0.49,-3.23,423,455,400,361,245
1103,0.36,0.74,0.58,0.31,-2.75,-3.23,425,453,399,372,243
1104,0.35,0.75,0.58,0.73,-2.2,-3.3,421,455,401,360,242
1105,0.35,0.75,0.56,2.93,-3.3,-2.99,422,451,397,358,243
1106,0.35,0.75,0.58,2.14,-1.95,-2.32,424,449,409,360,244
1107,0.35,0.75,0.57,0.31,-2.69,-1.65,424,440,395,361,247
1108,0.34,0.75,0.58,-1.59,-2.14,-2.2,425,452,396,362,246
1109,0.35,0.76,0.57,-0.49,-2.81,-2.87,425,453,394,362,245
1110,0.35,0.74,0.57,-0.37,-2.93,-1.83,420,457,400,362,244
1111,0.35,0.75,0.58,-0.18,-2.01,-3.72,423,454,397,359,246
1112,0.34,0.76,0.58,0.49,-2.81,-2.5,423,452,397,359,246
1113,0.36,0.76,0.58,2.44,-3.36,0.37,419,450,399,365,247
1114,0.37,0.74,0.58,3.72,-4.7,-2.38,423,459,400,365,247
1115,0.35,0.75,0.58,0.24,-4.21,-1.28,421,453,398,363,243
1116,0.34,0.73,0.56,-1.83,-3.48,-1.77,421,453,401,368,244
1117,0.35,0.73,0.58,-0.49,-1.53,-1.71,421,453,400,362,246
1118,0.35,0.75,0.6,1.04,-2.44,-4.94,421,451,395,365,245
1119,0.34,0.73,0.6,-3.36,-5.0,-2.01,423,459,396,361,241
1120,0.34,0.74,0.6,0.79,-3.66,-1.59,422,469,400,362,245
1121,0.34,0.74,0.59,1.59,-4.09,-2.01,422,452,399,362,246
1122,0.34,0.74,0.59,0.43,-3.6,-2.14,426,452,401,358,248
1123,0.34,0.74,0.59,0.37,-3.11,-1.83,424,451,397,370,246
1124,0.34,0.75,0.59,0.06,-2.38,-1.59,422,450,399,362,255
1125,0.34,0.74,0.59,-0.73,-2.75,-3.78,423,457,397,361,246
1126,0.34,0.74,0.6,-0.06,-3.17,-1.83,422,448,400,366,245
1127,0.33,0.74,0.59,-0.67,-3.11,-2.38,423,454,396,365,247
1128,0.32,0.72,0.6,0.24,-2.75,-1.77,425,454,395,360,248
1129,0.36,0.73,0.6,0.98,-4.03,0.18,423,456,393,364,248
1130,0.34,0.73,0.6,0.37,-2.99,-3.42,419,455,401,362,246
1131,0.32,0.75,0.6,1.53,-1.53,-2.93,423,453,397,364,246
1132,0.33,0.75,0.61,0.67,-3.48,-1.28,425,453,397,364,249
1133,0.34,0.74,0.59,0.61,-3.05,-2.99,424,456,398,364,246
1134,0.3,0.74,0.62,-1.16,3.72,-8.97,423,454,397,364,247
1135,0.33,0.74,0.6,-0.18,-3.91,-3.3,424,453,398,362,248
1136,0.31,0.74,0.6,-0.06,-2.5,-3.36,421,457,396,362,249
1137,0.3,0.74,0.6,1.53,-3.66,-2.93,423,453,397,363,247
1138,0.31,0.75,0.59,-1.04,-2.62,-2.93,425,454,396,357,242
1139,0.32,0.75,0.6,-0.24,-2.5,-2.14,424,453,402,358,283
1140,0.31,0.74,0.61,-0.79,-2.56,-3.72,423,450,398,366,245
1141,0.3,0.77,0.6,-4.21,-9.52,-7.51,423,453,397,362,269
1142,0.27,0.75,0.58,6.65,-5.37,-13.73,426,452,396,360,245
1143,0.23,0.74,0.57,0.61,-23.07,-17.58,423,455,396,358,251
1144,0.28,0.8,0.55,1.71,-4.64,-6.59,422,452,399,363,248
1145,0.28,0.8,0.56,-1.46,-2.44,-0.37,426,450,399,378,243
1146,0.26,0.82,0.54,-0.73,-1.77,-2.32,421,459,400,365,245
1147,0.27,0.79,0.55,3.85,-2.44,-3.48,422,452,394,363,276
1148,0.27,0.78,0.57,-2.44,-1.89,-2.32,424,456,394,362,247
1149,0.24,0.78,0.58,-1.16,-2.93,-1.16,422,457,394,363,251
1150,0.25,0.79,0.58,-0.24,-1.53,-2.93,423,453,398,360,243
1151,0.25,0.81,0.58,3.72,-0.61,-2.81,420,457,397,362,248
1152,0.27,0.8,0.56,-1.34,-4.21,-1.83,418,458,400,359,249
1153,0.26,0.78,0.57,-2.08,-3.72,-2.62,418,457,400,363,248
1154,0.25,0.78,0.54,-2.38,-3.3,-5.07,423,455,403,364,246
1155,0.26,0.79,0.59,-8.24,-9.16,-2.38,424,454,399,362,248
1156,0.31,0.78,0.6,1.77,0.0,-1.4,426,453,401,365,246
1157,0.26,0.8,0.6,-1.71,0.67,-12.94,425,457,397,363,247
1158,0.22,0.8,0.6,0.31,-3.23,-15.99,425,454,397,363,246
1159,0.13,0.77,0.58,3.78,-4.88,-8.42,422,449,398,365,249
1160,0.13,0.77,0.6,5.43,-7.63,-12.08,422,455,400,365,247
1161,0.13,0.79,0.62,0.61,-0.49,-7.39,424,455,399,358,250
1162,0.11,0.83,0.58,4.52,-6.16,-8.85,422,452,401,364,247
1163,0.1,0.8,0.57,-5.86,2.5,-5.92,421,453,394,364,246
1164,0.1,0.82,0.58,5.07,-3.36,-2.62,421,453,396,363,246
1165,0.14,0.83,0.57,-4.52,-4.52,1.16,417,450,397,364,255
1166,0.14,0.82,0.59,0.98,-4.52,-2.26,419,453,393,365,247
1167,0.12,0.83,0.57,-11.11,0.0,7.63,422,449,399,361,264
1168,0.13,0.82,0.57,-1.1,-2.2,-3.72,423,448,398,363,246
1169,0.13,0.83,0.6,3.23,-2.81,-4.58,416,453,395,365,246
1170,0.12,0.79,0.52,-1.71,-8.91,2.08,420,454,397,365,244
1171,0.13,0.77,0.55,5.31,-0.43,-11.29,420,459,399,365,245
1172,0.11,0.81,0.56,-2.14,1.4,-3.97,420,454,397,364,253
1173,0.11,0.83,0.58,5.37,1.53,-6.04,418,455,393,360,243
1174,0.11,0.82,0.55,-2.69,-10.07,4.09,419,459,395,360,245
1175,0.06,0.8,0.57,-3.3,4.33,5.13,419,459,396,361,244
1176,0.06,0.8,0.55,-0.98,-0.18,1.04,415,458,393,361,243
1177,0.09,0.83,0.59,-2.01,-4.15,-5.37,418,451,397,360,244
1178,0.05,0.85,0.66,-9.34,-1.83,-0.79,419,455,398,363,280
1179,0.05,0.79,0.64,-10.74,-1.53,-9.4,422,456,393,363,243
1180,0.01,0.77,0.66,0.31,-2.69,-6.1,418,456,399,364,248
1181,0.03,0.72,0.62,7.2,-1.59,-1.77,421,456,397,362,242
1182,0.04,0.75,0.62,2.62,-0.92,-3.54,422,459,396,362,243
1183,0.05,0.79,0.62,-1.04,-3.72,-0.18,416,458,396,362,250
1184,0.02,0.77,0.62,2.81,-3.85,-9.64,415,451,397,362,246
1185,0.06,0.81,0.6,7.32,0.18,5.0,416,459,397,368,236
1186,0.04,0.81,0.63,-0.85,1.16,-1.46,419,458,396,362,246
1187,0.03,0.84,0.63,1.28,6.41,8.12,420,455,397,364,246
1188,0.09,0.8,0.61,0.0,-1.04,-4.33,425,455,396,363,248
1189,0.06,0.78,0.63,-3.36,5.55,-8.61,420,456,392,370,247
1190,0.06,0.79,0.62,2.26,-10.44,1.16,419,459,396,363,245
1191,0.07,0.79,0.6,3.72,-5.74,0.18,421,459,392,363,247
1192,0.04,0.8,0.61,0.79,-4.52,-3.66,420,449,397,364,246
1193,0.09,0.77,0.59,-0.12,-2.93,-4.46,415,454,397,363,246
1194,0.09,0.79,0.62,1.46,-3.11,-0.98,426,454,397,363,248
1195,0.11,0.81,0.58,4.82,-4.94,1.16,419,452,397,360,248
1196,0.16,0.78,0.59,-1.83,-3.6,-2.81,415,445,393,345,236
1197,0.13,0.79,0.6,-6.9,0.98,0.98,416,444,396,342,234
1198,0.16,0.78,0.65,-0.67,-7.14,-6.16,415,445,387,341,230
1199,0.11,0.78,0.64,-3.36,-7.14,-1.65,417,450,386,341,236
1200,0.12,0.75,0.63,-1.53,-1.1,-0.92,418,451,388,344,236
1201,0.13,0.77,0.64,0.37,-1.77,-2.93,416,450,388,344,234
1202,0.14,0.75,0.65,-5.31,-3.72,-1.95,413,450,388,355,233
1203,0.13,0.74,0.65,0.24,-1.28,-3.42,416,448,387,346,251
1204,0.12,0.74,0.66,1.46,-3.11,-2.62,417,452,387,346,238
1205,0.13,0.74,0.65,-1.1,-1.28,-2.38,418,452,388,349,235
1206,0.13,0.75,0.64,2.01,-4.7,-0.37,419,452,388,348,238
1207,0.14,0.75,0.64,-0.85,-3.42,-1.71,419,449,388,346,240
1208,0.15,0.76,0.65,0.73,-4.21,-0.85,421,453,388,347,240
1209,0.14,0.75,0.64,-0.79,-2.32,-2.38,419,452,394,348,239
1210,0.13,0.74,0.65,2.38,-2.99,-4.15,419,450,390,353,236
1211,0.12,0.76,0.64,-5.19,-0.61,-5.92,420,451,391,352,238
1212,0.13,0.75,0.66,-0.43,-1.53,-0.73,418,456,390,351,242
1213,0.11,0.75,0.65,1.22,-3.91,-2.75,419,448,392,348,238
1214,0.12,0.75,0.65,0.24,-2.2,-1.28,419,454,394,353,250
1215,0.12,0.75,0.64,4.88,-3.66,-0.06,416,458,391,354,242
1216,0.13,0.75,0.67,3.3,-2.93,-8.3,419,448,391,353,242
1217,0.13,0.78,0.65,0.06,-5.86,-2.81,420,453,394,351,241
1218,0.13,0.76,0.65,-1.59,-1.89,-0.67,423,449,391,354,242
1219,0.13,0.75,0.65,0.0,-1.34,-2.44,415,448,394,353,264
1220,0.13,0.74,0.67,1.83,-2.32,-3.36,420,454,393,355,239
1221,0.14,0.76,0.67,0.12,-3.54,-0.24,418,451,391,352,243
1222,0.11,0.76,0.66,1.59,-3.17,-2.62,420,453,391,351,240
1223,0.12,0.74,0.65,2.87,-3.66,-0.92,420,455,391,353,242
1224,0.13,0.75,0.64,1.04,-4.03,-2.08,419,446,393,352,238
1225,0.12,0.77,0.64,7.02,-4.46,-3.11,422,452,392,347,242
1226,0.16,0.79,0.63,1.89,-3.78,-1.28,416,453,393,351,240
1227,0.14,0.77,0.62,0.73,-2.38,-2.81,417,455,393,351,234
1228,0.15,0.77,0.63,1.34,-2.81,-6.16,418,449,394,351,239
1229,0.18,0.78,0.63,-1.65,-3.78,-0.49,421,449,391,349,242
1230,0.18,0.78,0.62,2.99,-0.73,-0.55,421,456,388,351,241
1231,0.17,0.78,0.6,0.79,-3.23,-2.01,421,449,390,352,229
1232,0.17,0.77,0.61,-0.24,-3.48,-2.69,421,451,393,350,238
1233,0.18,0.8,0.61,4.64,-3.66,-2.32,423,448,393,351,266
1234,0.17,0.74,0.59,-4.94,-2.44,0.49,422,453,391,352,240
1235,0.2,0.75,0.61,-5.0,-4.03,-4.27,418,455,387,349,240
1236,0.19,0.73,0.62,-4.7,-3.66,-5.49,420,452,402,354,239
1237,0.17,0.76,0.65,1.34,-1.65,-2.44,422,452,391,353,241
1238,0.19,0.78,0.65,-5.31,5.43,-3.66,423,455,393,353,243
1239,0.17,0.72,0.64,-11.41,-2.44,2.32,418,457,388,351,237
1240,0.17,0.7,0.67,-3.11,-2.44,-2.44,417,453,389,348,239
1241,0.2,0.72,0.68,-4.27,-1.59,-0.55,419,448,389,354,243
1242,0.18,0.75,0.67,10.31,-7.45,-7.75,417,451,386,350,240
1243,0.17,0.74,0.64,2.93,-3.85,-0.73,420,456,389,351,240
1244,0.17,0.76,0.63,0.12,-3.42,-4.7,419,455,392,351,241
1245,0.17,0.76,0.63,-5.07,-0.55,-1.65,417,451,387,350,240
1246,0.17,0.75,0.63,0.37,-3.97,-2.5,421,453,390,352,241
1247,0.12,0.77,0.63,0.67,0.61,0.06,421,455,390,353,240
1248,0.11,0.73,0.62,-2.75,-1.28,1.28,417,452,389,352,240
1249,0.12,0.75,0.65,2.56,-2.5,-3.05,423,448,390,352,243
1250,0.16,0.77,0.65,2.69,-4.64,-2.14,417,450,393,352,241
1251,0.13,0.74,0.64,-0.67,-5.49,0.85,418,452,396,364,241
1252,0.13,0.73,0.63,2.01,-3.05,-5.92,416,455,395,350,243
1253,0.15,0.76,0.61,3.05,-6.65,1.53,421,452,390,354,242
1254,0.17,0.76,0.66,1.22,-2.99,-3.11,423,453,393,352,260
1255,0.15,0.73,0.63,5.8,-4.64,-3.42,418,448,389,350,244
1256,0.16,0.78,0.64,2.2,-3.3,-2.38,421,457,394,350,244
1257,0.16,0.76,0.63,0.67,-2.87,-2.56,423,448,391,353,241
1258,0.16,0.78,0.63,1.53,-2.2,-3.78,422,456,392,354,263
1259,0.14,0.76,0.62,-0.49,-3.78,-2.62,421,447,395,352,244
1260,0.15,0.76,0.6,0.67,-2.08,-2.87,420,453,395,350,241
1261,0.14,0.78,0.59,1.16,-0.92,-2.01,431,454,389,357,244
1262,0.14,0.79,0.6,1.16,-2.87,-3.66,424,452,396,357,245
1263,0.14,0.79,0.61,0.37,-2.44,-2.62,421,448,394,353,242
1264,0.15,0.78,0.61,-2.14,-3.05,-1.46,421,453,391,352,245
1265,0.15,0.78,0.61,0.0,-3.78,-2.08,420,456,392,352,244
1266,0.14,0.79,0.61,-1.28,-3.23,-1.89,421,454,394,355,243
1267,0.14,0.73,0.59,-0.61,-4.03,-12.02,419,453,393,357,243
1268,0.13,0.7,0.59,-0.79,-5.31,-9.28,422,452,393,354,243
1269,0.11,0.76,0.65,-2.93,-3.6,-3.42,422,458,394,356,243
1270,0.04,0.78,0.67,-7.14,-8.85,-4.39,422,458,394,354,245
1271,0.1,0.76,0.69,-1.53,-1.4,-3.48,421,452,392,354,245
1272,0.03,0.72,0.65,3.17,-1.71,0.06,418,447,395,355,242
1273,0.08,0.75,0.64,1.77,-2.69,-0.37,416,461,397,357,243
1274,0.1,0.74,0.64,-2.38,-2.44,-3.05,421,455,396,356,244
1275,0.08,0.74,0.66,-0.37,-1.83,-3.42,419,449,393,353,246
1276,0.08,0.77,0.66,0.98,-1.22,-3.78,421,457,393,355,245
1277,0.08,0.75,0.67,0.12,-2.26,-1.83,418,452,394,353,240
1278,0.07,0.76,0.66,1.28,-2.01,-2.69,423,455,392,355,243
1279,0.06,0.73,0.66,2.81,-3.05,-2.38,417,456,392,356,244
1280,0.06,0.76,0.65,0.85,-4.64,-0.92,421,453,392,352,244
1281,0.07,0.75,0.65,-0.24,-3.54,-3.6,419,452,394,355,243
1282,0.07,0.76,0.65,2.44,-3.6,-1.65,422,457,394,354,276
1283,0.07,0.76,0.66,-0.06,-2.69,-2.81,420,453,394,356,246
1284,0.05,0.75,0.63,-4.82,0.12,0.06,421,452,390,355,247
1285,0.04,0.74,0.66,-1.16,-2.69,-4.7,420,452,393,358,247
1286,0.05,0.76,0.66,0.12,-2.56,-1.71,422,452,393,354,245
1287,0.05,0.76,0.67,0.24,-3.66,-2.56,421,453,390,357,244
1288,0.05,0.74,0.66,-1.83,-3.05,-2.14,421,451,395,358,241
1289,0.04,0.75,0.67,-0.12,-2.26,-1.89,424,453,393,354,242
1290,0.05,0.75,0.67,-0.37,-2.93,-2.62,417,450,394,356,246
1291,0.05,0.76,0.67,1.46,-3.6,-2.32,419,452,395,354,273
1292,0.05,0.76,0.67,2.38,-3.11,-2.08,421,452,398,362,243
1293,0.06,0.77,0.66,0.92,-3.66,-3.42,418,455,391,359,248
1294,0.06,0.76,0.65,0.06,-2.26,-0.79,418,447,397,356,244
1295,0.04,0.77,0.63,0.31,-3.85,-0.85,417,453,392,360,245
1296,0.04,0.79,0.62,3.78,-3.91,-2.56,421,462,395,354,251
1297,0.05,0.79,0.63,0.18,-3.85,-0.85,419,455,385,359,245
1298,0.06,0.79,0.64,-3.42,-3.91,-1.28,421,451,388,356,243
1299,0.05,0.78,0.64,1.04,-4.09,-3.72,419,456,387,357,243
1300,0.07,0.77,0.64,0.92,-3.36,-0.49,423,452,389,356,246
1301,0.06,0.77,0.64,2.44,-2.99,-2.44,420,455,388,354,247
1302,0.06,0.75,0.62,-1.16,-7.14,-0.98,419,450,391,353,247
1303,0.05,0.76,0.63,0.61,-2.32,-2.08,421,456,388,356,244
1304,0.06,0.77,0.63,0.43,-3.72,-1.59,421,453,388,359,245
1305,0.07,0.77,0.63,0.55,-3.05,-2.32,419,452,385,356,250
1306,0.08,0.77,0.63,-0.24,-3.23,-2.26,418,452,384,366,242
1307,0.07,0.77,0.63,0.37,-3.17,-1.89,416,457,388,359,246
1308,0.08,0.77,0.62,0.67,-3.78,-3.17,418,457,389,356,248
1309,0.08,0.78,0.63,-0.24,-2.81,-2.5,420,447,387,353,241
1310,0.07,0.78,0.63,1.16,-1.95,-2.08,421,452,388,356,246
1311,0.08,0.78,0.61,0.92,-2.87,-0.31,420,455,388,357,246
1312,0.07,0.77,0.62,-1.4,-3.42,0.06,421,452,388,359,246
1313,0.08,0.79,0.62,-2.01,-4.33,-3.42,421,454,389,358,245
1314,0.07,0.79,0.61,1.16,-2.81,-2.62,420,468,390,365,245
1315,0.05,0.8,0.61,0.18,-3.17,-3.66,420,446,386,357,247
1316,0.06,0.79,0.62,-1.28,-2.01,-2.44,421,454,390,374,247
1317,0.06,0.81,0.61,0.31,-1.95,-2.81,420,452,391,357,245
1318,0.04,0.8,0.61,0.55,-1.89,-0.73,420,447,391,359,244
1319,0.06,0.79,0.61,1.16,-3.54,-2.08,418,453,391,355,245
1320,0.06,0.78,0.61,2.26,-2.56,-2.69,421,456,396,357,242
1321,0.06,0.8,0.61,-15.5,-3.36,-1.04,420,454,398,357,245
1322,0.06,0.79,0.61,1.59,-2.99,-1.89,421,449,393,357,243
1323,0.06,0.8,0.61,-1.83,-3.54,-1.89,420,445,392,357,245
1324,0.04,0.81,0.6,-1.4,-2.99,-2.75,422,455,392,357,280
1325,0.04,0.81,0.59,-2.01,-3.85,-2.08,420,455,390,356,236
1326,0.05,0.79,0.59,0.31,-3.11,-2.38,417,446,393,359,247
1327,0.07,0.8,0.61,0.61,-5.49,-2.99,419,455,392,356,246
1328,0.01,0.83,0.6,0.24,-1.28,-3.23,421,452,392,355,246
1329,0.07,0.76,0.62,-23.8,7.14,0.37,420,450,392,357,248
1330,0.06,0.73,0.72,-8.91,-1.83,10.8,422,445,394,359,248
1331,0.18,0.59,0.75,2.87,-7.69,20.51,419,449,392,357,247
1332,0.27,0.58,0.76,1.89,-1.89,6.41,423,450,397,358,249
1333,0.22,0.57,0.8,2.01,-13.37,0.85,417,441,391,360,245
1334,0.25,0.62,0.78,-7.02,-3.42,-4.15,418,451,393,364,247
1335,0.25,0.53,0.79,-4.46,-8.06,-10.8,422,444,393,359,249
1336,0.24,0.58,0.8,2.14,0.06,-9.46,420,451,396,357,248
1337,0.19,0.63,0.78,1.53,-8.48,-8.12,422,451,393,360,250
1338,0.26,0.59,0.78,8.79,-3.48,-4.94,421,453,393,358,248
1339,0.13,0.65,0.73,-12.94,-6.84,5.13,423,451,390,360,254
1340,0.15,0.61,0.8,-2.5,-3.66,-10.93,421,453,394,363,247
1341,0.15,0.59,0.82,-9.4,-9.22,-9.89,423,447,396,358,251
1342,0.22,0.51,0.83,-7.39,4.03,-13.18,420,449,394,359,249
1343,0.14,0.52,0.86,-1.83,3.91,-3.97,419,446,394,358,251
1344,0.03,0.52,0.9,0.24,6.71,-2.08,418,451,393,364,248
1345,0.08,0.55,0.89,5.31,-20.02,15.87,417,448,395,360,247
1346,0.1,0.5,0.85,-3.91,-5.98,1.04,421,446,394,359,256
1347,0.19,0.49,0.88,-2.26,-7.45,6.16,418,445,394,364,255
1348,0.19,0.48,0.89,1.77,-1.95,-2.81,415,448,393,364,254
1349,0.19,0.5,0.88,0.0,-2.14,-0.79,419,447,392,362,254
1350,0.2,0.48,0.88,0.0,-2.56,-2.69,419,446,392,365,252
1351,0.2,0.48,0.87,1.1,-2.44,-1.65,420,447,390,359,254
1352,0.19,0.48,0.87,1.83,-0.98,0.12,415,447,390,365,255
1353,0.18,0.5,0.88,2.44,-2.44,-0.61,419,449,388,360,255
1354,0.19,0.5,0.88,-0.06,-1.65,-1.59,420,447,393,368,256
1355,0.19,0.5,0.85,3.42,-2.08,-4.94,418,449,388,363,254
1356,0.22,0.58,0.79,19.41,8.12,-0.24,421,448,391,361,255
1357,0.14,0.66,0.75,15.38,12.76,-10.93,420,441,403,360,253
1358,0.14,0.68,0.72,-1.89,-6.77,1.04,417,447,391,365,252
1359,0.14,0.68,0.71,2.75,1.77,-0.61,418,440,389,366,248
1360,0.11,0.68,0.7,-0.49,-2.08,-2.75,415,439,388,359,253
1361,0.12,0.71,0.71,-1.4,3.42,-6.96,431,441,389,366,252
1362,0.1,0.71,0.72,-4.94,-9.22,1.04,418,443,392,361,252
1363,0.14,0.7,0.7,1.83,-4.82,-1.1,416,446,395,365,253
1364,0.15,0.71,0.7,-2.26,-3.66,-2.69,418,441,392,370,254
1365,0.16,0.7,0.71,3.36,-1.16,-1.28,415,440,393,367,256
1366,0.14,0.7,0.71,0.37,-0.85,-2.75,415,445,391,364,256
1367,0.13,0.69,0.72,-2.75,-2.2,-1.65,416,442,390,361,255
1368,0.14,0.71,0.72,0.18,-2.87,-1.34,415,439,395,368,254
1369,0.13,0.69,0.73,0.49,-3.48,-0.61,421,444,395,364,252
1370,0.1,0.65,0.73,-5.37,-8.12,-2.26,418,444,392,367,259
1371,0.11,0.66,0.75,0.06,-1.83,-1.83,420,442,392,366,255
1372,0.12,0.66,0.75,0.12,-3.54,-1.16,417,446,391,365,252
1373,0.14,0.66,0.76,-0.43,-5.98,-0.67,419,440,392,364,256
1374,0.16,0.64,0.76,-1.65,-6.9,-2.38,424,446,395,368,255
1375,0.17,0.64,0.76,-1.1,-5.49,-5.98,418,445,393,367,255
1376,0.16,0.63,0.77,-1.46,-3.23,-2.81,422,446,390,366,250
1377,0.16,0.63,0.77,-0.43,-3.85,-3.05,416,444,389,362,253
1378,0.15,0.63,0.77,-1.4,-3.05,-2.14,416,448,393,363,252
1379,0.16,0.63,0.78,-1.22,-2.44,-3.48,422,447,393,365,258
1380,0.15,0.63,0.78,-1.53,-3.42,-4.94,417,446,389,365,257
1381,0.16,0.63,0.78,0.12,-1.04,-3.23,421,448,391,364,258
1382,0.17,0.61,0.78,-1.77,-3.23,-1.28,420,445,391,365,268
1383,0.16,0.62,0.77,0.31,-2.56,-3.97,420,448,392,366,271
1384,0.16,0.63,0.78,2.38,-3.6,-1.34,421,448,395,368,258
1385,0.16,0.63,0.78,1.28,-3.42,-2.87,422,447,390,368,257
1386,0.16,0.64,0.76,6.96,-6.23,-0.92,421,446,392,366,255
1387,0.17,0.64,0.75,2.69,-3.23,-4.15,417,444,393,354,247
1388,0.16,0.64,0.75,0.31,-2.38,-1.59,419,444,393,357,247
1389,0.18,0.65,0.74,0.67,-4.46,-4.46,416,442,393,361,247
1390,0.17,0.64,0.75,-2.08,-2.32,-2.2,421,448,394,358,248
1391,0.18,0.64,0.76,-1.22,-1.22,-2.87,422,446,394,363,248
1392,0.2,0.65,0.77,-8.61,-5.68,3.66,420,443,390,362,249
1393,0.2,0.62,0.78,-10.74,-4.58,6.53,421,446,400,359,247
1394,0.22,0.58,0.76,-0.79,0.67,-1.77,427,445,389,358,246
1395,0.21,0.61,0.76,1.46,-1.28,-3.23,419,444,392,362,245
1396,0.19,0.63,0.77,1.53,-2.44,-0.06,420,449,390,359,239
1397,0.21,0.62,0.77,-0.98,-2.56,-1.46,416,449,390,359,248
1398,0.21,0.63,0.78,0.0,-4.03,-2.44,415,449,391,361,248
1399,0.21,0.62,0.77,2.62,-3.23,-1.95,420,442,390,361,246
1400,0.21,0.62,0.77,-0.24,-1.83,-4.09,420,449,387,370,258
1401,0.2,0.62,0.77,-0.98,-1.65,-3.23,421,446,403,360,248
1402,0.2,0.62,0.77,2.87,-2.99,-3.97,423,448,393,367,250
1403,0.19,0.65,0.79,-1.77,-2.32,-2.01,421,446,391,359,250
1404,0.19,0.64,0.76,-1.95,-1.71,-0.79,420,444,394,360,247
1405,0.19,0.63,0.77,-0.55,-2.56,-0.98,419,446,390,363,251
1406,0.2,0.62,0.76,0.24,-1.4,-2.99,415,451,387,360,252
1407,0.18,0.65,0.78,-0.06,-3.66,-3.36,417,449,394,360,251
1408,0.19,0.62,0.76,0.49,-2.26,-2.2,423,444,389,358,250
1409,0.18,0.63,0.77,1.22,-2.38,-2.01,420,447,387,363,249
1410,0.2,0.64,0.76,-0.24,-3.42,-2.69,423,446,392,361,251
1411,0.19,0.61,0.75,3.11,-2.38,-1.65,411,443,394,365,246
1412,0.18,0.65,0.75,1.1,-2.5,-1.46,415,451,391,365,253
1413,0.18,0.64,0.76,0.92,-3.11,-2.81,418,449,394,365,255
1414,0.17,0.64,0.75,0.12,-3.42,-3.72,420,446,388,367,249
1415,0.16,0.64,0.73,-1.04,-4.03,-1.4,419,448,389,367,253
1416,0.17,0.66,0.76,-0.37,-3.3,-1.34,421,447,390,368,253
1417,0.16,0.67,0.77,-0.73,-3.17,-3.36,422,445,391,365,251
1418,0.17,0.65,0.75,2.32,-2.56,-2.81,427,445,389,361,250
1419,0.16,0.65,0.74,1.83,-3.6,-1.53,416,446,393,368,247
1420,0.17,0.66,0.75,-0.92,-2.69,-0.79,421,440,387,364,251
1421,0.18,0.65,0.75,-0.85,-2.69,-1.95,419,456,386,367,250
1422,0.18,0.65,0.75,-0.18,-2.14,-2.2,421,447,388,366,248
1423,0.17,0.65,0.75,-0.06,-2.62,-2.87,423,451,382,365,250
1424,0.17,0.65,0.76,0.55,-3.91,-2.62,416,440,385,365,251
1425,0.18,0.64,0.75,0.12,-2.93,-2.81,417,444,386,372,249
1426,0.17,0.65,0.76,0.37,-2.81,-2.2,423,446,386,362,253
1427,0.18,0.65,0.76,0.0,-2.81,-1.89,420,444,388,367,254
1428,0.18,0.65,0.76,0.18,-2.87,-2.93,418,451,386,365,253
1429,0.17,0.64,0.76,1.16,-3.97,-2.69,423,450,387,364,254
1430,0.17,0.63,0.76,0.67,-2.2,-2.08,420,449,389,368,251
1431,0.18,0.64,0.76,0.43,-2.56,-2.56,421,445,387,365,254
1432,0.18,0.64,0.76,1.16,-1.77,-3.11,422,450,387,365,250
1433,0.18,0.64,0.76,0.18,-4.21,-2.44,420,450,385,368,250
1434,0.18,0.64,0.76,0.73,-3.36,-1.71,419,446,387,364,252
1435,0.18,0.64,0.76,0.98,-3.54,-1.89,420,447,386,367,250
1436,0.18,0.64,0.76,0.0,-3.78,-2.56,415,451,390,366,253
1437,0.19,0.64,0.76,-0.12,-3.23,-2.01,418,441,386,363,253
1438,0.18,0.64,0.77,0.79,-2.75,-2.26,415,443,386,362,252
1439,0.17,0.63,0.76,0.06,-2.38,-2.56,419,450,387,368,255
1440,0.18,0.63,0.76,0.49,-3.23,-0.92,416,448,384,369,253
1441,0.18,0.65,0.76,-2.93,-3.6,-3.23,418,448,386,369,249
1442,0.17,0.64,0.76,1.28,-2.26,-2.26,419,446,393,372,250
1443,0.18,0.65,0.75,3.54,-5.0,-1.4,421,447,391,364,247
1444,0.18,0.65,0.75,1.77,-3.66,-2.62,418,445,386,365,252
1445,0.19,0.67,0.75,1.4,-2.81,-2.2,419,443,385,364,247
1446,0.19,0.65,0.75,-1.89,-1.34,-1.1,415,446,386,367,252
1447,0.19,0.66,0.76,-6.29,-1.95,3.91,417,451,384,365,249
1448,0.24,0.63,0.77,-9.22,-0.55,6.96,420,447,387,369,250
1449,0.21,0.61,0.78,3.23,-2.75,-4.64,416,450,384,367,245
1450,0.22,0.61,0.78,1.95,-3.66,-3.3,416,448,386,366,249
1451,0.21,0.61,0.79,0.31,-2.08,-1.46,418,441,385,361,252
1452,0.22,0.6,0.78,-1.28,-5.31,-2.08,414,448,383,362,251
1453,0.23,0.6,0.78,-0.12,-3.48,-1.95,418,444,379,361,251
1454,0.22,0.6,0.78,-2.08,-3.05,-2.69,418,448,382,363,253
1455,0.22,0.6,0.79,-0.12,-2.26,-2.75,419,451,383,366,251
1456,0.22,0.61,0.78,-0.37,-2.26,-2.56,416,446,381,364,259
1457,0.22,0.62,0.77,1.16,-2.08,-3.6,414,446,381,363,248
1458,0.22,0.62,0.78,0.43,-3.23,-2.56,417,441,381,372,250
1459,0.21,0.61,0.78,-0.06,-3.97,-2.5,416,448,382,361,253
1460,0.22,0.62,0.78,1.77,-3.72,-2.44,419,452,379,364,250
1461,0.22,0.62,0.78,0.43,-3.48,-1.59,414,448,380,363,253
1462,0.22,0.62,0.77,1.59,-2.75,-3.36,417,448,388,364,252
1463,0.22,0.62,0.78,-1.34,-1.1,-2.44,420,458,381,364,259
1464,0.21,0.63,0.78,2.38,-0.55,-3.6,418,445,380,366,250
1465,0.15,0.65,0.77,10.31,4.09,-8.06,417,455,387,365,253
1466,0.13,0.69,0.71,16.42,-5.31,-4.82,414,454,390,366,252
1467,0.16,0.81,0.62,6.29,-4.94,-8.48,418,454,392,366,254
1468,0.12,0.8,0.61,-0.06,-0.98,-2.44,420,454,388,366,255
1469,0.07,0.83,0.64,-7.81,-9.16,-11.84,420,454,390,370,252
1470,0.11,0.75,0.65,-1.46,-3.17,-1.53,416,448,388,366,253
1471,0.1,0.77,0.65,-3.48,-0.85,-1.22,421,458,392,374,251
1472,0.12,0.75,0.68,-0.12,-4.15,-4.7,417,456,391,366,254
1473,0.12,0.74,0.65,3.36,-4.27,-1.34,422,455,391,368,250
1474,0.14,0.75,0.65,-1.89,-3.23,-0.06,416,455,394,368,253
1475,0.14,0.75,0.65,-0.06,-2.69,-2.2,418,457,390,368,253
1476,0.13,0.75,0.66,0.18,-2.81,-2.32,418,455,392,365,255
1477,0.13,0.75,0.66,-0.24,-1.95,-2.08,420,453,393,368,255
1478,0.13,0.75,0.65,-0.85,-2.62,-4.88,419,456,394,365,256
1479,0.12,0.74,0.67,-2.26,-3.42,-1.89,414,456,392,366,251
1480,0.13,0.75,0.67,1.34,-3.91,-1.28,418,453,389,369,255
1481,0.13,0.75,0.66,1.22,-3.23,-1.83,419,452,393,363,254
1482,0.12,0.74,0.67,0.85,-2.62,-0.85,419,454,390,367,256
1483,0.13,0.76,0.67,0.37,-1.89,-3.11,417,448,392,367,272
1484,0.15,0.73,0.66,-1.04,-7.02,-7.57,420,454,390,367,253
1485,0.13,0.74,0.67,0.37,-2.32,-2.75,417,454,391,366,254
1486,0.12,0.75,0.68,0.61,-3.6,-3.17,421,451,392,364,257
1487,0.11,0.74,0.67,1.77,-1.83,-2.26,422,450,391,367,253
1488,0.12,0.75,0.68,3.48,0.24,0.12,420,452,392,371,254
1489,0.14,0.75,0.67,0.12,-1.89,-3.42,414,448,389,366,254
1490,0.13,0.73,0.66,0.06,-3.36,-1.71,416,456,392,370,254
1491,0.11,0.74,0.67,1.28,-0.85,-2.99,415,453,392,366,253
1492,0.12,0.74,0.69,1.1,-4.15,-2.93,419,456,392,369,257
1493,0.12,0.72,0.66,1.16,-5.13,-0.98,417,453,393,363,255
1494,0.14,0.76,0.69,0.37,-0.37,-2.5,419,452,391,366,251
1495,0.16,0.72,0.67,3.42,-5.49,3.54,420,452,391,364,254
1496,0.17,0.72,0.67,6.35,-2.32,-3.23,417,448,392,366,253
1497,0.2,0.74,0.71,4.46,-2.5,-1.65,418,456,390,365,254
1498,0.2,0.75,0.68,7.2,4.64,-7.32,419,452,389,366,253
1499,0.17,0.73,0.69,-0.85,-1.4,-2.5,418,452,387,365,255
1500,0.17,0.72,0.68,0.73,-2.62,-3.36,419,453,388,367,253
1501,0.18,0.72,0.67,12.15,-1.1,-1.77,419,455,389,364,265
1502,0.18,0.73,0.66,0.49,-1.83,-3.3,418,452,391,363,255
1503,0.18,0.72,0.66,-1.65,-0.92,-3.42,418,452,390,364,253
1504,0.17,0.74,0.68,-1.16,-1.1,-3.48,417,456,388,369,255
1505,0.17,0.72,0.68,0.31,-2.62,-2.38,420,451,390,366,252
1506,0.17,0.72,0.69,-0.43,-3.23,-3.78,419,448,390,364,253
1507,0.17,0.72,0.68,-0.67,-3.85,-1.4,419,453,392,365,254
1508,0.18,0.73,0.68,-0.67,-3.11,-1.59,419,454,387,366,253
1509,0.32,0.87,0.33,-8.06,8.0,4.21,414,471,412,346,220
1510,0.26,0.85,0.41,-18.49,0.73,3.91,416,464,412,346,220
1511,0.36,0.83,0.4,-0.85,-4.94,1.59,413,466,406,338,212
1512,0.35,0.85,0.42,3.42,-3.97,-1.4,410,464,408,333,208
1513,0.36,0.84,0.41,-2.62,3.78,-6.71,410,463,406,330,212
1514,0.37,0.81,0.45,-1.65,-3.91,1.4,412,470,406,323,208
1515,0.39,0.8,0.44,-7.75,-6.65,-1.83,413,470,407,326,209
1516,0.39,0.81,0.45,-1.16,0.43,-1.77,411,466,407,327,211
1517,0.37,0.78,0.48,-2.32,-1.16,-0.37,417,467,414,331,213
1518,0.37,0.8,0.48,4.64,-3.72,-2.32,417,461,407,332,212
1519,0.4,0.81,0.46,-0.37,-3.17,-2.26,415,467,405,334,214
1520,0.39,0.79,0.45,-0.12,-2.5,-1.22,419,466,408,332,216
1521,0.41,0.8,0.45,0.55,-4.03,-2.14,419,467,405,336,216
1522,0.42,0.8,0.44,-0.12,-3.17,-1.04,416,466,404,333,215
1523,0.45,0.8,0.42,4.27,-3.85,0.49,414,466,405,334,224
1524,0.44,0.8,0.4,2.01,-7.14,-3.6,417,465,406,334,216
1525,0.41,0.66,0.52,-25.39,25.09,-10.25,416,465,402,335,213
1526,0.29,0.74,0.6,-0.31,56.88,-38.88,417,461,405,336,217
1527,0.39,0.78,0.59,-4.58,-25.33,7.14,415,469,404,338,217
1528,0.36,0.83,0.57,7.93,2.32,-22.22,417,466,407,340,217
1529,0.38,0.79,0.55,-8.91,-2.69,4.76,414,465,405,345,221
1530,0.29,0.75,0.56,0.49,7.51,0.37,414,462,406,343,223
1531,0.38,0.79,0.58,-2.56,2.44,0.24,417,461,402,346,220
1532,0.36,0.69,0.59,1.71,-4.09,7.69,417,465,404,345,222
1533,0.4,0.68,0.59,-2.38,-13.31,5.37,414,465,402,350,228
1534,0.46,0.67,0.61,1.46,1.71,1.53,417,469,399,351,225
1535,0.45,0.61,0.6,1.83,-5.98,0.85,416,468,399,349,229
1536,0.46,0.64,0.61,-0.85,-7.32,0.79,415,465,398,349,226
1537,0.52,0.66,0.59,-2.62,1.46,-6.53,414,466,394,348,226
1538,0.53,0.64,0.58,2.08,-10.19,4.76,417,462,397,349,229
1539,0.53,0.63,0.58,1.65,-2.75,-7.69,417,468,395,352,228
1540,0.46,0.65,0.62,2.87,-13.67,-0.55,418,461,396,352,227
1541,0.47,0.63,0.61,-0.12,2.2,2.14,421,464,401,347,260
1542,0.51,0.57,0.62,-7.63,1.16,3.23,418,464,397,351,226
1543,0.45,0.66,0.61,11.72,-9.77,-7.26,416,468,398,351,227
1544,0.46,0.73,0.56,5.13,-6.84,-0.61,417,460,399,349,231
1545,0.46,0.67,0.58,5.0,-15.26,-0.55,420,464,398,351,228
1546,0.52,0.69,0.51,3.66,-3.42,-7.87,417,469,392,350,228
1547,0.51,0.66,0.55,-4.03,-8.42,0.31,416,469,398,352,240
1548,0.56,0.68,0.55,-3.91,-6.35,0.24,421,461,393,348,230
1549,0.51,0.62,0.53,5.68,-17.58,9.34,418,465,391,352,231
1550,0.59,0.66,0.49,2.26,0.24,-8.85,419,465,393,357,227
1551,0.56,0.65,0.48,1.16,-1.83,-8.48,416,467,393,349,230
1552,0.58,0.67,0.5,-0.24,0.67,-4.03,422,464,395,350,231
1553,0.6,0.69,0.49,2.62,-1.4,-4.27,430,471,389,347,230
1554,0.57,0.64,0.49,1.22,-5.0,-7.08,423,469,388,351,229
1555,0.54,0.67,0.51,6.16,-3.66,-3.23,420,465,390,348,230
1556,0.53,0.7,0.5,6.65,0.55,-8.54,421,464,392,353,230
1557,0.54,0.69,0.5,0.92,-3.48,-1.22,422,471,392,351,230
1558,0.54,0.68,0.49,2.08,-0.85,-2.62,421,465,394,347,226
1559,0.52,0.68,0.49,1.46,-4.27,-3.91,424,472,389,352,231
1560,0.53,0.7,0.49,-2.26,-3.72,-2.93,417,460,392,350,221
1561,0.53,0.71,0.5,0.12,-1.71,-2.93,426,466,392,348,230
1562,0.52,0.7,0.49,0.31,-2.69,-4.52,420,465,392,348,232
1563,0.51,0.71,0.48,-0.12,-1.59,-3.54,421,466,391,351,234
1564,0.51,0.72,0.49,-0.73,-1.89,-3.97,422,459,393,349,231
1565,0.47,0.74,0.51,-4.21,3.6,-7.14,422,465,394,350,233
1566,0.4,0.73,0.58,0.06,5.74,-8.18,425,454,395,351,234
1567,0.36,0.72,0.58,-4.09,7.63,-10.01,421,461,397,354,234
1568,0.37,0.73,0.59,3.23,-11.41,2.5,422,463,400,355,235
1569,0.38,0.74,0.58,0.06,-3.23,-2.38,422,465,398,356,237
1570,0.39,0.74,0.58,1.46,-3.23,-2.87,425,463,399,355,234
1571,0.39,0.74,0.58,-1.04,-3.11,-1.46,422,462,399,356,236
1572,0.37,0.74,0.56,-0.85,-2.38,-1.46,424,463,399,358,235
1573,0.38,0.73,0.57,0.06,-1.22,-3.66,419,462,395,358,236
1574,0.41,0.76,0.56,1.34,-3.11,-2.56,418,463,398,356,236
1575,0.38,0.76,0.57,-0.43,-2.56,-1.95,419,462,398,358,237
1576,0.37,0.73,0.57,3.85,-1.1,-2.44,423,463,397,359,239
1577,0.37,0.75,0.56,1.16,-3.48,-4.64,422,464,398,358,238
1578,0.4,0.75,0.56,2.38,-3.17,-0.92,423,459,395,359,238
1579,0.39,0.76,0.56,0.92,-3.05,-4.39,419,466,400,361,239
1580,0.34,0.77,0.55,5.19,-0.43,-3.85,422,461,398,362,246
1581,0.37,0.8,0.55,1.28,-4.03,-1.28,423,458,398,357,241
1582,0.34,0.77,0.54,-0.73,0.37,-3.97,424,468,398,360,241
1583,0.35,0.75,0.54,-9.09,-2.62,-1.65,421,462,399,360,240
1584,0.35,0.77,0.55,1.1,-3.48,-3.11,423,461,398,361,240
1585,0.36,0.78,0.55,-2.08,-2.14,-3.6,423,457,406,360,248
1586,0.34,0.77,0.55,0.24,-3.54,-5.49,426,461,401,358,241
1587,0.34,0.76,0.56,1.53,-2.2,-3.42,419,461,401,358,239
1588,0.33,0.76,0.57,-1.1,-2.56,-2.81,421,462,395,361,241
1589,0.33,0.77,0.57,0.67,-2.87,-2.14,422,461,401,362,250
1590,0.33,0.78,0.55,0.24,-2.81,1.16,424,475,405,359,241
1591,0.36,0.76,0.58,-0.18,-4.21,-0.37,421,462,399,362,244
1592,0.36,0.76,0.57,2.32,-3.97,-3.72,419,464,397,363,243
1593,0.36,0.75,0.55,1.59,-1.53,-2.87,421,460,396,363,238
1594,0.34,0.78,0.56,-0.85,-5.74,0.0,423,461,397,362,241
1595,0.37,0.74,0.56,-4.33,0.61,-0.31,421,460,399,362,243
1596,0.36,0.71,0.58,-1.53,-1.1,-1.83,423,461,395,362,244
1597,0.38,0.72,0.58,4.46,-10.13,8.06,423,464,400,360,249
1598,0.36,0.73,0.59,6.71,-5.07,-0.37,423,462,398,360,240
1599,0.35,0.74,0.6,0.73,-3.23,-2.81,420,466,400,362,243
1600,0.37,0.73,0.59,-0.37,-1.77,-2.38,420,465,400,363,244
1601,0.36,0.73,0.58,1.71,-2.69,-2.26,422,458,398,357,245
1602,0.41,0.73,0.57,-0.18,-6.29,0.79,423,461,398,356,245
1603,0.37,0.75,0.58,0.06,-2.32,-3.66,423,461,397,362,243
1604,0.36,0.74,0.58,0.12,-3.36,-2.01,423,466,398,360,243
1605,0.34,0.76,0.59,1.04,-0.49,-3.23,423,455,400,361,245
1606,0.36,0.74,0.58,0.31,-2.75,-3.23,425,453,399,372,243
1607,0.35,0.75,0.58,0.73,-2.2,-3.3,421,455,401,360,242
1608,0.35,0.75,0.56,2.93,-3.3,-2.99,422,451,397,358,243
1609,0.35,0.75,0.58,2.14,-1.95,-2.32,424,449,409,360,244
1610,0.35,0.75,0.57,0.31,-2.69,-1.65,424,440,395,361,247
1611,0.34,0.75,0.58,-1.59,-2.14,-2.2,425,452,396,362,246
1612,0.35,0.76,0.57,-0.49,-2.81,-2.87,425,453,394,362,245
1613,0.35,0.74,0.57,-0.37,-2.93,-1.83,420,457,400,362,244
1614,0.35,0.75,0.58,-0.18,-2.01,-3.72,423,454,397,359,246
1615,0.34,0.76,0.58,0.49,-2.81,-2.5,423,452,397,359,246
1616,0.36,0.76,0.58,2.44,-3.36,0.37,419,450,399,365,247
1617,0.37,0.74,0.58,3.72,-4.7,-2.38,423,459,400,365,247
1618,0.35,0.75,0.58,0.24,-4.21,-1.28,421,453,398,363,243
1619,0.34,0.73,0.56,-1.83,-3.48,-1.77,421,453,401,368,244
1620,0.35,0.73,0.58,-0.49,-1.53,-1.71,421,453,400,362,246
1621,0.35,0.75,0.6,1.04,-2.44,-4.94,421,451,395,365,245
1622,0.34,0.73,0.6,-3.36,-5.0,-2.01,423,459,396,361,241
1623,0.34,0.74,0.6,0.79,-3.66,-1.59,422,469,400,362,245
1624,0.34,0.74,0.59,1.59,-4.09,-2.01,422,452,399,362,246
1625,0.34,0.74,0.59,0.43,-3.6,-2.14,426,452,401,358,248
1626,0.34,0.74,0.59,0.37,-3.11,-1.83,424,451,397,370,246
1627,0.34,0.75,0.59,0.06,-2.38,-1.59,422,450,399,362,255
1628,0.34,0.74,0.59,-0.73,-2.75,-3.78,423,457,397,361,246
1629,0.34,0.74,0.6,-0.06,-3.17,-1.83,422,448,400,366,245
1630,0.33,0.74,0.59,-0.67,-3.11,-2.38,423,454,396,365,247
1631,0.32,0.72,0.6,0.24,-2.75,-1.77,425,454,395,360,248
1632,0.36,0.73,0.6,0.98,-4.03,0.18,423,456,393,364,248
1633,0.34,0.73,0.6,0.37,-2.99,-3.42,419,455,401,362,246
1634,0.32,0.75,0.6,1.53,-1.53,-2.93,423,453,397,364,246
1635,0.33,0.75,0.61,0.67,-3.48,-1.28,425,453,397,364,249
1636,0.34,0.74,0.59,0.61,-3.05,-2.99,424,456,398,364,246
1637,0.3,0.74,0.62,-1.16,3.72,-8.97,423,454,397,364,247
1638,0.33,0.74,0.6,-0.18,-3.91,-3.3,424,453,398,362,248
1639,0.31,0.74,0.6,-0.06,-2.5,-3.36,421,457,396,362,249
1640,0.3,0.74,0.6,1.53,-3.66,-2.93,423,453,397,363,247
1641,0.31,0.75,0.59,-1.04,-2.62,-2.93,425,454,396,357,242
1642,0.32,0.75,0.6,-0.24,-2.5,-2.14,424,453,402,358,283
1643,0.31,0.74,0.61,-0.79,-2.56,-3.72,423,450,398,366,245
1644,0.3,0.77,0.6,-4.21,-9.52,-7.51,423,453,397,362,269
1645,0.27,0.75,0.58,6.65,-5.37,-13.73,426,452,396,360,245
1646,0.23,0.74,0.57,0.61,-23.07,-17.58,423,455,396,358,251
1647,0.28,0.8,0.55,1.71,-4.64,-6.59,422,452,399,363,248
1648,0.28,0.8,0.56,-1.46,-2.44,-0.37,426,450,399,378,243
1649,0.26,0.82,0.54,-0.73,-1.77,-2.32,421,459,400,365,245
1650,0.27,0.79,0.55,3.85,-2.44,-3.48,422,452,394,363,276
1651,0.27,0.78,0.57,-2.44,-1.89,-2.32,424,456,394,362,247
1652,0.24,0.78,0.58,-1.16,-2.93,-1.16,422,457,394,363,251
1653,0.25,0.79,0.58,-0.24,-1.53,-2.93,423,453,398,360,243
1654,0.25,0.81,0.58,3.72,-0.61,-2.81,420,457,397,362,248
1655,0.27,0.8,0.56,-1.34,-4.21,-1.83,418,458,400,359,249
1656,0.26,0.78,0.57,-2.08,-3.72,-2.62,418,457,400,363,248
1657,0.25,0.78,0.54,-2.38,-3.3,-5.07,423,455,403,364,246
1658,0.26,0.79,0.59,-8.24,-9.16,-2.38,424,454,399,362,248
1659,0.31,0.78,0.6,1.77,0.0,-1.4,426,453,401,365,246
1660,0.26,0.8,0.6,-1.71,0.67,-12.94,425,457,397,363,247
1661,0.22,0.8,0.6,0.31,-3.23,-15.99,425,454,397,363,246
1662,0.13,0.77,0.58,3.78,-4.88,-8.42,422,449,398,365,249
1663,0.13,0.77,0.6,5.43,-7.63,-12.08,422,455,400,365,247
1664,0.13,0.79,0.62,0.61,-0.49,-7.39,424,455,399,358,250
1665,0.11,0.83,0.58,4.52,-6.16,-8.85,422,452,401,364,247
1666,0.1,0.8,0.57,-5.86,2.5,-5.92,421,453,394,364,246
1667,0.1,0.82,0.58,5.07,-3.36,-2.62,421,453,396,363,246
1668,0.14,0.83,0.57,-4.52,-4.52,1.16,417,450,397,364,255
1669,0.14,0.82,0.59,0.98,-4.52,-2.26,419,453,393,365,247
1670,0.12,0.83,0.57,-11.11,0.0,7.63,422,449,399,361,264
1671,0.13,0.82,0.57,-1.1,-2.2,-3.72,423,448,398,363,246
1672,0.13,0.83,0.6,3.23,-2.81,-4.58,416,453,395,365,246
1673,0.12,0.79,0.52,-1.71,-8.91,2.08,420,454,397,365,244
1674,0.13,0.77,0.55,5.31,-0.43,-11.29,420,459,399,365,245
1675,0.11,0.81,0.56,-2.14,1.4,-3.97,420,454,397,364,253
1676,0.11,0.83,0.58,5.37,1.53,-6.04,418,455,393,360,243
1677,0.11,0.82,0.55,-2.69,-10.07,4.09,419,459,395,360,245
1678,0.06,0.8,0.57,-3.3,4.33,5.13,419,459,396,361,244
1679,0.06,0.8,0.55,-0.98,-0.18,1.04,415,458,393,361,243
1680,0.09,0.83,0.59,-2.01,-4.15,-5.37,418,451,397,360,244
1681,0.05,0.85,0.66,-9.34,-1.83,-0.79,419,455,398,363,280
1682,0.05,0.79,0.64,-10.74,-1.53,-9.4,422,456,393,363,243
1683,0.01,0.77,0.66,0.31,-2.69,-6.1,418,456,399,364,248
1684,0.03,0.72,0.62,7.2,-1.59,-1.77,421,456,397,362,242
1685,0.04,0.75,0.62,2.62,-0.92,-3.54,422,459,396,362,243
1686,0.05,0.79,0.62,-1.04,-3.72,-0.18,416,458,396,362,250
1687,0.02,0.77,0.62,2.81,-3.85,-9.64,415,451,397,362,246
1688,0.06,0.81,0.6,7.32,0.18,5.0,416,459,397,368,236
1689,0.04,0.81,0.63,-0.85,1.16,-1.46,419,458,396,362,246
1690,0.03,0.84,0.63,1.28,6.41,8.12,420,455,397,364,246
1691,0.09,0.8,0.61,0.0,-1.04,-4.33,425,455,396,363,248
1692,0.06,0.78,0.63,-3.36,5.55,-8.61,420,456,392,370,247
1693,0.06,0.79,0.62,2.26,-10.44,1.16,419,459,396,363,245
1694,0.07,0.79,0.6,3.72,-5.74,0.18,421,459,392,363,247
1695,0.04,0.8,0.61,0.79,-4.52,-3.66,420,449,397,364,246
1696,0.09,0.77,0.59,-0.12,-2.93,-4.46,415,454,397,363,246
1697,0.09,0.79,0.62,1.46,-3.11,-0.98,426,454,397,363,248
1698,0.11,0.81,0.58,4.82,-4.94,1.16,419,452,397,360,248
1699,0.16,0.78,0.59,-1.83,-3.6,-2.81,415,445,393,345,236
1700,0.13,0.79,0.6,-6.9,0.98,0.98,416,444,396,342,234
1701,0.16,0.78,0.65,-0.67,-7.14,-6.16,415,445,387,341,230
1702,0.11,0.78,0.64,-3.36,-7.14,-1.65,417,450,386,341,236
1703,0.12,0.75,0.63,-1.53,-1.1,-0.92,418,451,388,344,236
1704,0.13,0.77,0.64,0.37,-1.77,-2.93,416,450,388,344,234
1705,0.14,0.75,0.65,-5.31,-3.72,-1.95,413,450,388,355,233
1706,0.13,0.74,0.65,0.24,-1.28,-3.42,416,448,387,346,251
1707,0.12,0.74,0.66,1.46,-3.11,-2.62,417,452,387,346,238
1708,0.13,0.74,0.65,-1.1,-1.28,-2.38,418,452,388,349,235
1709,0.13,0.75,0.64,2.01,-4.7,-0.37,419,452,388,348,238
1710,0.14,0.75,0.64,-0.85,-3.42,-1.71,419,449,388,346,240
1711,0.15,0.76,0.65,0.73,-4.21,-0.85,421,453,388,347,240
1712,0.14,0.75,0.64,-0.79,-2.32,-2.38,419,452,394,348,239
1713,0.13,0.74,0.65,2.38,-2.99,-4.15,419,450,390,353,236
1714,0.12,0.76,0.64,-5.19,-0.61,-5.92,420,451,391,352,238
1715,0.13,0.75,0.66,-0.43,-1.53,-0.73,418,456,390,351,242
1716,0.11,0.75,0.65,1.22,-3.91,-2.75,419,448,392,348,238
1717,0.12,0.75,0.65,0.24,-2.2,-1.28,419,454,394,353,250
1718,0.12,0.75,0.64,4.88,-3.66,-0.06,416,458,391,354,242
1719,0.13,0.75,0.67,3.3,-2.93,-8.3,419,448,391,353,242
1720,0.13,0.78,0.65,0.06,-5.86,-2.81,420,453,394,351,241
1721,0.13,0.76,0.65,-1.59,-1.89,-0.67,423,449,391,354,242
1722,0.13,0.75,0.65,0.0,-1.34,-2.44,415,448,394,353,264
1723,0.13,0.74,0.67,1.83,-2.32,-3.36,420,454,393,355,239
1724,0.14,0.76,0.67,0.12,-3.54,-0.24,418,451,391,352,243
1725,0.11,0.76,0.66,1.59,-3.17,-2.62,420,453,391,351,240
1726,0.12,0.74,0.65,2.87,-3.66,-0.92,420,455,391,353,242
1727,0.13,0.75,0.64,1.04,-4.03,-2.08,419,446,393,352,238
1728,0.12,0.77,0.64,7.02,-4.46,-3.11,422,452,392,347,242
1729,0.16,0.79,0.63,1.89,-3.78,-1.28,416,453,393,351,240
1730,0.14,0.77,0.62,0.73,-2.38,-2.81,417,455,393,351,234
1731,0.15,0.77,0.63,1.34,-2.81,-6.16,418,449,394,351,239
1732,0.18,0.78,0.63,-1.65,-3.78,-0.49,421,449,391,349,242
1733,0.18,0.78,0.62,2.99,-0.73,-0.55,421,456,388,351,241
1734,0.17,0.78,0.6,0.79,-3.23,-2.01,421,449,390,352,229
1735,0.17,0.77,0.61,-0.24,-3.48,-2.69,421,451,393,350,238
1736,0.18,0.8,0.61,4.64,-3.66,-2.32,423,448,393,351,266
1737,0.17,0.74,0.59,-4.94,-2.44,0.49,422,453,391,352,240
1738,0.2,0.75,0.61,-5.0,-4.03,-4.27,418,455,387,349,240
1739,0.19,0.73,0.62,-4.7,-3.66,-5.49,420,452,402,354,239
1740,0.17,0.76,0.65,1.34,-1.65,-2.44,422,452,391,353,241
1741,0.19,0.78,0.65,-5.31,5.43,-3.66,423,455,393,353,243
1742,0.17,0.72,0.64,-11.41,-2.44,2.32,418,457,388,351,237
1743,0.17,0.7,0.67,-3.11,-2.44,-2.44,417,453,389,348,239
1744,0.2,0.72,0.68,-4.27,-1.59,-0.55,419,448,389,354,243
1745,0.18,0.75,0.67,10.31,-7.45,-7.75,417,451,386,350,240
1746,0.17,0.74,0.64,2.93,-3.85,-0.73,420,456,389,351,240
1747,0.17,0.76,0.63,0.12,-3.42,-4.7,419,455,392,351,241
1748,0.17,0.76,0.63,-5.07,-0.55,-1.65,417,451,387,350,240
1749,0.17,0.75,0.63,0.37,-3.97,-2.5,421,453,390,352,241
1750,0.12,0.77,0.63,0.67,0.61,0.06,421,455,390,353,240
1751,0.11,0.73,0.62,-2.75,-1.28,1.28,417,452,389,352,240
1752,0.12,0.75,0.65,2.56,-2.5,-3.05,423,448,390,352,243
1753,0.16,0.77,0.65,2.69,-4.64,-2.14,417,450,393,352,241
1754,0.13,0.74,0.64,-0.67,-5.49,0.85,418,452,396,364,241
1755,0.13,0.73,0.63,2.01,-3.05,-5.92,416,455,395,350,243
1756,0.15,0.76,0.61,3.05,-6.65,1.53,421,452,390,354,242
1757,0.17,0.76,0.66,1.22,-2.99,-3.11,423,453,393,352,260
1758,0.15,0.73,0.63,5.8,-4.64,-3.42,418,448,389,350,244
1759,0.16,0.78,0.64,2.2,-3.3,-2.38,421,457,394,350,244
1760,0.16,0.76,0.63,0.67,-2.87,-2.56,423,448,391,353,241
1761,0.16,0.78,0.63,1.53,-2.2,-3.78,422,456,392,354,263
1762,0.14,0.76,0.62,-0.49,-3.78,-2.62,421,447,395,352,244
1763,0.15,0.76,0.6,0.67,-2.08,-2.87,420,453,395,350,241
1764,0.14,0.78,0.59,1.16,-0.92,-2.01,431,454,389,357,244
1765,0.14,0.79,0.6,1.16,-2.87,-3.66,424,452,396,357,245
1766,0.14,0.79,0.61,0.37,-2.44,-2.62,421,448,394,353,242
1767,0.15,0.78,0.61,-2.14,-3.05,-1.46,421,453,391,352,245
1768,0.15,0.78,0.61,0.0,-3.78,-2.08,420,456,392,352,244
1769,0.14,0.79,0.61,-1.28,-3.23,-1.89,421,454,394,355,243
1770,0.14,0.73,0.59,-0.61,-4.03,-12.02,419,453,393,357,243
1771,0.13,0.7,0.59,-0.79,-5.31,-9.28,422,452,393,354,243
1772,0.11,0.76,0.65,-2.93,-3.6,-3.42,422,458,394,356,243
1773,0.04,0.78,0.67,-7.14,-8.85,-4.39,422,458,394,354,245
1774,0.1,0.76,0.69,-1.53,-1.4,-3.48,421,452,392,354,245
1775,0.03,0.72,0.65,3.17,-1.71,0.06,418,447,395,355,242
1776,0.08,0.75,0.64,1.77,-2.69,-0.37,416,461,397,357,243
1777,0.1,0.74,0.64,-2.38,-2.44,-3.05,421,455,396,356,244
1778,0.08,0.74,0.66,-0.37,-1.83,-3.42,419,449,393,353,246
1779,0.08,0.77,0.66,0.98,-1.22,-3.78,421,457,393,355,245
1780,0.08,0.75,0.67,0.12,-2.26,-1.83,418,452,394,353,240
1781,0.07,0.76,0.66,1.28,-2.01,-2.69,423,455,392,355,243
1782,0.06,0.73,0.66,2.81,-3.05,-2.38,417,456,392,356,244
1783,0.06,0.76,0.65,0.85,-4.64,-0.92,421,453,392,352,244
1784,0.07,0.75,0.65,-0.24,-3.54,-3.6,419,452,394,355,243
1785,0.07,0.76,0.65,2.44,-3.6,-1.65,422,457,394,354,276
1786,0.07,0.76,0.66,-0.06,-2.69,-2.81,420,453,394,356,246
1787,0.05,0.75,0.63,-4.82,0.12,0.06,421,452,390,355,247
1788,0.04,0.74,0.66,-1.16,-2.69,-4.7,420,452,393,358,247
1789,0.05,0.76,0.66,0.12,-2.56,-1.71,422,452,393,354,245
1790,0.05,0.76,0.67,0.24,-3.66,-2.56,421,453,390,357,244
1791,0.05,0.74,0.66,-1.83,-3.05,-2.14,421,451,395,358,241
1792,0.04,0.75,0.67,-0.12,-2.26,-1.89,424,453,393,354,242
1793,0.05,0.75,0.67,-0.37,-2.93,-2.62,417,450,394,356,246
1794,0.05,0.76,0.67,1.46,-3.6,-2.32,419,452,395,354,273
1795,0.05,0.76,0.67,2.38,-3.11,-2.08,421,452,398,362,243
1796,0.06,0.77,0.66,0.92,-3.66,-3.42,418,455,391,359,248
1797,0.06,0.76,0.65,0.06,-2.26,-0.79,418,447,397,356,244
1798,0.04,0.77,0.63,0.31,-3.85,-0.85,417,453,392,360,245
1799,0.04,0.79,0.62,3.78,-3.91,-2.56,421,462,395,354,251
1800,0.05,0.79,0.63,0.18,-3.85,-0.85,419,455,385,359,245
1801,0.06,0.79,0.64,-3.42,-3.91,-1.28,421,451,388,356,243
1802,0.05,0.78,0.64,1.04,-4.09,-3.72,419,456,387,357,243
1803,0.07,0.77,0.64,0.92,-3.36,-0.49,423,452,389,356,246
1804,0.06,0.77,0.64,2.44,-2.99,-2.44,420,455,388,354,247
1805,0.06,0.75,0.62,-1.16,-7.14,-0.98,419,450,391,353,247
1806,0.05,0.76,0.63,0.61,-2.32,-2.08,421,456,388,356,244
1807,0.06,0.77,0.63,0.43,-3.72,-1.59,421,453,388,359,245
1808,0.07,0.77,0.63,0.55,-3.05,-2.32,419,452,385,356,250
1809,0.08,0.77,0.63,-0.24,-3.23,-2.26,418,452,384,366,242
1810,0.07,0.77,0.63,0.37,-3.17,-1.89,416,457,388,359,246
1811,0.08,0.77,0.62,0.67,-3.78,-3.17,418,457,389,356,248
1812,0.08,0.78,0.63,-0.24,-2.81,-2.5,420,447,387,353,241
1813,0.07,0.78,0.63,1.16,-1.95,-2.08,421,452,388,356,246
1814,0.08,0.78,0.61,0.92,-2.87,-0.31,420,455,388,357,246
1815,0.07,0.77,0.62,-1.4,-3.42,0.06,421,452,388,359,246
1816,0.08,0.79,0.62,-2.01,-4.33,-3.42,421,454,389,358,245
1817,0.07,0.79,0.61,1.16,-2.81,-2.62,420,468,390,365,245
1818,0.05,0.8,0.61,0.18,-3.17,-3.66,420,446,386,357,247
1819,0.06,0.79,0.62,-1.28,-2.01,-2.44,421,454,390,374,247
1820,0.06,0.81,0.61,0.31,-1.95,-2.81,420,452,391,357,245
1821,0.04,0.8,0.61,0.55,-1.89,-0.73,420,447,391,359,244
1822,0.06,0.79,0.61,1.16,-3.54,-2.08,418,453,391,355,245
1823,0.06,0.78,0.61,2.26,-2.56,-2.69,421,456,396,357,242
1824,0.06,0.8,0.61,-15.5,-3.36,-1.04,420,454,398,357,245
1825,0.06,0.79,0.61,1.59,-2.99,-1.89,421,449,393,357,243
1826,0.06,0.8,0.61,-1.83,-3.54,-1.89,420,445,392,357,245
1827,0.04,0.81,0.6,-1.4,-2.99,-2.75,422,455,392,357,280
1828,0.04,0.81,0.59,-2.01,-3.85,-2.08,420,455,390,356,236
1829,0.05,0.79,0.59,0.31,-3.11,-2.38,417,446,393,359,247
1830,0.07,0.8,0.61,0.61,-5.49,-2.99,419,455,392,356,246
1831,0.01,0.83,0.6,0.24,-1.28,-3.23,421,452,392,355,246
1832,0.07,0.76,0.62,-23.8,7.14,0.37,420,450,392,357,248
1833,0.06,0.73,0.72,-8.91,-1.83,10.8,422,445,394,359,248
1834,0.18,0.59,0.75,2.87,-7.69,20.51,419,449,392,357,247
1835,0.27,0.58,0.76,1.89,-1.89,6.41,423,450,397,358,249
1836,0.22,0.57,0.8,2.01,-13.37,0.85,417,441,391,360,245
1837,0.25,0.62,0.78,-7.02,-3.42,-4.15,418,451,393,364,247
1838,0.25,0.53,0.79,-4.46,-8.06,-10.8,422,444,393,359,249
1839,0.24,0.58,0.8,2.14,0.06,-9.46,420,451,396,357,248
1840,0.19,0.63,0.78,1.53,-8.48,-8.12,422,451,393,360,250
1841,0.26,0.59,0.78,8.79,-3.48,-4.94,421,453,393,358,248
1842,0.13,0.65,0.73,-12.94,-6.84,5.13,423,451,390,360,254
1843,0.15,0.61,0.8,-2.5,-3.66,-10.93,421,453,394,363,247
1844,0.15,0.59,0.82,-9.4,-9.22,-9.89,423,447,396,358,251
1845,0.22,0.51,0.83,-7.39,4.03,-13.18,420,449,394,359,249
1846,0.14,0.52,0.86,-1.83,3.91,-3.97,419,446,394,358,251
1847,0.03,0.52,0.9,0.24,6.71,-2.08,418,451,393,364,248
1848,0.08,0.55,0.89,5.31,-20.02,15.87,417,448,395,360,247
1849,0.1,0.5,0.85,-3.91,-5.98,1.04,421,446,394,359,256
1850,0.19,0.49,0.88,-2.26,-7.45,6.16,418,445,394,364,255
1851,0.19,0.48,0.89,1.77,-1.95,-2.81,415,448,393,364,254
1852,0.19,0.5,0.88,0.0,-2.14,-0.79,419,447,392,362,254
1853,0.2,0.48,0.88,0.0,-2.56,-2.69,419,446,392,365,252
1854,0.2,0.48,0.87,1.1,-2.44,-1.65,420,447,390,359,254
1855,0.19,0.48,0.87,1.83,-0.98,0.12,415,447,390,365,255
1856,0.18,0.5,0.88,2.44,-2.44,-0.61,419,449,388,360,255
1857,0.19,0.5,0.88,-0.06,-1.65,-1.59,420,447,393,368,256
1858,0.19,0.5,0.85,3.42,-2.08,-4.94,418,449,388,363,254
1859,0.22,0.58,0.79,19.41,8.12,-0.24,421,448,391,361,255
1860,0.14,0.66,0.75,15.38,12.76,-10.93,420,441,403,360,253
1861,0.14,0.68,0.72,-1.89,-6.77,1.04,417,447,391,365,252
1862,0.14,0.68,0.71,2.75,1.77,-0.61,418,440,389,366,248
1863,0.11,0.68,0.7,-0.49,-2.08,-2.75,415,439,388,359,253
1864,0.12,0.71,0.71,-1.4,3.42,-6.96,431,441,389,366,252
1865,0.1,0.71,0.72,-4.94,-9.22,1.04,418,443,392,361,252
1866,0.14,0.7,0.7,1.83,-4.82,-1.1,416,446,395,365,253
1867,0.15,0.71,0.7,-2.26,-3.66,-2.69,418,441,392,370,254
1868,0.16,0.7,0.71,3.36,-1.16,-1.28,415,440,393,367,256
1869,0.14,0.7,0.71,0.37,-0.85,-2.75,415,445,391,364,256
1870,0.13,0.69,0.72,-2.75,-2.2,-1.65,416,442,390,361,255
1871,0.14,0.71,0.72,0.18,-2.87,-1.34,415,439,395,368,254
1872,0.13,0.69,0.73,0.49,-3.48,-0.61,421,444,395,364,252
1873,0.1,0.65,0.73,-5.37,-8.12,-2.26,418,444,392,367,259
1874,0.11,0.66,0.75,0.06,-1.83,-1.83,420,442,392,366,255
1875,0.12,0.66,0.75,0.12,-3.54,-1.16,417,446,391,365,252
1876,0.14,0.66,0.76,-0.43,-5.98,-0.67,419,440,392,364,256
1877,0.16,0.64,0.76,-1.65,-6.9,-2.38,424,446,395,368,255
1878,0.17,0.64,0.76,-1.1,-5.49,-5.98,418,445,393,367,255
1879,0.16,0.63,0.77,-1.46,-3.23,-2.81,422,446,390,366,250
1880,0.16,0.63,0.77,-0.43,-3.85,-3.05,416,444,389,362,253
1881,0.15,0.63,0.77,-1.4,-3.05,-2.14,416,448,393,363,252
1882,0.16,0.63,0.78,-1.22,-2.44,-3.48,422,447,393,365,258
1883,0.15,0.63,0.78,-1.53,-3.42,-4.94,417,446,389,365,257
1884,0.16,0.63,0.78,0.12,-1.04,-3.23,421,448,391,364,258
1885,0.17,0.61,0.78,-1.77,-3.23,-1.28,420,445,391,365,268
1886,0.16,0.62,0.77,0.31,-2.56,-3.97,420,448,392,366,271
1887,0.16,0.63,0.78,2.38,-3.6,-1.34,421,448,395,368,258
1888,0.16,0.63,0.78,1.28,-3.42,-2.87,422,447,390,368,257
1889,0.16,0.64,0.76,6.96,-6.23,-0.92,421,446,392,366,255
1890,0.17,0.64,0.75,2.69,-3.23,-4.15,417,444,393,354,247
1891,0.16,0.64,0.75,0.31,-2.38,-1.59,419,444,393,357,247
1892,0.18,0.65,0.74,0.67,-4.46,-4.46,416,442,393,361,247
1893,0.17,0.64,0.75,-2.08,-2.32,-2.2,421,448,394,358,248
1894,0.18,0.64,0.76,-1.22,-1.22,-2.87,422,446,394,363,248
1895,0.2,0.65,0.77,-8.61,-5.68,3.66,420,443,390,362,249
1896,0.2,0.62,0.78,-10.74,-4.58,6.53,421,446,400,359,247
1897,0.22,0.58,0.76,-0.79,0.67,-1.77,427,445,389,358,246
1898,0.21,0.61,0.76,1.46,-1.28,-3.23,419,444,392,362,245
1899,0.19,0.63,0.77,1.53,-2.44,-0.06,420,449,390,359,239
1900,0.21,0.62,0.77,-0.98,-2.56,-1.46,416,449,390,359,248
1901,0.21,0.63,0.78,0.0,-4.03,-2.44,415,449,391,361,248
1902,0.21,0.62,0.77,2.62,-3.23,-1.95,420,442,390,361,246
1903,0.21,0.62,0.77,-0.24,-1.83,-4.09,420,449,387,370,258
1904,0.2,0.62,0.77,-0.98,-1.65,-3.23,421,446,403,360,248
1905,0.2,0.62,0.77,2.87,-2.99,-3.97,423,448,393,367,250
1906,0.19,0.65,0.79,-1.77,-2.32,-2.01,421,446,391,359,250
1907,0.19,0.64,0.76,-1.95,-1.71,-0.79,420,444,394,360,247
1908,0.19,0.63,0.77,-0.55,-2.56,-0.98,419,446,390,363,251
1909,0.2,0.62,0.76,0.24,-1.4,-2.99,415,451,387,360,252
1910,0.18,0.65,0.78,-0.06,-3.66,-3.36,417,449,394,360,251
1911,0.19,0.62,0.76,0.49,-2.26,-2.2,423,444,389,358,250
1912,0.18,0.63,0.77,1.22,-2.38,-2.01,420,447,387,363,249
1913,0.2,0.64,0.76,-0.24,-3.42,-2.69,423,446,392,361,251
1914,0.19,0.61,0.75,3.11,-2.38,-1.65,411,443,394,365,246
1915,0.18,0.65,0.75,1.1,-2.5,-1.46,415,451,391,365,253
1916,0.18,0.64,0.76,0.92,-3.11,-2.81,418,449,394,365,255
1917,0.17,0.64,0.75,0.12,-3.42,-3.72,420,446,388,367,249
1918,0.16,0.64,0.73,-1.04,-4.03,-1.4,419,448,389,367,253
1919,0.17,0.66,0.76,-0.37,-3.3,-1.34,421,447,390,368,253
1920,0.16,0.67,0.77,-0.73,-3.17,-3.36,422,445,391,365,251
1921,0.17,0.65,0.75,2.32,-2.56,-2.81,427,445,389,361,250
1922,0.16,0.65,0.74,1.83,-3.6,-1.53,416,446,393,368,247
1923,0.17,0.66,0.75,-0.92,-2.69,-0.79,421,440,387,364,251
1924,0.18,0.65,0.75,-0.85,-2.69,-1.95,419,456,386,367,250
1925,0.18,0.65,0.75,-0.18,-2.14,-2.2,421,447,388,366,248
1926,0.17,0.65,0.75,-0.06,-2.62,-2.87,423,451,382,365,250
1927,0.17,0.65,0.76,0.55,-3.91,-2.62,416,440,385,365,251
1928,0.18,0.64,0.75,0.12,-2.93,-2.81,417,444,386,372,249
1929,0.17,0.65,0.76,0.37,-2.81,-2.2,423,446,386,362,253
1930,0.18,0.65,0.76,0.0,-2.81,-1.89,420,444,388,367,254
1931,0.18,0.65,0.76,0.18,-2.87,-2.93,418,451,386,365,253
1932,0.17,0.64,0.76,1.16,-3.97,-2.69,423,450,387,364,254
1933,0.17,0.63,0.76,0.67,-2.2,-2.08,420,449,389,368,251
1934,0.18,0.64,0.76,0.43,-2.56,-2.56,421,445,387,365,254
1935,0.18,0.64,0.76,1.16,-1.77,-3.11,422,450,387,365,250
1936,0.18,0.64,0.76,0.18,-4.21,-2.44,420,450,385,368,250
1937,0.18,0.64,0.76,0.73,-3.36,-1.71,419,446,387,364,252
1938,0.18,0.64,0.76,0.98,-3.54,-1.89,420,447,386,367,250
1939,0.18,0.64,0.76,0.0,-3.78,-2.56,415,451,390,366,253
1940,0.19,0.64,0.76,-0.12,-3.23,-2.01,418,441,386,363,253
1941,0.18,0.64,0.77,0.79,-2.75,-2.26,415,443,386,362,252
1942,0.17,0.63,0.76,0.06,-2.38,-2.56,419,450,387,368,255
1943,0.18,0.63,0.76,0.49,-3.23,-0.92,416,448,384,369,253
1944,0.18,0.65,0.76,-2.93,-3.6,-3.23,418,448,386,369,249
1945,0.17,0.64,0.76,1.28,-2.26,-2.26,419,446,393,372,250
1946,0.18,0.65,0.75,3.54,-5.0,-1.4,421,447,391,364,247
1947,0.18,0.65,0.75,1.77,-3.66,-2.62,418,445,386,365,252
1948,0.19,0.67,0.75,1.4,-2.81,-2.2,419,443,385,364,247
1949,0.19,0.65,0.75,-1.89,-1.34,-1.1,415,446,386,367,252
1950,0.19,0.66,0.76,-6.29,-1.95,3.91,417,451,384,365,249
1951,0.24,0.63,0.77,-9.22,-0.55,6.96,420,447,387,369,250
1952,0.21,0.61,0.78,3.23,-2.75,-4.64,416,450,384,367,245
1953,0.22,0.61,0.78,1.95,-3.66,-3.3,416,448,386,366,249
1954,0.21,0.61,0.79,0.31,-2.08,-1.46,418,441,385,361,252
1955,0.22,0.6,0.78,-1.28,-5.31,-2.08,414,448,383,362,251
1956,0.23,0.6,0.78,-0.12,-3.48,-1.95,418,444,379,361,251
1957,0.22,0.6,0.78,-2.08,-3.05,-2.69,418,448,382,363,253
1958,0.22,0.6,0.79,-0.12,-2.26,-2.75,419,451,383,366,251
1959,0.22,0.61,0.78,-0.37,-2.26,-2.56,416,446,381,364,259
1960,0.22,0.62,0.77,1.16,-2.08,-3.6,414,446,381,363,248
1961,0.22,0.62,0.78,0.43,-3.23,-2.56,417,441,381,372,250
1962,0.21,0.61,0.78,-0.06,-3.97,-2.5,416,448,382,361,253
1963,0.22,0.62,0.78,1.77,-3.72,-2.44,419,452,379,364,250
1964,0.22,0.62,0.78,0.43,-3.48,-1.59,414,448,380,363,253
1965,0.22,0.62,0.77,1.59,-2.75,-3.36,417,448,388,364,252
1966,0.22,0.62,0.78,-1.34,-1.1,-2.44,420,458,381,364,259
1967,0.21,0.63,0.78,2.38,-0.55,-3.6,418,445,380,366,250
1968,0.15,0.65,0.77,10.31,4.09,-8.06,417,455,387,365,253
1969,0.13,0.69,0.71,16.42,-5.31,-4.82,414,454,390,366,252
1970,0.16,0.81,0.62,6.29,-4.94,-8.48,418,454,392,366,254
1971,0.12,0.8,0.61,-0.06,-0.98,-2.44,420,454,388,366,255
1972,0.07,0.83,0.64,-7.81,-9.16,-11.84,420,454,390,370,252
1973,0.11,0.75,0.65,-1.46,-3.17,-1.53,416,448,388,366,253
1974,0.1,0.77,0.65,-3.48,-0.85,-1.22,421,458,392,374,251
1975,0.12,0.75,0.68,-0.12,-4.15,-4.7,417,456,391,366,254
1976,0.12,0.74,0.65,3.36,-4.27,-1.34,422,455,391,368,250
1977,0.14,0.75,0.65,-1.89,-3.23,-0.06,416,455,394,368,253
1978,0.14,0.75,0.65,-0.06,-2.69,-2.2,418,457,390,368,253
1979,0.13,0.75,0.66,0.18,-2.81,-2.32,418,455,392,365,255
1980,0.13,0.75,0.66,-0.24,-1.95,-2.08,420,453,393,368,255
1981,0.13,0.75,0.65,-0.85,-2.62,-4.88,419,456,394,365,256
1982,0.12,0.74,0.67,-2.26,-3.42,-1.89,414,456,392,366,251
1983,0.13,0.75,0.67,1.34,-3.91,-1.28,418,453,389,369,255
1984,0.13,0.75,0.66,1.22,-3.23,-1.83,419,452,393,363,254
1985,0.12,0.74,0.67,0.85,-2.62,-0.85,419,454,390,367,256
1986,0.13,0.76,0.67,0.37,-1.89,-3.11,417,448,392,367,272
1987,0.15,0.73,0.66,-1.04,-7.02,-7.57,420,454,390,367,253
1988,0.13,0.74,0.67,0.37,-2.32,-2.75,417,454,391,366,254
1989,0.12,0.75,0.68,0.61,-3.6,-3.17,421,451,392,364,257
1990,0.11,0.74,0.67,1.77,-1.83,-2.26,422,450,391,367,253
1991,0.12,0.75,0.68,3.48,0.24,0.12,420,452,392,371,254
1992,0.14,0.75,0.67,0.12,-1.89,-3.42,414,448,389,366,254
1993,0.13,0.73,0.66,0.06,-3.36,-1.71,416,456,392,370,254
1994,0.11,0.74,0.67,1.28,-0.85,-2.99,415,453,392,366,253
1995,0.12,0.74,0.69,1.1,-4.15,-2.93,419,456,392,369,257
1996,0.12,0.72,0.66,1.16,-5.13,-0.98,417,453,393,363,255
1997,0.14,0.76,0.69,0.37,-0.37,-2.5,419,452,391,366,251
1998,0.16,0.72,0.67,3.42,-5.49,3.54,420,452,391,364,254
1999,0.17,0.72,0.67,6.35,-2.32,-3.23,417,448,392,366,253
2000,0.2,0.74,0.71,4.46,-2.5,-1.65,418,456,390,365,254
2001,0.2,0.75,0.68,7.2,4.64,-7.32,419,452,389,366,253
2002,0.17,0.73,0.69,-0.85,-1.4,-2.5,418,452,387,365,255
2003,0.17,0.72,0.68,0.73,-2.62,-3.36,419,453,388,367,253
2004,0.18,0.72,0.67,12.15,-1.1,-1.77,419,455,389,364,265
2005,0.18,0.73,0.66,0.49,-1.83,-3.3,418,452,391,363,255
2006,0.18,0.72,0.66,-1.65,-0.92,-3.42,418,452,390,364,253
2007,0.17,0.74,0.68,-1.16,-1.1,-3.48,417,456,388,369,255
2008,0.17,0.72,0.68,0.31,-2.62,-2.38,420,451,390,366,252
2009,0.17,0.72,0.69,-0.43,-3.23,-3.78,419,448,390,364,253
2010,0.17,0.72,0.68,-0.67,-3.85,-1.4,419,453,392,365,254
2011,0.18,0.73,0.68,-0.67,-3.11,-1.59,419,454,387,366,253
