,aX,aY,aZ,gX,gY,gZ,little,ring,middle,index,thumb
0,0.92,-0.31,0.24,1.34,-2.5,-2.69,322,464,416,479,229
1,0.92,-0.3,0.24,2.14,-3.36,-1.46,320,463,417,478,233
2,0.9,-0.34,0.22,-0.55,-1.77,1.59,323,467,419,483,233
3,0.95,-0.35,0.22,-2.69,-2.81,-6.71,326,462,416,481,234
4,0.92,-0.35,0.21,-0.37,-6.41,1.71,320,472,417,481,231
5,0.93,-0.33,0.23,-5.49,-3.66,3.72,321,456,416,482,234
6,0.91,-0.36,0.2,3.85,-3.6,-5.0,325,460,413,482,232
7,0.93,-0.35,0.2,-0.24,2.75,-3.3,321,455,414,481,235
8,0.93,-0.35,0.21,2.2,-3.3,-7.75,325,455,414,477,235
9,0.96,-0.44,0.2,23.44,-1.04,-9.83,325,454,414,475,233
10,0.66,-0.54,0.35,11.84,-2.32,11.41,324,465,413,481,268
11,0.93,-0.31,0.25,2.14,-4.39,10.99,327,459,416,477,236
12,0.92,-0.35,0.27,-0.92,-0.49,-3.42,330,458,414,476,243
13,0.91,-0.34,0.27,0.06,-0.67,-6.53,327,464,414,478,244
14,0.92,-0.31,0.29,-9.58,4.03,2.69,330,459,415,478,240
15,0.89,-0.35,0.29,1.1,-3.11,-3.23,329,459,431,476,240
16,0.91,-0.37,0.28,-7.57,1.83,1.53,328,458,419,476,243
17,0.88,-0.35,0.33,-1.16,0.55,-3.6,331,459,416,480,240
18,0.87,-0.4,0.28,-2.01,-0.73,0.18,331,456,415,479,243
19,0.89,-0.39,0.3,1.28,2.5,-1.28,330,464,412,480,245
20,0.9,-0.41,0.29,8.73,-5.8,10.74,330,458,413,482,245
21,0.89,-0.43,0.29,6.23,-3.66,2.81,329,460,412,481,246
22,0.85,-0.44,0.3,0.92,-0.92,-6.23,331,452,414,480,242
23,0.83,-0.38,0.37,4.03,4.94,-8.24,334,456,415,480,242
24,0.87,-0.32,0.44,1.95,-3.66,-0.85,331,454,414,480,241
25,0.87,-0.35,0.41,3.23,-2.87,-0.85,331,460,418,477,241
26,0.84,-0.36,0.4,3.72,-4.09,-1.28,331,459,414,478,244
27,0.85,-0.38,0.4,-4.09,2.32,-8.73,331,455,418,479,242
28,0.85,-0.35,0.39,0.55,-3.17,-2.14,332,456,416,480,246
29,0.87,-0.34,0.4,0.49,-1.1,-3.05,332,459,418,481,246
30,0.86,-0.35,0.41,5.25,-2.14,-6.23,329,457,416,479,245
31,0.85,-0.34,0.41,2.69,-2.32,-2.69,330,452,416,478,241
32,0.85,-0.34,0.4,-0.85,-2.5,-3.72,330,461,418,478,241
33,0.86,-0.34,0.4,0.55,-3.17,-2.14,331,458,422,480,242
34,0.87,-0.33,0.41,0.61,-2.56,-2.2,332,452,417,481,245
35,0.86,-0.34,0.41,-0.18,-2.5,-2.38,333,462,421,475,242
36,0.85,-0.33,0.41,1.46,-2.69,-2.14,330,460,417,477,245
37,0.87,-0.33,0.41,-0.37,-3.05,-2.32,332,451,418,482,243
38,0.87,-0.32,0.42,-7.57,-3.36,-2.93,327,460,420,480,243
39,0.86,-0.39,0.38,5.8,4.7,-1.53,333,461,417,480,245
40,0.88,-0.36,0.4,6.41,-3.11,-2.08,330,458,415,480,242
41,0.85,-0.36,0.39,4.7,-7.57,-4.7,329,457,419,488,241
42,0.86,-0.33,0.39,0.06,-1.71,-4.88,331,460,419,475,243
43,0.87,-0.33,0.4,-0.61,-2.14,-1.1,331,462,419,479,245
44,0.86,-0.33,0.41,-0.06,-2.26,-2.62,331,462,418,475,247
45,0.85,-0.33,0.4,0.31,-3.85,-1.89,332,458,419,478,245
46,0.87,-0.32,0.41,-1.65,-3.23,-0.06,333,461,417,480,245
47,0.86,-0.33,0.41,2.81,-0.98,-1.59,332,457,415,477,246
48,0.87,-0.34,0.39,-0.31,-4.58,-4.7,334,460,419,484,253
49,0.88,-0.34,0.4,0.0,-3.6,-0.55,329,461,416,480,247
50,0.85,-0.34,0.4,-4.88,-2.01,-6.16,330,451,418,477,245
51,0.86,-0.34,0.41,2.26,-3.48,-2.32,335,455,416,478,248
52,0.85,-0.35,0.39,-0.85,-2.56,-2.01,335,453,417,480,254
53,0.86,-0.36,0.38,1.71,-2.62,-2.08,331,455,416,478,243
54,0.8,-0.37,0.41,-0.49,-1.65,-1.16,332,454,418,479,247
55,0.95,-0.3,0.38,2.99,0.55,-3.97,334,459,421,476,249
56,0.9,-0.31,0.39,0.12,-1.59,-15.99,338,463,424,477,255
57,0.89,-0.29,0.38,6.41,-14.04,3.91,334,463,416,470,240
58,0.84,-0.31,0.4,2.08,8.79,-6.23,335,461,418,476,247
59,0.88,-0.31,0.41,-4.27,-2.62,-1.22,334,458,420,473,246
60,0.88,-0.32,0.4,0.55,-7.14,-1.83,338,455,418,475,252
61,0.86,-0.33,0.41,-2.99,-2.81,0.37,338,457,421,476,250
62,0.85,-0.33,0.42,-2.08,2.5,-4.33,338,454,416,477,247
63,0.85,-0.32,0.43,-1.16,-3.85,-3.05,342,455,419,474,250
64,0.86,-0.32,0.42,1.22,-4.64,-2.32,335,458,422,477,250
65,0.85,-0.32,0.43,0.61,-3.91,-2.38,338,450,420,477,254
66,0.87,-0.32,0.43,-0.18,-4.64,-2.2,337,459,422,479,251
67,0.87,-0.32,0.42,2.26,-2.56,-2.32,338,462,419,477,247
68,0.87,-0.32,0.42,0.55,-2.44,-2.87,338,460,420,480,249
69,0.86,-0.32,0.43,-1.4,-3.05,-1.83,339,457,418,478,249
70,0.84,-0.33,0.42,-0.73,-2.32,-1.16,336,458,420,479,249
71,0.85,-0.33,0.43,0.92,-3.05,-1.89,336,458,419,479,248
72,0.84,-0.33,0.43,0.06,-3.36,-3.36,339,457,421,474,251
73,0.86,-0.35,0.41,2.81,-2.26,-4.82,338,457,422,477,250
74,0.85,-0.33,0.42,0.92,-2.93,-2.44,339,457,419,479,246
75,0.86,-0.33,0.43,1.22,-2.5,-2.5,341,458,420,474,251
76,0.87,-0.32,0.42,0.43,-4.03,-2.69,340,458,420,478,250
77,0.86,-0.33,0.43,1.83,-3.11,-2.56,339,460,416,480,251
78,0.87,-0.33,0.42,3.05,-3.17,-2.38,339,460,422,477,259
79,0.85,-0.32,0.43,0.31,-3.05,-3.17,340,451,420,478,250
80,0.85,-0.33,0.42,1.53,-2.93,-3.23,339,458,417,475,250
81,0.85,-0.34,0.42,-0.12,-3.17,-1.46,339,456,422,479,250
82,0.87,-0.32,0.42,0.24,-3.6,-2.99,337,452,418,476,251
83,0.86,-0.31,0.42,3.3,-3.17,-4.09,339,455,422,478,252
84,0.85,-0.32,0.44,1.04,-2.44,-2.26,337,459,421,477,251
85,0.85,-0.32,0.43,-0.43,-3.23,-2.5,335,460,419,479,249
86,0.85,-0.32,0.43,0.61,-2.56,-1.77,340,457,421,488,250
87,0.86,-0.32,0.43,1.1,-2.75,-2.08,335,452,419,478,249
88,0.86,-0.32,0.43,4.46,-2.87,-2.62,341,455,422,478,250
89,0.85,-0.32,0.42,-0.49,-4.33,-2.62,338,458,420,476,248
90,0.87,-0.3,0.43,1.89,-3.23,-2.81,337,454,422,477,249
91,0.87,-0.31,0.43,-0.49,-3.72,-3.42,338,459,422,473,250
92,0.87,-0.29,0.44,1.04,-2.62,0.12,340,458,428,479,252
93,0.87,-0.3,0.44,-0.31,-3.54,-2.14,338,454,420,476,253
94,0.86,-0.32,0.43,2.38,-2.26,-2.62,338,455,422,478,250
95,0.86,-0.32,0.44,-1.65,-3.78,-2.32,339,468,418,479,251
96,0.86,-0.32,0.43,1.22,-2.62,-2.62,340,449,419,479,251
97,0.85,-0.32,0.44,2.01,-2.2,-2.69,340,455,418,474,252
98,0.86,-0.31,0.44,1.53,-3.17,-2.56,340,455,419,475,251
99,0.85,-0.31,0.44,-0.18,-0.55,-4.58,338,452,420,479,253
100,0.84,-0.31,0.44,0.18,-2.69,-2.44,336,455,419,473,254
101,0.84,-0.32,0.44,0.06,-3.05,-2.14,342,454,417,478,268
102,0.85,-0.31,0.45,-0.49,-1.71,-2.01,338,459,419,479,252
103,0.84,-0.32,0.45,-2.2,-2.2,-3.11,336,452,415,477,249
104,0.86,-0.31,0.45,2.38,-3.42,-2.56,338,449,422,476,251
105,0.85,-0.33,0.44,0.06,-3.3,-3.36,338,452,420,480,255
106,0.86,-0.31,0.45,-1.16,-2.56,-5.68,337,453,421,476,251
107,0.86,-0.31,0.46,1.04,-3.48,-2.5,339,452,422,479,252
108,0.85,-0.31,0.45,0.12,-3.91,-1.89,336,454,422,484,254
109,0.85,-0.31,0.45,1.16,-2.81,-3.17,339,454,419,475,252
110,0.85,-0.31,0.45,-0.12,-3.23,-3.23,335,453,421,476,250
111,0.84,-0.32,0.46,-0.85,-3.54,-2.44,335,454,427,473,252
112,0.85,-0.3,0.48,-1.59,-3.6,-0.92,343,454,423,472,254
113,0.83,-0.3,0.48,1.04,-2.38,-0.67,338,453,419,476,255
114,0.87,-0.31,0.45,-2.32,-4.94,-0.98,339,449,422,475,255
115,0.81,-0.35,0.48,2.81,-0.18,1.22,336,454,418,474,247
116,0.84,-0.35,0.46,2.99,-3.66,-4.27,336,454,422,479,250
117,0.84,-0.34,0.46,0.0,-3.17,-2.2,340,454,419,478,253
118,0.82,-0.35,0.46,0.79,-3.05,-2.99,339,456,420,474,252
119,0.83,-0.34,0.47,1.28,-3.6,-3.17,339,455,419,477,252
120,0.83,-0.34,0.47,1.4,-3.3,-2.93,339,452,423,476,259
121,0.83,-0.34,0.46,0.43,-2.56,-3.54,347,455,419,474,250
122,0.84,-0.33,0.47,-0.55,-2.56,-2.01,338,452,420,477,253
123,0.83,-0.34,0.46,0.98,-3.3,-2.62,340,454,416,476,255
124,0.84,-0.33,0.46,0.73,-3.42,-2.5,339,454,420,473,251
125,0.83,-0.34,0.45,-1.22,-2.69,-2.32,340,456,423,475,254
126,0.84,-0.35,0.45,1.34,-2.69,-1.83,337,454,421,475,249
127,0.83,-0.33,0.47,0.79,-2.87,-2.93,337,452,420,475,255
128,0.84,-0.34,0.46,1.34,-3.6,-3.6,335,453,422,474,252
129,0.85,-0.33,0.45,0.18,-2.81,-3.05,339,457,422,476,250
130,0.83,-0.32,0.47,-0.31,-2.81,-2.93,335,452,420,479,251
131,0.84,-0.32,0.46,1.28,-2.99,-2.56,341,471,421,475,252
132,0.84,-0.33,0.45,0.0,-3.05,-2.81,342,454,421,477,251
133,0.84,-0.34,0.44,0.55,-2.56,-2.44,341,450,423,473,251
134,0.83,-0.34,0.45,2.81,-12.82,4.39,342,456,422,477,251
135,0.84,-0.31,0.46,0.98,-3.91,-3.23,340,450,421,479,251
136,0.83,-0.35,0.43,-1.16,-3.11,-0.85,339,453,420,477,255
137,0.84,-0.33,0.46,0.12,-2.93,-2.38,340,456,417,472,255
138,0.84,-0.32,0.46,0.85,-3.23,-3.17,351,454,420,476,254
139,0.84,-0.33,0.45,-1.16,-2.87,-3.42,341,455,423,478,253
140,0.83,-0.32,0.46,0.37,-3.23,-2.08,338,456,431,476,250
141,0.84,-0.33,0.46,0.79,-2.62,-2.32,342,455,421,474,255
142,0.84,-0.33,0.45,-1.71,-3.78,-3.11,340,455,417,479,250
143,0.84,-0.33,0.45,-1.22,-3.17,-2.87,339,454,420,479,254
144,0.84,-0.33,0.46,1.22,-2.93,-3.3,336,454,420,477,253
145,0.87,-0.32,0.45,0.67,-3.05,-2.69,338,456,421,481,252
146,0.85,-0.32,0.45,0.61,-2.38,-2.08,338,449,421,473,251
147,0.84,-0.32,0.46,-0.31,-3.11,-2.14,345,456,420,475,254
148,0.86,-0.32,0.44,-0.37,-1.95,-1.83,338,452,420,472,252
149,0.84,-0.32,0.45,-0.31,-2.93,-1.95,336,457,421,473,252
150,0.84,-0.33,0.44,-1.1,-4.03,-2.38,337,455,417,476,253
151,0.85,-0.32,0.44,1.22,-1.95,-2.01,339,458,418,476,251
152,0.86,-0.32,0.44,-0.92,-2.56,-2.26,338,457,421,472,255
153,0.83,-0.33,0.45,1.1,-2.62,-3.66,336,453,419,475,255
154,0.84,-0.32,0.46,0.31,-3.54,-3.05,340,457,420,476,257
155,0.85,-0.33,0.43,-1.34,-4.09,-1.95,340,465,417,477,250
156,0.84,-0.34,0.44,-0.43,-2.26,-3.05,337,456,419,480,252
157,0.84,-0.34,0.44,2.2,-4.7,-3.36,340,457,420,475,255
158,0.84,-0.32,0.45,1.28,-2.2,-2.99,340,454,419,478,253
159,0.84,-0.33,0.44,0.12,-3.54,-1.77,338,448,420,475,252
160,0.86,-0.32,0.44,-0.55,-2.69,-2.32,340,452,421,478,256
161,0.84,-0.33,0.44,-0.12,-3.36,-1.89,338,449,420,479,250
162,0.85,-0.33,0.44,1.77,-2.75,-2.62,345,451,420,473,253
163,0.85,-0.32,0.44,1.16,-2.69,-2.75,340,453,422,477,256
164,0.84,-0.32,0.45,1.28,-2.38,-3.05,341,453,420,475,253
165,0.84,-0.33,0.44,-0.49,-2.5,-2.75,338,453,422,475,254
166,0.87,-0.32,0.41,-1.65,-2.08,-2.93,338,454,422,493,254
167,0.85,-0.32,0.44,0.61,-3.3,-1.53,342,450,423,475,254
168,0.8,-0.32,0.46,-2.26,-16.66,-1.46,339,457,424,473,251
169,0.87,-0.32,0.4,-1.4,-1.95,-3.48,338,469,422,471,251
170,0.88,-0.32,0.39,-0.37,-3.91,-2.26,339,454,419,475,255
171,0.88,-0.31,0.39,0.18,-3.3,-1.28,339,463,418,476,254
172,0.89,-0.3,0.4,-0.37,-2.38,-2.01,341,456,421,474,257
173,0.86,-0.32,0.4,0.79,-2.56,-2.5,342,453,424,478,254
174,0.86,-0.32,0.39,0.79,-2.99,-1.83,339,453,422,471,254
175,0.88,-0.32,0.39,-1.22,-2.32,-2.99,340,451,424,475,257
176,0.87,-0.31,0.4,1.28,-2.87,-2.26,340,457,421,475,256
177,0.87,-0.31,0.4,3.23,-3.36,-2.99,338,451,419,475,252
178,0.86,-0.32,0.4,-0.43,-3.05,-2.75,340,453,429,473,253
179,0.87,-0.31,0.4,0.85,-2.62,-2.81,340,452,417,479,250
180,0.89,-0.3,0.4,2.26,-4.09,-1.4,341,452,420,472,255
181,0.86,-0.3,0.41,0.92,-3.11,-3.05,339,449,420,478,256
182,0.87,-0.3,0.42,0.92,-2.62,-2.69,337,456,432,473,255
183,0.87,-0.31,0.4,0.61,-3.05,-2.62,338,451,423,476,267
184,0.87,-0.31,0.41,1.53,-2.81,-3.54,338,451,421,471,254
185,0.87,-0.3,0.41,0.31,-2.87,-1.95,340,453,422,474,257
186,0.86,-0.31,0.41,2.32,-3.11,-2.2,341,454,423,474,257
187,0.88,-0.3,0.41,1.4,-2.5,-2.26,340,453,422,472,257
188,0.87,-0.3,0.41,-0.61,-2.56,-2.01,339,457,416,475,255
189,0.84,-0.31,0.43,3.23,-1.83,-2.26,343,449,421,474,257
190,0.85,-0.3,0.42,1.65,-3.85,-4.03,339,454,422,477,254
191,0.88,-0.28,0.42,0.0,-3.17,-2.69,339,448,423,474,255
192,0.86,-0.29,0.42,-0.49,-3.36,-1.22,338,446,421,476,255
193,0.89,-0.29,0.41,0.24,-2.87,-2.69,340,452,418,475,255
194,0.87,-0.31,0.4,-0.06,-3.42,-1.77,336,456,418,474,255
195,0.87,-0.29,0.42,0.73,-2.87,-2.99,337,452,419,472,258
196,0.88,-0.29,0.42,-0.06,-2.2,-3.91,340,452,419,473,255
197,0.86,-0.28,0.44,0.49,-2.62,-2.2,340,448,417,473,255
198,0.87,-0.3,0.42,-1.71,-4.21,-4.03,338,452,420,474,258
199,0.87,-0.3,0.41,1.04,-2.69,-3.48,339,446,417,476,258
200,0.86,-0.3,0.42,1.4,-3.3,-3.11,336,451,422,477,256
201,0.87,-0.3,0.41,2.5,-1.77,-2.01,341,452,422,471,260
202,0.88,-0.29,0.42,-0.55,-3.6,-2.38,339,446,419,472,257
203,0.88,-0.29,0.42,1.28,-3.72,-3.66,339,451,421,476,252
204,0.87,-0.3,0.42,0.61,-3.05,-3.3,339,449,420,477,257
205,0.87,-0.3,0.42,0.67,-3.42,-3.23,335,455,420,473,260
206,0.87,-0.3,0.41,0.73,-2.69,-3.05,340,446,423,474,259
207,0.87,-0.29,0.42,1.1,-3.48,-2.75,340,447,420,472,255
208,0.88,-0.29,0.43,4.21,-2.81,-2.56,340,455,419,473,258
209,0.86,-0.29,0.44,0.12,-3.3,-2.44,341,452,422,473,260
210,0.86,-0.29,0.44,1.83,-3.42,-2.38,341,455,421,471,261
211,0.87,-0.28,0.43,1.59,-3.42,-3.23,343,456,420,474,266
212,0.87,-0.28,0.43,1.1,-2.2,-2.5,338,462,421,475,259
213,0.87,-0.28,0.43,-0.73,-3.85,-2.75,337,461,414,473,254
214,0.88,-0.28,0.43,1.46,-3.66,-1.95,340,456,425,474,262
215,0.87,-0.29,0.42,1.1,-3.36,-3.23,337,458,424,477,258
216,0.86,-0.29,0.43,2.2,-2.99,-2.62,339,453,420,475,260
217,0.87,-0.29,0.42,2.69,-3.42,-2.38,344,452,423,473,258
218,0.87,-0.29,0.42,2.93,-4.64,0.18,336,456,433,476,262
219,0.87,-0.29,0.42,-2.08,-3.17,-2.81,340,467,419,475,259
220,0.86,-0.29,0.42,2.08,-2.56,-2.5,341,457,419,474,264
221,0.87,-0.28,0.43,2.69,-3.48,-2.32,342,455,420,473,262
222,0.87,-0.28,0.42,0.37,-3.6,-3.36,343,455,416,477,261
223,0.87,-0.26,0.43,1.4,-3.17,-3.11,345,460,421,479,261
224,0.88,-0.26,0.43,2.01,-4.33,-3.6,342,459,420,474,252
225,0.89,-0.25,0.44,-1.04,-6.04,-4.33,341,455,417,476,262
226,0.88,-0.26,0.43,3.72,-1.77,-2.5,343,456,423,474,264
227,0.88,-0.27,0.43,0.31,-3.17,-2.81,343,454,430,473,264
228,0.89,-0.24,0.44,2.08,-2.93,-2.01,342,455,420,475,262
229,0.9,-0.26,0.42,-1.28,-2.99,-2.62,341,456,420,474,263
230,0.89,-0.26,0.43,1.83,-3.72,-3.97,342,456,420,470,263
231,0.89,-0.25,0.43,1.89,-4.33,-2.75,342,455,420,476,264
232,0.87,-0.26,0.43,-0.18,-3.05,-2.56,341,456,421,474,264
233,0.89,-0.26,0.42,2.14,-2.69,-3.3,342,456,423,474,263
234,0.89,-0.26,0.43,-0.12,-3.17,-2.62,341,459,418,475,263
235,0.87,-0.26,0.43,-0.43,-2.56,-1.95,340,455,437,476,262
236,0.88,-0.27,0.42,0.67,-2.81,-3.42,342,458,419,475,263
237,0.87,-0.26,0.43,0.79,-2.87,-2.87,342,453,421,472,264
238,0.88,-0.26,0.43,0.79,-3.05,-1.71,341,459,416,471,265
239,0.88,-0.26,0.43,-0.49,-2.26,-2.5,341,452,422,475,263
240,0.91,-0.23,0.46,-11.41,-2.38,2.81,349,455,417,471,263
241,0.89,-0.27,0.44,1.34,-2.75,-2.87,342,450,418,477,264
242,0.86,-0.31,0.43,-12.94,2.81,4.82,340,455,420,475,265
243,0.82,-0.38,0.43,-2.81,-0.43,0.0,344,452,420,473,261
244,0.84,-0.37,0.43,-0.92,-3.91,-2.26,341,469,420,477,265
245,0.83,-0.37,0.44,0.85,-2.93,-3.6,342,460,420,474,261
246,0.84,-0.36,0.44,1.53,-3.91,-2.99,341,459,420,470,263
247,0.83,-0.36,0.43,1.53,-2.87,-3.54,341,454,417,474,264
248,0.83,-0.37,0.43,1.89,-2.99,-2.99,339,459,423,470,264
249,0.86,-0.32,0.46,2.87,-3.48,-4.09,342,451,423,476,266
250,0.85,-0.34,0.44,1.77,-3.11,-2.81,342,460,423,473,265
251,0.84,-0.34,0.44,-0.49,-2.69,-2.44,341,458,421,474,261
252,0.84,-0.35,0.44,0.67,-4.03,-2.62,342,453,420,476,265
253,0.85,-0.34,0.44,-0.92,-4.03,-1.65,341,465,418,476,266
254,0.84,-0.34,0.44,1.53,-2.75,-2.32,340,461,421,474,263
255,0.84,-0.35,0.43,1.22,-3.23,-2.26,343,457,421,471,263
256,0.84,-0.35,0.43,-2.56,-1.22,-2.01,343,455,422,476,265
257,0.85,-0.33,0.45,0.31,-2.5,-2.62,345,456,416,476,266
258,0.85,-0.34,0.44,-2.14,-1.4,-0.49,345,457,425,475,264
259,0.84,-0.35,0.44,0.49,-3.42,-0.49,338,459,418,476,267
260,0.84,-0.35,0.43,2.2,-3.3,-1.4,342,454,421,479,290
261,0.84,-0.36,0.43,0.0,-3.66,-2.87,346,455,417,475,264
262,0.84,-0.36,0.43,0.92,-3.54,-2.01,340,455,421,469,300
263,0.85,-0.35,0.44,-0.43,-4.39,-2.75,345,459,420,475,262
264,0.85,-0.34,0.44,-0.12,-2.75,-2.5,344,450,417,474,260
265,0.83,-0.35,0.45,1.95,-2.62,-2.14,344,452,418,478,265
266,0.84,-0.35,0.44,1.34,-2.62,-2.81,339,459,421,471,266
267,0.84,-0.34,0.45,1.16,-3.48,-2.81,341,459,420,470,269
268,0.84,-0.33,0.45,0.06,-3.23,-1.77,339,455,420,470,265
269,0.87,-0.32,0.45,0.0,-3.05,-2.38,343,458,422,473,268
270,0.85,-0.33,0.45,0.85,-3.72,-1.83,344,458,424,479,268
271,0.85,-0.34,0.44,0.73,-2.62,-1.83,339,458,421,470,266
272,0.84,-0.34,0.44,0.06,-3.36,-2.62,344,457,423,473,262
273,0.84,-0.33,0.45,2.32,-3.11,-1.77,341,463,420,476,262
274,0.85,-0.32,0.45,-1.59,-2.38,-3.17,345,455,420,476,264
275,0.84,-0.33,0.44,1.1,-3.17,-1.77,341,459,423,473,261
276,0.83,-0.34,0.44,0.61,-2.14,-2.38,343,454,419,471,265
277,0.84,-0.33,0.45,1.04,-1.89,-2.2,339,456,421,473,266
278,0.83,-0.34,0.45,-0.61,-3.3,-1.1,345,455,433,473,264
279,0.84,-0.34,0.45,0.24,-3.54,-2.87,345,454,423,477,267
280,0.84,-0.34,0.44,-0.18,-2.93,-3.36,347,456,420,472,268
281,0.84,-0.34,0.45,1.22,-2.87,-2.75,343,457,420,476,265
282,0.85,-0.33,0.45,-2.56,-3.11,-3.11,343,458,424,472,269
283,0.84,-0.34,0.44,1.34,-2.81,-2.26,342,452,420,469,266
284,0.84,-0.34,0.44,0.85,-3.85,-2.56,342,451,422,476,280
285,0.83,-0.33,0.45,-0.12,-1.95,-2.01,341,458,422,477,268
286,0.84,-0.33,0.45,-0.12,-1.83,0.31,343,453,420,473,265
287,0.86,-0.31,0.45,1.77,-3.23,-2.69,338,458,420,474,266
288,0.87,-0.33,0.42,-1.16,-2.32,-3.23,340,449,422,470,266
289,0.87,-0.32,0.43,1.1,-3.3,-4.76,346,453,417,471,268
290,0.85,-0.31,0.44,2.75,-1.53,-2.26,342,452,420,476,269
291,0.85,-0.33,0.43,0.43,-2.2,-2.26,345,452,422,473,269
292,0.86,-0.32,0.43,2.44,-2.81,-2.44,343,455,420,472,265
293,0.85,-0.33,0.42,6.1,-0.98,-2.56,343,454,422,475,266
294,0.84,-0.32,0.45,-0.06,-3.85,-3.11,343,453,421,469,268
295,0.85,-0.32,0.44,1.95,-2.81,-2.01,344,455,422,472,266
296,0.86,-0.32,0.44,-0.12,-2.99,-2.87,342,457,420,472,280
297,0.85,-0.31,0.45,2.69,-4.46,-6.16,345,451,420,473,266
298,0.85,-0.31,0.44,1.71,-3.48,-2.69,344,452,419,476,266
299,0.85,-0.31,0.44,1.83,-1.89,-2.01,342,458,416,475,268
300,0.86,-0.3,0.44,-0.24,-2.93,-2.56,342,454,421,473,265
301,0.86,-0.31,0.44,-0.31,-2.38,-2.2,341,454,422,473,266
302,0.84,-0.31,0.45,0.06,-2.01,-3.05,341,458,421,471,268
303,0.87,-0.3,0.44,1.1,-4.15,-3.42,343,455,425,473,264
304,0.85,-0.31,0.44,-2.38,-3.3,-3.17,343,452,417,474,267
305,0.85,-0.31,0.44,0.12,-3.11,-2.56,339,453,421,472,269
306,0.85,-0.3,0.45,1.46,-3.42,-2.32,344,449,420,473,270
307,0.86,-0.3,0.44,1.1,-4.15,-2.32,345,452,419,473,267
308,0.86,-0.31,0.43,-0.12,-2.26,-1.34,342,457,420,472,267
309,0.85,-0.32,0.44,0.0,-2.44,-1.22,344,454,423,467,269
310,0.85,-0.32,0.44,-0.43,-2.93,-3.42,343,457,421,473,268
311,0.85,-0.32,0.44,-0.18,-2.62,-1.53,342,456,420,472,269
312,0.84,-0.33,0.44,2.93,-2.2,-1.59,341,454,418,471,272
313,0.85,-0.34,0.44,2.38,-2.99,-1.83,343,453,422,473,271
314,0.85,-0.31,0.47,-6.47,-4.27,-4.03,345,455,418,475,267
315,0.84,-0.33,0.45,-0.67,-3.42,-1.95,343,453,414,470,270
316,0.84,-0.32,0.45,1.1,-2.99,-3.54,344,457,415,488,277
317,0.85,-0.32,0.45,-0.06,-3.54,-2.32,339,453,421,473,270
318,0.85,-0.31,0.46,0.85,-2.81,-2.75,343,458,421,472,272
319,0.85,-0.31,0.46,-0.85,-3.3,-1.71,343,452,420,475,270
320,0.84,-0.32,0.45,1.22,-2.81,-1.71,342,458,419,476,272
321,0.85,-0.31,0.45,1.04,-3.42,-1.34,341,455,419,470,270
322,0.83,-0.33,0.45,-0.37,-3.42,-2.14,342,456,417,470,272
323,0.83,-0.33,0.45,-0.06,-2.01,-2.99,344,459,431,469,271
324,0.84,-0.32,0.45,-0.06,-2.99,-3.42,338,453,419,474,272
325,0.84,-0.32,0.45,-0.79,-2.62,-2.2,343,459,420,471,270
326,0.85,-0.32,0.45,-0.31,-2.69,-2.44,339,457,418,470,271
327,0.87,-0.28,0.47,1.59,-3.17,-4.82,343,451,419,473,271
328,0.85,-0.3,0.46,0.92,-3.36,-3.05,343,459,417,469,270
329,0.85,-0.31,0.46,-0.18,-3.97,-1.46,344,450,418,473,273
330,0.85,-0.32,0.45,1.28,-3.05,-2.01,342,456,418,483,267
331,0.84,-0.33,0.45,-1.1,-1.83,-3.72,342,450,420,474,274
332,0.84,-0.32,0.45,0.98,-2.69,-2.75,343,458,419,473,270
333,0.85,-0.32,0.45,-0.18,-2.99,-2.93,337,451,419,473,266
334,0.86,-0.31,0.44,0.79,-2.38,-2.69,343,452,420,471,271
335,0.86,-0.31,0.45,-1.71,-2.75,-2.32,343,461,419,477,273
336,0.86,-0.3,0.45,0.67,-3.6,-3.3,342,460,417,469,274
337,0.86,-0.31,0.45,-0.18,-4.15,-2.38,342,453,418,476,272
338,0.86,-0.31,0.44,-1.77,-2.69,-2.75,343,456,422,475,273
339,0.86,-0.31,0.44,0.61,-1.77,-2.93,354,451,419,469,275
340,0.85,-0.31,0.43,2.26,-2.26,-2.69,344,457,422,471,273
341,0.86,-0.3,0.45,0.67,-2.38,-2.5,344,456,414,471,274
342,0.86,-0.3,0.45,-0.18,-3.6,-2.93,341,455,418,469,274
343,0.86,-0.29,0.45,0.55,-3.6,-2.81,340,461,419,468,272
344,0.86,-0.29,0.44,0.37,-3.42,-2.69,343,452,419,472,277
345,0.86,-0.3,0.44,0.12,-2.93,-2.5,343,455,416,475,274
346,0.87,-0.3,0.44,0.61,-3.66,-1.89,355,460,419,473,274
347,0.86,-0.29,0.44,0.31,-2.5,-3.11,340,459,422,472,274
348,0.86,-0.3,0.45,0.06,-3.17,-2.38,344,447,418,473,276
349,0.87,-0.29,0.45,-0.37,-3.23,-1.65,342,459,416,469,274
350,0.86,-0.29,0.45,5.13,-0.85,-3.05,343,451,419,475,276
351,0.85,-0.29,0.45,1.1,-3.54,-3.72,344,460,420,472,287
352,0.87,-0.28,0.46,-1.04,-3.36,-3.54,342,460,419,471,274
353,0.86,-0.29,0.45,1.65,-13.06,3.36,344,462,420,472,273
354,0.86,-0.29,0.45,0.06,-2.14,-2.62,345,457,421,468,282
355,0.83,-0.32,0.43,-4.15,-3.97,-6.04,345,459,422,472,276
356,0.89,-0.3,0.42,-9.52,-2.93,0.12,345,458,421,470,276
357,0.92,-0.26,0.41,-0.85,-10.07,-10.01,346,454,422,469,276
358,0.89,-0.26,0.41,3.42,0.06,-1.1,344,458,423,473,277
359,0.81,-0.34,0.43,-8.36,1.4,3.66,342,458,420,471,282
360,0.84,-0.33,0.44,0.24,-2.01,-1.46,343,460,419,470,296
361,0.83,-0.35,0.43,1.53,-5.31,-2.87,345,452,417,481,304
362,0.86,-0.37,0.39,-2.56,-5.92,-1.77,345,458,423,486,278
363,0.86,-0.36,0.39,0.92,-5.0,-0.31,344,456,422,471,275
364,0.85,-0.36,0.4,1.95,-2.69,-4.39,343,453,422,474,277
365,0.85,-0.36,0.41,1.04,-2.75,-1.65,341,457,419,468,280
366,0.86,-0.35,0.42,2.62,-3.42,-3.3,345,458,423,472,280
367,0.86,-0.36,0.39,0.31,-2.5,-2.93,338,461,422,472,280
368,0.84,-0.35,0.41,2.99,-2.56,-2.56,345,452,421,471,277
369,0.86,-0.34,0.41,1.59,-3.3,-3.54,351,459,421,472,278
370,0.81,-0.35,0.41,-0.12,-0.73,-4.94,343,457,424,471,276
371,0.85,-0.34,0.41,0.55,-4.09,-3.11,346,458,421,475,279
372,0.87,-0.33,0.41,0.18,-4.33,-1.83,345,458,422,475,278
373,0.86,-0.34,0.4,0.55,-3.42,-2.56,345,462,422,475,275
374,0.85,-0.33,0.41,1.53,-4.33,-1.59,347,458,426,470,279
375,0.84,-0.32,0.41,3.48,-0.73,-14.16,347,456,422,474,279
376,0.87,-0.32,0.41,0.85,-2.62,-2.69,345,452,422,473,278
377,0.87,-0.31,0.4,0.24,-2.69,-2.75,343,460,420,470,279
378,0.87,-0.3,0.42,0.12,-2.5,-2.81,345,460,422,470,283
379,0.86,-0.32,0.39,-3.36,-1.83,-1.34,347,458,420,470,278
380,0.87,-0.3,0.42,-0.06,-2.56,-1.4,344,457,423,474,275
381,0.87,-0.3,0.42,1.59,-3.78,-1.46,345,457,421,469,280
382,0.86,-0.31,0.42,1.53,-3.11,-2.44,345,457,423,471,277
383,0.88,-0.31,0.41,0.79,-2.99,-1.77,346,458,422,472,277
384,0.86,-0.29,0.39,8.24,-6.47,-8.48,346,452,422,475,277
385,0.88,-0.29,0.41,-1.04,-4.21,-1.71,342,455,423,471,278
386,0.88,-0.3,0.42,-9.4,1.4,0.55,345,457,418,475,277
387,0.88,-0.37,0.41,-20.51,11.66,-1.04,345,456,421,475,278
388,0.83,-0.44,0.35,-29.48,-10.56,-3.3,343,460,426,470,276
389,0.82,-0.52,0.25,13.73,-9.58,11.47,341,457,419,472,270
390,0.78,-0.52,0.31,-7.32,4.64,-1.71,340,460,424,479,269
391,0.85,-0.5,0.29,9.28,-4.15,-1.65,342,457,421,477,268
392,0.83,-0.5,0.31,-6.71,10.74,-6.23,342,460,421,469,271
393,0.78,-0.5,0.36,-0.31,-4.15,-0.98,333,453,421,464,271
394,0.8,-0.5,0.35,0.92,-3.78,-3.97,345,453,424,469,271
395,0.79,-0.5,0.36,1.89,-3.97,-2.62,342,454,417,472,274
396,0.7,-0.59,0.33,-9.4,22.03,-27.16,343,461,421,465,273
397,0.98,-0.26,0.34,11.84,-18.31,-6.35,343,453,421,467,275
398,0.9,-0.3,0.37,4.58,-8.3,0.18,342,460,421,465,271
399,0.86,-0.32,0.37,2.81,-6.59,0.61,341,455,424,472,271
400,0.87,-0.32,0.37,1.22,-2.87,-2.44,344,454,423,469,272
401,0.88,-0.32,0.38,3.72,-4.52,0.61,341,456,420,469,272
402,0.88,-0.32,0.36,4.15,-1.89,-1.89,341,460,421,469,281
403,0.88,-0.32,0.36,1.59,-3.6,-2.69,343,456,421,468,273
404,0.89,-0.31,0.36,1.83,-3.17,-2.56,341,455,423,472,276
405,0.88,-0.31,0.36,3.54,-1.53,-2.32,340,460,421,468,273
406,0.9,-0.32,0.34,-2.01,-4.7,0.18,338,459,427,468,273
407,0.89,-0.32,0.36,2.26,-3.17,-2.87,340,460,423,472,276
408,0.88,-0.31,0.37,2.38,-2.14,-2.26,343,454,422,470,276
409,0.88,-0.32,0.37,-0.55,-1.53,-3.17,340,456,421,469,279
410,0.89,-0.31,0.37,-1.16,-2.32,-1.71,341,455,424,467,274
411,0.87,-0.33,0.37,0.85,-2.87,-3.85,342,454,414,462,271
412,0.86,-0.32,0.33,-1.71,-11.35,-5.43,342,452,406,438,242
413,0.87,-0.3,0.38,12.08,-3.17,-0.43,340,455,406,453,229
414,0.88,-0.31,0.39,-1.16,-1.83,-2.93,334,449,419,465,239
415,0.88,-0.3,0.4,-1.1,-3.05,-2.69,337,450,413,465,243
416,0.88,-0.31,0.38,1.04,-5.07,-1.95,337,455,417,466,241
417,0.87,-0.3,0.41,0.79,-2.56,-2.93,338,450,418,468,253
418,0.89,-0.3,0.39,-0.31,-5.07,-2.38,338,455,417,469,244
419,0.88,-0.31,0.39,-0.18,-3.54,-3.91,341,449,416,470,246
420,0.89,-0.31,0.37,-0.12,-4.09,-3.91,336,456,419,473,243
421,0.88,-0.29,0.39,-3.17,-2.62,-0.98,339,448,419,465,241
422,0.88,-0.3,0.38,2.99,-3.36,-2.56,341,448,419,468,240
423,0.89,-0.29,0.38,5.86,-1.4,-0.43,340,449,416,478,247
424,0.88,-0.32,0.38,0.37,-2.08,-0.85,340,444,414,477,247
425,0.88,-0.31,0.38,3.05,-2.93,-0.37,344,448,421,468,247
426,0.88,-0.3,0.4,-0.98,-1.83,-1.83,339,444,419,467,248
427,0.88,-0.31,0.39,1.4,-2.69,-2.26,341,439,421,468,246
428,0.88,-0.31,0.39,-1.4,-3.66,-2.08,338,444,417,469,249
429,0.88,-0.3,0.4,-0.55,-2.5,-2.01,339,447,418,475,246
430,0.87,-0.31,0.4,1.4,-2.99,-2.69,340,446,418,468,245
431,0.89,-0.3,0.4,1.22,-2.69,-2.32,341,447,418,468,249
432,0.88,-0.31,0.4,0.92,-2.01,-1.83,341,448,417,466,248
433,0.87,-0.37,0.36,-0.79,-3.17,-1.89,340,439,418,471,248
434,0.88,-0.34,0.37,-1.1,6.53,-3.72,341,443,418,470,251
435,0.89,-0.33,0.37,-2.08,-3.54,-4.88,343,439,421,470,248
436,0.9,-0.33,0.37,-5.0,-2.14,-4.76,342,443,419,466,250
437,0.9,-0.31,0.37,-0.37,-3.66,-3.6,339,446,421,469,250
438,0.88,-0.31,0.39,0.31,-3.91,-2.2,340,443,420,471,251
439,0.87,-0.32,0.39,0.98,-2.14,-2.87,339,444,419,468,251
440,0.87,-0.32,0.39,0.73,-1.4,-3.97,340,446,417,470,252
441,0.87,-0.31,0.39,0.12,-0.18,-1.1,339,449,421,468,251
442,0.89,-0.3,0.4,0.73,-4.58,-2.26,341,443,419,466,252
443,0.86,-0.32,0.41,5.74,-3.72,-1.77,341,439,418,467,250
444,0.87,-0.33,0.39,1.04,-1.65,-3.3,340,448,422,467,255
445,0.87,-0.32,0.4,-0.49,-3.78,-4.21,342,443,418,471,259
446,0.88,-0.31,0.39,0.85,-3.54,-3.78,342,445,419,467,256
447,0.88,-0.31,0.4,-0.18,-3.36,-2.62,341,441,420,464,255
448,0.88,-0.32,0.4,0.85,-3.05,-2.01,338,448,418,468,262
449,0.86,-0.3,0.41,-1.1,-3.36,-1.1,341,444,423,463,254
450,0.87,-0.31,0.4,-1.95,-3.42,-2.62,340,442,418,468,256
451,0.87,-0.31,0.4,2.26,-3.78,-2.5,341,442,422,467,258
452,0.87,-0.31,0.39,2.14,-4.64,-2.44,339,447,418,471,253
453,0.87,-0.31,0.4,0.18,-2.62,-3.11,344,446,417,465,259
454,0.89,-0.31,0.4,-1.04,-3.78,-3.05,343,442,419,466,258
455,0.87,-0.3,0.39,1.46,-3.91,-2.08,340,446,420,469,258
456,0.88,-0.3,0.4,-0.12,-3.05,-2.69,341,442,420,467,257
457,0.88,-0.3,0.4,1.4,-2.32,-2.14,341,443,423,464,258
458,0.9,-0.29,0.39,-2.99,-1.22,-0.79,342,443,419,464,254
459,0.88,-0.3,0.4,-0.79,-3.3,-1.22,344,449,420,475,287
460,0.89,-0.3,0.39,0.12,-2.2,-3.17,344,445,418,468,258
461,0.88,-0.29,0.4,0.06,-2.38,-3.78,343,446,417,468,268
462,0.88,-0.3,0.4,-0.55,-2.38,-1.46,342,443,416,468,257
463,0.88,-0.3,0.4,0.0,-2.01,-2.44,341,447,418,476,261
464,0.87,-0.3,0.41,-0.18,-3.72,-2.2,343,450,418,463,260
465,0.88,-0.3,0.4,-0.31,-1.95,-1.95,341,447,419,463,257
466,0.87,-0.31,0.4,-0.24,-2.75,-2.14,339,447,421,467,258
467,0.87,-0.32,0.39,2.2,-3.72,-2.93,342,443,422,466,253
468,0.9,-0.29,0.4,1.95,-0.92,-2.2,341,445,421,468,258
469,0.84,-0.34,0.41,2.32,-0.98,1.89,341,450,418,467,259
470,0.86,-0.32,0.42,0.98,-1.46,-1.65,341,451,420,469,261
471,0.88,-0.31,0.41,-2.87,-4.33,-4.64,340,446,421,470,261
472,0.86,-0.32,0.42,-2.26,-1.16,-0.43,340,446,421,468,256
473,0.85,-0.33,0.43,0.61,-3.36,-1.65,339,452,421,466,258
474,0.87,-0.33,0.41,4.58,0.37,-1.34,341,442,422,467,261
475,0.83,-0.34,0.44,3.6,-2.93,-2.14,343,452,419,477,261
476,0.84,-0.34,0.47,3.23,-2.01,-2.38,342,447,423,468,259
477,0.82,-0.36,0.43,-1.04,-1.46,-1.95,349,446,420,467,261
478,0.83,-0.34,0.45,1.59,-0.24,0.67,341,444,422,469,259
479,0.83,-0.35,0.44,1.95,-2.56,-2.44,342,448,420,467,290
480,0.84,-0.34,0.45,1.71,-3.23,-0.98,337,449,421,470,262
481,0.85,-0.33,0.46,-1.53,-3.48,-2.38,342,446,420,467,262
482,0.84,-0.35,0.44,-2.32,-2.08,-2.08,339,451,420,464,259
483,0.84,-0.36,0.43,0.43,-3.66,-2.5,338,451,421,463,259
484,0.84,-0.33,0.45,2.62,-2.75,-2.56,341,444,423,468,263
485,0.84,-0.35,0.43,-1.71,-2.93,-5.19,342,450,416,464,259
486,0.86,-0.33,0.44,-0.43,-2.38,-2.26,342,450,421,469,261
487,0.86,-0.34,0.45,0.61,-1.89,-0.18,340,454,417,467,262
488,0.85,-0.35,0.43,0.0,-1.46,-1.22,344,450,421,467,261
489,0.84,-0.35,0.43,-0.06,-3.23,-2.5,341,451,420,465,264
490,0.83,-0.37,0.43,-1.4,-2.75,-1.83,344,450,419,465,265
491,0.84,-0.35,0.44,0.98,-2.44,-3.11,341,450,422,482,262
492,0.86,-0.32,0.45,2.75,-4.52,-3.97,342,449,422,468,265
493,0.86,-0.33,0.44,3.97,-6.23,-4.94,345,449,417,466,263
494,0.85,-0.32,0.44,6.84,-4.03,-5.19,342,449,418,467,263
495,0.86,-0.33,0.42,-2.5,-6.16,-3.23,340,450,424,467,262
496,0.86,-0.33,0.42,2.5,-3.36,-1.83,345,450,417,467,262
497,0.86,-0.34,0.42,3.3,-2.99,-1.71,339,443,420,470,265
498,0.86,-0.34,0.42,5.37,-12.88,1.65,343,450,424,466,264
499,0.85,-0.34,0.42,0.12,-2.62,-3.11,342,452,421,467,261
500,0.85,-0.33,0.43,-0.18,-3.72,-2.93,345,452,421,470,255
501,0.92,-0.31,0.24,1.34,-2.5,-2.69,322,464,416,479,229
502,0.92,-0.3,0.24,2.14,-3.36,-1.46,320,463,417,478,233
503,0.9,-0.34,0.22,-0.55,-1.77,1.59,323,467,419,483,233
504,0.95,-0.35,0.22,-2.69,-2.81,-6.71,326,462,416,481,234
505,0.92,-0.35,0.21,-0.37,-6.41,1.71,320,472,417,481,231
506,0.93,-0.33,0.23,-5.49,-3.66,3.72,321,456,416,482,234
507,0.91,-0.36,0.2,3.85,-3.6,-5.0,325,460,413,482,232
508,0.93,-0.35,0.2,-0.24,2.75,-3.3,321,455,414,481,235
509,0.93,-0.35,0.21,2.2,-3.3,-7.75,325,455,414,477,235
510,0.96,-0.44,0.2,23.44,-1.04,-9.83,325,454,414,475,233
511,0.66,-0.54,0.35,11.84,-2.32,11.41,324,465,413,481,268
512,0.93,-0.31,0.25,2.14,-4.39,10.99,327,459,416,477,236
513,0.92,-0.35,0.27,-0.92,-0.49,-3.42,330,458,414,476,243
514,0.91,-0.34,0.27,0.06,-0.67,-6.53,327,464,414,478,244
515,0.92,-0.31,0.29,-9.58,4.03,2.69,330,459,415,478,240
516,0.89,-0.35,0.29,1.1,-3.11,-3.23,329,459,431,476,240
517,0.91,-0.37,0.28,-7.57,1.83,1.53,328,458,419,476,243
518,0.88,-0.35,0.33,-1.16,0.55,-3.6,331,459,416,480,240
519,0.87,-0.4,0.28,-2.01,-0.73,0.18,331,456,415,479,243
520,0.89,-0.39,0.3,1.28,2.5,-1.28,330,464,412,480,245
521,0.9,-0.41,0.29,8.73,-5.8,10.74,330,458,413,482,245
522,0.89,-0.43,0.29,6.23,-3.66,2.81,329,460,412,481,246
523,0.85,-0.44,0.3,0.92,-0.92,-6.23,331,452,414,480,242
524,0.83,-0.38,0.37,4.03,4.94,-8.24,334,456,415,480,242
525,0.87,-0.32,0.44,1.95,-3.66,-0.85,331,454,414,480,241
526,0.87,-0.35,0.41,3.23,-2.87,-0.85,331,460,418,477,241
527,0.84,-0.36,0.4,3.72,-4.09,-1.28,331,459,414,478,244
528,0.85,-0.38,0.4,-4.09,2.32,-8.73,331,455,418,479,242
529,0.85,-0.35,0.39,0.55,-3.17,-2.14,332,456,416,480,246
530,0.87,-0.34,0.4,0.49,-1.1,-3.05,332,459,418,481,246
531,0.86,-0.35,0.41,5.25,-2.14,-6.23,329,457,416,479,245
532,0.85,-0.34,0.41,2.69,-2.32,-2.69,330,452,416,478,241
533,0.85,-0.34,0.4,-0.85,-2.5,-3.72,330,461,418,478,241
534,0.86,-0.34,0.4,0.55,-3.17,-2.14,331,458,422,480,242
535,0.87,-0.33,0.41,0.61,-2.56,-2.2,332,452,417,481,245
536,0.86,-0.34,0.41,-0.18,-2.5,-2.38,333,462,421,475,242
537,0.85,-0.33,0.41,1.46,-2.69,-2.14,330,460,417,477,245
538,0.87,-0.33,0.41,-0.37,-3.05,-2.32,332,451,418,482,243
539,0.87,-0.32,0.42,-7.57,-3.36,-2.93,327,460,420,480,243
540,0.86,-0.39,0.38,5.8,4.7,-1.53,333,461,417,480,245
541,0.88,-0.36,0.4,6.41,-3.11,-2.08,330,458,415,480,242
542,0.85,-0.36,0.39,4.7,-7.57,-4.7,329,457,419,488,241
543,0.86,-0.33,0.39,0.06,-1.71,-4.88,331,460,419,475,243
544,0.87,-0.33,0.4,-0.61,-2.14,-1.1,331,462,419,479,245
545,0.86,-0.33,0.41,-0.06,-2.26,-2.62,331,462,418,475,247
546,0.85,-0.33,0.4,0.31,-3.85,-1.89,332,458,419,478,245
547,0.87,-0.32,0.41,-1.65,-3.23,-0.06,333,461,417,480,245
548,0.86,-0.33,0.41,2.81,-0.98,-1.59,332,457,415,477,246
549,0.87,-0.34,0.39,-0.31,-4.58,-4.7,334,460,419,484,253
550,0.88,-0.34,0.4,0.0,-3.6,-0.55,329,461,416,480,247
551,0.85,-0.34,0.4,-4.88,-2.01,-6.16,330,451,418,477,245
552,0.86,-0.34,0.41,2.26,-3.48,-2.32,335,455,416,478,248
553,0.85,-0.35,0.39,-0.85,-2.56,-2.01,335,453,417,480,254
554,0.86,-0.36,0.38,1.71,-2.62,-2.08,331,455,416,478,243
555,0.8,-0.37,0.41,-0.49,-1.65,-1.16,332,454,418,479,247
556,0.95,-0.3,0.38,2.99,0.55,-3.97,334,459,421,476,249
557,0.9,-0.31,0.39,0.12,-1.59,-15.99,338,463,424,477,255
558,0.89,-0.29,0.38,6.41,-14.04,3.91,334,463,416,470,240
559,0.84,-0.31,0.4,2.08,8.79,-6.23,335,461,418,476,247
560,0.88,-0.31,0.41,-4.27,-2.62,-1.22,334,458,420,473,246
561,0.88,-0.32,0.4,0.55,-7.14,-1.83,338,455,418,475,252
562,0.86,-0.33,0.41,-2.99,-2.81,0.37,338,457,421,476,250
563,0.85,-0.33,0.42,-2.08,2.5,-4.33,338,454,416,477,247
564,0.85,-0.32,0.43,-1.16,-3.85,-3.05,342,455,419,474,250
565,0.86,-0.32,0.42,1.22,-4.64,-2.32,335,458,422,477,250
566,0.85,-0.32,0.43,0.61,-3.91,-2.38,338,450,420,477,254
567,0.87,-0.32,0.43,-0.18,-4.64,-2.2,337,459,422,479,251
568,0.87,-0.32,0.42,2.26,-2.56,-2.32,338,462,419,477,247
569,0.87,-0.32,0.42,0.55,-2.44,-2.87,338,460,420,480,249
570,0.86,-0.32,0.43,-1.4,-3.05,-1.83,339,457,418,478,249
571,0.84,-0.33,0.42,-0.73,-2.32,-1.16,336,458,420,479,249
572,0.85,-0.33,0.43,0.92,-3.05,-1.89,336,458,419,479,248
573,0.84,-0.33,0.43,0.06,-3.36,-3.36,339,457,421,474,251
574,0.86,-0.35,0.41,2.81,-2.26,-4.82,338,457,422,477,250
575,0.85,-0.33,0.42,0.92,-2.93,-2.44,339,457,419,479,246
576,0.86,-0.33,0.43,1.22,-2.5,-2.5,341,458,420,474,251
577,0.87,-0.32,0.42,0.43,-4.03,-2.69,340,458,420,478,250
578,0.86,-0.33,0.43,1.83,-3.11,-2.56,339,460,416,480,251
579,0.87,-0.33,0.42,3.05,-3.17,-2.38,339,460,422,477,259
580,0.85,-0.32,0.43,0.31,-3.05,-3.17,340,451,420,478,250
581,0.85,-0.33,0.42,1.53,-2.93,-3.23,339,458,417,475,250
582,0.85,-0.34,0.42,-0.12,-3.17,-1.46,339,456,422,479,250
583,0.87,-0.32,0.42,0.24,-3.6,-2.99,337,452,418,476,251
584,0.86,-0.31,0.42,3.3,-3.17,-4.09,339,455,422,478,252
585,0.85,-0.32,0.44,1.04,-2.44,-2.26,337,459,421,477,251
586,0.85,-0.32,0.43,-0.43,-3.23,-2.5,335,460,419,479,249
587,0.85,-0.32,0.43,0.61,-2.56,-1.77,340,457,421,488,250
588,0.86,-0.32,0.43,1.1,-2.75,-2.08,335,452,419,478,249
589,0.86,-0.32,0.43,4.46,-2.87,-2.62,341,455,422,478,250
590,0.85,-0.32,0.42,-0.49,-4.33,-2.62,338,458,420,476,248
591,0.87,-0.3,0.43,1.89,-3.23,-2.81,337,454,422,477,249
592,0.87,-0.31,0.43,-0.49,-3.72,-3.42,338,459,422,473,250
593,0.87,-0.29,0.44,1.04,-2.62,0.12,340,458,428,479,252
594,0.87,-0.3,0.44,-0.31,-3.54,-2.14,338,454,420,476,253
595,0.86,-0.32,0.43,2.38,-2.26,-2.62,338,455,422,478,250
596,0.86,-0.32,0.44,-1.65,-3.78,-2.32,339,468,418,479,251
597,0.86,-0.32,0.43,1.22,-2.62,-2.62,340,449,419,479,251
598,0.85,-0.32,0.44,2.01,-2.2,-2.69,340,455,418,474,252
599,0.86,-0.31,0.44,1.53,-3.17,-2.56,340,455,419,475,251
600,0.85,-0.31,0.44,-0.18,-0.55,-4.58,338,452,420,479,253
601,0.84,-0.31,0.44,0.18,-2.69,-2.44,336,455,419,473,254
602,0.84,-0.32,0.44,0.06,-3.05,-2.14,342,454,417,478,268
603,0.85,-0.31,0.45,-0.49,-1.71,-2.01,338,459,419,479,252
604,0.84,-0.32,0.45,-2.2,-2.2,-3.11,336,452,415,477,249
605,0.86,-0.31,0.45,2.38,-3.42,-2.56,338,449,422,476,251
606,0.85,-0.33,0.44,0.06,-3.3,-3.36,338,452,420,480,255
607,0.86,-0.31,0.45,-1.16,-2.56,-5.68,337,453,421,476,251
608,0.86,-0.31,0.46,1.04,-3.48,-2.5,339,452,422,479,252
609,0.85,-0.31,0.45,0.12,-3.91,-1.89,336,454,422,484,254
610,0.85,-0.31,0.45,1.16,-2.81,-3.17,339,454,419,475,252
611,0.85,-0.31,0.45,-0.12,-3.23,-3.23,335,453,421,476,250
612,0.84,-0.32,0.46,-0.85,-3.54,-2.44,335,454,427,473,252
613,0.85,-0.3,0.48,-1.59,-3.6,-0.92,343,454,423,472,254
614,0.83,-0.3,0.48,1.04,-2.38,-0.67,338,453,419,476,255
615,0.87,-0.31,0.45,-2.32,-4.94,-0.98,339,449,422,475,255
616,0.81,-0.35,0.48,2.81,-0.18,1.22,336,454,418,474,247
617,0.84,-0.35,0.46,2.99,-3.66,-4.27,336,454,422,479,250
618,0.84,-0.34,0.46,0.0,-3.17,-2.2,340,454,419,478,253
619,0.82,-0.35,0.46,0.79,-3.05,-2.99,339,456,420,474,252
620,0.83,-0.34,0.47,1.28,-3.6,-3.17,339,455,419,477,252
621,0.83,-0.34,0.47,1.4,-3.3,-2.93,339,452,423,476,259
622,0.83,-0.34,0.46,0.43,-2.56,-3.54,347,455,419,474,250
623,0.84,-0.33,0.47,-0.55,-2.56,-2.01,338,452,420,477,253
624,0.83,-0.34,0.46,0.98,-3.3,-2.62,340,454,416,476,255
625,0.84,-0.33,0.46,0.73,-3.42,-2.5,339,454,420,473,251
626,0.83,-0.34,0.45,-1.22,-2.69,-2.32,340,456,423,475,254
627,0.84,-0.35,0.45,1.34,-2.69,-1.83,337,454,421,475,249
628,0.83,-0.33,0.47,0.79,-2.87,-2.93,337,452,420,475,255
629,0.84,-0.34,0.46,1.34,-3.6,-3.6,335,453,422,474,252
630,0.85,-0.33,0.45,0.18,-2.81,-3.05,339,457,422,476,250
631,0.83,-0.32,0.47,-0.31,-2.81,-2.93,335,452,420,479,251
632,0.84,-0.32,0.46,1.28,-2.99,-2.56,341,471,421,475,252
633,0.84,-0.33,0.45,0.0,-3.05,-2.81,342,454,421,477,251
634,0.84,-0.34,0.44,0.55,-2.56,-2.44,341,450,423,473,251
635,0.83,-0.34,0.45,2.81,-12.82,4.39,342,456,422,477,251
636,0.84,-0.31,0.46,0.98,-3.91,-3.23,340,450,421,479,251
637,0.83,-0.35,0.43,-1.16,-3.11,-0.85,339,453,420,477,255
638,0.84,-0.33,0.46,0.12,-2.93,-2.38,340,456,417,472,255
639,0.84,-0.32,0.46,0.85,-3.23,-3.17,351,454,420,476,254
640,0.84,-0.33,0.45,-1.16,-2.87,-3.42,341,455,423,478,253
641,0.83,-0.32,0.46,0.37,-3.23,-2.08,338,456,431,476,250
642,0.84,-0.33,0.46,0.79,-2.62,-2.32,342,455,421,474,255
643,0.84,-0.33,0.45,-1.71,-3.78,-3.11,340,455,417,479,250
644,0.84,-0.33,0.45,-1.22,-3.17,-2.87,339,454,420,479,254
645,0.84,-0.33,0.46,1.22,-2.93,-3.3,336,454,420,477,253
646,0.87,-0.32,0.45,0.67,-3.05,-2.69,338,456,421,481,252
647,0.85,-0.32,0.45,0.61,-2.38,-2.08,338,449,421,473,251
648,0.84,-0.32,0.46,-0.31,-3.11,-2.14,345,456,420,475,254
649,0.86,-0.32,0.44,-0.37,-1.95,-1.83,338,452,420,472,252
650,0.84,-0.32,0.45,-0.31,-2.93,-1.95,336,457,421,473,252
651,0.84,-0.33,0.44,-1.1,-4.03,-2.38,337,455,417,476,253
652,0.85,-0.32,0.44,1.22,-1.95,-2.01,339,458,418,476,251
653,0.86,-0.32,0.44,-0.92,-2.56,-2.26,338,457,421,472,255
654,0.83,-0.33,0.45,1.1,-2.62,-3.66,336,453,419,475,255
655,0.84,-0.32,0.46,0.31,-3.54,-3.05,340,457,420,476,257
656,0.85,-0.33,0.43,-1.34,-4.09,-1.95,340,465,417,477,250
657,0.84,-0.34,0.44,-0.43,-2.26,-3.05,337,456,419,480,252
658,0.84,-0.34,0.44,2.2,-4.7,-3.36,340,457,420,475,255
659,0.84,-0.32,0.45,1.28,-2.2,-2.99,340,454,419,478,253
660,0.84,-0.33,0.44,0.12,-3.54,-1.77,338,448,420,475,252
661,0.86,-0.32,0.44,-0.55,-2.69,-2.32,340,452,421,478,256
662,0.84,-0.33,0.44,-0.12,-3.36,-1.89,338,449,420,479,250
663,0.85,-0.33,0.44,1.77,-2.75,-2.62,345,451,420,473,253
664,0.85,-0.32,0.44,1.16,-2.69,-2.75,340,453,422,477,256
665,0.84,-0.32,0.45,1.28,-2.38,-3.05,341,453,420,475,253
666,0.84,-0.33,0.44,-0.49,-2.5,-2.75,338,453,422,475,254
667,0.87,-0.32,0.41,-1.65,-2.08,-2.93,338,454,422,493,254
668,0.85,-0.32,0.44,0.61,-3.3,-1.53,342,450,423,475,254
669,0.8,-0.32,0.46,-2.26,-16.66,-1.46,339,457,424,473,251
670,0.87,-0.32,0.4,-1.4,-1.95,-3.48,338,469,422,471,251
671,0.88,-0.32,0.39,-0.37,-3.91,-2.26,339,454,419,475,255
672,0.88,-0.31,0.39,0.18,-3.3,-1.28,339,463,418,476,254
673,0.89,-0.3,0.4,-0.37,-2.38,-2.01,341,456,421,474,257
674,0.86,-0.32,0.4,0.79,-2.56,-2.5,342,453,424,478,254
675,0.86,-0.32,0.39,0.79,-2.99,-1.83,339,453,422,471,254
676,0.88,-0.32,0.39,-1.22,-2.32,-2.99,340,451,424,475,257
677,0.87,-0.31,0.4,1.28,-2.87,-2.26,340,457,421,475,256
678,0.87,-0.31,0.4,3.23,-3.36,-2.99,338,451,419,475,252
679,0.86,-0.32,0.4,-0.43,-3.05,-2.75,340,453,429,473,253
680,0.87,-0.31,0.4,0.85,-2.62,-2.81,340,452,417,479,250
681,0.89,-0.3,0.4,2.26,-4.09,-1.4,341,452,420,472,255
682,0.86,-0.3,0.41,0.92,-3.11,-3.05,339,449,420,478,256
683,0.87,-0.3,0.42,0.92,-2.62,-2.69,337,456,432,473,255
684,0.87,-0.31,0.4,0.61,-3.05,-2.62,338,451,423,476,267
685,0.87,-0.31,0.41,1.53,-2.81,-3.54,338,451,421,471,254
686,0.87,-0.3,0.41,0.31,-2.87,-1.95,340,453,422,474,257
687,0.86,-0.31,0.41,2.32,-3.11,-2.2,341,454,423,474,257
688,0.88,-0.3,0.41,1.4,-2.5,-2.26,340,453,422,472,257
689,0.87,-0.3,0.41,-0.61,-2.56,-2.01,339,457,416,475,255
690,0.84,-0.31,0.43,3.23,-1.83,-2.26,343,449,421,474,257
691,0.85,-0.3,0.42,1.65,-3.85,-4.03,339,454,422,477,254
692,0.88,-0.28,0.42,0.0,-3.17,-2.69,339,448,423,474,255
693,0.86,-0.29,0.42,-0.49,-3.36,-1.22,338,446,421,476,255
694,0.89,-0.29,0.41,0.24,-2.87,-2.69,340,452,418,475,255
695,0.87,-0.31,0.4,-0.06,-3.42,-1.77,336,456,418,474,255
696,0.87,-0.29,0.42,0.73,-2.87,-2.99,337,452,419,472,258
697,0.88,-0.29,0.42,-0.06,-2.2,-3.91,340,452,419,473,255
698,0.86,-0.28,0.44,0.49,-2.62,-2.2,340,448,417,473,255
699,0.87,-0.3,0.42,-1.71,-4.21,-4.03,338,452,420,474,258
700,0.87,-0.3,0.41,1.04,-2.69,-3.48,339,446,417,476,258
701,0.86,-0.3,0.42,1.4,-3.3,-3.11,336,451,422,477,256
702,0.87,-0.3,0.41,2.5,-1.77,-2.01,341,452,422,471,260
703,0.88,-0.29,0.42,-0.55,-3.6,-2.38,339,446,419,472,257
704,0.88,-0.29,0.42,1.28,-3.72,-3.66,339,451,421,476,252
705,0.87,-0.3,0.42,0.61,-3.05,-3.3,339,449,420,477,257
706,0.87,-0.3,0.42,0.67,-3.42,-3.23,335,455,420,473,260
707,0.87,-0.3,0.41,0.73,-2.69,-3.05,340,446,423,474,259
708,0.87,-0.29,0.42,1.1,-3.48,-2.75,340,447,420,472,255
709,0.88,-0.29,0.43,4.21,-2.81,-2.56,340,455,419,473,258
710,0.86,-0.29,0.44,0.12,-3.3,-2.44,341,452,422,473,260
711,0.86,-0.29,0.44,1.83,-3.42,-2.38,341,455,421,471,261
712,0.87,-0.28,0.43,1.59,-3.42,-3.23,343,456,420,474,266
713,0.87,-0.28,0.43,1.1,-2.2,-2.5,338,462,421,475,259
714,0.87,-0.28,0.43,-0.73,-3.85,-2.75,337,461,414,473,254
715,0.88,-0.28,0.43,1.46,-3.66,-1.95,340,456,425,474,262
716,0.87,-0.29,0.42,1.1,-3.36,-3.23,337,458,424,477,258
717,0.86,-0.29,0.43,2.2,-2.99,-2.62,339,453,420,475,260
718,0.87,-0.29,0.42,2.69,-3.42,-2.38,344,452,423,473,258
719,0.87,-0.29,0.42,2.93,-4.64,0.18,336,456,433,476,262
720,0.87,-0.29,0.42,-2.08,-3.17,-2.81,340,467,419,475,259
721,0.86,-0.29,0.42,2.08,-2.56,-2.5,341,457,419,474,264
722,0.87,-0.28,0.43,2.69,-3.48,-2.32,342,455,420,473,262
723,0.87,-0.28,0.42,0.37,-3.6,-3.36,343,455,416,477,261
724,0.87,-0.26,0.43,1.4,-3.17,-3.11,345,460,421,479,261
725,0.88,-0.26,0.43,2.01,-4.33,-3.6,342,459,420,474,252
726,0.89,-0.25,0.44,-1.04,-6.04,-4.33,341,455,417,476,262
727,0.88,-0.26,0.43,3.72,-1.77,-2.5,343,456,423,474,264
728,0.88,-0.27,0.43,0.31,-3.17,-2.81,343,454,430,473,264
729,0.89,-0.24,0.44,2.08,-2.93,-2.01,342,455,420,475,262
730,0.9,-0.26,0.42,-1.28,-2.99,-2.62,341,456,420,474,263
731,0.89,-0.26,0.43,1.83,-3.72,-3.97,342,456,420,470,263
732,0.89,-0.25,0.43,1.89,-4.33,-2.75,342,455,420,476,264
733,0.87,-0.26,0.43,-0.18,-3.05,-2.56,341,456,421,474,264
734,0.89,-0.26,0.42,2.14,-2.69,-3.3,342,456,423,474,263
735,0.89,-0.26,0.43,-0.12,-3.17,-2.62,341,459,418,475,263
736,0.87,-0.26,0.43,-0.43,-2.56,-1.95,340,455,437,476,262
737,0.88,-0.27,0.42,0.67,-2.81,-3.42,342,458,419,475,263
738,0.87,-0.26,0.43,0.79,-2.87,-2.87,342,453,421,472,264
739,0.88,-0.26,0.43,0.79,-3.05,-1.71,341,459,416,471,265
740,0.88,-0.26,0.43,-0.49,-2.26,-2.5,341,452,422,475,263
741,0.91,-0.23,0.46,-11.41,-2.38,2.81,349,455,417,471,263
742,0.89,-0.27,0.44,1.34,-2.75,-2.87,342,450,418,477,264
743,0.86,-0.31,0.43,-12.94,2.81,4.82,340,455,420,475,265
744,0.82,-0.38,0.43,-2.81,-0.43,0.0,344,452,420,473,261
745,0.84,-0.37,0.43,-0.92,-3.91,-2.26,341,469,420,477,265
746,0.83,-0.37,0.44,0.85,-2.93,-3.6,342,460,420,474,261
747,0.84,-0.36,0.44,1.53,-3.91,-2.99,341,459,420,470,263
748,0.83,-0.36,0.43,1.53,-2.87,-3.54,341,454,417,474,264
749,0.83,-0.37,0.43,1.89,-2.99,-2.99,339,459,423,470,264
750,0.86,-0.32,0.46,2.87,-3.48,-4.09,342,451,423,476,266
751,0.85,-0.34,0.44,1.77,-3.11,-2.81,342,460,423,473,265
752,0.84,-0.34,0.44,-0.49,-2.69,-2.44,341,458,421,474,261
753,0.84,-0.35,0.44,0.67,-4.03,-2.62,342,453,420,476,265
754,0.85,-0.34,0.44,-0.92,-4.03,-1.65,341,465,418,476,266
755,0.84,-0.34,0.44,1.53,-2.75,-2.32,340,461,421,474,263
756,0.84,-0.35,0.43,1.22,-3.23,-2.26,343,457,421,471,263
757,0.84,-0.35,0.43,-2.56,-1.22,-2.01,343,455,422,476,265
758,0.85,-0.33,0.45,0.31,-2.5,-2.62,345,456,416,476,266
759,0.85,-0.34,0.44,-2.14,-1.4,-0.49,345,457,425,475,264
760,0.84,-0.35,0.44,0.49,-3.42,-0.49,338,459,418,476,267
761,0.84,-0.35,0.43,2.2,-3.3,-1.4,342,454,421,479,290
762,0.84,-0.36,0.43,0.0,-3.66,-2.87,346,455,417,475,264
763,0.84,-0.36,0.43,0.92,-3.54,-2.01,340,455,421,469,300
764,0.85,-0.35,0.44,-0.43,-4.39,-2.75,345,459,420,475,262
765,0.85,-0.34,0.44,-0.12,-2.75,-2.5,344,450,417,474,260
766,0.83,-0.35,0.45,1.95,-2.62,-2.14,344,452,418,478,265
767,0.84,-0.35,0.44,1.34,-2.62,-2.81,339,459,421,471,266
768,0.84,-0.34,0.45,1.16,-3.48,-2.81,341,459,420,470,269
769,0.84,-0.33,0.45,0.06,-3.23,-1.77,339,455,420,470,265
770,0.87,-0.32,0.45,0.0,-3.05,-2.38,343,458,422,473,268
771,0.85,-0.33,0.45,0.85,-3.72,-1.83,344,458,424,479,268
772,0.85,-0.34,0.44,0.73,-2.62,-1.83,339,458,421,470,266
773,0.84,-0.34,0.44,0.06,-3.36,-2.62,344,457,423,473,262
774,0.84,-0.33,0.45,2.32,-3.11,-1.77,341,463,420,476,262
775,0.85,-0.32,0.45,-1.59,-2.38,-3.17,345,455,420,476,264
776,0.84,-0.33,0.44,1.1,-3.17,-1.77,341,459,423,473,261
777,0.83,-0.34,0.44,0.61,-2.14,-2.38,343,454,419,471,265
778,0.84,-0.33,0.45,1.04,-1.89,-2.2,339,456,421,473,266
779,0.83,-0.34,0.45,-0.61,-3.3,-1.1,345,455,433,473,264
780,0.84,-0.34,0.45,0.24,-3.54,-2.87,345,454,423,477,267
781,0.84,-0.34,0.44,-0.18,-2.93,-3.36,347,456,420,472,268
782,0.84,-0.34,0.45,1.22,-2.87,-2.75,343,457,420,476,265
783,0.85,-0.33,0.45,-2.56,-3.11,-3.11,343,458,424,472,269
784,0.84,-0.34,0.44,1.34,-2.81,-2.26,342,452,420,469,266
785,0.84,-0.34,0.44,0.85,-3.85,-2.56,342,451,422,476,280
786,0.83,-0.33,0.45,-0.12,-1.95,-2.01,341,458,422,477,268
787,0.84,-0.33,0.45,-0.12,-1.83,0.31,343,453,420,473,265
788,0.86,-0.31,0.45,1.77,-3.23,-2.69,338,458,420,474,266
789,0.87,-0.33,0.42,-1.16,-2.32,-3.23,340,449,422,470,266
790,0.87,-0.32,0.43,1.1,-3.3,-4.76,346,453,417,471,268
791,0.85,-0.31,0.44,2.75,-1.53,-2.26,342,452,420,476,269
792,0.85,-0.33,0.43,0.43,-2.2,-2.26,345,452,422,473,269
793,0.86,-0.32,0.43,2.44,-2.81,-2.44,343,455,420,472,265
794,0.85,-0.33,0.42,6.1,-0.98,-2.56,343,454,422,475,266
795,0.84,-0.32,0.45,-0.06,-3.85,-3.11,343,453,421,469,268
796,0.85,-0.32,0.44,1.95,-2.81,-2.01,344,455,422,472,266
797,0.86,-0.32,0.44,-0.12,-2.99,-2.87,342,457,420,472,280
798,0.85,-0.31,0.45,2.69,-4.46,-6.16,345,451,420,473,266
799,0.85,-0.31,0.44,1.71,-3.48,-2.69,344,452,419,476,266
800,0.85,-0.31,0.44,1.83,-1.89,-2.01,342,458,416,475,268
801,0.86,-0.3,0.44,-0.24,-2.93,-2.56,342,454,421,473,265
802,0.86,-0.31,0.44,-0.31,-2.38,-2.2,341,454,422,473,266
803,0.84,-0.31,0.45,0.06,-2.01,-3.05,341,458,421,471,268
804,0.87,-0.3,0.44,1.1,-4.15,-3.42,343,455,425,473,264
805,0.85,-0.31,0.44,-2.38,-3.3,-3.17,343,452,417,474,267
806,0.85,-0.31,0.44,0.12,-3.11,-2.56,339,453,421,472,269
807,0.85,-0.3,0.45,1.46,-3.42,-2.32,344,449,420,473,270
808,0.86,-0.3,0.44,1.1,-4.15,-2.32,345,452,419,473,267
809,0.86,-0.31,0.43,-0.12,-2.26,-1.34,342,457,420,472,267
810,0.85,-0.32,0.44,0.0,-2.44,-1.22,344,454,423,467,269
811,0.85,-0.32,0.44,-0.43,-2.93,-3.42,343,457,421,473,268
812,0.85,-0.32,0.44,-0.18,-2.62,-1.53,342,456,420,472,269
813,0.84,-0.33,0.44,2.93,-2.2,-1.59,341,454,418,471,272
814,0.85,-0.34,0.44,2.38,-2.99,-1.83,343,453,422,473,271
815,0.85,-0.31,0.47,-6.47,-4.27,-4.03,345,455,418,475,267
816,0.84,-0.33,0.45,-0.67,-3.42,-1.95,343,453,414,470,270
817,0.84,-0.32,0.45,1.1,-2.99,-3.54,344,457,415,488,277
818,0.85,-0.32,0.45,-0.06,-3.54,-2.32,339,453,421,473,270
819,0.85,-0.31,0.46,0.85,-2.81,-2.75,343,458,421,472,272
820,0.85,-0.31,0.46,-0.85,-3.3,-1.71,343,452,420,475,270
821,0.84,-0.32,0.45,1.22,-2.81,-1.71,342,458,419,476,272
822,0.85,-0.31,0.45,1.04,-3.42,-1.34,341,455,419,470,270
823,0.83,-0.33,0.45,-0.37,-3.42,-2.14,342,456,417,470,272
824,0.83,-0.33,0.45,-0.06,-2.01,-2.99,344,459,431,469,271
825,0.84,-0.32,0.45,-0.06,-2.99,-3.42,338,453,419,474,272
826,0.84,-0.32,0.45,-0.79,-2.62,-2.2,343,459,420,471,270
827,0.85,-0.32,0.45,-0.31,-2.69,-2.44,339,457,418,470,271
828,0.87,-0.28,0.47,1.59,-3.17,-4.82,343,451,419,473,271
829,0.85,-0.3,0.46,0.92,-3.36,-3.05,343,459,417,469,270
830,0.85,-0.31,0.46,-0.18,-3.97,-1.46,344,450,418,473,273
831,0.85,-0.32,0.45,1.28,-3.05,-2.01,342,456,418,483,267
832,0.84,-0.33,0.45,-1.1,-1.83,-3.72,342,450,420,474,274
833,0.84,-0.32,0.45,0.98,-2.69,-2.75,343,458,419,473,270
834,0.85,-0.32,0.45,-0.18,-2.99,-2.93,337,451,419,473,266
835,0.86,-0.31,0.44,0.79,-2.38,-2.69,343,452,420,471,271
836,0.86,-0.31,0.45,-1.71,-2.75,-2.32,343,461,419,477,273
837,0.86,-0.3,0.45,0.67,-3.6,-3.3,342,460,417,469,274
838,0.86,-0.31,0.45,-0.18,-4.15,-2.38,342,453,418,476,272
839,0.86,-0.31,0.44,-1.77,-2.69,-2.75,343,456,422,475,273
840,0.86,-0.31,0.44,0.61,-1.77,-2.93,354,451,419,469,275
841,0.85,-0.31,0.43,2.26,-2.26,-2.69,344,457,422,471,273
842,0.86,-0.3,0.45,0.67,-2.38,-2.5,344,456,414,471,274
843,0.86,-0.3,0.45,-0.18,-3.6,-2.93,341,455,418,469,274
844,0.86,-0.29,0.45,0.55,-3.6,-2.81,340,461,419,468,272
845,0.86,-0.29,0.44,0.37,-3.42,-2.69,343,452,419,472,277
846,0.86,-0.3,0.44,0.12,-2.93,-2.5,343,455,416,475,274
847,0.87,-0.3,0.44,0.61,-3.66,-1.89,355,460,419,473,274
848,0.86,-0.29,0.44,0.31,-2.5,-3.11,340,459,422,472,274
849,0.86,-0.3,0.45,0.06,-3.17,-2.38,344,447,418,473,276
850,0.87,-0.29,0.45,-0.37,-3.23,-1.65,342,459,416,469,274
851,0.86,-0.29,0.45,5.13,-0.85,-3.05,343,451,419,475,276
852,0.85,-0.29,0.45,1.1,-3.54,-3.72,344,460,420,472,287
853,0.87,-0.28,0.46,-1.04,-3.36,-3.54,342,460,419,471,274
854,0.86,-0.29,0.45,1.65,-13.06,3.36,344,462,420,472,273
855,0.86,-0.29,0.45,0.06,-2.14,-2.62,345,457,421,468,282
856,0.83,-0.32,0.43,-4.15,-3.97,-6.04,345,459,422,472,276
857,0.89,-0.3,0.42,-9.52,-2.93,0.12,345,458,421,470,276
858,0.92,-0.26,0.41,-0.85,-10.07,-10.01,346,454,422,469,276
859,0.89,-0.26,0.41,3.42,0.06,-1.1,344,458,423,473,277
860,0.81,-0.34,0.43,-8.36,1.4,3.66,342,458,420,471,282
861,0.84,-0.33,0.44,0.24,-2.01,-1.46,343,460,419,470,296
862,0.83,-0.35,0.43,1.53,-5.31,-2.87,345,452,417,481,304
863,0.86,-0.37,0.39,-2.56,-5.92,-1.77,345,458,423,486,278
864,0.86,-0.36,0.39,0.92,-5.0,-0.31,344,456,422,471,275
865,0.85,-0.36,0.4,1.95,-2.69,-4.39,343,453,422,474,277
866,0.85,-0.36,0.41,1.04,-2.75,-1.65,341,457,419,468,280
867,0.86,-0.35,0.42,2.62,-3.42,-3.3,345,458,423,472,280
868,0.86,-0.36,0.39,0.31,-2.5,-2.93,338,461,422,472,280
869,0.84,-0.35,0.41,2.99,-2.56,-2.56,345,452,421,471,277
870,0.86,-0.34,0.41,1.59,-3.3,-3.54,351,459,421,472,278
871,0.81,-0.35,0.41,-0.12,-0.73,-4.94,343,457,424,471,276
872,0.85,-0.34,0.41,0.55,-4.09,-3.11,346,458,421,475,279
873,0.87,-0.33,0.41,0.18,-4.33,-1.83,345,458,422,475,278
874,0.86,-0.34,0.4,0.55,-3.42,-2.56,345,462,422,475,275
875,0.85,-0.33,0.41,1.53,-4.33,-1.59,347,458,426,470,279
876,0.84,-0.32,0.41,3.48,-0.73,-14.16,347,456,422,474,279
877,0.87,-0.32,0.41,0.85,-2.62,-2.69,345,452,422,473,278
878,0.87,-0.31,0.4,0.24,-2.69,-2.75,343,460,420,470,279
879,0.87,-0.3,0.42,0.12,-2.5,-2.81,345,460,422,470,283
880,0.86,-0.32,0.39,-3.36,-1.83,-1.34,347,458,420,470,278
881,0.87,-0.3,0.42,-0.06,-2.56,-1.4,344,457,423,474,275
882,0.87,-0.3,0.42,1.59,-3.78,-1.46,345,457,421,469,280
883,0.86,-0.31,0.42,1.53,-3.11,-2.44,345,457,423,471,277
884,0.88,-0.31,0.41,0.79,-2.99,-1.77,346,458,422,472,277
885,0.86,-0.29,0.39,8.24,-6.47,-8.48,346,452,422,475,277
886,0.88,-0.29,0.41,-1.04,-4.21,-1.71,342,455,423,471,278
887,0.88,-0.3,0.42,-9.4,1.4,0.55,345,457,418,475,277
888,0.88,-0.37,0.41,-20.51,11.66,-1.04,345,456,421,475,278
889,0.83,-0.44,0.35,-29.48,-10.56,-3.3,343,460,426,470,276
890,0.82,-0.52,0.25,13.73,-9.58,11.47,341,457,419,472,270
891,0.78,-0.52,0.31,-7.32,4.64,-1.71,340,460,424,479,269
892,0.85,-0.5,0.29,9.28,-4.15,-1.65,342,457,421,477,268
893,0.83,-0.5,0.31,-6.71,10.74,-6.23,342,460,421,469,271
894,0.78,-0.5,0.36,-0.31,-4.15,-0.98,333,453,421,464,271
895,0.8,-0.5,0.35,0.92,-3.78,-3.97,345,453,424,469,271
896,0.79,-0.5,0.36,1.89,-3.97,-2.62,342,454,417,472,274
897,0.7,-0.59,0.33,-9.4,22.03,-27.16,343,461,421,465,273
898,0.98,-0.26,0.34,11.84,-18.31,-6.35,343,453,421,467,275
899,0.9,-0.3,0.37,4.58,-8.3,0.18,342,460,421,465,271
900,0.86,-0.32,0.37,2.81,-6.59,0.61,341,455,424,472,271
901,0.87,-0.32,0.37,1.22,-2.87,-2.44,344,454,423,469,272
902,0.88,-0.32,0.38,3.72,-4.52,0.61,341,456,420,469,272
903,0.88,-0.32,0.36,4.15,-1.89,-1.89,341,460,421,469,281
904,0.88,-0.32,0.36,1.59,-3.6,-2.69,343,456,421,468,273
905,0.89,-0.31,0.36,1.83,-3.17,-2.56,341,455,423,472,276
906,0.88,-0.31,0.36,3.54,-1.53,-2.32,340,460,421,468,273
907,0.9,-0.32,0.34,-2.01,-4.7,0.18,338,459,427,468,273
908,0.89,-0.32,0.36,2.26,-3.17,-2.87,340,460,423,472,276
909,0.88,-0.31,0.37,2.38,-2.14,-2.26,343,454,422,470,276
910,0.88,-0.32,0.37,-0.55,-1.53,-3.17,340,456,421,469,279
911,0.89,-0.31,0.37,-1.16,-2.32,-1.71,341,455,424,467,274
912,0.87,-0.33,0.37,0.85,-2.87,-3.85,342,454,414,462,271
913,0.86,-0.32,0.33,-1.71,-11.35,-5.43,342,452,406,438,242
914,0.87,-0.3,0.38,12.08,-3.17,-0.43,340,455,406,453,229
915,0.88,-0.31,0.39,-1.16,-1.83,-2.93,334,449,419,465,239
916,0.88,-0.3,0.4,-1.1,-3.05,-2.69,337,450,413,465,243
917,0.88,-0.31,0.38,1.04,-5.07,-1.95,337,455,417,466,241
918,0.87,-0.3,0.41,0.79,-2.56,-2.93,338,450,418,468,253
919,0.89,-0.3,0.39,-0.31,-5.07,-2.38,338,455,417,469,244
920,0.88,-0.31,0.39,-0.18,-3.54,-3.91,341,449,416,470,246
921,0.89,-0.31,0.37,-0.12,-4.09,-3.91,336,456,419,473,243
922,0.88,-0.29,0.39,-3.17,-2.62,-0.98,339,448,419,465,241
923,0.88,-0.3,0.38,2.99,-3.36,-2.56,341,448,419,468,240
924,0.89,-0.29,0.38,5.86,-1.4,-0.43,340,449,416,478,247
925,0.88,-0.32,0.38,0.37,-2.08,-0.85,340,444,414,477,247
926,0.88,-0.31,0.38,3.05,-2.93,-0.37,344,448,421,468,247
927,0.88,-0.3,0.4,-0.98,-1.83,-1.83,339,444,419,467,248
928,0.88,-0.31,0.39,1.4,-2.69,-2.26,341,439,421,468,246
929,0.88,-0.31,0.39,-1.4,-3.66,-2.08,338,444,417,469,249
930,0.88,-0.3,0.4,-0.55,-2.5,-2.01,339,447,418,475,246
931,0.87,-0.31,0.4,1.4,-2.99,-2.69,340,446,418,468,245
932,0.89,-0.3,0.4,1.22,-2.69,-2.32,341,447,418,468,249
933,0.88,-0.31,0.4,0.92,-2.01,-1.83,341,448,417,466,248
934,0.87,-0.37,0.36,-0.79,-3.17,-1.89,340,439,418,471,248
935,0.88,-0.34,0.37,-1.1,6.53,-3.72,341,443,418,470,251
936,0.89,-0.33,0.37,-2.08,-3.54,-4.88,343,439,421,470,248
937,0.9,-0.33,0.37,-5.0,-2.14,-4.76,342,443,419,466,250
938,0.9,-0.31,0.37,-0.37,-3.66,-3.6,339,446,421,469,250
939,0.88,-0.31,0.39,0.31,-3.91,-2.2,340,443,420,471,251
940,0.87,-0.32,0.39,0.98,-2.14,-2.87,339,444,419,468,251
941,0.87,-0.32,0.39,0.73,-1.4,-3.97,340,446,417,470,252
942,0.87,-0.31,0.39,0.12,-0.18,-1.1,339,449,421,468,251
943,0.89,-0.3,0.4,0.73,-4.58,-2.26,341,443,419,466,252
944,0.86,-0.32,0.41,5.74,-3.72,-1.77,341,439,418,467,250
945,0.87,-0.33,0.39,1.04,-1.65,-3.3,340,448,422,467,255
946,0.87,-0.32,0.4,-0.49,-3.78,-4.21,342,443,418,471,259
947,0.88,-0.31,0.39,0.85,-3.54,-3.78,342,445,419,467,256
948,0.88,-0.31,0.4,-0.18,-3.36,-2.62,341,441,420,464,255
949,0.88,-0.32,0.4,0.85,-3.05,-2.01,338,448,418,468,262
950,0.86,-0.3,0.41,-1.1,-3.36,-1.1,341,444,423,463,254
951,0.87,-0.31,0.4,-1.95,-3.42,-2.62,340,442,418,468,256
952,0.87,-0.31,0.4,2.26,-3.78,-2.5,341,442,422,467,258
953,0.87,-0.31,0.39,2.14,-4.64,-2.44,339,447,418,471,253
954,0.87,-0.31,0.4,0.18,-2.62,-3.11,344,446,417,465,259
955,0.89,-0.31,0.4,-1.04,-3.78,-3.05,343,442,419,466,258
956,0.87,-0.3,0.39,1.46,-3.91,-2.08,340,446,420,469,258
957,0.88,-0.3,0.4,-0.12,-3.05,-2.69,341,442,420,467,257
958,0.88,-0.3,0.4,1.4,-2.32,-2.14,341,443,423,464,258
959,0.9,-0.29,0.39,-2.99,-1.22,-0.79,342,443,419,464,254
960,0.88,-0.3,0.4,-0.79,-3.3,-1.22,344,449,420,475,287
961,0.89,-0.3,0.39,0.12,-2.2,-3.17,344,445,418,468,258
962,0.88,-0.29,0.4,0.06,-2.38,-3.78,343,446,417,468,268
963,0.88,-0.3,0.4,-0.55,-2.38,-1.46,342,443,416,468,257
964,0.88,-0.3,0.4,0.0,-2.01,-2.44,341,447,418,476,261
965,0.87,-0.3,0.41,-0.18,-3.72,-2.2,343,450,418,463,260
966,0.88,-0.3,0.4,-0.31,-1.95,-1.95,341,447,419,463,257
967,0.87,-0.31,0.4,-0.24,-2.75,-2.14,339,447,421,467,258
968,0.87,-0.32,0.39,2.2,-3.72,-2.93,342,443,422,466,253
969,0.9,-0.29,0.4,1.95,-0.92,-2.2,341,445,421,468,258
970,0.84,-0.34,0.41,2.32,-0.98,1.89,341,450,418,467,259
971,0.86,-0.32,0.42,0.98,-1.46,-1.65,341,451,420,469,261
972,0.88,-0.31,0.41,-2.87,-4.33,-4.64,340,446,421,470,261
973,0.86,-0.32,0.42,-2.26,-1.16,-0.43,340,446,421,468,256
974,0.85,-0.33,0.43,0.61,-3.36,-1.65,339,452,421,466,258
975,0.87,-0.33,0.41,4.58,0.37,-1.34,341,442,422,467,261
976,0.83,-0.34,0.44,3.6,-2.93,-2.14,343,452,419,477,261
977,0.84,-0.34,0.47,3.23,-2.01,-2.38,342,447,423,468,259
978,0.82,-0.36,0.43,-1.04,-1.46,-1.95,349,446,420,467,261
979,0.83,-0.34,0.45,1.59,-0.24,0.67,341,444,422,469,259
980,0.83,-0.35,0.44,1.95,-2.56,-2.44,342,448,420,467,290
981,0.84,-0.34,0.45,1.71,-3.23,-0.98,337,449,421,470,262
982,0.85,-0.33,0.46,-1.53,-3.48,-2.38,342,446,420,467,262
983,0.84,-0.35,0.44,-2.32,-2.08,-2.08,339,451,420,464,259
984,0.84,-0.36,0.43,0.43,-3.66,-2.5,338,451,421,463,259
985,0.84,-0.33,0.45,2.62,-2.75,-2.56,341,444,423,468,263
986,0.84,-0.35,0.43,-1.71,-2.93,-5.19,342,450,416,464,259
987,0.86,-0.33,0.44,-0.43,-2.38,-2.26,342,450,421,469,261
988,0.86,-0.34,0.45,0.61,-1.89,-0.18,340,454,417,467,262
989,0.85,-0.35,0.43,0.0,-1.46,-1.22,344,450,421,467,261
990,0.84,-0.35,0.43,-0.06,-3.23,-2.5,341,451,420,465,264
991,0.83,-0.37,0.43,-1.4,-2.75,-1.83,344,450,419,465,265
992,0.84,-0.35,0.44,0.98,-2.44,-3.11,341,450,422,482,262
993,0.86,-0.32,0.45,2.75,-4.52,-3.97,342,449,422,468,265
994,0.86,-0.33,0.44,3.97,-6.23,-4.94,345,449,417,466,263
995,0.85,-0.32,0.44,6.84,-4.03,-5.19,342,449,418,467,263
996,0.86,-0.33,0.42,-2.5,-6.16,-3.23,340,450,424,467,262
997,0.86,-0.33,0.42,2.5,-3.36,-1.83,345,450,417,467,262
998,0.86,-0.34,0.42,3.3,-2.99,-1.71,339,443,420,470,265
999,0.86,-0.34,0.42,5.37,-12.88,1.65,343,450,424,466,264
1000,0.85,-0.34,0.42,0.12,-2.62,-3.11,342,452,421,467,261
1001,0.85,-0.33,0.43,-0.18,-3.72,-2.93,345,452,421,470,255
1002,0.92,-0.31,0.24,1.34,-2.5,-2.69,322,464,416,479,229
1003,0.92,-0.3,0.24,2.14,-3.36,-1.46,320,463,417,478,233
1004,0.9,-0.34,0.22,-0.55,-1.77,1.59,323,467,419,483,233
1005,0.95,-0.35,0.22,-2.69,-2.81,-6.71,326,462,416,481,234
1006,0.92,-0.35,0.21,-0.37,-6.41,1.71,320,472,417,481,231
1007,0.93,-0.33,0.23,-5.49,-3.66,3.72,321,456,416,482,234
1008,0.91,-0.36,0.2,3.85,-3.6,-5.0,325,460,413,482,232
1009,0.93,-0.35,0.2,-0.24,2.75,-3.3,321,455,414,481,235
1010,0.93,-0.35,0.21,2.2,-3.3,-7.75,325,455,414,477,235
1011,0.96,-0.44,0.2,23.44,-1.04,-9.83,325,454,414,475,233
1012,0.66,-0.54,0.35,11.84,-2.32,11.41,324,465,413,481,268
1013,0.93,-0.31,0.25,2.14,-4.39,10.99,327,459,416,477,236
1014,0.92,-0.35,0.27,-0.92,-0.49,-3.42,330,458,414,476,243
1015,0.91,-0.34,0.27,0.06,-0.67,-6.53,327,464,414,478,244
1016,0.92,-0.31,0.29,-9.58,4.03,2.69,330,459,415,478,240
1017,0.89,-0.35,0.29,1.1,-3.11,-3.23,329,459,431,476,240
1018,0.91,-0.37,0.28,-7.57,1.83,1.53,328,458,419,476,243
1019,0.88,-0.35,0.33,-1.16,0.55,-3.6,331,459,416,480,240
1020,0.87,-0.4,0.28,-2.01,-0.73,0.18,331,456,415,479,243
1021,0.89,-0.39,0.3,1.28,2.5,-1.28,330,464,412,480,245
1022,0.9,-0.41,0.29,8.73,-5.8,10.74,330,458,413,482,245
1023,0.89,-0.43,0.29,6.23,-3.66,2.81,329,460,412,481,246
1024,0.85,-0.44,0.3,0.92,-0.92,-6.23,331,452,414,480,242
1025,0.83,-0.38,0.37,4.03,4.94,-8.24,334,456,415,480,242
1026,0.87,-0.32,0.44,1.95,-3.66,-0.85,331,454,414,480,241
1027,0.87,-0.35,0.41,3.23,-2.87,-0.85,331,460,418,477,241
1028,0.84,-0.36,0.4,3.72,-4.09,-1.28,331,459,414,478,244
1029,0.85,-0.38,0.4,-4.09,2.32,-8.73,331,455,418,479,242
1030,0.85,-0.35,0.39,0.55,-3.17,-2.14,332,456,416,480,246
1031,0.87,-0.34,0.4,0.49,-1.1,-3.05,332,459,418,481,246
1032,0.86,-0.35,0.41,5.25,-2.14,-6.23,329,457,416,479,245
1033,0.85,-0.34,0.41,2.69,-2.32,-2.69,330,452,416,478,241
1034,0.85,-0.34,0.4,-0.85,-2.5,-3.72,330,461,418,478,241
1035,0.86,-0.34,0.4,0.55,-3.17,-2.14,331,458,422,480,242
1036,0.87,-0.33,0.41,0.61,-2.56,-2.2,332,452,417,481,245
1037,0.86,-0.34,0.41,-0.18,-2.5,-2.38,333,462,421,475,242
1038,0.85,-0.33,0.41,1.46,-2.69,-2.14,330,460,417,477,245
1039,0.87,-0.33,0.41,-0.37,-3.05,-2.32,332,451,418,482,243
1040,0.87,-0.32,0.42,-7.57,-3.36,-2.93,327,460,420,480,243
1041,0.86,-0.39,0.38,5.8,4.7,-1.53,333,461,417,480,245
1042,0.88,-0.36,0.4,6.41,-3.11,-2.08,330,458,415,480,242
1043,0.85,-0.36,0.39,4.7,-7.57,-4.7,329,457,419,488,241
1044,0.86,-0.33,0.39,0.06,-1.71,-4.88,331,460,419,475,243
1045,0.87,-0.33,0.4,-0.61,-2.14,-1.1,331,462,419,479,245
1046,0.86,-0.33,0.41,-0.06,-2.26,-2.62,331,462,418,475,247
1047,0.85,-0.33,0.4,0.31,-3.85,-1.89,332,458,419,478,245
1048,0.87,-0.32,0.41,-1.65,-3.23,-0.06,333,461,417,480,245
1049,0.86,-0.33,0.41,2.81,-0.98,-1.59,332,457,415,477,246
1050,0.87,-0.34,0.39,-0.31,-4.58,-4.7,334,460,419,484,253
1051,0.88,-0.34,0.4,0.0,-3.6,-0.55,329,461,416,480,247
1052,0.85,-0.34,0.4,-4.88,-2.01,-6.16,330,451,418,477,245
1053,0.86,-0.34,0.41,2.26,-3.48,-2.32,335,455,416,478,248
1054,0.85,-0.35,0.39,-0.85,-2.56,-2.01,335,453,417,480,254
1055,0.86,-0.36,0.38,1.71,-2.62,-2.08,331,455,416,478,243
1056,0.8,-0.37,0.41,-0.49,-1.65,-1.16,332,454,418,479,247
1057,0.95,-0.3,0.38,2.99,0.55,-3.97,334,459,421,476,249
1058,0.9,-0.31,0.39,0.12,-1.59,-15.99,338,463,424,477,255
1059,0.89,-0.29,0.38,6.41,-14.04,3.91,334,463,416,470,240
1060,0.84,-0.31,0.4,2.08,8.79,-6.23,335,461,418,476,247
1061,0.88,-0.31,0.41,-4.27,-2.62,-1.22,334,458,420,473,246
1062,0.88,-0.32,0.4,0.55,-7.14,-1.83,338,455,418,475,252
1063,0.86,-0.33,0.41,-2.99,-2.81,0.37,338,457,421,476,250
1064,0.85,-0.33,0.42,-2.08,2.5,-4.33,338,454,416,477,247
1065,0.85,-0.32,0.43,-1.16,-3.85,-3.05,342,455,419,474,250
1066,0.86,-0.32,0.42,1.22,-4.64,-2.32,335,458,422,477,250
1067,0.85,-0.32,0.43,0.61,-3.91,-2.38,338,450,420,477,254
1068,0.87,-0.32,0.43,-0.18,-4.64,-2.2,337,459,422,479,251
1069,0.87,-0.32,0.42,2.26,-2.56,-2.32,338,462,419,477,247
1070,0.87,-0.32,0.42,0.55,-2.44,-2.87,338,460,420,480,249
1071,0.86,-0.32,0.43,-1.4,-3.05,-1.83,339,457,418,478,249
1072,0.84,-0.33,0.42,-0.73,-2.32,-1.16,336,458,420,479,249
1073,0.85,-0.33,0.43,0.92,-3.05,-1.89,336,458,419,479,248
1074,0.84,-0.33,0.43,0.06,-3.36,-3.36,339,457,421,474,251
1075,0.86,-0.35,0.41,2.81,-2.26,-4.82,338,457,422,477,250
1076,0.85,-0.33,0.42,0.92,-2.93,-2.44,339,457,419,479,246
1077,0.86,-0.33,0.43,1.22,-2.5,-2.5,341,458,420,474,251
1078,0.87,-0.32,0.42,0.43,-4.03,-2.69,340,458,420,478,250
1079,0.86,-0.33,0.43,1.83,-3.11,-2.56,339,460,416,480,251
1080,0.87,-0.33,0.42,3.05,-3.17,-2.38,339,460,422,477,259
1081,0.85,-0.32,0.43,0.31,-3.05,-3.17,340,451,420,478,250
1082,0.85,-0.33,0.42,1.53,-2.93,-3.23,339,458,417,475,250
1083,0.85,-0.34,0.42,-0.12,-3.17,-1.46,339,456,422,479,250
1084,0.87,-0.32,0.42,0.24,-3.6,-2.99,337,452,418,476,251
1085,0.86,-0.31,0.42,3.3,-3.17,-4.09,339,455,422,478,252
1086,0.85,-0.32,0.44,1.04,-2.44,-2.26,337,459,421,477,251
1087,0.85,-0.32,0.43,-0.43,-3.23,-2.5,335,460,419,479,249
1088,0.85,-0.32,0.43,0.61,-2.56,-1.77,340,457,421,488,250
1089,0.86,-0.32,0.43,1.1,-2.75,-2.08,335,452,419,478,249
1090,0.86,-0.32,0.43,4.46,-2.87,-2.62,341,455,422,478,250
1091,0.85,-0.32,0.42,-0.49,-4.33,-2.62,338,458,420,476,248
1092,0.87,-0.3,0.43,1.89,-3.23,-2.81,337,454,422,477,249
1093,0.87,-0.31,0.43,-0.49,-3.72,-3.42,338,459,422,473,250
1094,0.87,-0.29,0.44,1.04,-2.62,0.12,340,458,428,479,252
1095,0.87,-0.3,0.44,-0.31,-3.54,-2.14,338,454,420,476,253
1096,0.86,-0.32,0.43,2.38,-2.26,-2.62,338,455,422,478,250
1097,0.86,-0.32,0.44,-1.65,-3.78,-2.32,339,468,418,479,251
1098,0.86,-0.32,0.43,1.22,-2.62,-2.62,340,449,419,479,251
1099,0.85,-0.32,0.44,2.01,-2.2,-2.69,340,455,418,474,252
1100,0.86,-0.31,0.44,1.53,-3.17,-2.56,340,455,419,475,251
1101,0.85,-0.31,0.44,-0.18,-0.55,-4.58,338,452,420,479,253
1102,0.84,-0.31,0.44,0.18,-2.69,-2.44,336,455,419,473,254
1103,0.84,-0.32,0.44,0.06,-3.05,-2.14,342,454,417,478,268
1104,0.85,-0.31,0.45,-0.49,-1.71,-2.01,338,459,419,479,252
1105,0.84,-0.32,0.45,-2.2,-2.2,-3.11,336,452,415,477,249
1106,0.86,-0.31,0.45,2.38,-3.42,-2.56,338,449,422,476,251
1107,0.85,-0.33,0.44,0.06,-3.3,-3.36,338,452,420,480,255
1108,0.86,-0.31,0.45,-1.16,-2.56,-5.68,337,453,421,476,251
1109,0.86,-0.31,0.46,1.04,-3.48,-2.5,339,452,422,479,252
1110,0.85,-0.31,0.45,0.12,-3.91,-1.89,336,454,422,484,254
1111,0.85,-0.31,0.45,1.16,-2.81,-3.17,339,454,419,475,252
1112,0.85,-0.31,0.45,-0.12,-3.23,-3.23,335,453,421,476,250
1113,0.84,-0.32,0.46,-0.85,-3.54,-2.44,335,454,427,473,252
1114,0.85,-0.3,0.48,-1.59,-3.6,-0.92,343,454,423,472,254
1115,0.83,-0.3,0.48,1.04,-2.38,-0.67,338,453,419,476,255
1116,0.87,-0.31,0.45,-2.32,-4.94,-0.98,339,449,422,475,255
1117,0.81,-0.35,0.48,2.81,-0.18,1.22,336,454,418,474,247
1118,0.84,-0.35,0.46,2.99,-3.66,-4.27,336,454,422,479,250
1119,0.84,-0.34,0.46,0.0,-3.17,-2.2,340,454,419,478,253
1120,0.82,-0.35,0.46,0.79,-3.05,-2.99,339,456,420,474,252
1121,0.83,-0.34,0.47,1.28,-3.6,-3.17,339,455,419,477,252
1122,0.83,-0.34,0.47,1.4,-3.3,-2.93,339,452,423,476,259
1123,0.83,-0.34,0.46,0.43,-2.56,-3.54,347,455,419,474,250
1124,0.84,-0.33,0.47,-0.55,-2.56,-2.01,338,452,420,477,253
1125,0.83,-0.34,0.46,0.98,-3.3,-2.62,340,454,416,476,255
1126,0.84,-0.33,0.46,0.73,-3.42,-2.5,339,454,420,473,251
1127,0.83,-0.34,0.45,-1.22,-2.69,-2.32,340,456,423,475,254
1128,0.84,-0.35,0.45,1.34,-2.69,-1.83,337,454,421,475,249
1129,0.83,-0.33,0.47,0.79,-2.87,-2.93,337,452,420,475,255
1130,0.84,-0.34,0.46,1.34,-3.6,-3.6,335,453,422,474,252
1131,0.85,-0.33,0.45,0.18,-2.81,-3.05,339,457,422,476,250
1132,0.83,-0.32,0.47,-0.31,-2.81,-2.93,335,452,420,479,251
1133,0.84,-0.32,0.46,1.28,-2.99,-2.56,341,471,421,475,252
1134,0.84,-0.33,0.45,0.0,-3.05,-2.81,342,454,421,477,251
1135,0.84,-0.34,0.44,0.55,-2.56,-2.44,341,450,423,473,251
1136,0.83,-0.34,0.45,2.81,-12.82,4.39,342,456,422,477,251
1137,0.84,-0.31,0.46,0.98,-3.91,-3.23,340,450,421,479,251
1138,0.83,-0.35,0.43,-1.16,-3.11,-0.85,339,453,420,477,255
1139,0.84,-0.33,0.46,0.12,-2.93,-2.38,340,456,417,472,255
1140,0.84,-0.32,0.46,0.85,-3.23,-3.17,351,454,420,476,254
1141,0.84,-0.33,0.45,-1.16,-2.87,-3.42,341,455,423,478,253
1142,0.83,-0.32,0.46,0.37,-3.23,-2.08,338,456,431,476,250
1143,0.84,-0.33,0.46,0.79,-2.62,-2.32,342,455,421,474,255
1144,0.84,-0.33,0.45,-1.71,-3.78,-3.11,340,455,417,479,250
1145,0.84,-0.33,0.45,-1.22,-3.17,-2.87,339,454,420,479,254
1146,0.84,-0.33,0.46,1.22,-2.93,-3.3,336,454,420,477,253
1147,0.87,-0.32,0.45,0.67,-3.05,-2.69,338,456,421,481,252
1148,0.85,-0.32,0.45,0.61,-2.38,-2.08,338,449,421,473,251
1149,0.84,-0.32,0.46,-0.31,-3.11,-2.14,345,456,420,475,254
1150,0.86,-0.32,0.44,-0.37,-1.95,-1.83,338,452,420,472,252
1151,0.84,-0.32,0.45,-0.31,-2.93,-1.95,336,457,421,473,252
1152,0.84,-0.33,0.44,-1.1,-4.03,-2.38,337,455,417,476,253
1153,0.85,-0.32,0.44,1.22,-1.95,-2.01,339,458,418,476,251
1154,0.86,-0.32,0.44,-0.92,-2.56,-2.26,338,457,421,472,255
1155,0.83,-0.33,0.45,1.1,-2.62,-3.66,336,453,419,475,255
1156,0.84,-0.32,0.46,0.31,-3.54,-3.05,340,457,420,476,257
1157,0.85,-0.33,0.43,-1.34,-4.09,-1.95,340,465,417,477,250
1158,0.84,-0.34,0.44,-0.43,-2.26,-3.05,337,456,419,480,252
1159,0.84,-0.34,0.44,2.2,-4.7,-3.36,340,457,420,475,255
1160,0.84,-0.32,0.45,1.28,-2.2,-2.99,340,454,419,478,253
1161,0.84,-0.33,0.44,0.12,-3.54,-1.77,338,448,420,475,252
1162,0.86,-0.32,0.44,-0.55,-2.69,-2.32,340,452,421,478,256
1163,0.84,-0.33,0.44,-0.12,-3.36,-1.89,338,449,420,479,250
1164,0.85,-0.33,0.44,1.77,-2.75,-2.62,345,451,420,473,253
1165,0.85,-0.32,0.44,1.16,-2.69,-2.75,340,453,422,477,256
1166,0.84,-0.32,0.45,1.28,-2.38,-3.05,341,453,420,475,253
1167,0.84,-0.33,0.44,-0.49,-2.5,-2.75,338,453,422,475,254
1168,0.87,-0.32,0.41,-1.65,-2.08,-2.93,338,454,422,493,254
1169,0.85,-0.32,0.44,0.61,-3.3,-1.53,342,450,423,475,254
1170,0.8,-0.32,0.46,-2.26,-16.66,-1.46,339,457,424,473,251
1171,0.87,-0.32,0.4,-1.4,-1.95,-3.48,338,469,422,471,251
1172,0.88,-0.32,0.39,-0.37,-3.91,-2.26,339,454,419,475,255
1173,0.88,-0.31,0.39,0.18,-3.3,-1.28,339,463,418,476,254
1174,0.89,-0.3,0.4,-0.37,-2.38,-2.01,341,456,421,474,257
1175,0.86,-0.32,0.4,0.79,-2.56,-2.5,342,453,424,478,254
1176,0.86,-0.32,0.39,0.79,-2.99,-1.83,339,453,422,471,254
1177,0.88,-0.32,0.39,-1.22,-2.32,-2.99,340,451,424,475,257
1178,0.87,-0.31,0.4,1.28,-2.87,-2.26,340,457,421,475,256
1179,0.87,-0.31,0.4,3.23,-3.36,-2.99,338,451,419,475,252
1180,0.86,-0.32,0.4,-0.43,-3.05,-2.75,340,453,429,473,253
1181,0.87,-0.31,0.4,0.85,-2.62,-2.81,340,452,417,479,250
1182,0.89,-0.3,0.4,2.26,-4.09,-1.4,341,452,420,472,255
1183,0.86,-0.3,0.41,0.92,-3.11,-3.05,339,449,420,478,256
1184,0.87,-0.3,0.42,0.92,-2.62,-2.69,337,456,432,473,255
1185,0.87,-0.31,0.4,0.61,-3.05,-2.62,338,451,423,476,267
1186,0.87,-0.31,0.41,1.53,-2.81,-3.54,338,451,421,471,254
1187,0.87,-0.3,0.41,0.31,-2.87,-1.95,340,453,422,474,257
1188,0.86,-0.31,0.41,2.32,-3.11,-2.2,341,454,423,474,257
1189,0.88,-0.3,0.41,1.4,-2.5,-2.26,340,453,422,472,257
1190,0.87,-0.3,0.41,-0.61,-2.56,-2.01,339,457,416,475,255
1191,0.84,-0.31,0.43,3.23,-1.83,-2.26,343,449,421,474,257
1192,0.85,-0.3,0.42,1.65,-3.85,-4.03,339,454,422,477,254
1193,0.88,-0.28,0.42,0.0,-3.17,-2.69,339,448,423,474,255
1194,0.86,-0.29,0.42,-0.49,-3.36,-1.22,338,446,421,476,255
1195,0.89,-0.29,0.41,0.24,-2.87,-2.69,340,452,418,475,255
1196,0.87,-0.31,0.4,-0.06,-3.42,-1.77,336,456,418,474,255
1197,0.87,-0.29,0.42,0.73,-2.87,-2.99,337,452,419,472,258
1198,0.88,-0.29,0.42,-0.06,-2.2,-3.91,340,452,419,473,255
1199,0.86,-0.28,0.44,0.49,-2.62,-2.2,340,448,417,473,255
1200,0.87,-0.3,0.42,-1.71,-4.21,-4.03,338,452,420,474,258
1201,0.87,-0.3,0.41,1.04,-2.69,-3.48,339,446,417,476,258
1202,0.86,-0.3,0.42,1.4,-3.3,-3.11,336,451,422,477,256
1203,0.87,-0.3,0.41,2.5,-1.77,-2.01,341,452,422,471,260
1204,0.88,-0.29,0.42,-0.55,-3.6,-2.38,339,446,419,472,257
1205,0.88,-0.29,0.42,1.28,-3.72,-3.66,339,451,421,476,252
1206,0.87,-0.3,0.42,0.61,-3.05,-3.3,339,449,420,477,257
1207,0.87,-0.3,0.42,0.67,-3.42,-3.23,335,455,420,473,260
1208,0.87,-0.3,0.41,0.73,-2.69,-3.05,340,446,423,474,259
1209,0.87,-0.29,0.42,1.1,-3.48,-2.75,340,447,420,472,255
1210,0.88,-0.29,0.43,4.21,-2.81,-2.56,340,455,419,473,258
1211,0.86,-0.29,0.44,0.12,-3.3,-2.44,341,452,422,473,260
1212,0.86,-0.29,0.44,1.83,-3.42,-2.38,341,455,421,471,261
1213,0.87,-0.28,0.43,1.59,-3.42,-3.23,343,456,420,474,266
1214,0.87,-0.28,0.43,1.1,-2.2,-2.5,338,462,421,475,259
1215,0.87,-0.28,0.43,-0.73,-3.85,-2.75,337,461,414,473,254
1216,0.88,-0.28,0.43,1.46,-3.66,-1.95,340,456,425,474,262
1217,0.87,-0.29,0.42,1.1,-3.36,-3.23,337,458,424,477,258
1218,0.86,-0.29,0.43,2.2,-2.99,-2.62,339,453,420,475,260
1219,0.87,-0.29,0.42,2.69,-3.42,-2.38,344,452,423,473,258
1220,0.87,-0.29,0.42,2.93,-4.64,0.18,336,456,433,476,262
1221,0.87,-0.29,0.42,-2.08,-3.17,-2.81,340,467,419,475,259
1222,0.86,-0.29,0.42,2.08,-2.56,-2.5,341,457,419,474,264
1223,0.87,-0.28,0.43,2.69,-3.48,-2.32,342,455,420,473,262
1224,0.87,-0.28,0.42,0.37,-3.6,-3.36,343,455,416,477,261
1225,0.87,-0.26,0.43,1.4,-3.17,-3.11,345,460,421,479,261
1226,0.88,-0.26,0.43,2.01,-4.33,-3.6,342,459,420,474,252
1227,0.89,-0.25,0.44,-1.04,-6.04,-4.33,341,455,417,476,262
1228,0.88,-0.26,0.43,3.72,-1.77,-2.5,343,456,423,474,264
1229,0.88,-0.27,0.43,0.31,-3.17,-2.81,343,454,430,473,264
1230,0.89,-0.24,0.44,2.08,-2.93,-2.01,342,455,420,475,262
1231,0.9,-0.26,0.42,-1.28,-2.99,-2.62,341,456,420,474,263
1232,0.89,-0.26,0.43,1.83,-3.72,-3.97,342,456,420,470,263
1233,0.89,-0.25,0.43,1.89,-4.33,-2.75,342,455,420,476,264
1234,0.87,-0.26,0.43,-0.18,-3.05,-2.56,341,456,421,474,264
1235,0.89,-0.26,0.42,2.14,-2.69,-3.3,342,456,423,474,263
1236,0.89,-0.26,0.43,-0.12,-3.17,-2.62,341,459,418,475,263
1237,0.87,-0.26,0.43,-0.43,-2.56,-1.95,340,455,437,476,262
1238,0.88,-0.27,0.42,0.67,-2.81,-3.42,342,458,419,475,263
1239,0.87,-0.26,0.43,0.79,-2.87,-2.87,342,453,421,472,264
1240,0.88,-0.26,0.43,0.79,-3.05,-1.71,341,459,416,471,265
1241,0.88,-0.26,0.43,-0.49,-2.26,-2.5,341,452,422,475,263
1242,0.91,-0.23,0.46,-11.41,-2.38,2.81,349,455,417,471,263
1243,0.89,-0.27,0.44,1.34,-2.75,-2.87,342,450,418,477,264
1244,0.86,-0.31,0.43,-12.94,2.81,4.82,340,455,420,475,265
1245,0.82,-0.38,0.43,-2.81,-0.43,0.0,344,452,420,473,261
1246,0.84,-0.37,0.43,-0.92,-3.91,-2.26,341,469,420,477,265
1247,0.83,-0.37,0.44,0.85,-2.93,-3.6,342,460,420,474,261
1248,0.84,-0.36,0.44,1.53,-3.91,-2.99,341,459,420,470,263
1249,0.83,-0.36,0.43,1.53,-2.87,-3.54,341,454,417,474,264
1250,0.83,-0.37,0.43,1.89,-2.99,-2.99,339,459,423,470,264
1251,0.86,-0.32,0.46,2.87,-3.48,-4.09,342,451,423,476,266
1252,0.85,-0.34,0.44,1.77,-3.11,-2.81,342,460,423,473,265
1253,0.84,-0.34,0.44,-0.49,-2.69,-2.44,341,458,421,474,261
1254,0.84,-0.35,0.44,0.67,-4.03,-2.62,342,453,420,476,265
1255,0.85,-0.34,0.44,-0.92,-4.03,-1.65,341,465,418,476,266
1256,0.84,-0.34,0.44,1.53,-2.75,-2.32,340,461,421,474,263
1257,0.84,-0.35,0.43,1.22,-3.23,-2.26,343,457,421,471,263
1258,0.84,-0.35,0.43,-2.56,-1.22,-2.01,343,455,422,476,265
1259,0.85,-0.33,0.45,0.31,-2.5,-2.62,345,456,416,476,266
1260,0.85,-0.34,0.44,-2.14,-1.4,-0.49,345,457,425,475,264
1261,0.84,-0.35,0.44,0.49,-3.42,-0.49,338,459,418,476,267
1262,0.84,-0.35,0.43,2.2,-3.3,-1.4,342,454,421,479,290
1263,0.84,-0.36,0.43,0.0,-3.66,-2.87,346,455,417,475,264
1264,0.84,-0.36,0.43,0.92,-3.54,-2.01,340,455,421,469,300
1265,0.85,-0.35,0.44,-0.43,-4.39,-2.75,345,459,420,475,262
1266,0.85,-0.34,0.44,-0.12,-2.75,-2.5,344,450,417,474,260
1267,0.83,-0.35,0.45,1.95,-2.62,-2.14,344,452,418,478,265
1268,0.84,-0.35,0.44,1.34,-2.62,-2.81,339,459,421,471,266
1269,0.84,-0.34,0.45,1.16,-3.48,-2.81,341,459,420,470,269
1270,0.84,-0.33,0.45,0.06,-3.23,-1.77,339,455,420,470,265
1271,0.87,-0.32,0.45,0.0,-3.05,-2.38,343,458,422,473,268
1272,0.85,-0.33,0.45,0.85,-3.72,-1.83,344,458,424,479,268
1273,0.85,-0.34,0.44,0.73,-2.62,-1.83,339,458,421,470,266
1274,0.84,-0.34,0.44,0.06,-3.36,-2.62,344,457,423,473,262
1275,0.84,-0.33,0.45,2.32,-3.11,-1.77,341,463,420,476,262
1276,0.85,-0.32,0.45,-1.59,-2.38,-3.17,345,455,420,476,264
1277,0.84,-0.33,0.44,1.1,-3.17,-1.77,341,459,423,473,261
1278,0.83,-0.34,0.44,0.61,-2.14,-2.38,343,454,419,471,265
1279,0.84,-0.33,0.45,1.04,-1.89,-2.2,339,456,421,473,266
1280,0.83,-0.34,0.45,-0.61,-3.3,-1.1,345,455,433,473,264
1281,0.84,-0.34,0.45,0.24,-3.54,-2.87,345,454,423,477,267
1282,0.84,-0.34,0.44,-0.18,-2.93,-3.36,347,456,420,472,268
1283,0.84,-0.34,0.45,1.22,-2.87,-2.75,343,457,420,476,265
1284,0.85,-0.33,0.45,-2.56,-3.11,-3.11,343,458,424,472,269
1285,0.84,-0.34,0.44,1.34,-2.81,-2.26,342,452,420,469,266
1286,0.84,-0.34,0.44,0.85,-3.85,-2.56,342,451,422,476,280
1287,0.83,-0.33,0.45,-0.12,-1.95,-2.01,341,458,422,477,268
1288,0.84,-0.33,0.45,-0.12,-1.83,0.31,343,453,420,473,265
1289,0.86,-0.31,0.45,1.77,-3.23,-2.69,338,458,420,474,266
1290,0.87,-0.33,0.42,-1.16,-2.32,-3.23,340,449,422,470,266
1291,0.87,-0.32,0.43,1.1,-3.3,-4.76,346,453,417,471,268
1292,0.85,-0.31,0.44,2.75,-1.53,-2.26,342,452,420,476,269
1293,0.85,-0.33,0.43,0.43,-2.2,-2.26,345,452,422,473,269
1294,0.86,-0.32,0.43,2.44,-2.81,-2.44,343,455,420,472,265
1295,0.85,-0.33,0.42,6.1,-0.98,-2.56,343,454,422,475,266
1296,0.84,-0.32,0.45,-0.06,-3.85,-3.11,343,453,421,469,268
1297,0.85,-0.32,0.44,1.95,-2.81,-2.01,344,455,422,472,266
1298,0.86,-0.32,0.44,-0.12,-2.99,-2.87,342,457,420,472,280
1299,0.85,-0.31,0.45,2.69,-4.46,-6.16,345,451,420,473,266
1300,0.85,-0.31,0.44,1.71,-3.48,-2.69,344,452,419,476,266
1301,0.85,-0.31,0.44,1.83,-1.89,-2.01,342,458,416,475,268
1302,0.86,-0.3,0.44,-0.24,-2.93,-2.56,342,454,421,473,265
1303,0.86,-0.31,0.44,-0.31,-2.38,-2.2,341,454,422,473,266
1304,0.84,-0.31,0.45,0.06,-2.01,-3.05,341,458,421,471,268
1305,0.87,-0.3,0.44,1.1,-4.15,-3.42,343,455,425,473,264
1306,0.85,-0.31,0.44,-2.38,-3.3,-3.17,343,452,417,474,267
1307,0.85,-0.31,0.44,0.12,-3.11,-2.56,339,453,421,472,269
1308,0.85,-0.3,0.45,1.46,-3.42,-2.32,344,449,420,473,270
1309,0.86,-0.3,0.44,1.1,-4.15,-2.32,345,452,419,473,267
1310,0.86,-0.31,0.43,-0.12,-2.26,-1.34,342,457,420,472,267
1311,0.85,-0.32,0.44,0.0,-2.44,-1.22,344,454,423,467,269
1312,0.85,-0.32,0.44,-0.43,-2.93,-3.42,343,457,421,473,268
1313,0.85,-0.32,0.44,-0.18,-2.62,-1.53,342,456,420,472,269
1314,0.84,-0.33,0.44,2.93,-2.2,-1.59,341,454,418,471,272
1315,0.85,-0.34,0.44,2.38,-2.99,-1.83,343,453,422,473,271
1316,0.85,-0.31,0.47,-6.47,-4.27,-4.03,345,455,418,475,267
1317,0.84,-0.33,0.45,-0.67,-3.42,-1.95,343,453,414,470,270
1318,0.84,-0.32,0.45,1.1,-2.99,-3.54,344,457,415,488,277
1319,0.85,-0.32,0.45,-0.06,-3.54,-2.32,339,453,421,473,270
1320,0.85,-0.31,0.46,0.85,-2.81,-2.75,343,458,421,472,272
1321,0.85,-0.31,0.46,-0.85,-3.3,-1.71,343,452,420,475,270
1322,0.84,-0.32,0.45,1.22,-2.81,-1.71,342,458,419,476,272
1323,0.85,-0.31,0.45,1.04,-3.42,-1.34,341,455,419,470,270
1324,0.83,-0.33,0.45,-0.37,-3.42,-2.14,342,456,417,470,272
1325,0.83,-0.33,0.45,-0.06,-2.01,-2.99,344,459,431,469,271
1326,0.84,-0.32,0.45,-0.06,-2.99,-3.42,338,453,419,474,272
1327,0.84,-0.32,0.45,-0.79,-2.62,-2.2,343,459,420,471,270
1328,0.85,-0.32,0.45,-0.31,-2.69,-2.44,339,457,418,470,271
1329,0.87,-0.28,0.47,1.59,-3.17,-4.82,343,451,419,473,271
1330,0.85,-0.3,0.46,0.92,-3.36,-3.05,343,459,417,469,270
1331,0.85,-0.31,0.46,-0.18,-3.97,-1.46,344,450,418,473,273
1332,0.85,-0.32,0.45,1.28,-3.05,-2.01,342,456,418,483,267
1333,0.84,-0.33,0.45,-1.1,-1.83,-3.72,342,450,420,474,274
1334,0.84,-0.32,0.45,0.98,-2.69,-2.75,343,458,419,473,270
1335,0.85,-0.32,0.45,-0.18,-2.99,-2.93,337,451,419,473,266
1336,0.86,-0.31,0.44,0.79,-2.38,-2.69,343,452,420,471,271
1337,0.86,-0.31,0.45,-1.71,-2.75,-2.32,343,461,419,477,273
1338,0.86,-0.3,0.45,0.67,-3.6,-3.3,342,460,417,469,274
1339,0.86,-0.31,0.45,-0.18,-4.15,-2.38,342,453,418,476,272
1340,0.86,-0.31,0.44,-1.77,-2.69,-2.75,343,456,422,475,273
1341,0.86,-0.31,0.44,0.61,-1.77,-2.93,354,451,419,469,275
1342,0.85,-0.31,0.43,2.26,-2.26,-2.69,344,457,422,471,273
1343,0.86,-0.3,0.45,0.67,-2.38,-2.5,344,456,414,471,274
1344,0.86,-0.3,0.45,-0.18,-3.6,-2.93,341,455,418,469,274
1345,0.86,-0.29,0.45,0.55,-3.6,-2.81,340,461,419,468,272
1346,0.86,-0.29,0.44,0.37,-3.42,-2.69,343,452,419,472,277
1347,0.86,-0.3,0.44,0.12,-2.93,-2.5,343,455,416,475,274
1348,0.87,-0.3,0.44,0.61,-3.66,-1.89,355,460,419,473,274
1349,0.86,-0.29,0.44,0.31,-2.5,-3.11,340,459,422,472,274
1350,0.86,-0.3,0.45,0.06,-3.17,-2.38,344,447,418,473,276
1351,0.87,-0.29,0.45,-0.37,-3.23,-1.65,342,459,416,469,274
1352,0.86,-0.29,0.45,5.13,-0.85,-3.05,343,451,419,475,276
1353,0.85,-0.29,0.45,1.1,-3.54,-3.72,344,460,420,472,287
1354,0.87,-0.28,0.46,-1.04,-3.36,-3.54,342,460,419,471,274
1355,0.86,-0.29,0.45,1.65,-13.06,3.36,344,462,420,472,273
1356,0.86,-0.29,0.45,0.06,-2.14,-2.62,345,457,421,468,282
1357,0.83,-0.32,0.43,-4.15,-3.97,-6.04,345,459,422,472,276
1358,0.89,-0.3,0.42,-9.52,-2.93,0.12,345,458,421,470,276
1359,0.92,-0.26,0.41,-0.85,-10.07,-10.01,346,454,422,469,276
1360,0.89,-0.26,0.41,3.42,0.06,-1.1,344,458,423,473,277
1361,0.81,-0.34,0.43,-8.36,1.4,3.66,342,458,420,471,282
1362,0.84,-0.33,0.44,0.24,-2.01,-1.46,343,460,419,470,296
1363,0.83,-0.35,0.43,1.53,-5.31,-2.87,345,452,417,481,304
1364,0.86,-0.37,0.39,-2.56,-5.92,-1.77,345,458,423,486,278
1365,0.86,-0.36,0.39,0.92,-5.0,-0.31,344,456,422,471,275
1366,0.85,-0.36,0.4,1.95,-2.69,-4.39,343,453,422,474,277
1367,0.85,-0.36,0.41,1.04,-2.75,-1.65,341,457,419,468,280
1368,0.86,-0.35,0.42,2.62,-3.42,-3.3,345,458,423,472,280
1369,0.86,-0.36,0.39,0.31,-2.5,-2.93,338,461,422,472,280
1370,0.84,-0.35,0.41,2.99,-2.56,-2.56,345,452,421,471,277
1371,0.86,-0.34,0.41,1.59,-3.3,-3.54,351,459,421,472,278
1372,0.81,-0.35,0.41,-0.12,-0.73,-4.94,343,457,424,471,276
1373,0.85,-0.34,0.41,0.55,-4.09,-3.11,346,458,421,475,279
1374,0.87,-0.33,0.41,0.18,-4.33,-1.83,345,458,422,475,278
1375,0.86,-0.34,0.4,0.55,-3.42,-2.56,345,462,422,475,275
1376,0.85,-0.33,0.41,1.53,-4.33,-1.59,347,458,426,470,279
1377,0.84,-0.32,0.41,3.48,-0.73,-14.16,347,456,422,474,279
1378,0.87,-0.32,0.41,0.85,-2.62,-2.69,345,452,422,473,278
1379,0.87,-0.31,0.4,0.24,-2.69,-2.75,343,460,420,470,279
1380,0.87,-0.3,0.42,0.12,-2.5,-2.81,345,460,422,470,283
1381,0.86,-0.32,0.39,-3.36,-1.83,-1.34,347,458,420,470,278
1382,0.87,-0.3,0.42,-0.06,-2.56,-1.4,344,457,423,474,275
1383,0.87,-0.3,0.42,1.59,-3.78,-1.46,345,457,421,469,280
1384,0.86,-0.31,0.42,1.53,-3.11,-2.44,345,457,423,471,277
1385,0.88,-0.31,0.41,0.79,-2.99,-1.77,346,458,422,472,277
1386,0.86,-0.29,0.39,8.24,-6.47,-8.48,346,452,422,475,277
1387,0.88,-0.29,0.41,-1.04,-4.21,-1.71,342,455,423,471,278
1388,0.88,-0.3,0.42,-9.4,1.4,0.55,345,457,418,475,277
1389,0.88,-0.37,0.41,-20.51,11.66,-1.04,345,456,421,475,278
1390,0.83,-0.44,0.35,-29.48,-10.56,-3.3,343,460,426,470,276
1391,0.82,-0.52,0.25,13.73,-9.58,11.47,341,457,419,472,270
1392,0.78,-0.52,0.31,-7.32,4.64,-1.71,340,460,424,479,269
1393,0.85,-0.5,0.29,9.28,-4.15,-1.65,342,457,421,477,268
1394,0.83,-0.5,0.31,-6.71,10.74,-6.23,342,460,421,469,271
1395,0.78,-0.5,0.36,-0.31,-4.15,-0.98,333,453,421,464,271
1396,0.8,-0.5,0.35,0.92,-3.78,-3.97,345,453,424,469,271
1397,0.79,-0.5,0.36,1.89,-3.97,-2.62,342,454,417,472,274
1398,0.7,-0.59,0.33,-9.4,22.03,-27.16,343,461,421,465,273
1399,0.98,-0.26,0.34,11.84,-18.31,-6.35,343,453,421,467,275
1400,0.9,-0.3,0.37,4.58,-8.3,0.18,342,460,421,465,271
1401,0.86,-0.32,0.37,2.81,-6.59,0.61,341,455,424,472,271
1402,0.87,-0.32,0.37,1.22,-2.87,-2.44,344,454,423,469,272
1403,0.88,-0.32,0.38,3.72,-4.52,0.61,341,456,420,469,272
1404,0.88,-0.32,0.36,4.15,-1.89,-1.89,341,460,421,469,281
1405,0.88,-0.32,0.36,1.59,-3.6,-2.69,343,456,421,468,273
1406,0.89,-0.31,0.36,1.83,-3.17,-2.56,341,455,423,472,276
1407,0.88,-0.31,0.36,3.54,-1.53,-2.32,340,460,421,468,273
1408,0.9,-0.32,0.34,-2.01,-4.7,0.18,338,459,427,468,273
1409,0.89,-0.32,0.36,2.26,-3.17,-2.87,340,460,423,472,276
1410,0.88,-0.31,0.37,2.38,-2.14,-2.26,343,454,422,470,276
1411,0.88,-0.32,0.37,-0.55,-1.53,-3.17,340,456,421,469,279
1412,0.89,-0.31,0.37,-1.16,-2.32,-1.71,341,455,424,467,274
1413,0.87,-0.33,0.37,0.85,-2.87,-3.85,342,454,414,462,271
1414,0.86,-0.32,0.33,-1.71,-11.35,-5.43,342,452,406,438,242
1415,0.87,-0.3,0.38,12.08,-3.17,-0.43,340,455,406,453,229
1416,0.88,-0.31,0.39,-1.16,-1.83,-2.93,334,449,419,465,239
1417,0.88,-0.3,0.4,-1.1,-3.05,-2.69,337,450,413,465,243
1418,0.88,-0.31,0.38,1.04,-5.07,-1.95,337,455,417,466,241
1419,0.87,-0.3,0.41,0.79,-2.56,-2.93,338,450,418,468,253
1420,0.89,-0.3,0.39,-0.31,-5.07,-2.38,338,455,417,469,244
1421,0.88,-0.31,0.39,-0.18,-3.54,-3.91,341,449,416,470,246
1422,0.89,-0.31,0.37,-0.12,-4.09,-3.91,336,456,419,473,243
1423,0.88,-0.29,0.39,-3.17,-2.62,-0.98,339,448,419,465,241
1424,0.88,-0.3,0.38,2.99,-3.36,-2.56,341,448,419,468,240
1425,0.89,-0.29,0.38,5.86,-1.4,-0.43,340,449,416,478,247
1426,0.88,-0.32,0.38,0.37,-2.08,-0.85,340,444,414,477,247
1427,0.88,-0.31,0.38,3.05,-2.93,-0.37,344,448,421,468,247
1428,0.88,-0.3,0.4,-0.98,-1.83,-1.83,339,444,419,467,248
1429,0.88,-0.31,0.39,1.4,-2.69,-2.26,341,439,421,468,246
1430,0.88,-0.31,0.39,-1.4,-3.66,-2.08,338,444,417,469,249
1431,0.88,-0.3,0.4,-0.55,-2.5,-2.01,339,447,418,475,246
1432,0.87,-0.31,0.4,1.4,-2.99,-2.69,340,446,418,468,245
1433,0.89,-0.3,0.4,1.22,-2.69,-2.32,341,447,418,468,249
1434,0.88,-0.31,0.4,0.92,-2.01,-1.83,341,448,417,466,248
1435,0.87,-0.37,0.36,-0.79,-3.17,-1.89,340,439,418,471,248
1436,0.88,-0.34,0.37,-1.1,6.53,-3.72,341,443,418,470,251
1437,0.89,-0.33,0.37,-2.08,-3.54,-4.88,343,439,421,470,248
1438,0.9,-0.33,0.37,-5.0,-2.14,-4.76,342,443,419,466,250
1439,0.9,-0.31,0.37,-0.37,-3.66,-3.6,339,446,421,469,250
1440,0.88,-0.31,0.39,0.31,-3.91,-2.2,340,443,420,471,251
1441,0.87,-0.32,0.39,0.98,-2.14,-2.87,339,444,419,468,251
1442,0.87,-0.32,0.39,0.73,-1.4,-3.97,340,446,417,470,252
1443,0.87,-0.31,0.39,0.12,-0.18,-1.1,339,449,421,468,251
1444,0.89,-0.3,0.4,0.73,-4.58,-2.26,341,443,419,466,252
1445,0.86,-0.32,0.41,5.74,-3.72,-1.77,341,439,418,467,250
1446,0.87,-0.33,0.39,1.04,-1.65,-3.3,340,448,422,467,255
1447,0.87,-0.32,0.4,-0.49,-3.78,-4.21,342,443,418,471,259
1448,0.88,-0.31,0.39,0.85,-3.54,-3.78,342,445,419,467,256
1449,0.88,-0.31,0.4,-0.18,-3.36,-2.62,341,441,420,464,255
1450,0.88,-0.32,0.4,0.85,-3.05,-2.01,338,448,418,468,262
1451,0.86,-0.3,0.41,-1.1,-3.36,-1.1,341,444,423,463,254
1452,0.87,-0.31,0.4,-1.95,-3.42,-2.62,340,442,418,468,256
1453,0.87,-0.31,0.4,2.26,-3.78,-2.5,341,442,422,467,258
1454,0.87,-0.31,0.39,2.14,-4.64,-2.44,339,447,418,471,253
1455,0.87,-0.31,0.4,0.18,-2.62,-3.11,344,446,417,465,259
1456,0.89,-0.31,0.4,-1.04,-3.78,-3.05,343,442,419,466,258
1457,0.87,-0.3,0.39,1.46,-3.91,-2.08,340,446,420,469,258
1458,0.88,-0.3,0.4,-0.12,-3.05,-2.69,341,442,420,467,257
1459,0.88,-0.3,0.4,1.4,-2.32,-2.14,341,443,423,464,258
1460,0.9,-0.29,0.39,-2.99,-1.22,-0.79,342,443,419,464,254
1461,0.88,-0.3,0.4,-0.79,-3.3,-1.22,344,449,420,475,287
1462,0.89,-0.3,0.39,0.12,-2.2,-3.17,344,445,418,468,258
1463,0.88,-0.29,0.4,0.06,-2.38,-3.78,343,446,417,468,268
1464,0.88,-0.3,0.4,-0.55,-2.38,-1.46,342,443,416,468,257
1465,0.88,-0.3,0.4,0.0,-2.01,-2.44,341,447,418,476,261
1466,0.87,-0.3,0.41,-0.18,-3.72,-2.2,343,450,418,463,260
1467,0.88,-0.3,0.4,-0.31,-1.95,-1.95,341,447,419,463,257
1468,0.87,-0.31,0.4,-0.24,-2.75,-2.14,339,447,421,467,258
1469,0.87,-0.32,0.39,2.2,-3.72,-2.93,342,443,422,466,253
1470,0.9,-0.29,0.4,1.95,-0.92,-2.2,341,445,421,468,258
1471,0.84,-0.34,0.41,2.32,-0.98,1.89,341,450,418,467,259
1472,0.86,-0.32,0.42,0.98,-1.46,-1.65,341,451,420,469,261
1473,0.88,-0.31,0.41,-2.87,-4.33,-4.64,340,446,421,470,261
1474,0.86,-0.32,0.42,-2.26,-1.16,-0.43,340,446,421,468,256
1475,0.85,-0.33,0.43,0.61,-3.36,-1.65,339,452,421,466,258
1476,0.87,-0.33,0.41,4.58,0.37,-1.34,341,442,422,467,261
1477,0.83,-0.34,0.44,3.6,-2.93,-2.14,343,452,419,477,261
1478,0.84,-0.34,0.47,3.23,-2.01,-2.38,342,447,423,468,259
1479,0.82,-0.36,0.43,-1.04,-1.46,-1.95,349,446,420,467,261
1480,0.83,-0.34,0.45,1.59,-0.24,0.67,341,444,422,469,259
1481,0.83,-0.35,0.44,1.95,-2.56,-2.44,342,448,420,467,290
1482,0.84,-0.34,0.45,1.71,-3.23,-0.98,337,449,421,470,262
1483,0.85,-0.33,0.46,-1.53,-3.48,-2.38,342,446,420,467,262
1484,0.84,-0.35,0.44,-2.32,-2.08,-2.08,339,451,420,464,259
1485,0.84,-0.36,0.43,0.43,-3.66,-2.5,338,451,421,463,259
1486,0.84,-0.33,0.45,2.62,-2.75,-2.56,341,444,423,468,263
1487,0.84,-0.35,0.43,-1.71,-2.93,-5.19,342,450,416,464,259
1488,0.86,-0.33,0.44,-0.43,-2.38,-2.26,342,450,421,469,261
1489,0.86,-0.34,0.45,0.61,-1.89,-0.18,340,454,417,467,262
1490,0.85,-0.35,0.43,0.0,-1.46,-1.22,344,450,421,467,261
1491,0.84,-0.35,0.43,-0.06,-3.23,-2.5,341,451,420,465,264
1492,0.83,-0.37,0.43,-1.4,-2.75,-1.83,344,450,419,465,265
1493,0.84,-0.35,0.44,0.98,-2.44,-3.11,341,450,422,482,262
1494,0.86,-0.32,0.45,2.75,-4.52,-3.97,342,449,422,468,265
1495,0.86,-0.33,0.44,3.97,-6.23,-4.94,345,449,417,466,263
1496,0.85,-0.32,0.44,6.84,-4.03,-5.19,342,449,418,467,263
1497,0.86,-0.33,0.42,-2.5,-6.16,-3.23,340,450,424,467,262
1498,0.86,-0.33,0.42,2.5,-3.36,-1.83,345,450,417,467,262
1499,0.86,-0.34,0.42,3.3,-2.99,-1.71,339,443,420,470,265
1500,0.86,-0.34,0.42,5.37,-12.88,1.65,343,450,424,466,264
1501,0.85,-0.34,0.42,0.12,-2.62,-3.11,342,452,421,467,261
1502,0.85,-0.33,0.43,-0.18,-3.72,-2.93,345,452,421,470,255
1503,0.92,-0.31,0.24,1.34,-2.5,-2.69,322,464,416,479,229
1504,0.92,-0.3,0.24,2.14,-3.36,-1.46,320,463,417,478,233
1505,0.9,-0.34,0.22,-0.55,-1.77,1.59,323,467,419,483,233
1506,0.95,-0.35,0.22,-2.69,-2.81,-6.71,326,462,416,481,234
1507,0.92,-0.35,0.21,-0.37,-6.41,1.71,320,472,417,481,231
1508,0.93,-0.33,0.23,-5.49,-3.66,3.72,321,456,416,482,234
1509,0.91,-0.36,0.2,3.85,-3.6,-5.0,325,460,413,482,232
1510,0.93,-0.35,0.2,-0.24,2.75,-3.3,321,455,414,481,235
1511,0.93,-0.35,0.21,2.2,-3.3,-7.75,325,455,414,477,235
1512,0.96,-0.44,0.2,23.44,-1.04,-9.83,325,454,414,475,233
1513,0.66,-0.54,0.35,11.84,-2.32,11.41,324,465,413,481,268
1514,0.93,-0.31,0.25,2.14,-4.39,10.99,327,459,416,477,236
1515,0.92,-0.35,0.27,-0.92,-0.49,-3.42,330,458,414,476,243
1516,0.91,-0.34,0.27,0.06,-0.67,-6.53,327,464,414,478,244
1517,0.92,-0.31,0.29,-9.58,4.03,2.69,330,459,415,478,240
1518,0.89,-0.35,0.29,1.1,-3.11,-3.23,329,459,431,476,240
1519,0.91,-0.37,0.28,-7.57,1.83,1.53,328,458,419,476,243
1520,0.88,-0.35,0.33,-1.16,0.55,-3.6,331,459,416,480,240
1521,0.87,-0.4,0.28,-2.01,-0.73,0.18,331,456,415,479,243
1522,0.89,-0.39,0.3,1.28,2.5,-1.28,330,464,412,480,245
1523,0.9,-0.41,0.29,8.73,-5.8,10.74,330,458,413,482,245
1524,0.89,-0.43,0.29,6.23,-3.66,2.81,329,460,412,481,246
1525,0.85,-0.44,0.3,0.92,-0.92,-6.23,331,452,414,480,242
1526,0.83,-0.38,0.37,4.03,4.94,-8.24,334,456,415,480,242
1527,0.87,-0.32,0.44,1.95,-3.66,-0.85,331,454,414,480,241
1528,0.87,-0.35,0.41,3.23,-2.87,-0.85,331,460,418,477,241
1529,0.84,-0.36,0.4,3.72,-4.09,-1.28,331,459,414,478,244
1530,0.85,-0.38,0.4,-4.09,2.32,-8.73,331,455,418,479,242
1531,0.85,-0.35,0.39,0.55,-3.17,-2.14,332,456,416,480,246
1532,0.87,-0.34,0.4,0.49,-1.1,-3.05,332,459,418,481,246
1533,0.86,-0.35,0.41,5.25,-2.14,-6.23,329,457,416,479,245
1534,0.85,-0.34,0.41,2.69,-2.32,-2.69,330,452,416,478,241
1535,0.85,-0.34,0.4,-0.85,-2.5,-3.72,330,461,418,478,241
1536,0.86,-0.34,0.4,0.55,-3.17,-2.14,331,458,422,480,242
1537,0.87,-0.33,0.41,0.61,-2.56,-2.2,332,452,417,481,245
1538,0.86,-0.34,0.41,-0.18,-2.5,-2.38,333,462,421,475,242
1539,0.85,-0.33,0.41,1.46,-2.69,-2.14,330,460,417,477,245
1540,0.87,-0.33,0.41,-0.37,-3.05,-2.32,332,451,418,482,243
1541,0.87,-0.32,0.42,-7.57,-3.36,-2.93,327,460,420,480,243
1542,0.86,-0.39,0.38,5.8,4.7,-1.53,333,461,417,480,245
1543,0.88,-0.36,0.4,6.41,-3.11,-2.08,330,458,415,480,242
1544,0.85,-0.36,0.39,4.7,-7.57,-4.7,329,457,419,488,241
1545,0.86,-0.33,0.39,0.06,-1.71,-4.88,331,460,419,475,243
1546,0.87,-0.33,0.4,-0.61,-2.14,-1.1,331,462,419,479,245
1547,0.86,-0.33,0.41,-0.06,-2.26,-2.62,331,462,418,475,247
1548,0.85,-0.33,0.4,0.31,-3.85,-1.89,332,458,419,478,245
1549,0.87,-0.32,0.41,-1.65,-3.23,-0.06,333,461,417,480,245
1550,0.86,-0.33,0.41,2.81,-0.98,-1.59,332,457,415,477,246
1551,0.87,-0.34,0.39,-0.31,-4.58,-4.7,334,460,419,484,253
1552,0.88,-0.34,0.4,0.0,-3.6,-0.55,329,461,416,480,247
1553,0.85,-0.34,0.4,-4.88,-2.01,-6.16,330,451,418,477,245
1554,0.86,-0.34,0.41,2.26,-3.48,-2.32,335,455,416,478,248
1555,0.85,-0.35,0.39,-0.85,-2.56,-2.01,335,453,417,480,254
1556,0.86,-0.36,0.38,1.71,-2.62,-2.08,331,455,416,478,243
1557,0.8,-0.37,0.41,-0.49,-1.65,-1.16,332,454,418,479,247
1558,0.95,-0.3,0.38,2.99,0.55,-3.97,334,459,421,476,249
1559,0.9,-0.31,0.39,0.12,-1.59,-15.99,338,463,424,477,255
1560,0.89,-0.29,0.38,6.41,-14.04,3.91,334,463,416,470,240
1561,0.84,-0.31,0.4,2.08,8.79,-6.23,335,461,418,476,247
1562,0.88,-0.31,0.41,-4.27,-2.62,-1.22,334,458,420,473,246
1563,0.88,-0.32,0.4,0.55,-7.14,-1.83,338,455,418,475,252
1564,0.86,-0.33,0.41,-2.99,-2.81,0.37,338,457,421,476,250
1565,0.85,-0.33,0.42,-2.08,2.5,-4.33,338,454,416,477,247
1566,0.85,-0.32,0.43,-1.16,-3.85,-3.05,342,455,419,474,250
1567,0.86,-0.32,0.42,1.22,-4.64,-2.32,335,458,422,477,250
1568,0.85,-0.32,0.43,0.61,-3.91,-2.38,338,450,420,477,254
1569,0.87,-0.32,0.43,-0.18,-4.64,-2.2,337,459,422,479,251
1570,0.87,-0.32,0.42,2.26,-2.56,-2.32,338,462,419,477,247
1571,0.87,-0.32,0.42,0.55,-2.44,-2.87,338,460,420,480,249
1572,0.86,-0.32,0.43,-1.4,-3.05,-1.83,339,457,418,478,249
1573,0.84,-0.33,0.42,-0.73,-2.32,-1.16,336,458,420,479,249
1574,0.85,-0.33,0.43,0.92,-3.05,-1.89,336,458,419,479,248
1575,0.84,-0.33,0.43,0.06,-3.36,-3.36,339,457,421,474,251
1576,0.86,-0.35,0.41,2.81,-2.26,-4.82,338,457,422,477,250
1577,0.85,-0.33,0.42,0.92,-2.93,-2.44,339,457,419,479,246
1578,0.86,-0.33,0.43,1.22,-2.5,-2.5,341,458,420,474,251
1579,0.87,-0.32,0.42,0.43,-4.03,-2.69,340,458,420,478,250
1580,0.86,-0.33,0.43,1.83,-3.11,-2.56,339,460,416,480,251
1581,0.87,-0.33,0.42,3.05,-3.17,-2.38,339,460,422,477,259
1582,0.85,-0.32,0.43,0.31,-3.05,-3.17,340,451,420,478,250
1583,0.85,-0.33,0.42,1.53,-2.93,-3.23,339,458,417,475,250
1584,0.85,-0.34,0.42,-0.12,-3.17,-1.46,339,456,422,479,250
1585,0.87,-0.32,0.42,0.24,-3.6,-2.99,337,452,418,476,251
1586,0.86,-0.31,0.42,3.3,-3.17,-4.09,339,455,422,478,252
1587,0.85,-0.32,0.44,1.04,-2.44,-2.26,337,459,421,477,251
1588,0.85,-0.32,0.43,-0.43,-3.23,-2.5,335,460,419,479,249
1589,0.85,-0.32,0.43,0.61,-2.56,-1.77,340,457,421,488,250
1590,0.86,-0.32,0.43,1.1,-2.75,-2.08,335,452,419,478,249
1591,0.86,-0.32,0.43,4.46,-2.87,-2.62,341,455,422,478,250
1592,0.85,-0.32,0.42,-0.49,-4.33,-2.62,338,458,420,476,248
1593,0.87,-0.3,0.43,1.89,-3.23,-2.81,337,454,422,477,249
1594,0.87,-0.31,0.43,-0.49,-3.72,-3.42,338,459,422,473,250
1595,0.87,-0.29,0.44,1.04,-2.62,0.12,340,458,428,479,252
1596,0.87,-0.3,0.44,-0.31,-3.54,-2.14,338,454,420,476,253
1597,0.86,-0.32,0.43,2.38,-2.26,-2.62,338,455,422,478,250
1598,0.86,-0.32,0.44,-1.65,-3.78,-2.32,339,468,418,479,251
1599,0.86,-0.32,0.43,1.22,-2.62,-2.62,340,449,419,479,251
1600,0.85,-0.32,0.44,2.01,-2.2,-2.69,340,455,418,474,252
1601,0.86,-0.31,0.44,1.53,-3.17,-2.56,340,455,419,475,251
1602,0.85,-0.31,0.44,-0.18,-0.55,-4.58,338,452,420,479,253
1603,0.84,-0.31,0.44,0.18,-2.69,-2.44,336,455,419,473,254
1604,0.84,-0.32,0.44,0.06,-3.05,-2.14,342,454,417,478,268
1605,0.85,-0.31,0.45,-0.49,-1.71,-2.01,338,459,419,479,252
1606,0.84,-0.32,0.45,-2.2,-2.2,-3.11,336,452,415,477,249
1607,0.86,-0.31,0.45,2.38,-3.42,-2.56,338,449,422,476,251
1608,0.85,-0.33,0.44,0.06,-3.3,-3.36,338,452,420,480,255
1609,0.86,-0.31,0.45,-1.16,-2.56,-5.68,337,453,421,476,251
1610,0.86,-0.31,0.46,1.04,-3.48,-2.5,339,452,422,479,252
1611,0.85,-0.31,0.45,0.12,-3.91,-1.89,336,454,422,484,254
1612,0.85,-0.31,0.45,1.16,-2.81,-3.17,339,454,419,475,252
1613,0.85,-0.31,0.45,-0.12,-3.23,-3.23,335,453,421,476,250
1614,0.84,-0.32,0.46,-0.85,-3.54,-2.44,335,454,427,473,252
1615,0.85,-0.3,0.48,-1.59,-3.6,-0.92,343,454,423,472,254
1616,0.83,-0.3,0.48,1.04,-2.38,-0.67,338,453,419,476,255
1617,0.87,-0.31,0.45,-2.32,-4.94,-0.98,339,449,422,475,255
1618,0.81,-0.35,0.48,2.81,-0.18,1.22,336,454,418,474,247
1619,0.84,-0.35,0.46,2.99,-3.66,-4.27,336,454,422,479,250
1620,0.84,-0.34,0.46,0.0,-3.17,-2.2,340,454,419,478,253
1621,0.82,-0.35,0.46,0.79,-3.05,-2.99,339,456,420,474,252
1622,0.83,-0.34,0.47,1.28,-3.6,-3.17,339,455,419,477,252
1623,0.83,-0.34,0.47,1.4,-3.3,-2.93,339,452,423,476,259
1624,0.83,-0.34,0.46,0.43,-2.56,-3.54,347,455,419,474,250
1625,0.84,-0.33,0.47,-0.55,-2.56,-2.01,338,452,420,477,253
1626,0.83,-0.34,0.46,0.98,-3.3,-2.62,340,454,416,476,255
1627,0.84,-0.33,0.46,0.73,-3.42,-2.5,339,454,420,473,251
1628,0.83,-0.34,0.45,-1.22,-2.69,-2.32,340,456,423,475,254
1629,0.84,-0.35,0.45,1.34,-2.69,-1.83,337,454,421,475,249
1630,0.83,-0.33,0.47,0.79,-2.87,-2.93,337,452,420,475,255
1631,0.84,-0.34,0.46,1.34,-3.6,-3.6,335,453,422,474,252
1632,0.85,-0.33,0.45,0.18,-2.81,-3.05,339,457,422,476,250
1633,0.83,-0.32,0.47,-0.31,-2.81,-2.93,335,452,420,479,251
1634,0.84,-0.32,0.46,1.28,-2.99,-2.56,341,471,421,475,252
1635,0.84,-0.33,0.45,0.0,-3.05,-2.81,342,454,421,477,251
1636,0.84,-0.34,0.44,0.55,-2.56,-2.44,341,450,423,473,251
1637,0.83,-0.34,0.45,2.81,-12.82,4.39,342,456,422,477,251
1638,0.84,-0.31,0.46,0.98,-3.91,-3.23,340,450,421,479,251
1639,0.83,-0.35,0.43,-1.16,-3.11,-0.85,339,453,420,477,255
1640,0.84,-0.33,0.46,0.12,-2.93,-2.38,340,456,417,472,255
1641,0.84,-0.32,0.46,0.85,-3.23,-3.17,351,454,420,476,254
1642,0.84,-0.33,0.45,-1.16,-2.87,-3.42,341,455,423,478,253
1643,0.83,-0.32,0.46,0.37,-3.23,-2.08,338,456,431,476,250
1644,0.84,-0.33,0.46,0.79,-2.62,-2.32,342,455,421,474,255
1645,0.84,-0.33,0.45,-1.71,-3.78,-3.11,340,455,417,479,250
1646,0.84,-0.33,0.45,-1.22,-3.17,-2.87,339,454,420,479,254
1647,0.84,-0.33,0.46,1.22,-2.93,-3.3,336,454,420,477,253
1648,0.87,-0.32,0.45,0.67,-3.05,-2.69,338,456,421,481,252
1649,0.85,-0.32,0.45,0.61,-2.38,-2.08,338,449,421,473,251
1650,0.84,-0.32,0.46,-0.31,-3.11,-2.14,345,456,420,475,254
1651,0.86,-0.32,0.44,-0.37,-1.95,-1.83,338,452,420,472,252
1652,0.84,-0.32,0.45,-0.31,-2.93,-1.95,336,457,421,473,252
1653,0.84,-0.33,0.44,-1.1,-4.03,-2.38,337,455,417,476,253
1654,0.85,-0.32,0.44,1.22,-1.95,-2.01,339,458,418,476,251
1655,0.86,-0.32,0.44,-0.92,-2.56,-2.26,338,457,421,472,255
1656,0.83,-0.33,0.45,1.1,-2.62,-3.66,336,453,419,475,255
1657,0.84,-0.32,0.46,0.31,-3.54,-3.05,340,457,420,476,257
1658,0.85,-0.33,0.43,-1.34,-4.09,-1.95,340,465,417,477,250
1659,0.84,-0.34,0.44,-0.43,-2.26,-3.05,337,456,419,480,252
1660,0.84,-0.34,0.44,2.2,-4.7,-3.36,340,457,420,475,255
1661,0.84,-0.32,0.45,1.28,-2.2,-2.99,340,454,419,478,253
1662,0.84,-0.33,0.44,0.12,-3.54,-1.77,338,448,420,475,252
1663,0.86,-0.32,0.44,-0.55,-2.69,-2.32,340,452,421,478,256
1664,0.84,-0.33,0.44,-0.12,-3.36,-1.89,338,449,420,479,250
1665,0.85,-0.33,0.44,1.77,-2.75,-2.62,345,451,420,473,253
1666,0.85,-0.32,0.44,1.16,-2.69,-2.75,340,453,422,477,256
1667,0.84,-0.32,0.45,1.28,-2.38,-3.05,341,453,420,475,253
1668,0.84,-0.33,0.44,-0.49,-2.5,-2.75,338,453,422,475,254
1669,0.87,-0.32,0.41,-1.65,-2.08,-2.93,338,454,422,493,254
1670,0.85,-0.32,0.44,0.61,-3.3,-1.53,342,450,423,475,254
1671,0.8,-0.32,0.46,-2.26,-16.66,-1.46,339,457,424,473,251
1672,0.87,-0.32,0.4,-1.4,-1.95,-3.48,338,469,422,471,251
1673,0.88,-0.32,0.39,-0.37,-3.91,-2.26,339,454,419,475,255
1674,0.88,-0.31,0.39,0.18,-3.3,-1.28,339,463,418,476,254
1675,0.89,-0.3,0.4,-0.37,-2.38,-2.01,341,456,421,474,257
1676,0.86,-0.32,0.4,0.79,-2.56,-2.5,342,453,424,478,254
1677,0.86,-0.32,0.39,0.79,-2.99,-1.83,339,453,422,471,254
1678,0.88,-0.32,0.39,-1.22,-2.32,-2.99,340,451,424,475,257
1679,0.87,-0.31,0.4,1.28,-2.87,-2.26,340,457,421,475,256
1680,0.87,-0.31,0.4,3.23,-3.36,-2.99,338,451,419,475,252
1681,0.86,-0.32,0.4,-0.43,-3.05,-2.75,340,453,429,473,253
1682,0.87,-0.31,0.4,0.85,-2.62,-2.81,340,452,417,479,250
1683,0.89,-0.3,0.4,2.26,-4.09,-1.4,341,452,420,472,255
1684,0.86,-0.3,0.41,0.92,-3.11,-3.05,339,449,420,478,256
1685,0.87,-0.3,0.42,0.92,-2.62,-2.69,337,456,432,473,255
1686,0.87,-0.31,0.4,0.61,-3.05,-2.62,338,451,423,476,267
1687,0.87,-0.31,0.41,1.53,-2.81,-3.54,338,451,421,471,254
1688,0.87,-0.3,0.41,0.31,-2.87,-1.95,340,453,422,474,257
1689,0.86,-0.31,0.41,2.32,-3.11,-2.2,341,454,423,474,257
1690,0.88,-0.3,0.41,1.4,-2.5,-2.26,340,453,422,472,257
1691,0.87,-0.3,0.41,-0.61,-2.56,-2.01,339,457,416,475,255
1692,0.84,-0.31,0.43,3.23,-1.83,-2.26,343,449,421,474,257
1693,0.85,-0.3,0.42,1.65,-3.85,-4.03,339,454,422,477,254
1694,0.88,-0.28,0.42,0.0,-3.17,-2.69,339,448,423,474,255
1695,0.86,-0.29,0.42,-0.49,-3.36,-1.22,338,446,421,476,255
1696,0.89,-0.29,0.41,0.24,-2.87,-2.69,340,452,418,475,255
1697,0.87,-0.31,0.4,-0.06,-3.42,-1.77,336,456,418,474,255
1698,0.87,-0.29,0.42,0.73,-2.87,-2.99,337,452,419,472,258
1699,0.88,-0.29,0.42,-0.06,-2.2,-3.91,340,452,419,473,255
1700,0.86,-0.28,0.44,0.49,-2.62,-2.2,340,448,417,473,255
1701,0.87,-0.3,0.42,-1.71,-4.21,-4.03,338,452,420,474,258
1702,0.87,-0.3,0.41,1.04,-2.69,-3.48,339,446,417,476,258
1703,0.86,-0.3,0.42,1.4,-3.3,-3.11,336,451,422,477,256
1704,0.87,-0.3,0.41,2.5,-1.77,-2.01,341,452,422,471,260
1705,0.88,-0.29,0.42,-0.55,-3.6,-2.38,339,446,419,472,257
1706,0.88,-0.29,0.42,1.28,-3.72,-3.66,339,451,421,476,252
1707,0.87,-0.3,0.42,0.61,-3.05,-3.3,339,449,420,477,257
1708,0.87,-0.3,0.42,0.67,-3.42,-3.23,335,455,420,473,260
1709,0.87,-0.3,0.41,0.73,-2.69,-3.05,340,446,423,474,259
1710,0.87,-0.29,0.42,1.1,-3.48,-2.75,340,447,420,472,255
1711,0.88,-0.29,0.43,4.21,-2.81,-2.56,340,455,419,473,258
1712,0.86,-0.29,0.44,0.12,-3.3,-2.44,341,452,422,473,260
1713,0.86,-0.29,0.44,1.83,-3.42,-2.38,341,455,421,471,261
1714,0.87,-0.28,0.43,1.59,-3.42,-3.23,343,456,420,474,266
1715,0.87,-0.28,0.43,1.1,-2.2,-2.5,338,462,421,475,259
1716,0.87,-0.28,0.43,-0.73,-3.85,-2.75,337,461,414,473,254
1717,0.88,-0.28,0.43,1.46,-3.66,-1.95,340,456,425,474,262
1718,0.87,-0.29,0.42,1.1,-3.36,-3.23,337,458,424,477,258
1719,0.86,-0.29,0.43,2.2,-2.99,-2.62,339,453,420,475,260
1720,0.87,-0.29,0.42,2.69,-3.42,-2.38,344,452,423,473,258
1721,0.87,-0.29,0.42,2.93,-4.64,0.18,336,456,433,476,262
1722,0.87,-0.29,0.42,-2.08,-3.17,-2.81,340,467,419,475,259
1723,0.86,-0.29,0.42,2.08,-2.56,-2.5,341,457,419,474,264
1724,0.87,-0.28,0.43,2.69,-3.48,-2.32,342,455,420,473,262
1725,0.87,-0.28,0.42,0.37,-3.6,-3.36,343,455,416,477,261
1726,0.87,-0.26,0.43,1.4,-3.17,-3.11,345,460,421,479,261
1727,0.88,-0.26,0.43,2.01,-4.33,-3.6,342,459,420,474,252
1728,0.89,-0.25,0.44,-1.04,-6.04,-4.33,341,455,417,476,262
1729,0.88,-0.26,0.43,3.72,-1.77,-2.5,343,456,423,474,264
1730,0.88,-0.27,0.43,0.31,-3.17,-2.81,343,454,430,473,264
1731,0.89,-0.24,0.44,2.08,-2.93,-2.01,342,455,420,475,262
1732,0.9,-0.26,0.42,-1.28,-2.99,-2.62,341,456,420,474,263
1733,0.89,-0.26,0.43,1.83,-3.72,-3.97,342,456,420,470,263
1734,0.89,-0.25,0.43,1.89,-4.33,-2.75,342,455,420,476,264
1735,0.87,-0.26,0.43,-0.18,-3.05,-2.56,341,456,421,474,264
1736,0.89,-0.26,0.42,2.14,-2.69,-3.3,342,456,423,474,263
1737,0.89,-0.26,0.43,-0.12,-3.17,-2.62,341,459,418,475,263
1738,0.87,-0.26,0.43,-0.43,-2.56,-1.95,340,455,437,476,262
1739,0.88,-0.27,0.42,0.67,-2.81,-3.42,342,458,419,475,263
1740,0.87,-0.26,0.43,0.79,-2.87,-2.87,342,453,421,472,264
1741,0.88,-0.26,0.43,0.79,-3.05,-1.71,341,459,416,471,265
1742,0.88,-0.26,0.43,-0.49,-2.26,-2.5,341,452,422,475,263
1743,0.91,-0.23,0.46,-11.41,-2.38,2.81,349,455,417,471,263
1744,0.89,-0.27,0.44,1.34,-2.75,-2.87,342,450,418,477,264
1745,0.86,-0.31,0.43,-12.94,2.81,4.82,340,455,420,475,265
1746,0.82,-0.38,0.43,-2.81,-0.43,0.0,344,452,420,473,261
1747,0.84,-0.37,0.43,-0.92,-3.91,-2.26,341,469,420,477,265
1748,0.83,-0.37,0.44,0.85,-2.93,-3.6,342,460,420,474,261
1749,0.84,-0.36,0.44,1.53,-3.91,-2.99,341,459,420,470,263
1750,0.83,-0.36,0.43,1.53,-2.87,-3.54,341,454,417,474,264
1751,0.83,-0.37,0.43,1.89,-2.99,-2.99,339,459,423,470,264
1752,0.86,-0.32,0.46,2.87,-3.48,-4.09,342,451,423,476,266
1753,0.85,-0.34,0.44,1.77,-3.11,-2.81,342,460,423,473,265
1754,0.84,-0.34,0.44,-0.49,-2.69,-2.44,341,458,421,474,261
1755,0.84,-0.35,0.44,0.67,-4.03,-2.62,342,453,420,476,265
1756,0.85,-0.34,0.44,-0.92,-4.03,-1.65,341,465,418,476,266
1757,0.84,-0.34,0.44,1.53,-2.75,-2.32,340,461,421,474,263
1758,0.84,-0.35,0.43,1.22,-3.23,-2.26,343,457,421,471,263
1759,0.84,-0.35,0.43,-2.56,-1.22,-2.01,343,455,422,476,265
1760,0.85,-0.33,0.45,0.31,-2.5,-2.62,345,456,416,476,266
1761,0.85,-0.34,0.44,-2.14,-1.4,-0.49,345,457,425,475,264
1762,0.84,-0.35,0.44,0.49,-3.42,-0.49,338,459,418,476,267
1763,0.84,-0.35,0.43,2.2,-3.3,-1.4,342,454,421,479,290
1764,0.84,-0.36,0.43,0.0,-3.66,-2.87,346,455,417,475,264
1765,0.84,-0.36,0.43,0.92,-3.54,-2.01,340,455,421,469,300
1766,0.85,-0.35,0.44,-0.43,-4.39,-2.75,345,459,420,475,262
1767,0.85,-0.34,0.44,-0.12,-2.75,-2.5,344,450,417,474,260
1768,0.83,-0.35,0.45,1.95,-2.62,-2.14,344,452,418,478,265
1769,0.84,-0.35,0.44,1.34,-2.62,-2.81,339,459,421,471,266
1770,0.84,-0.34,0.45,1.16,-3.48,-2.81,341,459,420,470,269
1771,0.84,-0.33,0.45,0.06,-3.23,-1.77,339,455,420,470,265
1772,0.87,-0.32,0.45,0.0,-3.05,-2.38,343,458,422,473,268
1773,0.85,-0.33,0.45,0.85,-3.72,-1.83,344,458,424,479,268
1774,0.85,-0.34,0.44,0.73,-2.62,-1.83,339,458,421,470,266
1775,0.84,-0.34,0.44,0.06,-3.36,-2.62,344,457,423,473,262
1776,0.84,-0.33,0.45,2.32,-3.11,-1.77,341,463,420,476,262
1777,0.85,-0.32,0.45,-1.59,-2.38,-3.17,345,455,420,476,264
1778,0.84,-0.33,0.44,1.1,-3.17,-1.77,341,459,423,473,261
1779,0.83,-0.34,0.44,0.61,-2.14,-2.38,343,454,419,471,265
1780,0.84,-0.33,0.45,1.04,-1.89,-2.2,339,456,421,473,266
1781,0.83,-0.34,0.45,-0.61,-3.3,-1.1,345,455,433,473,264
1782,0.84,-0.34,0.45,0.24,-3.54,-2.87,345,454,423,477,267
1783,0.84,-0.34,0.44,-0.18,-2.93,-3.36,347,456,420,472,268
1784,0.84,-0.34,0.45,1.22,-2.87,-2.75,343,457,420,476,265
1785,0.85,-0.33,0.45,-2.56,-3.11,-3.11,343,458,424,472,269
1786,0.84,-0.34,0.44,1.34,-2.81,-2.26,342,452,420,469,266
1787,0.84,-0.34,0.44,0.85,-3.85,-2.56,342,451,422,476,280
1788,0.83,-0.33,0.45,-0.12,-1.95,-2.01,341,458,422,477,268
1789,0.84,-0.33,0.45,-0.12,-1.83,0.31,343,453,420,473,265
1790,0.86,-0.31,0.45,1.77,-3.23,-2.69,338,458,420,474,266
1791,0.87,-0.33,0.42,-1.16,-2.32,-3.23,340,449,422,470,266
1792,0.87,-0.32,0.43,1.1,-3.3,-4.76,346,453,417,471,268
1793,0.85,-0.31,0.44,2.75,-1.53,-2.26,342,452,420,476,269
1794,0.85,-0.33,0.43,0.43,-2.2,-2.26,345,452,422,473,269
1795,0.86,-0.32,0.43,2.44,-2.81,-2.44,343,455,420,472,265
1796,0.85,-0.33,0.42,6.1,-0.98,-2.56,343,454,422,475,266
1797,0.84,-0.32,0.45,-0.06,-3.85,-3.11,343,453,421,469,268
1798,0.85,-0.32,0.44,1.95,-2.81,-2.01,344,455,422,472,266
1799,0.86,-0.32,0.44,-0.12,-2.99,-2.87,342,457,420,472,280
1800,0.85,-0.31,0.45,2.69,-4.46,-6.16,345,451,420,473,266
1801,0.85,-0.31,0.44,1.71,-3.48,-2.69,344,452,419,476,266
1802,0.85,-0.31,0.44,1.83,-1.89,-2.01,342,458,416,475,268
1803,0.86,-0.3,0.44,-0.24,-2.93,-2.56,342,454,421,473,265
1804,0.86,-0.31,0.44,-0.31,-2.38,-2.2,341,454,422,473,266
1805,0.84,-0.31,0.45,0.06,-2.01,-3.05,341,458,421,471,268
1806,0.87,-0.3,0.44,1.1,-4.15,-3.42,343,455,425,473,264
1807,0.85,-0.31,0.44,-2.38,-3.3,-3.17,343,452,417,474,267
1808,0.85,-0.31,0.44,0.12,-3.11,-2.56,339,453,421,472,269
1809,0.85,-0.3,0.45,1.46,-3.42,-2.32,344,449,420,473,270
1810,0.86,-0.3,0.44,1.1,-4.15,-2.32,345,452,419,473,267
1811,0.86,-0.31,0.43,-0.12,-2.26,-1.34,342,457,420,472,267
1812,0.85,-0.32,0.44,0.0,-2.44,-1.22,344,454,423,467,269
1813,0.85,-0.32,0.44,-0.43,-2.93,-3.42,343,457,421,473,268
1814,0.85,-0.32,0.44,-0.18,-2.62,-1.53,342,456,420,472,269
1815,0.84,-0.33,0.44,2.93,-2.2,-1.59,341,454,418,471,272
1816,0.85,-0.34,0.44,2.38,-2.99,-1.83,343,453,422,473,271
1817,0.85,-0.31,0.47,-6.47,-4.27,-4.03,345,455,418,475,267
1818,0.84,-0.33,0.45,-0.67,-3.42,-1.95,343,453,414,470,270
1819,0.84,-0.32,0.45,1.1,-2.99,-3.54,344,457,415,488,277
1820,0.85,-0.32,0.45,-0.06,-3.54,-2.32,339,453,421,473,270
1821,0.85,-0.31,0.46,0.85,-2.81,-2.75,343,458,421,472,272
1822,0.85,-0.31,0.46,-0.85,-3.3,-1.71,343,452,420,475,270
1823,0.84,-0.32,0.45,1.22,-2.81,-1.71,342,458,419,476,272
1824,0.85,-0.31,0.45,1.04,-3.42,-1.34,341,455,419,470,270
1825,0.83,-0.33,0.45,-0.37,-3.42,-2.14,342,456,417,470,272
1826,0.83,-0.33,0.45,-0.06,-2.01,-2.99,344,459,431,469,271
1827,0.84,-0.32,0.45,-0.06,-2.99,-3.42,338,453,419,474,272
1828,0.84,-0.32,0.45,-0.79,-2.62,-2.2,343,459,420,471,270
1829,0.85,-0.32,0.45,-0.31,-2.69,-2.44,339,457,418,470,271
1830,0.87,-0.28,0.47,1.59,-3.17,-4.82,343,451,419,473,271
1831,0.85,-0.3,0.46,0.92,-3.36,-3.05,343,459,417,469,270
1832,0.85,-0.31,0.46,-0.18,-3.97,-1.46,344,450,418,473,273
1833,0.85,-0.32,0.45,1.28,-3.05,-2.01,342,456,418,483,267
1834,0.84,-0.33,0.45,-1.1,-1.83,-3.72,342,450,420,474,274
1835,0.84,-0.32,0.45,0.98,-2.69,-2.75,343,458,419,473,270
1836,0.85,-0.32,0.45,-0.18,-2.99,-2.93,337,451,419,473,266
1837,0.86,-0.31,0.44,0.79,-2.38,-2.69,343,452,420,471,271
1838,0.86,-0.31,0.45,-1.71,-2.75,-2.32,343,461,419,477,273
1839,0.86,-0.3,0.45,0.67,-3.6,-3.3,342,460,417,469,274
1840,0.86,-0.31,0.45,-0.18,-4.15,-2.38,342,453,418,476,272
1841,0.86,-0.31,0.44,-1.77,-2.69,-2.75,343,456,422,475,273
1842,0.86,-0.31,0.44,0.61,-1.77,-2.93,354,451,419,469,275
1843,0.85,-0.31,0.43,2.26,-2.26,-2.69,344,457,422,471,273
1844,0.86,-0.3,0.45,0.67,-2.38,-2.5,344,456,414,471,274
1845,0.86,-0.3,0.45,-0.18,-3.6,-2.93,341,455,418,469,274
1846,0.86,-0.29,0.45,0.55,-3.6,-2.81,340,461,419,468,272
1847,0.86,-0.29,0.44,0.37,-3.42,-2.69,343,452,419,472,277
1848,0.86,-0.3,0.44,0.12,-2.93,-2.5,343,455,416,475,274
1849,0.87,-0.3,0.44,0.61,-3.66,-1.89,355,460,419,473,274
1850,0.86,-0.29,0.44,0.31,-2.5,-3.11,340,459,422,472,274
1851,0.86,-0.3,0.45,0.06,-3.17,-2.38,344,447,418,473,276
1852,0.87,-0.29,0.45,-0.37,-3.23,-1.65,342,459,416,469,274
1853,0.86,-0.29,0.45,5.13,-0.85,-3.05,343,451,419,475,276
1854,0.85,-0.29,0.45,1.1,-3.54,-3.72,344,460,420,472,287
1855,0.87,-0.28,0.46,-1.04,-3.36,-3.54,342,460,419,471,274
1856,0.86,-0.29,0.45,1.65,-13.06,3.36,344,462,420,472,273
1857,0.86,-0.29,0.45,0.06,-2.14,-2.62,345,457,421,468,282
1858,0.83,-0.32,0.43,-4.15,-3.97,-6.04,345,459,422,472,276
1859,0.89,-0.3,0.42,-9.52,-2.93,0.12,345,458,421,470,276
1860,0.92,-0.26,0.41,-0.85,-10.07,-10.01,346,454,422,469,276
1861,0.89,-0.26,0.41,3.42,0.06,-1.1,344,458,423,473,277
1862,0.81,-0.34,0.43,-8.36,1.4,3.66,342,458,420,471,282
1863,0.84,-0.33,0.44,0.24,-2.01,-1.46,343,460,419,470,296
1864,0.83,-0.35,0.43,1.53,-5.31,-2.87,345,452,417,481,304
1865,0.86,-0.37,0.39,-2.56,-5.92,-1.77,345,458,423,486,278
1866,0.86,-0.36,0.39,0.92,-5.0,-0.31,344,456,422,471,275
1867,0.85,-0.36,0.4,1.95,-2.69,-4.39,343,453,422,474,277
1868,0.85,-0.36,0.41,1.04,-2.75,-1.65,341,457,419,468,280
1869,0.86,-0.35,0.42,2.62,-3.42,-3.3,345,458,423,472,280
1870,0.86,-0.36,0.39,0.31,-2.5,-2.93,338,461,422,472,280
1871,0.84,-0.35,0.41,2.99,-2.56,-2.56,345,452,421,471,277
1872,0.86,-0.34,0.41,1.59,-3.3,-3.54,351,459,421,472,278
1873,0.81,-0.35,0.41,-0.12,-0.73,-4.94,343,457,424,471,276
1874,0.85,-0.34,0.41,0.55,-4.09,-3.11,346,458,421,475,279
1875,0.87,-0.33,0.41,0.18,-4.33,-1.83,345,458,422,475,278
1876,0.86,-0.34,0.4,0.55,-3.42,-2.56,345,462,422,475,275
1877,0.85,-0.33,0.41,1.53,-4.33,-1.59,347,458,426,470,279
1878,0.84,-0.32,0.41,3.48,-0.73,-14.16,347,456,422,474,279
1879,0.87,-0.32,0.41,0.85,-2.62,-2.69,345,452,422,473,278
1880,0.87,-0.31,0.4,0.24,-2.69,-2.75,343,460,420,470,279
1881,0.87,-0.3,0.42,0.12,-2.5,-2.81,345,460,422,470,283
1882,0.86,-0.32,0.39,-3.36,-1.83,-1.34,347,458,420,470,278
1883,0.87,-0.3,0.42,-0.06,-2.56,-1.4,344,457,423,474,275
1884,0.87,-0.3,0.42,1.59,-3.78,-1.46,345,457,421,469,280
1885,0.86,-0.31,0.42,1.53,-3.11,-2.44,345,457,423,471,277
1886,0.88,-0.31,0.41,0.79,-2.99,-1.77,346,458,422,472,277
1887,0.86,-0.29,0.39,8.24,-6.47,-8.48,346,452,422,475,277
1888,0.88,-0.29,0.41,-1.04,-4.21,-1.71,342,455,423,471,278
1889,0.88,-0.3,0.42,-9.4,1.4,0.55,345,457,418,475,277
1890,0.88,-0.37,0.41,-20.51,11.66,-1.04,345,456,421,475,278
1891,0.83,-0.44,0.35,-29.48,-10.56,-3.3,343,460,426,470,276
1892,0.82,-0.52,0.25,13.73,-9.58,11.47,341,457,419,472,270
1893,0.78,-0.52,0.31,-7.32,4.64,-1.71,340,460,424,479,269
1894,0.85,-0.5,0.29,9.28,-4.15,-1.65,342,457,421,477,268
1895,0.83,-0.5,0.31,-6.71,10.74,-6.23,342,460,421,469,271
1896,0.78,-0.5,0.36,-0.31,-4.15,-0.98,333,453,421,464,271
1897,0.8,-0.5,0.35,0.92,-3.78,-3.97,345,453,424,469,271
1898,0.79,-0.5,0.36,1.89,-3.97,-2.62,342,454,417,472,274
1899,0.7,-0.59,0.33,-9.4,22.03,-27.16,343,461,421,465,273
1900,0.98,-0.26,0.34,11.84,-18.31,-6.35,343,453,421,467,275
1901,0.9,-0.3,0.37,4.58,-8.3,0.18,342,460,421,465,271
1902,0.86,-0.32,0.37,2.81,-6.59,0.61,341,455,424,472,271
1903,0.87,-0.32,0.37,1.22,-2.87,-2.44,344,454,423,469,272
1904,0.88,-0.32,0.38,3.72,-4.52,0.61,341,456,420,469,272
1905,0.88,-0.32,0.36,4.15,-1.89,-1.89,341,460,421,469,281
1906,0.88,-0.32,0.36,1.59,-3.6,-2.69,343,456,421,468,273
1907,0.89,-0.31,0.36,1.83,-3.17,-2.56,341,455,423,472,276
1908,0.88,-0.31,0.36,3.54,-1.53,-2.32,340,460,421,468,273
1909,0.9,-0.32,0.34,-2.01,-4.7,0.18,338,459,427,468,273
1910,0.89,-0.32,0.36,2.26,-3.17,-2.87,340,460,423,472,276
1911,0.88,-0.31,0.37,2.38,-2.14,-2.26,343,454,422,470,276
1912,0.88,-0.32,0.37,-0.55,-1.53,-3.17,340,456,421,469,279
1913,0.89,-0.31,0.37,-1.16,-2.32,-1.71,341,455,424,467,274
1914,0.87,-0.33,0.37,0.85,-2.87,-3.85,342,454,414,462,271
1915,0.86,-0.32,0.33,-1.71,-11.35,-5.43,342,452,406,438,242
1916,0.87,-0.3,0.38,12.08,-3.17,-0.43,340,455,406,453,229
1917,0.88,-0.31,0.39,-1.16,-1.83,-2.93,334,449,419,465,239
1918,0.88,-0.3,0.4,-1.1,-3.05,-2.69,337,450,413,465,243
1919,0.88,-0.31,0.38,1.04,-5.07,-1.95,337,455,417,466,241
1920,0.87,-0.3,0.41,0.79,-2.56,-2.93,338,450,418,468,253
1921,0.89,-0.3,0.39,-0.31,-5.07,-2.38,338,455,417,469,244
1922,0.88,-0.31,0.39,-0.18,-3.54,-3.91,341,449,416,470,246
1923,0.89,-0.31,0.37,-0.12,-4.09,-3.91,336,456,419,473,243
1924,0.88,-0.29,0.39,-3.17,-2.62,-0.98,339,448,419,465,241
1925,0.88,-0.3,0.38,2.99,-3.36,-2.56,341,448,419,468,240
1926,0.89,-0.29,0.38,5.86,-1.4,-0.43,340,449,416,478,247
1927,0.88,-0.32,0.38,0.37,-2.08,-0.85,340,444,414,477,247
1928,0.88,-0.31,0.38,3.05,-2.93,-0.37,344,448,421,468,247
1929,0.88,-0.3,0.4,-0.98,-1.83,-1.83,339,444,419,467,248
1930,0.88,-0.31,0.39,1.4,-2.69,-2.26,341,439,421,468,246
1931,0.88,-0.31,0.39,-1.4,-3.66,-2.08,338,444,417,469,249
1932,0.88,-0.3,0.4,-0.55,-2.5,-2.01,339,447,418,475,246
1933,0.87,-0.31,0.4,1.4,-2.99,-2.69,340,446,418,468,245
1934,0.89,-0.3,0.4,1.22,-2.69,-2.32,341,447,418,468,249
1935,0.88,-0.31,0.4,0.92,-2.01,-1.83,341,448,417,466,248
1936,0.87,-0.37,0.36,-0.79,-3.17,-1.89,340,439,418,471,248
1937,0.88,-0.34,0.37,-1.1,6.53,-3.72,341,443,418,470,251
1938,0.89,-0.33,0.37,-2.08,-3.54,-4.88,343,439,421,470,248
1939,0.9,-0.33,0.37,-5.0,-2.14,-4.76,342,443,419,466,250
1940,0.9,-0.31,0.37,-0.37,-3.66,-3.6,339,446,421,469,250
1941,0.88,-0.31,0.39,0.31,-3.91,-2.2,340,443,420,471,251
1942,0.87,-0.32,0.39,0.98,-2.14,-2.87,339,444,419,468,251
1943,0.87,-0.32,0.39,0.73,-1.4,-3.97,340,446,417,470,252
1944,0.87,-0.31,0.39,0.12,-0.18,-1.1,339,449,421,468,251
1945,0.89,-0.3,0.4,0.73,-4.58,-2.26,341,443,419,466,252
1946,0.86,-0.32,0.41,5.74,-3.72,-1.77,341,439,418,467,250
1947,0.87,-0.33,0.39,1.04,-1.65,-3.3,340,448,422,467,255
1948,0.87,-0.32,0.4,-0.49,-3.78,-4.21,342,443,418,471,259
1949,0.88,-0.31,0.39,0.85,-3.54,-3.78,342,445,419,467,256
1950,0.88,-0.31,0.4,-0.18,-3.36,-2.62,341,441,420,464,255
1951,0.88,-0.32,0.4,0.85,-3.05,-2.01,338,448,418,468,262
1952,0.86,-0.3,0.41,-1.1,-3.36,-1.1,341,444,423,463,254
1953,0.87,-0.31,0.4,-1.95,-3.42,-2.62,340,442,418,468,256
1954,0.87,-0.31,0.4,2.26,-3.78,-2.5,341,442,422,467,258
1955,0.87,-0.31,0.39,2.14,-4.64,-2.44,339,447,418,471,253
1956,0.87,-0.31,0.4,0.18,-2.62,-3.11,344,446,417,465,259
1957,0.89,-0.31,0.4,-1.04,-3.78,-3.05,343,442,419,466,258
1958,0.87,-0.3,0.39,1.46,-3.91,-2.08,340,446,420,469,258
1959,0.88,-0.3,0.4,-0.12,-3.05,-2.69,341,442,420,467,257
1960,0.88,-0.3,0.4,1.4,-2.32,-2.14,341,443,423,464,258
1961,0.9,-0.29,0.39,-2.99,-1.22,-0.79,342,443,419,464,254
1962,0.88,-0.3,0.4,-0.79,-3.3,-1.22,344,449,420,475,287
1963,0.89,-0.3,0.39,0.12,-2.2,-3.17,344,445,418,468,258
1964,0.88,-0.29,0.4,0.06,-2.38,-3.78,343,446,417,468,268
1965,0.88,-0.3,0.4,-0.55,-2.38,-1.46,342,443,416,468,257
1966,0.88,-0.3,0.4,0.0,-2.01,-2.44,341,447,418,476,261
1967,0.87,-0.3,0.41,-0.18,-3.72,-2.2,343,450,418,463,260
1968,0.88,-0.3,0.4,-0.31,-1.95,-1.95,341,447,419,463,257
1969,0.87,-0.31,0.4,-0.24,-2.75,-2.14,339,447,421,467,258
1970,0.87,-0.32,0.39,2.2,-3.72,-2.93,342,443,422,466,253
1971,0.9,-0.29,0.4,1.95,-0.92,-2.2,341,445,421,468,258
1972,0.84,-0.34,0.41,2.32,-0.98,1.89,341,450,418,467,259
1973,0.86,-0.32,0.42,0.98,-1.46,-1.65,341,451,420,469,261
1974,0.88,-0.31,0.41,-2.87,-4.33,-4.64,340,446,421,470,261
1975,0.86,-0.32,0.42,-2.26,-1.16,-0.43,340,446,421,468,256
1976,0.85,-0.33,0.43,0.61,-3.36,-1.65,339,452,421,466,258
1977,0.87,-0.33,0.41,4.58,0.37,-1.34,341,442,422,467,261
1978,0.83,-0.34,0.44,3.6,-2.93,-2.14,343,452,419,477,261
1979,0.84,-0.34,0.47,3.23,-2.01,-2.38,342,447,423,468,259
1980,0.82,-0.36,0.43,-1.04,-1.46,-1.95,349,446,420,467,261
1981,0.83,-0.34,0.45,1.59,-0.24,0.67,341,444,422,469,259
1982,0.83,-0.35,0.44,1.95,-2.56,-2.44,342,448,420,467,290
1983,0.84,-0.34,0.45,1.71,-3.23,-0.98,337,449,421,470,262
1984,0.85,-0.33,0.46,-1.53,-3.48,-2.38,342,446,420,467,262
1985,0.84,-0.35,0.44,-2.32,-2.08,-2.08,339,451,420,464,259
1986,0.84,-0.36,0.43,0.43,-3.66,-2.5,338,451,421,463,259
1987,0.84,-0.33,0.45,2.62,-2.75,-2.56,341,444,423,468,263
1988,0.84,-0.35,0.43,-1.71,-2.93,-5.19,342,450,416,464,259
1989,0.86,-0.33,0.44,-0.43,-2.38,-2.26,342,450,421,469,261
1990,0.86,-0.34,0.45,0.61,-1.89,-0.18,340,454,417,467,262
1991,0.85,-0.35,0.43,0.0,-1.46,-1.22,344,450,421,467,261
1992,0.84,-0.35,0.43,-0.06,-3.23,-2.5,341,451,420,465,264
1993,0.83,-0.37,0.43,-1.4,-2.75,-1.83,344,450,419,465,265
1994,0.84,-0.35,0.44,0.98,-2.44,-3.11,341,450,422,482,262
1995,0.86,-0.32,0.45,2.75,-4.52,-3.97,342,449,422,468,265
1996,0.86,-0.33,0.44,3.97,-6.23,-4.94,345,449,417,466,263
1997,0.85,-0.32,0.44,6.84,-4.03,-5.19,342,449,418,467,263
1998,0.86,-0.33,0.42,-2.5,-6.16,-3.23,340,450,424,467,262
1999,0.86,-0.33,0.42,2.5,-3.36,-1.83,345,450,417,467,262
2000,0.86,-0.34,0.42,3.3,-2.99,-1.71,339,443,420,470,265
2001,0.86,-0.34,0.42,5.37,-12.88,1.65,343,450,424,466,264
2002,0.85,-0.34,0.42,0.12,-2.62,-3.11,342,452,421,467,261
2003,0.85,-0.33,0.43,-0.18,-3.72,-2.93,345,452,421,470,255
