,aX,aY,aZ,gX,gY,gZ,little,ring,middle,index,thumb
0,-0.14,-0.94,0.3,11.41,-5.8,-1.34,286,261,187,235,231
1,-0.15,-0.92,0.32,-3.42,-4.76,-3.05,288,262,190,237,229
2,-0.15,-0.93,0.35,0.49,-1.16,-0.18,290,263,189,236,237
3,-0.13,-0.94,0.33,-0.67,-2.14,-2.01,290,262,186,237,234
4,-0.14,-0.94,0.27,-1.71,-5.07,-0.37,293,261,185,238,233
5,-0.13,-0.94,0.32,7.2,0.61,-3.91,293,266,185,238,235
6,-0.13,-0.93,0.34,1.04,-2.2,-2.56,295,273,187,241,236
7,-0.14,-0.92,0.34,-0.67,-3.11,-2.93,295,271,188,242,234
8,-0.14,-0.93,0.35,-1.95,-4.03,-3.78,298,266,188,240,237
9,-0.13,-0.93,0.36,0.49,-2.5,-4.94,300,269,189,238,235
10,-0.16,-0.92,0.38,2.99,0.31,-2.87,301,270,191,238,247
11,-0.16,-0.91,0.39,0.12,-4.09,-1.28,303,271,187,239,230
12,-0.12,-0.92,0.39,1.04,4.94,-8.12,303,270,189,240,234
13,-0.16,-0.89,0.47,18.74,2.75,-1.22,304,274,188,240,231
14,-0.06,-0.92,0.37,2.38,-2.14,-4.33,306,269,191,238,234
15,-0.1,-0.91,0.46,4.27,-5.25,3.66,305,276,192,239,235
16,-0.13,-0.89,0.44,5.43,-3.54,2.5,303,274,193,241,234
17,-0.13,-0.88,0.46,3.17,-3.6,-2.38,306,275,191,245,238
18,-0.14,-0.88,0.46,2.44,-3.11,-1.71,307,271,190,242,238
19,-0.13,-0.88,0.46,0.31,-3.3,-2.14,310,279,194,239,235
20,-0.1,-0.87,0.48,3.42,-4.7,-2.56,311,278,190,241,235
21,-0.12,-0.87,0.48,0.49,-2.44,-1.77,311,282,189,246,233
22,-0.13,-0.87,0.49,-0.92,-2.44,-2.26,310,279,194,246,237
23,-0.12,-0.87,0.49,0.18,-4.09,-2.14,310,278,194,242,236
24,-0.13,-0.88,0.47,-2.62,-2.14,-4.64,306,284,189,246,232
25,-0.12,-0.87,0.49,1.59,-3.05,-1.59,309,281,192,244,236
26,-0.12,-0.85,0.5,-0.37,-2.87,-3.36,307,279,193,243,240
27,-0.13,-0.86,0.52,8.85,-5.13,1.4,303,279,194,245,237
28,-0.13,-0.85,0.53,1.65,-3.48,-1.46,298,284,193,246,238
29,-0.13,-0.85,0.52,1.28,-2.87,-2.26,302,274,193,245,240
30,-0.14,-0.85,0.52,1.1,-2.56,-2.62,303,291,197,244,237
31,-0.13,-0.85,0.52,1.89,-2.32,-3.23,303,283,194,244,238
32,-0.13,-0.85,0.52,2.2,-3.42,-1.83,305,279,196,245,242
33,-0.13,-0.85,0.52,2.81,-2.99,-2.56,304,276,195,249,234
34,-0.13,-0.84,0.53,0.98,-3.6,-2.01,305,284,192,256,240
35,-0.13,-0.84,0.53,-1.59,-2.32,-2.75,308,285,195,244,239
36,-0.13,-0.84,0.53,1.22,-3.54,-2.26,309,284,195,246,240
37,-0.12,-0.84,0.54,1.53,-2.87,-2.5,308,277,194,249,244
38,-0.13,-0.84,0.54,0.55,-2.75,-2.87,306,277,195,245,236
39,-0.13,-0.84,0.54,1.53,-3.23,-1.89,305,283,194,245,239
40,-0.13,-0.83,0.54,0.24,-3.05,-2.26,308,282,200,250,238
41,-0.12,-0.83,0.55,2.08,-2.38,-2.62,308,281,198,250,238
42,-0.13,-0.84,0.54,-0.37,-3.23,-2.38,307,284,198,250,240
43,-0.14,-0.83,0.55,-0.61,-4.46,-0.55,307,281,194,244,243
44,-0.12,-0.84,0.53,1.28,-2.56,-3.23,310,285,194,247,240
45,-0.13,-0.84,0.52,0.12,-1.1,-3.42,310,284,198,248,240
46,-0.12,-0.85,0.53,0.12,-2.44,-4.09,305,282,195,249,239
47,-0.13,-0.85,0.53,-3.48,-3.66,-2.81,310,287,197,250,241
48,-0.12,-0.83,0.54,-3.54,-6.59,-0.79,311,283,196,249,241
49,-0.12,-0.84,0.54,-1.53,-2.14,-3.66,306,282,199,249,239
50,-0.12,-0.84,0.53,1.83,-2.75,-2.62,310,286,199,247,242
51,-0.12,-0.83,0.54,2.99,-6.1,0.24,310,278,201,252,239
52,-0.11,-0.84,0.53,3.72,-2.81,-1.95,311,280,199,251,240
53,-0.11,-0.83,0.54,-1.28,-2.26,-4.09,313,283,197,250,240
54,-0.11,-0.84,0.54,1.04,-3.36,-1.65,311,289,196,253,238
55,-0.15,-0.83,0.56,10.07,4.09,2.81,300,283,196,248,242
56,-0.14,-0.82,0.56,-1.04,-1.34,-3.48,290,286,200,246,237
57,-0.14,-0.85,0.52,-0.67,-3.66,-1.83,306,286,200,248,241
58,-0.12,-0.85,0.5,-0.06,-2.5,-4.33,303,288,198,261,238
59,-0.14,-0.85,0.52,-0.55,-3.23,-2.81,305,291,195,250,241
60,-0.14,-0.87,0.49,-1.71,-3.17,-2.75,305,287,197,253,243
61,-0.14,-0.84,0.53,-0.49,-3.78,-1.46,306,282,198,252,239
62,-0.13,-0.85,0.52,1.22,-2.99,-2.69,308,285,200,248,241
63,-0.13,-0.84,0.53,1.77,-2.26,-2.5,309,287,196,250,254
64,-0.15,-0.84,0.54,1.65,-4.76,-0.98,309,284,201,252,241
65,-0.15,-0.83,0.55,2.75,-3.05,-2.2,302,282,199,253,240
66,-0.15,-0.83,0.55,0.12,-2.5,-2.81,307,283,214,252,241
67,-0.14,-0.83,0.54,0.79,-2.99,-2.32,306,280,197,252,240
68,-0.14,-0.83,0.54,1.34,-1.4,-2.56,308,283,201,253,240
69,-0.15,-0.82,0.56,2.2,-2.81,-3.17,304,282,201,250,240
70,-0.14,-0.82,0.55,0.18,-2.26,-3.3,306,282,196,253,241
71,-0.14,-0.82,0.56,1.65,-4.46,-2.08,310,286,196,255,243
72,-0.15,-0.81,0.55,0.73,-4.27,-3.11,308,276,202,254,238
73,-0.14,-0.81,0.58,2.32,-5.31,-1.65,307,279,202,251,240
74,-0.15,-0.81,0.56,1.04,-3.54,-3.17,307,283,198,251,243
75,-0.14,-0.82,0.56,0.18,-2.99,-2.5,307,279,202,250,238
76,-0.14,-0.82,0.56,-0.85,-0.92,-3.17,306,282,197,248,242
77,-0.14,-0.82,0.57,1.77,-3.66,-0.79,306,277,198,254,240
78,-0.14,-0.81,0.57,-0.79,-2.93,-2.2,309,284,197,252,243
79,-0.14,-0.81,0.58,0.43,-2.81,-0.67,304,281,203,252,240
80,-0.15,-0.82,0.57,1.1,-2.99,-2.2,308,277,198,253,242
81,-0.15,-0.84,0.58,0.73,-3.11,-3.36,309,283,196,251,240
82,-0.13,-0.8,0.59,0.43,-2.99,-2.75,308,286,197,268,239
83,-0.14,-0.81,0.58,1.77,-2.5,-2.14,311,287,198,251,240
84,-0.14,-0.81,0.59,-0.18,-1.04,-3.17,307,282,200,259,249
85,-0.15,-0.8,0.59,-0.18,-2.87,-1.28,309,281,202,252,242
86,-0.14,-0.81,0.58,0.18,-2.32,-1.59,306,288,198,251,252
87,-0.16,-0.8,0.59,0.31,-1.4,-1.71,308,283,202,250,243
88,-0.17,-0.81,0.58,-0.49,-2.32,-2.08,305,286,197,254,246
89,-0.13,-0.79,0.61,1.46,-3.11,0.12,306,282,211,253,239
90,-0.16,-0.8,0.58,-1.95,-4.33,-1.46,310,287,198,253,240
91,-0.13,-0.79,0.61,-1.71,-3.85,-3.72,306,283,204,251,243
92,-0.1,-0.8,0.6,5.74,-4.88,-4.58,303,284,199,251,245
93,-0.14,-0.81,0.57,2.32,-2.14,1.16,309,282,203,254,243
94,-0.13,-0.77,0.63,-1.53,-1.22,-3.66,310,282,201,251,258
95,-0.16,-0.8,0.61,-8.97,-4.52,1.04,309,283,202,261,241
96,-0.11,-0.79,0.6,3.54,-3.48,-6.23,309,282,200,255,245
97,-0.15,-0.79,0.62,-0.73,-3.3,-1.1,308,285,201,252,243
98,-0.1,-0.79,0.61,-0.85,-4.58,-7.39,309,281,204,253,240
99,-0.14,-0.81,0.58,2.81,-5.19,-2.99,309,284,200,254,240
100,-0.14,-0.84,0.61,-0.79,-3.17,-4.27,309,289,203,250,241
101,-0.08,-0.85,0.53,5.37,12.57,-13.67,311,280,201,253,258
102,-0.21,-0.8,0.63,14.16,6.41,-15.08,312,279,199,254,236
103,-0.15,-0.78,0.59,12.7,12.33,-10.07,309,282,203,248,237
104,-0.13,-0.75,0.66,22.09,6.47,11.35,311,285,201,250,238
105,-0.17,-0.79,0.58,-9.09,8.24,-8.54,311,279,200,249,235
106,-0.2,-0.75,0.66,24.66,-9.58,9.28,311,283,200,249,235
107,-0.25,-0.69,0.7,-1.1,-1.34,0.85,313,286,201,250,237
108,-0.24,-0.69,0.7,-2.56,-6.16,-2.26,307,284,200,249,238
109,-0.22,-0.73,0.68,1.16,-2.69,-1.4,314,286,203,253,233
110,-0.22,-0.73,0.68,-1.46,-13.31,-0.73,314,281,198,250,237
111,-0.17,-0.74,0.67,-13.55,-18.92,-8.36,313,282,204,253,244
112,-0.06,-0.78,0.63,-7.26,-23.25,-9.09,314,286,199,251,234
113,0.03,-0.8,0.62,-9.77,-14.77,-1.95,312,286,202,251,237
114,0.09,-0.81,0.58,9.7,0.67,-8.73,311,287,204,253,239
115,0.03,-0.78,0.61,2.01,-5.74,-1.4,311,290,197,253,244
116,0.05,-0.8,0.61,5.25,-2.75,4.03,317,290,199,250,240
117,0.03,-0.81,0.59,2.81,-4.76,-1.28,315,293,201,254,241
118,0.03,-0.78,0.63,4.27,-4.46,-3.23,311,283,202,252,239
119,-0.0,-0.81,0.61,-1.95,-4.82,-0.12,314,284,200,257,231
120,0.03,-0.78,0.64,2.87,-7.2,-0.12,312,289,204,251,234
121,0.0,-0.76,0.68,0.55,-0.55,-1.04,315,286,201,255,233
122,0.05,-0.78,0.62,-0.06,1.53,1.59,312,288,200,255,241
123,0.01,-0.81,0.6,-4.46,-0.85,-2.99,315,284,205,253,239
124,-0.0,-0.81,0.6,-3.78,-11.54,-3.42,311,291,200,255,280
125,-0.01,-0.82,0.6,1.4,-4.46,0.73,313,287,204,254,238
126,0.01,-0.81,0.59,-1.4,-6.9,-7.32,317,287,201,255,239
127,-0.01,-0.82,0.56,0.31,6.77,-0.55,317,291,202,255,239
128,-0.04,-0.7,0.81,-18.31,-4.94,0.61,307,286,199,252,239
129,-0.11,-0.86,0.54,-1.53,-19.78,14.22,292,285,198,246,240
130,-0.19,-0.86,0.56,-16.6,-8.67,7.14,290,278,196,242,237
131,-0.24,-0.81,0.49,33.57,16.24,-12.45,290,279,199,242,245
132,-0.18,-0.84,0.57,-1.89,-4.27,-3.97,288,283,200,243,233
133,-0.16,-0.93,0.54,0.12,-0.67,-7.14,290,277,197,240,236
134,-0.14,-0.82,0.45,-1.71,-22.95,-3.17,291,284,200,241,236
135,-0.13,-0.82,0.55,10.5,-0.61,0.06,292,283,198,244,244
136,-0.1,-0.85,0.44,-12.82,2.99,-13.55,298,285,202,238,236
137,-0.09,-0.84,0.5,5.8,-2.38,-10.13,297,281,201,243,235
138,-0.1,-0.87,0.51,-25.63,-0.55,-4.7,297,288,210,243,235
139,-0.1,-0.92,0.38,-6.84,-2.01,-6.53,274,283,198,245,237
140,-0.06,-0.92,0.36,-7.08,-6.1,-7.69,276,280,197,254,233
141,-0.03,-0.96,0.3,-17.21,3.05,-2.08,276,271,197,253,231
142,-0.08,-0.96,0.25,7.51,-16.3,-0.18,267,277,195,251,235
143,-0.14,-0.96,0.26,-4.27,-5.98,1.46,271,274,200,257,234
144,-0.12,-0.97,0.23,-10.31,-9.03,2.5,275,271,197,251,230
145,-0.13,-0.96,0.25,1.89,-5.43,-1.46,275,276,200,252,232
146,-0.1,-0.96,0.23,-0.43,-9.03,-2.75,278,274,198,245,232
147,-0.12,-0.96,0.26,3.6,-3.85,-2.75,280,280,200,250,232
148,-0.13,-0.96,0.24,-1.71,-2.08,-3.23,281,276,197,249,234
149,-0.13,-0.97,0.23,-4.03,-2.99,-2.99,280,278,204,250,234
150,-0.14,-0.97,0.21,1.77,-3.78,-1.53,280,271,198,250,230
151,-0.13,-0.96,0.24,-1.59,-3.91,-2.26,281,276,198,250,231
152,-0.13,-0.97,0.22,0.24,6.23,-4.88,280,277,198,248,233
153,-0.12,-0.96,0.25,0.18,-1.83,-2.62,282,281,198,253,231
154,-0.13,-0.92,0.25,7.2,-1.59,-2.14,280,273,211,253,264
155,-0.14,-0.95,0.29,0.55,-3.05,-2.14,278,278,195,248,233
156,-0.14,-0.95,0.28,-1.95,-4.52,-2.14,282,278,197,252,234
157,-0.13,-0.95,0.28,2.14,-3.42,-2.56,280,281,201,249,235
158,-0.11,-0.94,0.31,3.6,-5.07,-1.22,279,276,198,251,233
159,-0.14,-0.93,0.32,7.08,-3.36,-0.85,279,281,201,252,234
160,-0.13,-0.94,0.33,-0.12,-3.11,-2.56,285,282,196,250,232
161,-0.14,-0.95,0.31,0.43,-5.19,0.43,282,280,196,254,233
162,-0.11,-0.94,0.32,3.11,-3.85,-1.46,284,283,203,253,233
163,-0.11,-0.94,0.3,9.28,-3.3,0.0,284,279,199,254,233
164,-0.14,-0.9,0.4,9.95,-6.04,-1.1,284,285,199,251,234
165,-0.14,-0.91,0.38,-4.58,-0.18,-7.75,285,282,196,251,234
166,-0.13,-0.92,0.38,1.77,-1.89,-0.85,284,282,202,251,236
167,-0.13,-0.92,0.38,0.18,-2.99,-2.26,287,284,203,263,225
168,-0.12,-0.92,0.38,-1.46,-4.03,-0.49,288,285,199,252,234
169,-0.1,-0.91,0.38,0.85,-3.11,-0.06,292,284,196,252,232
170,-0.13,-0.91,0.38,-0.31,-3.48,-1.77,289,285,199,254,232
171,-0.13,-0.92,0.38,2.69,-2.93,-3.3,288,281,201,253,233
172,-0.11,-0.92,0.38,-0.43,-2.2,-4.09,290,287,199,252,237
173,-0.11,-0.9,0.39,3.91,-2.5,-2.44,293,283,201,249,237
174,-0.11,-0.91,0.4,0.67,-2.75,-3.3,292,286,202,253,238
175,-0.11,-0.91,0.41,1.53,-3.6,-2.75,287,281,200,255,237
176,-0.13,-0.92,0.38,0.37,-4.94,-1.22,292,281,202,251,232
177,-0.14,-0.91,0.41,-0.61,-3.3,-0.18,293,294,204,255,234
178,-0.12,-0.9,0.42,-1.34,-4.09,-2.01,294,282,205,252,234
179,-0.14,-0.89,0.39,4.52,-0.12,-7.02,293,287,196,253,233
180,-0.12,-0.9,0.41,0.18,-3.6,-2.44,288,285,204,253,235
181,-0.11,-0.9,0.42,1.53,-2.81,-2.14,291,286,200,256,245
182,-0.11,-0.91,0.42,-0.31,-3.23,-1.95,286,291,202,256,237
183,-0.1,-0.89,0.41,-3.36,-4.94,-0.37,293,286,200,252,234
184,-0.11,-0.91,0.42,-7.63,-4.94,1.1,292,290,198,255,235
185,-0.12,-0.91,0.39,0.12,-3.78,-3.23,292,285,201,250,237
186,-0.11,-0.91,0.39,-0.18,-4.15,-2.62,294,287,203,252,238
187,-0.12,-0.9,0.42,-0.31,-4.94,-2.69,282,289,195,252,235
188,-0.09,-0.91,0.41,2.14,0.67,-2.62,288,286,198,253,235
189,-0.11,-0.91,0.38,10.25,-5.43,-3.17,284,286,202,253,233
190,-0.07,-0.87,0.5,0.85,-4.82,-16.36,289,285,204,251,233
191,0.02,-0.91,0.47,-9.22,-4.64,-0.55,291,287,202,250,235
192,0.01,-0.91,0.45,-12.39,-12.7,7.57,291,283,204,252,234
193,0.05,-0.91,0.42,-3.97,0.43,-12.45,292,285,202,252,235
194,0.03,-0.94,0.34,-5.74,11.78,1.04,292,290,201,256,233
195,-0.06,-0.93,0.4,1.77,0.49,5.37,291,291,203,254,239
196,-0.07,-0.93,0.34,-16.42,2.2,-5.68,293,290,201,255,235
197,-0.09,-0.94,0.3,2.01,-6.47,-3.97,291,288,206,255,234
198,-0.08,-0.96,0.3,-4.7,-3.66,-3.17,293,289,201,252,234
199,-0.07,-0.95,0.29,-1.34,-3.3,-2.44,293,291,209,253,231
200,-0.07,-0.96,0.3,4.88,-5.92,-3.54,294,287,208,255,230
201,-0.04,-0.95,0.31,3.17,-2.38,-4.33,296,292,202,253,237
202,-0.05,-0.96,0.29,-0.73,-7.26,0.06,294,291,203,256,237
203,-0.08,-0.96,0.27,0.55,-3.11,-2.75,294,288,205,250,235
204,-0.08,-0.95,0.29,0.55,-4.7,-0.24,296,285,200,257,237
205,-0.07,-0.95,0.29,-0.18,-3.97,-1.71,295,285,200,256,234
206,-0.09,-0.96,0.28,6.29,0.24,-3.05,297,286,202,251,230
207,-0.08,-0.95,0.31,1.77,-4.21,-2.75,295,285,202,257,237
208,-0.07,-0.94,0.33,0.67,-4.21,-2.2,296,294,202,251,232
209,-0.08,-0.95,0.32,0.61,-4.15,-2.08,294,288,200,256,237
210,-0.07,-0.95,0.31,1.22,-3.05,-2.26,295,287,202,257,237
211,-0.07,-0.94,0.34,1.83,-3.42,-2.01,296,291,204,255,237
212,-0.08,-0.94,0.32,0.79,-3.54,-2.38,300,289,205,254,235
213,-0.08,-0.95,0.3,8.79,-1.34,0.06,298,284,206,257,240
214,-0.12,-0.94,0.37,6.53,-2.81,1.77,296,292,206,267,228
215,-0.11,-0.92,0.39,-3.54,-7.2,-3.48,298,289,201,252,229
216,-0.1,-0.94,0.33,1.1,-2.5,-0.92,298,289,205,258,236
217,-0.1,-0.94,0.34,-3.17,-4.76,-3.42,297,286,203,252,234
218,-0.05,-0.94,0.29,-3.42,2.38,-5.55,299,291,206,254,235
219,-0.05,-0.94,0.33,0.67,-2.38,-2.56,301,293,203,250,234
220,-0.09,-0.94,0.33,1.16,-2.38,-2.08,300,292,206,256,231
221,-0.09,-0.94,0.32,0.24,-2.81,-3.42,302,289,205,255,236
222,-0.08,-0.95,0.32,-0.73,-2.87,-2.81,300,293,205,255,234
223,-0.1,-0.93,0.32,-1.59,-0.67,-3.91,301,292,204,251,232
224,-0.07,-0.95,0.3,3.54,-1.83,-2.56,303,291,204,255,234
225,-0.09,-0.95,0.33,0.49,-4.03,-2.38,302,287,206,263,236
226,-0.09,-0.93,0.32,2.81,-3.85,-2.26,298,289,203,253,234
227,-0.08,-0.93,0.33,-1.46,-3.42,-2.32,303,294,200,254,235
228,-0.1,-0.94,0.31,-0.24,-0.61,-2.2,303,293,205,254,234
229,-0.08,-0.94,0.33,0.85,-3.54,-1.65,303,290,205,253,233
230,-0.1,-0.95,0.3,-2.2,-4.7,-2.56,303,291,201,253,237
231,-0.09,-0.96,0.29,-6.16,-5.07,-2.69,302,292,203,251,236
232,-0.06,-0.96,0.23,-5.49,-8.73,-1.1,302,289,204,255,245
233,-0.08,-0.97,0.24,-2.08,-3.97,-1.4,300,292,204,257,236
234,-0.09,-0.97,0.25,-1.1,-1.83,-1.59,305,294,200,258,237
235,-0.1,-0.97,0.25,-0.31,-3.05,-2.44,301,289,200,257,238
236,-0.09,-0.96,0.24,-0.61,-1.95,-2.62,303,298,203,254,232
237,-0.09,-0.98,0.25,-0.55,-3.17,-2.01,302,290,203,253,232
238,-0.08,-0.97,0.24,-0.37,-1.83,-2.81,303,287,202,254,233
239,-0.1,-0.97,0.23,-1.59,-2.56,-2.62,303,290,202,257,232
240,-0.08,-0.97,0.23,1.95,-3.05,-2.01,304,295,204,261,235
241,-0.09,-0.97,0.23,-0.43,-2.62,-3.97,300,287,206,254,239
242,-0.09,-0.98,0.22,-0.67,-2.81,-2.69,303,286,202,253,237
243,-0.09,-0.97,0.24,2.01,-3.6,-1.34,302,294,201,254,238
244,-0.1,-0.96,0.25,2.87,-2.38,-1.04,303,290,204,250,234
245,-0.11,-0.96,0.26,-0.55,-2.81,-2.69,305,288,201,256,236
246,-0.11,-0.96,0.24,-0.49,-3.05,-2.5,303,291,204,254,236
247,-0.11,-0.96,0.25,0.43,-3.66,-1.89,304,290,204,257,235
248,-0.1,-0.96,0.25,-0.61,-2.87,-2.56,305,290,206,257,232
249,-0.1,-0.96,0.24,0.98,-2.56,-2.2,304,290,207,254,234
250,-0.11,-0.96,0.23,-0.06,-3.85,-2.44,304,292,203,256,235
251,-0.1,-0.96,0.25,2.2,-3.42,-2.81,300,295,204,256,264
252,-0.11,-0.96,0.26,0.92,-3.11,-1.83,299,300,206,254,234
253,-0.11,-0.96,0.26,0.73,-3.72,-2.32,304,286,202,255,235
254,-0.12,-0.96,0.26,0.12,-1.16,-2.38,300,290,206,255,234
255,-0.08,-0.96,0.25,2.32,-1.34,-2.81,306,293,203,257,237
256,-0.11,-0.96,0.26,-3.05,-1.34,-5.0,303,286,202,253,237
257,-0.1,-0.96,0.24,-1.22,-1.89,-2.56,305,293,203,259,235
258,-0.12,-0.96,0.24,-0.37,-2.99,-2.87,304,287,206,261,231
259,-0.11,-0.96,0.27,2.14,-2.44,-1.95,299,292,205,256,236
260,-0.11,-0.96,0.25,2.26,-4.58,-1.34,303,295,201,253,235
261,-0.11,-0.96,0.25,0.55,-3.17,-3.48,301,295,205,256,233
262,-0.12,-0.96,0.28,-2.99,6.41,-6.77,304,293,213,255,236
263,-0.11,-0.95,0.26,0.37,-3.3,-1.22,304,295,206,254,233
264,-0.09,-0.97,0.24,0.98,-3.36,-3.66,308,292,203,254,231
265,-0.1,-0.97,0.23,0.67,-2.32,-1.95,307,290,204,255,228
266,-0.1,-0.96,0.26,1.28,-1.95,-2.62,312,292,201,256,235
267,-0.1,-0.97,0.25,-0.61,-2.62,-2.75,311,297,207,258,246
268,-0.1,-0.97,0.22,-0.73,-0.61,-3.3,312,287,204,258,232
269,-0.1,-0.96,0.28,4.33,-7.75,2.01,308,289,204,259,237
270,-0.1,-0.97,0.22,-5.13,-3.3,-4.46,309,292,206,258,234
271,-0.1,-0.97,0.24,-0.73,-4.09,-2.26,311,296,204,257,236
272,-0.1,-0.96,0.24,0.06,-3.6,-2.26,309,290,206,257,238
273,-0.1,-0.97,0.23,-0.18,-2.93,-2.62,311,292,206,256,233
274,-0.11,-0.97,0.24,-0.98,-2.99,-1.22,311,291,204,258,234
275,-0.11,-0.96,0.23,0.98,-2.44,-1.65,312,293,203,255,232
276,-0.11,-0.97,0.22,0.43,-3.54,-2.08,309,291,206,256,235
277,-0.12,-0.96,0.24,0.12,-3.48,-2.99,311,297,206,261,236
278,-0.13,-0.96,0.25,-2.14,-2.5,-1.89,313,295,204,256,235
279,-0.13,-0.96,0.27,-0.43,-3.6,-0.67,311,294,203,252,236
280,-0.12,-0.96,0.25,1.4,-4.15,-0.79,311,293,205,258,234
281,-0.12,-0.97,0.23,1.16,-3.23,-2.08,310,287,205,256,250
282,-0.13,-0.96,0.24,-0.49,-2.32,-2.93,315,294,202,260,237
283,-0.11,-0.96,0.24,1.65,-3.48,-1.89,309,294,208,253,235
284,-0.11,-0.96,0.24,1.53,-3.42,-1.34,311,292,205,260,237
285,-0.11,-0.96,0.23,0.24,-3.48,-2.38,314,293,205,256,234
286,-0.1,-0.96,0.23,1.4,-1.83,-3.3,311,293,202,257,232
287,-0.11,-0.96,0.23,-0.24,-3.17,-2.81,311,295,208,259,234
288,-0.11,-0.96,0.23,-0.31,-1.89,-3.66,309,290,205,257,238
289,-0.12,-0.96,0.24,1.04,-2.87,-1.71,310,291,209,255,238
290,-0.12,-0.96,0.24,0.73,-2.99,-2.38,313,293,203,260,234
291,-0.13,-0.96,0.24,0.06,-3.54,-3.42,312,288,207,259,241
292,-0.12,-0.96,0.25,-0.18,-1.83,-2.99,310,298,206,260,236
293,-0.11,-0.96,0.25,1.46,-2.62,-2.14,312,294,207,259,237
294,-0.12,-0.96,0.25,-0.12,-2.32,-2.75,310,293,204,257,234
295,-0.12,-0.96,0.24,-0.37,-3.05,-2.69,314,293,203,259,235
296,-0.1,-0.96,0.25,0.92,-3.66,-1.04,313,292,202,256,235
297,-0.1,-0.96,0.24,0.43,-2.75,-1.65,313,295,201,259,235
298,-0.11,-0.96,0.24,-2.93,-2.26,-2.14,312,298,205,256,237
299,-0.1,-0.97,0.21,-3.85,-0.98,-5.19,313,293,206,256,232
300,-0.12,-0.97,0.22,-3.42,-2.38,-2.5,315,294,201,257,237
301,-0.12,-0.97,0.22,-1.04,-3.23,-2.87,313,296,208,254,236
302,-0.12,-0.97,0.22,-0.49,-2.81,-3.36,315,294,205,255,235
303,-0.12,-0.97,0.21,0.85,-2.32,-2.32,309,292,208,255,234
304,-0.13,-0.97,0.22,-0.43,-3.42,-2.38,315,289,207,260,277
305,-0.12,-0.96,0.24,2.08,-2.69,-1.83,313,293,206,258,233
306,-0.11,-0.96,0.22,1.46,-3.66,-1.34,314,295,208,256,234
307,-0.11,-0.96,0.23,1.22,-2.93,-2.93,315,294,207,260,235
308,-0.11,-0.96,0.23,0.92,-3.23,-1.95,309,296,204,257,237
309,-0.12,-0.96,0.23,0.0,-3.05,-2.62,312,288,205,255,235
310,-0.12,-0.96,0.24,0.31,-3.05,-2.81,316,296,207,255,231
311,-0.12,-0.97,0.23,0.43,-2.26,-3.11,313,294,208,256,237
312,-0.13,-0.96,0.22,0.55,-2.44,-1.59,311,295,208,257,234
313,-0.13,-0.96,0.24,0.37,-3.36,-2.2,311,297,209,256,237
314,-0.12,-0.96,0.22,0.67,-3.05,-3.17,313,295,203,257,231
315,-0.13,-0.96,0.25,1.34,-3.42,-2.87,310,297,206,260,237
316,-0.13,-0.96,0.24,1.77,-3.3,-2.87,312,294,208,255,234
317,-0.13,-0.96,0.26,0.98,-3.36,-1.16,314,297,208,254,236
318,-0.13,-0.96,0.25,0.0,-3.05,-1.83,304,297,205,252,235
319,-0.13,-0.96,0.25,0.79,-2.62,-2.38,313,289,208,257,236
320,-0.13,-0.95,0.25,-0.18,-2.93,-3.05,313,293,208,255,235
321,-0.12,-0.96,0.26,-0.18,-3.36,-2.26,312,298,205,259,236
322,-0.12,-0.96,0.26,-0.37,-3.91,-2.01,315,293,202,257,238
323,-0.13,-0.96,0.25,0.06,-2.44,-2.56,314,293,206,258,233
324,-0.13,-0.96,0.25,1.22,-2.44,-2.99,312,298,208,260,237
325,-0.13,-0.96,0.26,-0.06,-2.75,-2.93,316,299,205,255,236
326,-0.13,-0.96,0.26,-0.12,-2.56,-1.83,311,298,208,259,234
327,-0.14,-0.96,0.25,-0.31,-3.91,-1.4,312,296,205,257,235
328,-0.12,-0.95,0.26,1.28,-3.17,-2.44,315,294,208,260,235
329,-0.13,-0.96,0.26,1.1,-3.42,-2.5,312,294,206,258,239
330,-0.12,-0.95,0.26,2.69,-2.81,-2.75,313,290,205,256,235
331,-0.13,-0.96,0.26,2.93,-1.71,-1.59,310,292,209,257,237
332,-0.15,-0.95,0.29,0.37,-0.24,-2.5,306,288,203,259,238
333,-0.14,-0.95,0.27,0.0,-2.08,-2.81,312,293,208,259,238
334,-0.14,-0.95,0.28,-0.79,-2.38,-4.15,309,296,206,254,238
335,-0.13,-0.95,0.28,0.92,-2.87,-2.69,307,293,205,257,234
336,-0.14,-0.95,0.28,0.31,-2.75,-2.93,308,294,205,258,236
337,-0.14,-0.96,0.29,-1.22,-2.87,-1.89,306,288,206,260,234
338,-0.13,-0.95,0.29,0.49,-3.36,-2.32,309,292,208,256,235
339,-0.14,-0.95,0.27,0.67,-2.14,-2.69,306,292,204,259,238
340,-0.14,-0.95,0.27,1.53,-4.52,-1.4,310,287,208,257,224
341,-0.15,-0.95,0.29,0.12,-2.75,-0.92,316,292,207,261,269
342,-0.15,-0.95,0.29,-0.79,-3.17,-2.14,314,287,203,256,237
343,-0.14,-0.95,0.29,0.67,-2.5,-2.93,311,291,205,261,236
344,-0.14,-0.94,0.29,0.43,-2.99,-2.38,312,293,207,260,236
345,-0.13,-0.95,0.29,0.24,-2.81,-2.87,312,292,205,258,235
346,-0.14,-0.95,0.3,0.37,-2.99,-2.26,311,296,208,260,231
347,-0.13,-0.95,0.28,-0.43,-3.6,-1.89,314,304,206,256,233
348,-0.13,-0.94,0.28,1.1,-3.36,-2.08,312,298,209,261,237
349,-0.14,-0.94,0.29,-1.04,-3.85,-2.38,315,289,209,258,238
350,-0.14,-0.94,0.29,0.98,-2.87,-2.14,312,296,207,258,238
351,-0.15,-0.95,0.29,-0.31,-2.69,-3.23,311,293,210,260,239
352,-0.18,-0.95,0.31,-0.85,0.79,-6.53,309,295,208,259,251
353,-0.12,-0.95,0.25,-0.43,1.04,-4.52,313,293,203,262,235
354,-0.09,-0.95,0.26,0.0,1.53,-6.65,315,292,206,261,235
355,-0.06,-0.95,0.28,5.0,-1.71,-0.73,310,294,204,258,235
356,-0.1,-0.96,0.27,-0.79,-4.7,-1.4,312,288,205,258,238
357,-0.05,-0.95,0.25,7.57,-2.01,1.22,313,294,204,261,234
358,-0.09,-0.95,0.32,-2.2,-2.93,-2.81,313,296,209,257,235
359,-0.07,-0.96,0.23,-1.22,-2.44,-4.64,311,296,208,257,239
360,-0.1,-0.96,0.27,-0.31,-3.66,-2.56,313,294,206,262,237
361,-0.08,-0.95,0.26,2.5,-2.14,2.2,314,291,206,258,233
362,-0.09,-0.96,0.26,1.16,-2.56,-0.85,310,295,209,258,236
363,-0.11,-0.96,0.27,0.85,-2.5,-2.38,312,297,209,259,237
364,-0.1,-0.95,0.28,0.73,-4.15,-1.28,313,292,209,257,235
365,-0.1,-0.95,0.28,1.34,-2.87,-2.38,313,290,205,261,236
366,-0.11,-0.95,0.28,0.24,-3.42,-2.08,313,296,207,259,235
367,-0.1,-0.95,0.28,1.71,-3.91,-2.5,310,295,204,258,235
368,-0.11,-0.95,0.3,0.55,-2.75,-1.53,311,293,209,257,235
369,-0.1,-0.95,0.28,0.18,-3.48,-1.83,314,295,206,261,236
370,-0.1,-0.95,0.29,0.85,-2.32,-2.01,313,299,209,258,237
371,-0.11,-0.95,0.29,-0.24,-3.36,-1.83,313,298,208,261,237
372,-0.11,-0.95,0.29,0.18,-2.75,-2.38,316,290,208,262,238
373,-0.12,-0.95,0.28,-0.12,-3.48,-1.77,311,292,209,260,236
374,-0.12,-0.95,0.28,0.73,-3.42,-2.5,312,296,207,262,232
375,-0.12,-0.95,0.3,2.26,-2.08,-1.77,315,289,206,260,236
376,-0.11,-0.95,0.28,1.53,-3.23,-2.87,313,295,205,259,233
377,-0.11,-0.95,0.3,0.12,-2.75,-2.01,313,295,206,259,233
378,-0.12,-0.95,0.29,0.06,-3.23,-2.5,313,295,209,258,233
379,-0.11,-0.95,0.29,0.06,-2.56,-2.44,320,294,208,262,238
380,-0.1,-0.95,0.27,-0.49,-2.08,-4.94,312,294,208,260,238
381,-0.12,-0.95,0.3,-0.31,-3.23,-2.56,313,290,207,260,239
382,-0.12,-0.95,0.3,0.79,-3.54,-1.95,313,299,205,262,233
383,-0.13,-0.95,0.3,-0.85,-3.48,-2.62,316,295,209,260,265
384,-0.13,-0.95,0.29,1.59,-2.08,-2.5,316,293,203,261,237
385,-0.12,-0.95,0.29,1.1,-3.78,-2.5,310,297,209,261,237
386,-0.12,-0.95,0.3,1.77,-3.36,-2.08,310,296,208,260,237
387,-0.12,-0.94,0.31,1.4,-3.05,-2.01,311,295,208,259,235
388,-0.13,-0.94,0.3,0.06,-3.05,-2.38,314,298,205,258,239
389,-0.12,-0.94,0.3,0.61,-2.62,-2.75,311,295,206,259,235
390,-0.14,-0.95,0.3,0.98,-2.32,-1.95,320,290,209,259,238
391,-0.13,-0.94,0.31,-0.12,-3.66,-2.69,315,299,207,261,237
392,-0.13,-0.95,0.3,0.92,-3.11,-2.62,313,295,205,259,236
393,-0.13,-0.95,0.3,-2.62,-2.56,-2.5,315,297,209,259,237
394,-0.12,-0.95,0.31,-0.06,-2.26,-3.11,317,289,209,259,236
395,-0.12,-0.94,0.29,2.32,-2.93,-2.08,320,294,207,260,237
396,-0.12,-0.95,0.29,-1.59,-1.28,-4.03,315,287,206,260,252
397,-0.12,-0.95,0.3,-0.06,-2.01,-3.36,316,300,208,260,236
398,-0.11,-0.94,0.3,-1.28,-2.14,-3.23,316,299,210,261,236
399,-0.14,-0.95,0.3,1.65,-4.82,0.73,318,297,208,260,240
400,-0.13,-0.95,0.3,2.26,-2.38,-1.83,316,300,208,259,238
401,-0.13,-0.95,0.3,-1.83,-2.69,-3.6,318,294,209,257,234
402,-0.13,-0.95,0.3,1.46,-3.05,-2.08,318,299,204,257,236
403,-0.13,-0.94,0.31,1.83,-3.05,-2.38,318,298,205,261,238
404,-0.13,-0.94,0.32,1.77,-3.66,-2.14,321,291,206,261,235
405,-0.13,-0.95,0.31,-1.65,-3.23,-2.62,316,301,204,263,235
406,-0.13,-0.94,0.31,0.37,-2.93,-1.95,316,290,211,260,240
407,-0.11,-0.94,0.3,-0.73,-2.81,-2.38,318,299,206,263,233
408,-0.13,-0.94,0.3,-0.37,-3.05,-2.38,321,301,211,259,234
409,-0.13,-0.94,0.3,1.04,-2.93,-3.17,319,294,209,260,237
410,-0.12,-0.94,0.31,-0.37,-3.36,-3.11,321,293,209,259,237
411,-0.12,-0.94,0.3,1.71,-2.99,-3.72,321,292,208,263,236
412,-0.12,-0.94,0.29,2.2,-0.85,-5.19,316,308,207,261,239
413,-0.13,-0.94,0.3,-1.28,-2.26,-3.66,316,301,210,257,238
414,-0.14,-0.94,0.31,-0.98,-2.99,-2.44,318,301,207,260,237
415,-0.12,-0.95,0.29,1.34,-2.14,-2.75,315,294,206,262,236
416,-0.12,-0.94,0.31,-0.98,-1.53,-2.32,316,301,207,261,248
417,-0.14,-0.94,0.32,1.71,-1.53,-2.99,319,291,210,261,235
418,-0.14,-0.94,0.3,1.34,-3.72,-2.32,319,297,213,261,238
419,-0.14,-0.94,0.31,1.53,-2.62,-3.36,320,301,207,268,238
420,-0.14,-0.94,0.33,1.46,-0.79,-3.97,318,300,208,262,238
421,-0.13,-0.93,0.34,-2.08,-3.3,-1.89,320,295,209,261,236
422,-0.13,-0.93,0.32,4.03,-2.38,-2.08,316,297,207,263,238
423,-0.08,-0.95,0.25,-19.59,5.8,-23.32,314,298,211,260,237
424,-0.08,-0.95,0.22,-6.1,-4.15,-1.46,316,292,204,261,243
425,-0.12,-0.98,0.22,-17.52,2.01,1.89,320,300,206,260,237
426,-0.12,-0.96,0.16,6.47,-11.29,4.7,318,303,207,258,235
427,-0.06,-0.96,0.22,15.2,-6.41,-1.77,320,297,205,263,234
428,-0.13,-0.96,0.23,5.0,-5.92,3.05,323,304,214,261,238
429,-0.11,-0.95,0.27,-0.06,-1.83,-2.26,322,303,209,261,238
430,-0.15,-0.96,0.27,-3.05,-2.56,2.08,327,297,209,260,233
431,-0.1,-0.95,0.27,2.69,-5.19,1.59,325,294,208,262,235
432,-0.09,-0.94,0.21,10.93,-27.65,0.31,325,305,205,262,236
433,-0.13,-0.95,0.27,1.1,1.16,-8.48,316,297,208,263,238
434,-0.11,-0.97,0.28,-2.08,-5.43,-14.71,320,296,210,262,239
435,-0.11,-0.95,0.27,0.49,-4.27,-2.69,317,301,209,261,239
436,-0.11,-0.95,0.28,2.26,-5.43,-0.43,321,301,206,261,237
437,-0.11,-0.95,0.29,-0.49,-2.38,-3.54,323,304,206,267,238
438,-0.12,-0.95,0.29,0.18,-3.91,-1.34,322,301,211,261,237
439,-0.1,-0.95,0.28,-1.22,-2.62,-2.93,324,300,220,261,234
440,-0.11,-0.95,0.27,-0.24,-2.81,-2.56,326,301,211,257,232
441,-0.1,-0.96,0.28,0.61,-0.73,-2.44,323,301,211,261,235
442,-0.1,-0.95,0.28,-0.61,-4.76,-0.98,317,299,210,262,236
443,-0.1,-0.96,0.28,1.65,-1.95,-3.3,324,304,209,260,237
444,-0.11,-0.95,0.28,-0.31,-2.87,-2.69,326,294,210,261,239
445,-0.11,-0.96,0.27,0.31,-2.44,-2.87,329,303,208,267,234
446,-0.11,-0.95,0.28,0.92,-3.17,-2.26,324,295,211,259,236
447,-0.11,-0.96,0.28,-0.43,-3.11,-2.56,322,301,209,272,237
448,-0.11,-0.95,0.29,1.59,-4.09,-1.46,322,301,211,264,255
449,-0.11,-0.95,0.28,-0.43,-2.81,-2.32,325,297,208,261,236
450,-0.11,-0.95,0.29,-1.4,-3.23,-1.53,326,300,208,264,232
451,-0.12,-0.95,0.29,0.31,-3.11,-2.01,325,302,208,264,239
452,-0.11,-0.95,0.28,-0.31,-3.11,-2.08,326,297,209,263,236
453,-0.1,-0.95,0.28,1.16,-2.62,-2.44,325,296,208,263,236
454,-0.12,-0.95,0.28,0.0,-3.36,-2.38,326,296,208,262,238
455,-0.12,-0.96,0.27,-0.61,-3.23,-2.5,318,301,211,264,236
456,-0.12,-0.95,0.28,0.49,-2.2,-2.93,328,302,208,264,236
457,-0.09,-0.95,0.26,0.79,-1.89,-2.44,322,304,207,262,253
458,-0.11,-0.96,0.26,-0.49,-3.48,-2.14,326,299,209,264,242
459,-0.11,-0.96,0.27,0.18,-3.54,-1.65,328,303,210,261,239
460,-0.12,-0.95,0.26,0.37,-3.05,-2.44,325,306,213,263,237
461,-0.12,-0.96,0.27,-0.43,-2.93,-3.05,324,303,211,262,236
462,-0.14,-0.96,0.25,2.93,2.38,-5.86,325,312,208,259,245
463,-0.11,-0.95,0.27,-0.24,-2.5,-3.11,326,303,219,262,237
464,-0.09,-0.95,0.26,1.28,-4.46,-1.4,325,302,207,261,235
465,-0.11,-0.95,0.28,1.46,-2.99,-1.28,321,291,212,258,236
466,-0.12,-0.95,0.27,-0.18,-3.54,-2.56,328,301,211,264,248
467,-0.11,-0.95,0.29,0.43,-3.54,-1.4,326,295,212,261,236
468,-0.12,-0.95,0.29,0.12,-3.05,-2.99,328,292,209,263,238
469,-0.11,-0.95,0.3,0.12,-2.5,-2.62,327,296,207,265,237
470,-0.12,-0.95,0.29,0.55,-2.99,-2.2,325,301,208,265,236
471,-0.11,-0.95,0.28,1.83,-2.56,-2.62,326,300,209,262,237
472,-0.13,-0.95,0.29,1.04,-1.83,-2.56,328,297,212,264,236
473,-0.12,-0.95,0.29,0.55,-3.36,-2.26,327,305,209,265,239
474,-0.12,-0.95,0.29,0.12,-3.66,-1.59,323,297,211,263,236
475,-0.12,-0.95,0.29,0.61,-3.23,-2.44,326,308,209,262,235
476,-0.11,-0.95,0.29,0.06,-3.6,-2.01,326,302,209,262,236
477,-0.12,-0.95,0.29,0.79,-3.85,-2.14,324,301,211,262,239
478,-0.13,-0.95,0.3,1.65,-3.05,-2.2,322,301,206,263,236
479,-0.13,-0.94,0.3,0.06,-2.75,-2.62,324,297,212,261,239
480,-0.12,-0.95,0.29,-1.04,-2.93,-2.08,332,294,207,261,236
481,-0.12,-0.95,0.29,-0.55,-3.78,-2.08,322,299,209,259,237
482,-0.13,-0.95,0.29,0.31,-2.56,-2.38,326,302,209,270,236
483,-0.13,-0.95,0.29,0.12,-3.48,-1.89,322,303,206,262,237
484,-0.12,-0.95,0.29,1.71,-2.93,-2.32,326,303,210,262,238
485,-0.13,-0.95,0.29,0.37,-3.05,-2.32,326,300,209,263,239
486,-0.12,-0.95,0.29,0.85,-3.97,-1.34,326,300,211,264,238
487,-0.13,-0.95,0.29,0.98,-2.99,-2.26,324,299,212,257,237
488,-0.13,-0.94,0.3,1.4,-0.79,-3.97,327,299,211,260,237
489,-0.13,-0.94,0.3,0.67,-3.05,-2.01,326,300,212,264,236
490,-0.13,-0.94,0.29,0.61,-3.05,-2.2,327,298,210,262,237
491,-0.13,-0.95,0.3,-0.37,-3.72,-2.01,327,302,212,263,235
492,-0.13,-0.94,0.31,1.04,-3.54,-2.14,324,299,210,261,237
493,-0.13,-0.94,0.3,1.28,-3.23,-1.59,329,301,210,263,247
494,-0.14,-0.94,0.31,-0.06,-3.6,-2.01,328,298,214,260,234
495,-0.14,-0.94,0.31,0.67,-3.48,-1.65,328,298,207,266,237
496,-0.14,-0.94,0.3,0.0,-2.44,-2.5,328,302,207,264,238
497,-0.13,-0.94,0.3,-1.04,-2.44,-3.17,326,295,212,266,239
498,-0.14,-0.94,0.3,-0.37,-2.81,-3.23,326,297,207,263,239
499,-0.13,-0.94,0.31,3.48,2.26,-4.88,326,301,212,261,236
500,-0.15,-0.94,0.35,0.31,3.17,-6.47,326,297,210,262,236
501,-0.11,-0.94,0.31,-0.06,3.72,-1.04,325,298,211,260,239
502,-0.11,-0.97,0.19,0.12,2.5,-2.38,325,301,202,264,237
503,-0.08,-0.95,0.24,-5.92,-5.25,-12.27,324,294,212,262,237
504,-0.06,-0.98,0.18,1.95,1.83,-1.4,325,300,209,264,239
505,-0.07,-0.97,0.21,1.65,-3.54,-1.34,327,295,213,258,237
506,-0.1,-0.98,0.19,-1.89,-3.6,-1.4,324,298,211,262,233
507,-0.09,-0.97,0.19,-1.95,-3.91,-2.56,326,301,213,262,236
508,-0.1,-0.97,0.22,-0.43,-3.66,-1.28,326,303,215,261,237
509,-0.11,-0.97,0.19,-0.92,-3.6,-1.16,323,299,210,259,236
510,-0.1,-0.98,0.19,-0.18,-3.66,-1.71,326,303,212,264,235
511,-0.14,-0.94,0.3,11.41,-5.8,-1.34,286,261,187,235,231
512,-0.15,-0.92,0.32,-3.42,-4.76,-3.05,288,262,190,237,229
513,-0.15,-0.93,0.35,0.49,-1.16,-0.18,290,263,189,236,237
514,-0.13,-0.94,0.33,-0.67,-2.14,-2.01,290,262,186,237,234
515,-0.14,-0.94,0.27,-1.71,-5.07,-0.37,293,261,185,238,233
516,-0.13,-0.94,0.32,7.2,0.61,-3.91,293,266,185,238,235
517,-0.13,-0.93,0.34,1.04,-2.2,-2.56,295,273,187,241,236
518,-0.14,-0.92,0.34,-0.67,-3.11,-2.93,295,271,188,242,234
519,-0.14,-0.93,0.35,-1.95,-4.03,-3.78,298,266,188,240,237
520,-0.13,-0.93,0.36,0.49,-2.5,-4.94,300,269,189,238,235
521,-0.16,-0.92,0.38,2.99,0.31,-2.87,301,270,191,238,247
522,-0.16,-0.91,0.39,0.12,-4.09,-1.28,303,271,187,239,230
523,-0.12,-0.92,0.39,1.04,4.94,-8.12,303,270,189,240,234
524,-0.16,-0.89,0.47,18.74,2.75,-1.22,304,274,188,240,231
525,-0.06,-0.92,0.37,2.38,-2.14,-4.33,306,269,191,238,234
526,-0.1,-0.91,0.46,4.27,-5.25,3.66,305,276,192,239,235
527,-0.13,-0.89,0.44,5.43,-3.54,2.5,303,274,193,241,234
528,-0.13,-0.88,0.46,3.17,-3.6,-2.38,306,275,191,245,238
529,-0.14,-0.88,0.46,2.44,-3.11,-1.71,307,271,190,242,238
530,-0.13,-0.88,0.46,0.31,-3.3,-2.14,310,279,194,239,235
531,-0.1,-0.87,0.48,3.42,-4.7,-2.56,311,278,190,241,235
532,-0.12,-0.87,0.48,0.49,-2.44,-1.77,311,282,189,246,233
533,-0.13,-0.87,0.49,-0.92,-2.44,-2.26,310,279,194,246,237
534,-0.12,-0.87,0.49,0.18,-4.09,-2.14,310,278,194,242,236
535,-0.13,-0.88,0.47,-2.62,-2.14,-4.64,306,284,189,246,232
536,-0.12,-0.87,0.49,1.59,-3.05,-1.59,309,281,192,244,236
537,-0.12,-0.85,0.5,-0.37,-2.87,-3.36,307,279,193,243,240
538,-0.13,-0.86,0.52,8.85,-5.13,1.4,303,279,194,245,237
539,-0.13,-0.85,0.53,1.65,-3.48,-1.46,298,284,193,246,238
540,-0.13,-0.85,0.52,1.28,-2.87,-2.26,302,274,193,245,240
541,-0.14,-0.85,0.52,1.1,-2.56,-2.62,303,291,197,244,237
542,-0.13,-0.85,0.52,1.89,-2.32,-3.23,303,283,194,244,238
543,-0.13,-0.85,0.52,2.2,-3.42,-1.83,305,279,196,245,242
544,-0.13,-0.85,0.52,2.81,-2.99,-2.56,304,276,195,249,234
545,-0.13,-0.84,0.53,0.98,-3.6,-2.01,305,284,192,256,240
546,-0.13,-0.84,0.53,-1.59,-2.32,-2.75,308,285,195,244,239
547,-0.13,-0.84,0.53,1.22,-3.54,-2.26,309,284,195,246,240
548,-0.12,-0.84,0.54,1.53,-2.87,-2.5,308,277,194,249,244
549,-0.13,-0.84,0.54,0.55,-2.75,-2.87,306,277,195,245,236
550,-0.13,-0.84,0.54,1.53,-3.23,-1.89,305,283,194,245,239
551,-0.13,-0.83,0.54,0.24,-3.05,-2.26,308,282,200,250,238
552,-0.12,-0.83,0.55,2.08,-2.38,-2.62,308,281,198,250,238
553,-0.13,-0.84,0.54,-0.37,-3.23,-2.38,307,284,198,250,240
554,-0.14,-0.83,0.55,-0.61,-4.46,-0.55,307,281,194,244,243
555,-0.12,-0.84,0.53,1.28,-2.56,-3.23,310,285,194,247,240
556,-0.13,-0.84,0.52,0.12,-1.1,-3.42,310,284,198,248,240
557,-0.12,-0.85,0.53,0.12,-2.44,-4.09,305,282,195,249,239
558,-0.13,-0.85,0.53,-3.48,-3.66,-2.81,310,287,197,250,241
559,-0.12,-0.83,0.54,-3.54,-6.59,-0.79,311,283,196,249,241
560,-0.12,-0.84,0.54,-1.53,-2.14,-3.66,306,282,199,249,239
561,-0.12,-0.84,0.53,1.83,-2.75,-2.62,310,286,199,247,242
562,-0.12,-0.83,0.54,2.99,-6.1,0.24,310,278,201,252,239
563,-0.11,-0.84,0.53,3.72,-2.81,-1.95,311,280,199,251,240
564,-0.11,-0.83,0.54,-1.28,-2.26,-4.09,313,283,197,250,240
565,-0.11,-0.84,0.54,1.04,-3.36,-1.65,311,289,196,253,238
566,-0.15,-0.83,0.56,10.07,4.09,2.81,300,283,196,248,242
567,-0.14,-0.82,0.56,-1.04,-1.34,-3.48,290,286,200,246,237
568,-0.14,-0.85,0.52,-0.67,-3.66,-1.83,306,286,200,248,241
569,-0.12,-0.85,0.5,-0.06,-2.5,-4.33,303,288,198,261,238
570,-0.14,-0.85,0.52,-0.55,-3.23,-2.81,305,291,195,250,241
571,-0.14,-0.87,0.49,-1.71,-3.17,-2.75,305,287,197,253,243
572,-0.14,-0.84,0.53,-0.49,-3.78,-1.46,306,282,198,252,239
573,-0.13,-0.85,0.52,1.22,-2.99,-2.69,308,285,200,248,241
574,-0.13,-0.84,0.53,1.77,-2.26,-2.5,309,287,196,250,254
575,-0.15,-0.84,0.54,1.65,-4.76,-0.98,309,284,201,252,241
576,-0.15,-0.83,0.55,2.75,-3.05,-2.2,302,282,199,253,240
577,-0.15,-0.83,0.55,0.12,-2.5,-2.81,307,283,214,252,241
578,-0.14,-0.83,0.54,0.79,-2.99,-2.32,306,280,197,252,240
579,-0.14,-0.83,0.54,1.34,-1.4,-2.56,308,283,201,253,240
580,-0.15,-0.82,0.56,2.2,-2.81,-3.17,304,282,201,250,240
581,-0.14,-0.82,0.55,0.18,-2.26,-3.3,306,282,196,253,241
582,-0.14,-0.82,0.56,1.65,-4.46,-2.08,310,286,196,255,243
583,-0.15,-0.81,0.55,0.73,-4.27,-3.11,308,276,202,254,238
584,-0.14,-0.81,0.58,2.32,-5.31,-1.65,307,279,202,251,240
585,-0.15,-0.81,0.56,1.04,-3.54,-3.17,307,283,198,251,243
586,-0.14,-0.82,0.56,0.18,-2.99,-2.5,307,279,202,250,238
587,-0.14,-0.82,0.56,-0.85,-0.92,-3.17,306,282,197,248,242
588,-0.14,-0.82,0.57,1.77,-3.66,-0.79,306,277,198,254,240
589,-0.14,-0.81,0.57,-0.79,-2.93,-2.2,309,284,197,252,243
590,-0.14,-0.81,0.58,0.43,-2.81,-0.67,304,281,203,252,240
591,-0.15,-0.82,0.57,1.1,-2.99,-2.2,308,277,198,253,242
592,-0.15,-0.84,0.58,0.73,-3.11,-3.36,309,283,196,251,240
593,-0.13,-0.8,0.59,0.43,-2.99,-2.75,308,286,197,268,239
594,-0.14,-0.81,0.58,1.77,-2.5,-2.14,311,287,198,251,240
595,-0.14,-0.81,0.59,-0.18,-1.04,-3.17,307,282,200,259,249
596,-0.15,-0.8,0.59,-0.18,-2.87,-1.28,309,281,202,252,242
597,-0.14,-0.81,0.58,0.18,-2.32,-1.59,306,288,198,251,252
598,-0.16,-0.8,0.59,0.31,-1.4,-1.71,308,283,202,250,243
599,-0.17,-0.81,0.58,-0.49,-2.32,-2.08,305,286,197,254,246
600,-0.13,-0.79,0.61,1.46,-3.11,0.12,306,282,211,253,239
601,-0.16,-0.8,0.58,-1.95,-4.33,-1.46,310,287,198,253,240
602,-0.13,-0.79,0.61,-1.71,-3.85,-3.72,306,283,204,251,243
603,-0.1,-0.8,0.6,5.74,-4.88,-4.58,303,284,199,251,245
604,-0.14,-0.81,0.57,2.32,-2.14,1.16,309,282,203,254,243
605,-0.13,-0.77,0.63,-1.53,-1.22,-3.66,310,282,201,251,258
606,-0.16,-0.8,0.61,-8.97,-4.52,1.04,309,283,202,261,241
607,-0.11,-0.79,0.6,3.54,-3.48,-6.23,309,282,200,255,245
608,-0.15,-0.79,0.62,-0.73,-3.3,-1.1,308,285,201,252,243
609,-0.1,-0.79,0.61,-0.85,-4.58,-7.39,309,281,204,253,240
610,-0.14,-0.81,0.58,2.81,-5.19,-2.99,309,284,200,254,240
611,-0.14,-0.84,0.61,-0.79,-3.17,-4.27,309,289,203,250,241
612,-0.08,-0.85,0.53,5.37,12.57,-13.67,311,280,201,253,258
613,-0.21,-0.8,0.63,14.16,6.41,-15.08,312,279,199,254,236
614,-0.15,-0.78,0.59,12.7,12.33,-10.07,309,282,203,248,237
615,-0.13,-0.75,0.66,22.09,6.47,11.35,311,285,201,250,238
616,-0.17,-0.79,0.58,-9.09,8.24,-8.54,311,279,200,249,235
617,-0.2,-0.75,0.66,24.66,-9.58,9.28,311,283,200,249,235
618,-0.25,-0.69,0.7,-1.1,-1.34,0.85,313,286,201,250,237
619,-0.24,-0.69,0.7,-2.56,-6.16,-2.26,307,284,200,249,238
620,-0.22,-0.73,0.68,1.16,-2.69,-1.4,314,286,203,253,233
621,-0.22,-0.73,0.68,-1.46,-13.31,-0.73,314,281,198,250,237
622,-0.17,-0.74,0.67,-13.55,-18.92,-8.36,313,282,204,253,244
623,-0.06,-0.78,0.63,-7.26,-23.25,-9.09,314,286,199,251,234
624,0.03,-0.8,0.62,-9.77,-14.77,-1.95,312,286,202,251,237
625,0.09,-0.81,0.58,9.7,0.67,-8.73,311,287,204,253,239
626,0.03,-0.78,0.61,2.01,-5.74,-1.4,311,290,197,253,244
627,0.05,-0.8,0.61,5.25,-2.75,4.03,317,290,199,250,240
628,0.03,-0.81,0.59,2.81,-4.76,-1.28,315,293,201,254,241
629,0.03,-0.78,0.63,4.27,-4.46,-3.23,311,283,202,252,239
630,-0.0,-0.81,0.61,-1.95,-4.82,-0.12,314,284,200,257,231
631,0.03,-0.78,0.64,2.87,-7.2,-0.12,312,289,204,251,234
632,0.0,-0.76,0.68,0.55,-0.55,-1.04,315,286,201,255,233
633,0.05,-0.78,0.62,-0.06,1.53,1.59,312,288,200,255,241
634,0.01,-0.81,0.6,-4.46,-0.85,-2.99,315,284,205,253,239
635,-0.0,-0.81,0.6,-3.78,-11.54,-3.42,311,291,200,255,280
636,-0.01,-0.82,0.6,1.4,-4.46,0.73,313,287,204,254,238
637,0.01,-0.81,0.59,-1.4,-6.9,-7.32,317,287,201,255,239
638,-0.01,-0.82,0.56,0.31,6.77,-0.55,317,291,202,255,239
639,-0.04,-0.7,0.81,-18.31,-4.94,0.61,307,286,199,252,239
640,-0.11,-0.86,0.54,-1.53,-19.78,14.22,292,285,198,246,240
641,-0.19,-0.86,0.56,-16.6,-8.67,7.14,290,278,196,242,237
642,-0.24,-0.81,0.49,33.57,16.24,-12.45,290,279,199,242,245
643,-0.18,-0.84,0.57,-1.89,-4.27,-3.97,288,283,200,243,233
644,-0.16,-0.93,0.54,0.12,-0.67,-7.14,290,277,197,240,236
645,-0.14,-0.82,0.45,-1.71,-22.95,-3.17,291,284,200,241,236
646,-0.13,-0.82,0.55,10.5,-0.61,0.06,292,283,198,244,244
647,-0.1,-0.85,0.44,-12.82,2.99,-13.55,298,285,202,238,236
648,-0.09,-0.84,0.5,5.8,-2.38,-10.13,297,281,201,243,235
649,-0.1,-0.87,0.51,-25.63,-0.55,-4.7,297,288,210,243,235
650,-0.1,-0.92,0.38,-6.84,-2.01,-6.53,274,283,198,245,237
651,-0.06,-0.92,0.36,-7.08,-6.1,-7.69,276,280,197,254,233
652,-0.03,-0.96,0.3,-17.21,3.05,-2.08,276,271,197,253,231
653,-0.08,-0.96,0.25,7.51,-16.3,-0.18,267,277,195,251,235
654,-0.14,-0.96,0.26,-4.27,-5.98,1.46,271,274,200,257,234
655,-0.12,-0.97,0.23,-10.31,-9.03,2.5,275,271,197,251,230
656,-0.13,-0.96,0.25,1.89,-5.43,-1.46,275,276,200,252,232
657,-0.1,-0.96,0.23,-0.43,-9.03,-2.75,278,274,198,245,232
658,-0.12,-0.96,0.26,3.6,-3.85,-2.75,280,280,200,250,232
659,-0.13,-0.96,0.24,-1.71,-2.08,-3.23,281,276,197,249,234
660,-0.13,-0.97,0.23,-4.03,-2.99,-2.99,280,278,204,250,234
661,-0.14,-0.97,0.21,1.77,-3.78,-1.53,280,271,198,250,230
662,-0.13,-0.96,0.24,-1.59,-3.91,-2.26,281,276,198,250,231
663,-0.13,-0.97,0.22,0.24,6.23,-4.88,280,277,198,248,233
664,-0.12,-0.96,0.25,0.18,-1.83,-2.62,282,281,198,253,231
665,-0.13,-0.92,0.25,7.2,-1.59,-2.14,280,273,211,253,264
666,-0.14,-0.95,0.29,0.55,-3.05,-2.14,278,278,195,248,233
667,-0.14,-0.95,0.28,-1.95,-4.52,-2.14,282,278,197,252,234
668,-0.13,-0.95,0.28,2.14,-3.42,-2.56,280,281,201,249,235
669,-0.11,-0.94,0.31,3.6,-5.07,-1.22,279,276,198,251,233
670,-0.14,-0.93,0.32,7.08,-3.36,-0.85,279,281,201,252,234
671,-0.13,-0.94,0.33,-0.12,-3.11,-2.56,285,282,196,250,232
672,-0.14,-0.95,0.31,0.43,-5.19,0.43,282,280,196,254,233
673,-0.11,-0.94,0.32,3.11,-3.85,-1.46,284,283,203,253,233
674,-0.11,-0.94,0.3,9.28,-3.3,0.0,284,279,199,254,233
675,-0.14,-0.9,0.4,9.95,-6.04,-1.1,284,285,199,251,234
676,-0.14,-0.91,0.38,-4.58,-0.18,-7.75,285,282,196,251,234
677,-0.13,-0.92,0.38,1.77,-1.89,-0.85,284,282,202,251,236
678,-0.13,-0.92,0.38,0.18,-2.99,-2.26,287,284,203,263,225
679,-0.12,-0.92,0.38,-1.46,-4.03,-0.49,288,285,199,252,234
680,-0.1,-0.91,0.38,0.85,-3.11,-0.06,292,284,196,252,232
681,-0.13,-0.91,0.38,-0.31,-3.48,-1.77,289,285,199,254,232
682,-0.13,-0.92,0.38,2.69,-2.93,-3.3,288,281,201,253,233
683,-0.11,-0.92,0.38,-0.43,-2.2,-4.09,290,287,199,252,237
684,-0.11,-0.9,0.39,3.91,-2.5,-2.44,293,283,201,249,237
685,-0.11,-0.91,0.4,0.67,-2.75,-3.3,292,286,202,253,238
686,-0.11,-0.91,0.41,1.53,-3.6,-2.75,287,281,200,255,237
687,-0.13,-0.92,0.38,0.37,-4.94,-1.22,292,281,202,251,232
688,-0.14,-0.91,0.41,-0.61,-3.3,-0.18,293,294,204,255,234
689,-0.12,-0.9,0.42,-1.34,-4.09,-2.01,294,282,205,252,234
690,-0.14,-0.89,0.39,4.52,-0.12,-7.02,293,287,196,253,233
691,-0.12,-0.9,0.41,0.18,-3.6,-2.44,288,285,204,253,235
692,-0.11,-0.9,0.42,1.53,-2.81,-2.14,291,286,200,256,245
693,-0.11,-0.91,0.42,-0.31,-3.23,-1.95,286,291,202,256,237
694,-0.1,-0.89,0.41,-3.36,-4.94,-0.37,293,286,200,252,234
695,-0.11,-0.91,0.42,-7.63,-4.94,1.1,292,290,198,255,235
696,-0.12,-0.91,0.39,0.12,-3.78,-3.23,292,285,201,250,237
697,-0.11,-0.91,0.39,-0.18,-4.15,-2.62,294,287,203,252,238
698,-0.12,-0.9,0.42,-0.31,-4.94,-2.69,282,289,195,252,235
699,-0.09,-0.91,0.41,2.14,0.67,-2.62,288,286,198,253,235
700,-0.11,-0.91,0.38,10.25,-5.43,-3.17,284,286,202,253,233
701,-0.07,-0.87,0.5,0.85,-4.82,-16.36,289,285,204,251,233
702,0.02,-0.91,0.47,-9.22,-4.64,-0.55,291,287,202,250,235
703,0.01,-0.91,0.45,-12.39,-12.7,7.57,291,283,204,252,234
704,0.05,-0.91,0.42,-3.97,0.43,-12.45,292,285,202,252,235
705,0.03,-0.94,0.34,-5.74,11.78,1.04,292,290,201,256,233
706,-0.06,-0.93,0.4,1.77,0.49,5.37,291,291,203,254,239
707,-0.07,-0.93,0.34,-16.42,2.2,-5.68,293,290,201,255,235
708,-0.09,-0.94,0.3,2.01,-6.47,-3.97,291,288,206,255,234
709,-0.08,-0.96,0.3,-4.7,-3.66,-3.17,293,289,201,252,234
710,-0.07,-0.95,0.29,-1.34,-3.3,-2.44,293,291,209,253,231
711,-0.07,-0.96,0.3,4.88,-5.92,-3.54,294,287,208,255,230
712,-0.04,-0.95,0.31,3.17,-2.38,-4.33,296,292,202,253,237
713,-0.05,-0.96,0.29,-0.73,-7.26,0.06,294,291,203,256,237
714,-0.08,-0.96,0.27,0.55,-3.11,-2.75,294,288,205,250,235
715,-0.08,-0.95,0.29,0.55,-4.7,-0.24,296,285,200,257,237
716,-0.07,-0.95,0.29,-0.18,-3.97,-1.71,295,285,200,256,234
717,-0.09,-0.96,0.28,6.29,0.24,-3.05,297,286,202,251,230
718,-0.08,-0.95,0.31,1.77,-4.21,-2.75,295,285,202,257,237
719,-0.07,-0.94,0.33,0.67,-4.21,-2.2,296,294,202,251,232
720,-0.08,-0.95,0.32,0.61,-4.15,-2.08,294,288,200,256,237
721,-0.07,-0.95,0.31,1.22,-3.05,-2.26,295,287,202,257,237
722,-0.07,-0.94,0.34,1.83,-3.42,-2.01,296,291,204,255,237
723,-0.08,-0.94,0.32,0.79,-3.54,-2.38,300,289,205,254,235
724,-0.08,-0.95,0.3,8.79,-1.34,0.06,298,284,206,257,240
725,-0.12,-0.94,0.37,6.53,-2.81,1.77,296,292,206,267,228
726,-0.11,-0.92,0.39,-3.54,-7.2,-3.48,298,289,201,252,229
727,-0.1,-0.94,0.33,1.1,-2.5,-0.92,298,289,205,258,236
728,-0.1,-0.94,0.34,-3.17,-4.76,-3.42,297,286,203,252,234
729,-0.05,-0.94,0.29,-3.42,2.38,-5.55,299,291,206,254,235
730,-0.05,-0.94,0.33,0.67,-2.38,-2.56,301,293,203,250,234
731,-0.09,-0.94,0.33,1.16,-2.38,-2.08,300,292,206,256,231
732,-0.09,-0.94,0.32,0.24,-2.81,-3.42,302,289,205,255,236
733,-0.08,-0.95,0.32,-0.73,-2.87,-2.81,300,293,205,255,234
734,-0.1,-0.93,0.32,-1.59,-0.67,-3.91,301,292,204,251,232
735,-0.07,-0.95,0.3,3.54,-1.83,-2.56,303,291,204,255,234
736,-0.09,-0.95,0.33,0.49,-4.03,-2.38,302,287,206,263,236
737,-0.09,-0.93,0.32,2.81,-3.85,-2.26,298,289,203,253,234
738,-0.08,-0.93,0.33,-1.46,-3.42,-2.32,303,294,200,254,235
739,-0.1,-0.94,0.31,-0.24,-0.61,-2.2,303,293,205,254,234
740,-0.08,-0.94,0.33,0.85,-3.54,-1.65,303,290,205,253,233
741,-0.1,-0.95,0.3,-2.2,-4.7,-2.56,303,291,201,253,237
742,-0.09,-0.96,0.29,-6.16,-5.07,-2.69,302,292,203,251,236
743,-0.06,-0.96,0.23,-5.49,-8.73,-1.1,302,289,204,255,245
744,-0.08,-0.97,0.24,-2.08,-3.97,-1.4,300,292,204,257,236
745,-0.09,-0.97,0.25,-1.1,-1.83,-1.59,305,294,200,258,237
746,-0.1,-0.97,0.25,-0.31,-3.05,-2.44,301,289,200,257,238
747,-0.09,-0.96,0.24,-0.61,-1.95,-2.62,303,298,203,254,232
748,-0.09,-0.98,0.25,-0.55,-3.17,-2.01,302,290,203,253,232
749,-0.08,-0.97,0.24,-0.37,-1.83,-2.81,303,287,202,254,233
750,-0.1,-0.97,0.23,-1.59,-2.56,-2.62,303,290,202,257,232
751,-0.08,-0.97,0.23,1.95,-3.05,-2.01,304,295,204,261,235
752,-0.09,-0.97,0.23,-0.43,-2.62,-3.97,300,287,206,254,239
753,-0.09,-0.98,0.22,-0.67,-2.81,-2.69,303,286,202,253,237
754,-0.09,-0.97,0.24,2.01,-3.6,-1.34,302,294,201,254,238
755,-0.1,-0.96,0.25,2.87,-2.38,-1.04,303,290,204,250,234
756,-0.11,-0.96,0.26,-0.55,-2.81,-2.69,305,288,201,256,236
757,-0.11,-0.96,0.24,-0.49,-3.05,-2.5,303,291,204,254,236
758,-0.11,-0.96,0.25,0.43,-3.66,-1.89,304,290,204,257,235
759,-0.1,-0.96,0.25,-0.61,-2.87,-2.56,305,290,206,257,232
760,-0.1,-0.96,0.24,0.98,-2.56,-2.2,304,290,207,254,234
761,-0.11,-0.96,0.23,-0.06,-3.85,-2.44,304,292,203,256,235
762,-0.1,-0.96,0.25,2.2,-3.42,-2.81,300,295,204,256,264
763,-0.11,-0.96,0.26,0.92,-3.11,-1.83,299,300,206,254,234
764,-0.11,-0.96,0.26,0.73,-3.72,-2.32,304,286,202,255,235
765,-0.12,-0.96,0.26,0.12,-1.16,-2.38,300,290,206,255,234
766,-0.08,-0.96,0.25,2.32,-1.34,-2.81,306,293,203,257,237
767,-0.11,-0.96,0.26,-3.05,-1.34,-5.0,303,286,202,253,237
768,-0.1,-0.96,0.24,-1.22,-1.89,-2.56,305,293,203,259,235
769,-0.12,-0.96,0.24,-0.37,-2.99,-2.87,304,287,206,261,231
770,-0.11,-0.96,0.27,2.14,-2.44,-1.95,299,292,205,256,236
771,-0.11,-0.96,0.25,2.26,-4.58,-1.34,303,295,201,253,235
772,-0.11,-0.96,0.25,0.55,-3.17,-3.48,301,295,205,256,233
773,-0.12,-0.96,0.28,-2.99,6.41,-6.77,304,293,213,255,236
774,-0.11,-0.95,0.26,0.37,-3.3,-1.22,304,295,206,254,233
775,-0.09,-0.97,0.24,0.98,-3.36,-3.66,308,292,203,254,231
776,-0.1,-0.97,0.23,0.67,-2.32,-1.95,307,290,204,255,228
777,-0.1,-0.96,0.26,1.28,-1.95,-2.62,312,292,201,256,235
778,-0.1,-0.97,0.25,-0.61,-2.62,-2.75,311,297,207,258,246
779,-0.1,-0.97,0.22,-0.73,-0.61,-3.3,312,287,204,258,232
780,-0.1,-0.96,0.28,4.33,-7.75,2.01,308,289,204,259,237
781,-0.1,-0.97,0.22,-5.13,-3.3,-4.46,309,292,206,258,234
782,-0.1,-0.97,0.24,-0.73,-4.09,-2.26,311,296,204,257,236
783,-0.1,-0.96,0.24,0.06,-3.6,-2.26,309,290,206,257,238
784,-0.1,-0.97,0.23,-0.18,-2.93,-2.62,311,292,206,256,233
785,-0.11,-0.97,0.24,-0.98,-2.99,-1.22,311,291,204,258,234
786,-0.11,-0.96,0.23,0.98,-2.44,-1.65,312,293,203,255,232
787,-0.11,-0.97,0.22,0.43,-3.54,-2.08,309,291,206,256,235
788,-0.12,-0.96,0.24,0.12,-3.48,-2.99,311,297,206,261,236
789,-0.13,-0.96,0.25,-2.14,-2.5,-1.89,313,295,204,256,235
790,-0.13,-0.96,0.27,-0.43,-3.6,-0.67,311,294,203,252,236
791,-0.12,-0.96,0.25,1.4,-4.15,-0.79,311,293,205,258,234
792,-0.12,-0.97,0.23,1.16,-3.23,-2.08,310,287,205,256,250
793,-0.13,-0.96,0.24,-0.49,-2.32,-2.93,315,294,202,260,237
794,-0.11,-0.96,0.24,1.65,-3.48,-1.89,309,294,208,253,235
795,-0.11,-0.96,0.24,1.53,-3.42,-1.34,311,292,205,260,237
796,-0.11,-0.96,0.23,0.24,-3.48,-2.38,314,293,205,256,234
797,-0.1,-0.96,0.23,1.4,-1.83,-3.3,311,293,202,257,232
798,-0.11,-0.96,0.23,-0.24,-3.17,-2.81,311,295,208,259,234
799,-0.11,-0.96,0.23,-0.31,-1.89,-3.66,309,290,205,257,238
800,-0.12,-0.96,0.24,1.04,-2.87,-1.71,310,291,209,255,238
801,-0.12,-0.96,0.24,0.73,-2.99,-2.38,313,293,203,260,234
802,-0.13,-0.96,0.24,0.06,-3.54,-3.42,312,288,207,259,241
803,-0.12,-0.96,0.25,-0.18,-1.83,-2.99,310,298,206,260,236
804,-0.11,-0.96,0.25,1.46,-2.62,-2.14,312,294,207,259,237
805,-0.12,-0.96,0.25,-0.12,-2.32,-2.75,310,293,204,257,234
806,-0.12,-0.96,0.24,-0.37,-3.05,-2.69,314,293,203,259,235
807,-0.1,-0.96,0.25,0.92,-3.66,-1.04,313,292,202,256,235
808,-0.1,-0.96,0.24,0.43,-2.75,-1.65,313,295,201,259,235
809,-0.11,-0.96,0.24,-2.93,-2.26,-2.14,312,298,205,256,237
810,-0.1,-0.97,0.21,-3.85,-0.98,-5.19,313,293,206,256,232
811,-0.12,-0.97,0.22,-3.42,-2.38,-2.5,315,294,201,257,237
812,-0.12,-0.97,0.22,-1.04,-3.23,-2.87,313,296,208,254,236
813,-0.12,-0.97,0.22,-0.49,-2.81,-3.36,315,294,205,255,235
814,-0.12,-0.97,0.21,0.85,-2.32,-2.32,309,292,208,255,234
815,-0.13,-0.97,0.22,-0.43,-3.42,-2.38,315,289,207,260,277
816,-0.12,-0.96,0.24,2.08,-2.69,-1.83,313,293,206,258,233
817,-0.11,-0.96,0.22,1.46,-3.66,-1.34,314,295,208,256,234
818,-0.11,-0.96,0.23,1.22,-2.93,-2.93,315,294,207,260,235
819,-0.11,-0.96,0.23,0.92,-3.23,-1.95,309,296,204,257,237
820,-0.12,-0.96,0.23,0.0,-3.05,-2.62,312,288,205,255,235
821,-0.12,-0.96,0.24,0.31,-3.05,-2.81,316,296,207,255,231
822,-0.12,-0.97,0.23,0.43,-2.26,-3.11,313,294,208,256,237
823,-0.13,-0.96,0.22,0.55,-2.44,-1.59,311,295,208,257,234
824,-0.13,-0.96,0.24,0.37,-3.36,-2.2,311,297,209,256,237
825,-0.12,-0.96,0.22,0.67,-3.05,-3.17,313,295,203,257,231
826,-0.13,-0.96,0.25,1.34,-3.42,-2.87,310,297,206,260,237
827,-0.13,-0.96,0.24,1.77,-3.3,-2.87,312,294,208,255,234
828,-0.13,-0.96,0.26,0.98,-3.36,-1.16,314,297,208,254,236
829,-0.13,-0.96,0.25,0.0,-3.05,-1.83,304,297,205,252,235
830,-0.13,-0.96,0.25,0.79,-2.62,-2.38,313,289,208,257,236
831,-0.13,-0.95,0.25,-0.18,-2.93,-3.05,313,293,208,255,235
832,-0.12,-0.96,0.26,-0.18,-3.36,-2.26,312,298,205,259,236
833,-0.12,-0.96,0.26,-0.37,-3.91,-2.01,315,293,202,257,238
834,-0.13,-0.96,0.25,0.06,-2.44,-2.56,314,293,206,258,233
835,-0.13,-0.96,0.25,1.22,-2.44,-2.99,312,298,208,260,237
836,-0.13,-0.96,0.26,-0.06,-2.75,-2.93,316,299,205,255,236
837,-0.13,-0.96,0.26,-0.12,-2.56,-1.83,311,298,208,259,234
838,-0.14,-0.96,0.25,-0.31,-3.91,-1.4,312,296,205,257,235
839,-0.12,-0.95,0.26,1.28,-3.17,-2.44,315,294,208,260,235
840,-0.13,-0.96,0.26,1.1,-3.42,-2.5,312,294,206,258,239
841,-0.12,-0.95,0.26,2.69,-2.81,-2.75,313,290,205,256,235
842,-0.13,-0.96,0.26,2.93,-1.71,-1.59,310,292,209,257,237
843,-0.15,-0.95,0.29,0.37,-0.24,-2.5,306,288,203,259,238
844,-0.14,-0.95,0.27,0.0,-2.08,-2.81,312,293,208,259,238
845,-0.14,-0.95,0.28,-0.79,-2.38,-4.15,309,296,206,254,238
846,-0.13,-0.95,0.28,0.92,-2.87,-2.69,307,293,205,257,234
847,-0.14,-0.95,0.28,0.31,-2.75,-2.93,308,294,205,258,236
848,-0.14,-0.96,0.29,-1.22,-2.87,-1.89,306,288,206,260,234
849,-0.13,-0.95,0.29,0.49,-3.36,-2.32,309,292,208,256,235
850,-0.14,-0.95,0.27,0.67,-2.14,-2.69,306,292,204,259,238
851,-0.14,-0.95,0.27,1.53,-4.52,-1.4,310,287,208,257,224
852,-0.15,-0.95,0.29,0.12,-2.75,-0.92,316,292,207,261,269
853,-0.15,-0.95,0.29,-0.79,-3.17,-2.14,314,287,203,256,237
854,-0.14,-0.95,0.29,0.67,-2.5,-2.93,311,291,205,261,236
855,-0.14,-0.94,0.29,0.43,-2.99,-2.38,312,293,207,260,236
856,-0.13,-0.95,0.29,0.24,-2.81,-2.87,312,292,205,258,235
857,-0.14,-0.95,0.3,0.37,-2.99,-2.26,311,296,208,260,231
858,-0.13,-0.95,0.28,-0.43,-3.6,-1.89,314,304,206,256,233
859,-0.13,-0.94,0.28,1.1,-3.36,-2.08,312,298,209,261,237
860,-0.14,-0.94,0.29,-1.04,-3.85,-2.38,315,289,209,258,238
861,-0.14,-0.94,0.29,0.98,-2.87,-2.14,312,296,207,258,238
862,-0.15,-0.95,0.29,-0.31,-2.69,-3.23,311,293,210,260,239
863,-0.18,-0.95,0.31,-0.85,0.79,-6.53,309,295,208,259,251
864,-0.12,-0.95,0.25,-0.43,1.04,-4.52,313,293,203,262,235
865,-0.09,-0.95,0.26,0.0,1.53,-6.65,315,292,206,261,235
866,-0.06,-0.95,0.28,5.0,-1.71,-0.73,310,294,204,258,235
867,-0.1,-0.96,0.27,-0.79,-4.7,-1.4,312,288,205,258,238
868,-0.05,-0.95,0.25,7.57,-2.01,1.22,313,294,204,261,234
869,-0.09,-0.95,0.32,-2.2,-2.93,-2.81,313,296,209,257,235
870,-0.07,-0.96,0.23,-1.22,-2.44,-4.64,311,296,208,257,239
871,-0.1,-0.96,0.27,-0.31,-3.66,-2.56,313,294,206,262,237
872,-0.08,-0.95,0.26,2.5,-2.14,2.2,314,291,206,258,233
873,-0.09,-0.96,0.26,1.16,-2.56,-0.85,310,295,209,258,236
874,-0.11,-0.96,0.27,0.85,-2.5,-2.38,312,297,209,259,237
875,-0.1,-0.95,0.28,0.73,-4.15,-1.28,313,292,209,257,235
876,-0.1,-0.95,0.28,1.34,-2.87,-2.38,313,290,205,261,236
877,-0.11,-0.95,0.28,0.24,-3.42,-2.08,313,296,207,259,235
878,-0.1,-0.95,0.28,1.71,-3.91,-2.5,310,295,204,258,235
879,-0.11,-0.95,0.3,0.55,-2.75,-1.53,311,293,209,257,235
880,-0.1,-0.95,0.28,0.18,-3.48,-1.83,314,295,206,261,236
881,-0.1,-0.95,0.29,0.85,-2.32,-2.01,313,299,209,258,237
882,-0.11,-0.95,0.29,-0.24,-3.36,-1.83,313,298,208,261,237
883,-0.11,-0.95,0.29,0.18,-2.75,-2.38,316,290,208,262,238
884,-0.12,-0.95,0.28,-0.12,-3.48,-1.77,311,292,209,260,236
885,-0.12,-0.95,0.28,0.73,-3.42,-2.5,312,296,207,262,232
886,-0.12,-0.95,0.3,2.26,-2.08,-1.77,315,289,206,260,236
887,-0.11,-0.95,0.28,1.53,-3.23,-2.87,313,295,205,259,233
888,-0.11,-0.95,0.3,0.12,-2.75,-2.01,313,295,206,259,233
889,-0.12,-0.95,0.29,0.06,-3.23,-2.5,313,295,209,258,233
890,-0.11,-0.95,0.29,0.06,-2.56,-2.44,320,294,208,262,238
891,-0.1,-0.95,0.27,-0.49,-2.08,-4.94,312,294,208,260,238
892,-0.12,-0.95,0.3,-0.31,-3.23,-2.56,313,290,207,260,239
893,-0.12,-0.95,0.3,0.79,-3.54,-1.95,313,299,205,262,233
894,-0.13,-0.95,0.3,-0.85,-3.48,-2.62,316,295,209,260,265
895,-0.13,-0.95,0.29,1.59,-2.08,-2.5,316,293,203,261,237
896,-0.12,-0.95,0.29,1.1,-3.78,-2.5,310,297,209,261,237
897,-0.12,-0.95,0.3,1.77,-3.36,-2.08,310,296,208,260,237
898,-0.12,-0.94,0.31,1.4,-3.05,-2.01,311,295,208,259,235
899,-0.13,-0.94,0.3,0.06,-3.05,-2.38,314,298,205,258,239
900,-0.12,-0.94,0.3,0.61,-2.62,-2.75,311,295,206,259,235
901,-0.14,-0.95,0.3,0.98,-2.32,-1.95,320,290,209,259,238
902,-0.13,-0.94,0.31,-0.12,-3.66,-2.69,315,299,207,261,237
903,-0.13,-0.95,0.3,0.92,-3.11,-2.62,313,295,205,259,236
904,-0.13,-0.95,0.3,-2.62,-2.56,-2.5,315,297,209,259,237
905,-0.12,-0.95,0.31,-0.06,-2.26,-3.11,317,289,209,259,236
906,-0.12,-0.94,0.29,2.32,-2.93,-2.08,320,294,207,260,237
907,-0.12,-0.95,0.29,-1.59,-1.28,-4.03,315,287,206,260,252
908,-0.12,-0.95,0.3,-0.06,-2.01,-3.36,316,300,208,260,236
909,-0.11,-0.94,0.3,-1.28,-2.14,-3.23,316,299,210,261,236
910,-0.14,-0.95,0.3,1.65,-4.82,0.73,318,297,208,260,240
911,-0.13,-0.95,0.3,2.26,-2.38,-1.83,316,300,208,259,238
912,-0.13,-0.95,0.3,-1.83,-2.69,-3.6,318,294,209,257,234
913,-0.13,-0.95,0.3,1.46,-3.05,-2.08,318,299,204,257,236
914,-0.13,-0.94,0.31,1.83,-3.05,-2.38,318,298,205,261,238
915,-0.13,-0.94,0.32,1.77,-3.66,-2.14,321,291,206,261,235
916,-0.13,-0.95,0.31,-1.65,-3.23,-2.62,316,301,204,263,235
917,-0.13,-0.94,0.31,0.37,-2.93,-1.95,316,290,211,260,240
918,-0.11,-0.94,0.3,-0.73,-2.81,-2.38,318,299,206,263,233
919,-0.13,-0.94,0.3,-0.37,-3.05,-2.38,321,301,211,259,234
920,-0.13,-0.94,0.3,1.04,-2.93,-3.17,319,294,209,260,237
921,-0.12,-0.94,0.31,-0.37,-3.36,-3.11,321,293,209,259,237
922,-0.12,-0.94,0.3,1.71,-2.99,-3.72,321,292,208,263,236
923,-0.12,-0.94,0.29,2.2,-0.85,-5.19,316,308,207,261,239
924,-0.13,-0.94,0.3,-1.28,-2.26,-3.66,316,301,210,257,238
925,-0.14,-0.94,0.31,-0.98,-2.99,-2.44,318,301,207,260,237
926,-0.12,-0.95,0.29,1.34,-2.14,-2.75,315,294,206,262,236
927,-0.12,-0.94,0.31,-0.98,-1.53,-2.32,316,301,207,261,248
928,-0.14,-0.94,0.32,1.71,-1.53,-2.99,319,291,210,261,235
929,-0.14,-0.94,0.3,1.34,-3.72,-2.32,319,297,213,261,238
930,-0.14,-0.94,0.31,1.53,-2.62,-3.36,320,301,207,268,238
931,-0.14,-0.94,0.33,1.46,-0.79,-3.97,318,300,208,262,238
932,-0.13,-0.93,0.34,-2.08,-3.3,-1.89,320,295,209,261,236
933,-0.13,-0.93,0.32,4.03,-2.38,-2.08,316,297,207,263,238
934,-0.08,-0.95,0.25,-19.59,5.8,-23.32,314,298,211,260,237
935,-0.08,-0.95,0.22,-6.1,-4.15,-1.46,316,292,204,261,243
936,-0.12,-0.98,0.22,-17.52,2.01,1.89,320,300,206,260,237
937,-0.12,-0.96,0.16,6.47,-11.29,4.7,318,303,207,258,235
938,-0.06,-0.96,0.22,15.2,-6.41,-1.77,320,297,205,263,234
939,-0.13,-0.96,0.23,5.0,-5.92,3.05,323,304,214,261,238
940,-0.11,-0.95,0.27,-0.06,-1.83,-2.26,322,303,209,261,238
941,-0.15,-0.96,0.27,-3.05,-2.56,2.08,327,297,209,260,233
942,-0.1,-0.95,0.27,2.69,-5.19,1.59,325,294,208,262,235
943,-0.09,-0.94,0.21,10.93,-27.65,0.31,325,305,205,262,236
944,-0.13,-0.95,0.27,1.1,1.16,-8.48,316,297,208,263,238
945,-0.11,-0.97,0.28,-2.08,-5.43,-14.71,320,296,210,262,239
946,-0.11,-0.95,0.27,0.49,-4.27,-2.69,317,301,209,261,239
947,-0.11,-0.95,0.28,2.26,-5.43,-0.43,321,301,206,261,237
948,-0.11,-0.95,0.29,-0.49,-2.38,-3.54,323,304,206,267,238
949,-0.12,-0.95,0.29,0.18,-3.91,-1.34,322,301,211,261,237
950,-0.1,-0.95,0.28,-1.22,-2.62,-2.93,324,300,220,261,234
951,-0.11,-0.95,0.27,-0.24,-2.81,-2.56,326,301,211,257,232
952,-0.1,-0.96,0.28,0.61,-0.73,-2.44,323,301,211,261,235
953,-0.1,-0.95,0.28,-0.61,-4.76,-0.98,317,299,210,262,236
954,-0.1,-0.96,0.28,1.65,-1.95,-3.3,324,304,209,260,237
955,-0.11,-0.95,0.28,-0.31,-2.87,-2.69,326,294,210,261,239
956,-0.11,-0.96,0.27,0.31,-2.44,-2.87,329,303,208,267,234
957,-0.11,-0.95,0.28,0.92,-3.17,-2.26,324,295,211,259,236
958,-0.11,-0.96,0.28,-0.43,-3.11,-2.56,322,301,209,272,237
959,-0.11,-0.95,0.29,1.59,-4.09,-1.46,322,301,211,264,255
960,-0.11,-0.95,0.28,-0.43,-2.81,-2.32,325,297,208,261,236
961,-0.11,-0.95,0.29,-1.4,-3.23,-1.53,326,300,208,264,232
962,-0.12,-0.95,0.29,0.31,-3.11,-2.01,325,302,208,264,239
963,-0.11,-0.95,0.28,-0.31,-3.11,-2.08,326,297,209,263,236
964,-0.1,-0.95,0.28,1.16,-2.62,-2.44,325,296,208,263,236
965,-0.12,-0.95,0.28,0.0,-3.36,-2.38,326,296,208,262,238
966,-0.12,-0.96,0.27,-0.61,-3.23,-2.5,318,301,211,264,236
967,-0.12,-0.95,0.28,0.49,-2.2,-2.93,328,302,208,264,236
968,-0.09,-0.95,0.26,0.79,-1.89,-2.44,322,304,207,262,253
969,-0.11,-0.96,0.26,-0.49,-3.48,-2.14,326,299,209,264,242
970,-0.11,-0.96,0.27,0.18,-3.54,-1.65,328,303,210,261,239
971,-0.12,-0.95,0.26,0.37,-3.05,-2.44,325,306,213,263,237
972,-0.12,-0.96,0.27,-0.43,-2.93,-3.05,324,303,211,262,236
973,-0.14,-0.96,0.25,2.93,2.38,-5.86,325,312,208,259,245
974,-0.11,-0.95,0.27,-0.24,-2.5,-3.11,326,303,219,262,237
975,-0.09,-0.95,0.26,1.28,-4.46,-1.4,325,302,207,261,235
976,-0.11,-0.95,0.28,1.46,-2.99,-1.28,321,291,212,258,236
977,-0.12,-0.95,0.27,-0.18,-3.54,-2.56,328,301,211,264,248
978,-0.11,-0.95,0.29,0.43,-3.54,-1.4,326,295,212,261,236
979,-0.12,-0.95,0.29,0.12,-3.05,-2.99,328,292,209,263,238
980,-0.11,-0.95,0.3,0.12,-2.5,-2.62,327,296,207,265,237
981,-0.12,-0.95,0.29,0.55,-2.99,-2.2,325,301,208,265,236
982,-0.11,-0.95,0.28,1.83,-2.56,-2.62,326,300,209,262,237
983,-0.13,-0.95,0.29,1.04,-1.83,-2.56,328,297,212,264,236
984,-0.12,-0.95,0.29,0.55,-3.36,-2.26,327,305,209,265,239
985,-0.12,-0.95,0.29,0.12,-3.66,-1.59,323,297,211,263,236
986,-0.12,-0.95,0.29,0.61,-3.23,-2.44,326,308,209,262,235
987,-0.11,-0.95,0.29,0.06,-3.6,-2.01,326,302,209,262,236
988,-0.12,-0.95,0.29,0.79,-3.85,-2.14,324,301,211,262,239
989,-0.13,-0.95,0.3,1.65,-3.05,-2.2,322,301,206,263,236
990,-0.13,-0.94,0.3,0.06,-2.75,-2.62,324,297,212,261,239
991,-0.12,-0.95,0.29,-1.04,-2.93,-2.08,332,294,207,261,236
992,-0.12,-0.95,0.29,-0.55,-3.78,-2.08,322,299,209,259,237
993,-0.13,-0.95,0.29,0.31,-2.56,-2.38,326,302,209,270,236
994,-0.13,-0.95,0.29,0.12,-3.48,-1.89,322,303,206,262,237
995,-0.12,-0.95,0.29,1.71,-2.93,-2.32,326,303,210,262,238
996,-0.13,-0.95,0.29,0.37,-3.05,-2.32,326,300,209,263,239
997,-0.12,-0.95,0.29,0.85,-3.97,-1.34,326,300,211,264,238
998,-0.13,-0.95,0.29,0.98,-2.99,-2.26,324,299,212,257,237
999,-0.13,-0.94,0.3,1.4,-0.79,-3.97,327,299,211,260,237
1000,-0.13,-0.94,0.3,0.67,-3.05,-2.01,326,300,212,264,236
1001,-0.13,-0.94,0.29,0.61,-3.05,-2.2,327,298,210,262,237
1002,-0.13,-0.95,0.3,-0.37,-3.72,-2.01,327,302,212,263,235
1003,-0.13,-0.94,0.31,1.04,-3.54,-2.14,324,299,210,261,237
1004,-0.13,-0.94,0.3,1.28,-3.23,-1.59,329,301,210,263,247
1005,-0.14,-0.94,0.31,-0.06,-3.6,-2.01,328,298,214,260,234
1006,-0.14,-0.94,0.31,0.67,-3.48,-1.65,328,298,207,266,237
1007,-0.14,-0.94,0.3,0.0,-2.44,-2.5,328,302,207,264,238
1008,-0.13,-0.94,0.3,-1.04,-2.44,-3.17,326,295,212,266,239
1009,-0.14,-0.94,0.3,-0.37,-2.81,-3.23,326,297,207,263,239
1010,-0.13,-0.94,0.31,3.48,2.26,-4.88,326,301,212,261,236
1011,-0.15,-0.94,0.35,0.31,3.17,-6.47,326,297,210,262,236
1012,-0.11,-0.94,0.31,-0.06,3.72,-1.04,325,298,211,260,239
1013,-0.11,-0.97,0.19,0.12,2.5,-2.38,325,301,202,264,237
1014,-0.08,-0.95,0.24,-5.92,-5.25,-12.27,324,294,212,262,237
1015,-0.06,-0.98,0.18,1.95,1.83,-1.4,325,300,209,264,239
1016,-0.07,-0.97,0.21,1.65,-3.54,-1.34,327,295,213,258,237
1017,-0.1,-0.98,0.19,-1.89,-3.6,-1.4,324,298,211,262,233
1018,-0.09,-0.97,0.19,-1.95,-3.91,-2.56,326,301,213,262,236
1019,-0.1,-0.97,0.22,-0.43,-3.66,-1.28,326,303,215,261,237
1020,-0.11,-0.97,0.19,-0.92,-3.6,-1.16,323,299,210,259,236
1021,-0.1,-0.98,0.19,-0.18,-3.66,-1.71,326,303,212,264,235
1022,-0.14,-0.94,0.3,11.41,-5.8,-1.34,286,261,187,235,231
1023,-0.15,-0.92,0.32,-3.42,-4.76,-3.05,288,262,190,237,229
1024,-0.15,-0.93,0.35,0.49,-1.16,-0.18,290,263,189,236,237
1025,-0.13,-0.94,0.33,-0.67,-2.14,-2.01,290,262,186,237,234
1026,-0.14,-0.94,0.27,-1.71,-5.07,-0.37,293,261,185,238,233
1027,-0.13,-0.94,0.32,7.2,0.61,-3.91,293,266,185,238,235
1028,-0.13,-0.93,0.34,1.04,-2.2,-2.56,295,273,187,241,236
1029,-0.14,-0.92,0.34,-0.67,-3.11,-2.93,295,271,188,242,234
1030,-0.14,-0.93,0.35,-1.95,-4.03,-3.78,298,266,188,240,237
1031,-0.13,-0.93,0.36,0.49,-2.5,-4.94,300,269,189,238,235
1032,-0.16,-0.92,0.38,2.99,0.31,-2.87,301,270,191,238,247
1033,-0.16,-0.91,0.39,0.12,-4.09,-1.28,303,271,187,239,230
1034,-0.12,-0.92,0.39,1.04,4.94,-8.12,303,270,189,240,234
1035,-0.16,-0.89,0.47,18.74,2.75,-1.22,304,274,188,240,231
1036,-0.06,-0.92,0.37,2.38,-2.14,-4.33,306,269,191,238,234
1037,-0.1,-0.91,0.46,4.27,-5.25,3.66,305,276,192,239,235
1038,-0.13,-0.89,0.44,5.43,-3.54,2.5,303,274,193,241,234
1039,-0.13,-0.88,0.46,3.17,-3.6,-2.38,306,275,191,245,238
1040,-0.14,-0.88,0.46,2.44,-3.11,-1.71,307,271,190,242,238
1041,-0.13,-0.88,0.46,0.31,-3.3,-2.14,310,279,194,239,235
1042,-0.1,-0.87,0.48,3.42,-4.7,-2.56,311,278,190,241,235
1043,-0.12,-0.87,0.48,0.49,-2.44,-1.77,311,282,189,246,233
1044,-0.13,-0.87,0.49,-0.92,-2.44,-2.26,310,279,194,246,237
1045,-0.12,-0.87,0.49,0.18,-4.09,-2.14,310,278,194,242,236
1046,-0.13,-0.88,0.47,-2.62,-2.14,-4.64,306,284,189,246,232
1047,-0.12,-0.87,0.49,1.59,-3.05,-1.59,309,281,192,244,236
1048,-0.12,-0.85,0.5,-0.37,-2.87,-3.36,307,279,193,243,240
1049,-0.13,-0.86,0.52,8.85,-5.13,1.4,303,279,194,245,237
1050,-0.13,-0.85,0.53,1.65,-3.48,-1.46,298,284,193,246,238
1051,-0.13,-0.85,0.52,1.28,-2.87,-2.26,302,274,193,245,240
1052,-0.14,-0.85,0.52,1.1,-2.56,-2.62,303,291,197,244,237
1053,-0.13,-0.85,0.52,1.89,-2.32,-3.23,303,283,194,244,238
1054,-0.13,-0.85,0.52,2.2,-3.42,-1.83,305,279,196,245,242
1055,-0.13,-0.85,0.52,2.81,-2.99,-2.56,304,276,195,249,234
1056,-0.13,-0.84,0.53,0.98,-3.6,-2.01,305,284,192,256,240
1057,-0.13,-0.84,0.53,-1.59,-2.32,-2.75,308,285,195,244,239
1058,-0.13,-0.84,0.53,1.22,-3.54,-2.26,309,284,195,246,240
1059,-0.12,-0.84,0.54,1.53,-2.87,-2.5,308,277,194,249,244
1060,-0.13,-0.84,0.54,0.55,-2.75,-2.87,306,277,195,245,236
1061,-0.13,-0.84,0.54,1.53,-3.23,-1.89,305,283,194,245,239
1062,-0.13,-0.83,0.54,0.24,-3.05,-2.26,308,282,200,250,238
1063,-0.12,-0.83,0.55,2.08,-2.38,-2.62,308,281,198,250,238
1064,-0.13,-0.84,0.54,-0.37,-3.23,-2.38,307,284,198,250,240
1065,-0.14,-0.83,0.55,-0.61,-4.46,-0.55,307,281,194,244,243
1066,-0.12,-0.84,0.53,1.28,-2.56,-3.23,310,285,194,247,240
1067,-0.13,-0.84,0.52,0.12,-1.1,-3.42,310,284,198,248,240
1068,-0.12,-0.85,0.53,0.12,-2.44,-4.09,305,282,195,249,239
1069,-0.13,-0.85,0.53,-3.48,-3.66,-2.81,310,287,197,250,241
1070,-0.12,-0.83,0.54,-3.54,-6.59,-0.79,311,283,196,249,241
1071,-0.12,-0.84,0.54,-1.53,-2.14,-3.66,306,282,199,249,239
1072,-0.12,-0.84,0.53,1.83,-2.75,-2.62,310,286,199,247,242
1073,-0.12,-0.83,0.54,2.99,-6.1,0.24,310,278,201,252,239
1074,-0.11,-0.84,0.53,3.72,-2.81,-1.95,311,280,199,251,240
1075,-0.11,-0.83,0.54,-1.28,-2.26,-4.09,313,283,197,250,240
1076,-0.11,-0.84,0.54,1.04,-3.36,-1.65,311,289,196,253,238
1077,-0.15,-0.83,0.56,10.07,4.09,2.81,300,283,196,248,242
1078,-0.14,-0.82,0.56,-1.04,-1.34,-3.48,290,286,200,246,237
1079,-0.14,-0.85,0.52,-0.67,-3.66,-1.83,306,286,200,248,241
1080,-0.12,-0.85,0.5,-0.06,-2.5,-4.33,303,288,198,261,238
1081,-0.14,-0.85,0.52,-0.55,-3.23,-2.81,305,291,195,250,241
1082,-0.14,-0.87,0.49,-1.71,-3.17,-2.75,305,287,197,253,243
1083,-0.14,-0.84,0.53,-0.49,-3.78,-1.46,306,282,198,252,239
1084,-0.13,-0.85,0.52,1.22,-2.99,-2.69,308,285,200,248,241
1085,-0.13,-0.84,0.53,1.77,-2.26,-2.5,309,287,196,250,254
1086,-0.15,-0.84,0.54,1.65,-4.76,-0.98,309,284,201,252,241
1087,-0.15,-0.83,0.55,2.75,-3.05,-2.2,302,282,199,253,240
1088,-0.15,-0.83,0.55,0.12,-2.5,-2.81,307,283,214,252,241
1089,-0.14,-0.83,0.54,0.79,-2.99,-2.32,306,280,197,252,240
1090,-0.14,-0.83,0.54,1.34,-1.4,-2.56,308,283,201,253,240
1091,-0.15,-0.82,0.56,2.2,-2.81,-3.17,304,282,201,250,240
1092,-0.14,-0.82,0.55,0.18,-2.26,-3.3,306,282,196,253,241
1093,-0.14,-0.82,0.56,1.65,-4.46,-2.08,310,286,196,255,243
1094,-0.15,-0.81,0.55,0.73,-4.27,-3.11,308,276,202,254,238
1095,-0.14,-0.81,0.58,2.32,-5.31,-1.65,307,279,202,251,240
1096,-0.15,-0.81,0.56,1.04,-3.54,-3.17,307,283,198,251,243
1097,-0.14,-0.82,0.56,0.18,-2.99,-2.5,307,279,202,250,238
1098,-0.14,-0.82,0.56,-0.85,-0.92,-3.17,306,282,197,248,242
1099,-0.14,-0.82,0.57,1.77,-3.66,-0.79,306,277,198,254,240
1100,-0.14,-0.81,0.57,-0.79,-2.93,-2.2,309,284,197,252,243
1101,-0.14,-0.81,0.58,0.43,-2.81,-0.67,304,281,203,252,240
1102,-0.15,-0.82,0.57,1.1,-2.99,-2.2,308,277,198,253,242
1103,-0.15,-0.84,0.58,0.73,-3.11,-3.36,309,283,196,251,240
1104,-0.13,-0.8,0.59,0.43,-2.99,-2.75,308,286,197,268,239
1105,-0.14,-0.81,0.58,1.77,-2.5,-2.14,311,287,198,251,240
1106,-0.14,-0.81,0.59,-0.18,-1.04,-3.17,307,282,200,259,249
1107,-0.15,-0.8,0.59,-0.18,-2.87,-1.28,309,281,202,252,242
1108,-0.14,-0.81,0.58,0.18,-2.32,-1.59,306,288,198,251,252
1109,-0.16,-0.8,0.59,0.31,-1.4,-1.71,308,283,202,250,243
1110,-0.17,-0.81,0.58,-0.49,-2.32,-2.08,305,286,197,254,246
1111,-0.13,-0.79,0.61,1.46,-3.11,0.12,306,282,211,253,239
1112,-0.16,-0.8,0.58,-1.95,-4.33,-1.46,310,287,198,253,240
1113,-0.13,-0.79,0.61,-1.71,-3.85,-3.72,306,283,204,251,243
1114,-0.1,-0.8,0.6,5.74,-4.88,-4.58,303,284,199,251,245
1115,-0.14,-0.81,0.57,2.32,-2.14,1.16,309,282,203,254,243
1116,-0.13,-0.77,0.63,-1.53,-1.22,-3.66,310,282,201,251,258
1117,-0.16,-0.8,0.61,-8.97,-4.52,1.04,309,283,202,261,241
1118,-0.11,-0.79,0.6,3.54,-3.48,-6.23,309,282,200,255,245
1119,-0.15,-0.79,0.62,-0.73,-3.3,-1.1,308,285,201,252,243
1120,-0.1,-0.79,0.61,-0.85,-4.58,-7.39,309,281,204,253,240
1121,-0.14,-0.81,0.58,2.81,-5.19,-2.99,309,284,200,254,240
1122,-0.14,-0.84,0.61,-0.79,-3.17,-4.27,309,289,203,250,241
1123,-0.08,-0.85,0.53,5.37,12.57,-13.67,311,280,201,253,258
1124,-0.21,-0.8,0.63,14.16,6.41,-15.08,312,279,199,254,236
1125,-0.15,-0.78,0.59,12.7,12.33,-10.07,309,282,203,248,237
1126,-0.13,-0.75,0.66,22.09,6.47,11.35,311,285,201,250,238
1127,-0.17,-0.79,0.58,-9.09,8.24,-8.54,311,279,200,249,235
1128,-0.2,-0.75,0.66,24.66,-9.58,9.28,311,283,200,249,235
1129,-0.25,-0.69,0.7,-1.1,-1.34,0.85,313,286,201,250,237
1130,-0.24,-0.69,0.7,-2.56,-6.16,-2.26,307,284,200,249,238
1131,-0.22,-0.73,0.68,1.16,-2.69,-1.4,314,286,203,253,233
1132,-0.22,-0.73,0.68,-1.46,-13.31,-0.73,314,281,198,250,237
1133,-0.17,-0.74,0.67,-13.55,-18.92,-8.36,313,282,204,253,244
1134,-0.06,-0.78,0.63,-7.26,-23.25,-9.09,314,286,199,251,234
1135,0.03,-0.8,0.62,-9.77,-14.77,-1.95,312,286,202,251,237
1136,0.09,-0.81,0.58,9.7,0.67,-8.73,311,287,204,253,239
1137,0.03,-0.78,0.61,2.01,-5.74,-1.4,311,290,197,253,244
1138,0.05,-0.8,0.61,5.25,-2.75,4.03,317,290,199,250,240
1139,0.03,-0.81,0.59,2.81,-4.76,-1.28,315,293,201,254,241
1140,0.03,-0.78,0.63,4.27,-4.46,-3.23,311,283,202,252,239
1141,-0.0,-0.81,0.61,-1.95,-4.82,-0.12,314,284,200,257,231
1142,0.03,-0.78,0.64,2.87,-7.2,-0.12,312,289,204,251,234
1143,0.0,-0.76,0.68,0.55,-0.55,-1.04,315,286,201,255,233
1144,0.05,-0.78,0.62,-0.06,1.53,1.59,312,288,200,255,241
1145,0.01,-0.81,0.6,-4.46,-0.85,-2.99,315,284,205,253,239
1146,-0.0,-0.81,0.6,-3.78,-11.54,-3.42,311,291,200,255,280
1147,-0.01,-0.82,0.6,1.4,-4.46,0.73,313,287,204,254,238
1148,0.01,-0.81,0.59,-1.4,-6.9,-7.32,317,287,201,255,239
1149,-0.01,-0.82,0.56,0.31,6.77,-0.55,317,291,202,255,239
1150,-0.04,-0.7,0.81,-18.31,-4.94,0.61,307,286,199,252,239
1151,-0.11,-0.86,0.54,-1.53,-19.78,14.22,292,285,198,246,240
1152,-0.19,-0.86,0.56,-16.6,-8.67,7.14,290,278,196,242,237
1153,-0.24,-0.81,0.49,33.57,16.24,-12.45,290,279,199,242,245
1154,-0.18,-0.84,0.57,-1.89,-4.27,-3.97,288,283,200,243,233
1155,-0.16,-0.93,0.54,0.12,-0.67,-7.14,290,277,197,240,236
1156,-0.14,-0.82,0.45,-1.71,-22.95,-3.17,291,284,200,241,236
1157,-0.13,-0.82,0.55,10.5,-0.61,0.06,292,283,198,244,244
1158,-0.1,-0.85,0.44,-12.82,2.99,-13.55,298,285,202,238,236
1159,-0.09,-0.84,0.5,5.8,-2.38,-10.13,297,281,201,243,235
1160,-0.1,-0.87,0.51,-25.63,-0.55,-4.7,297,288,210,243,235
1161,-0.1,-0.92,0.38,-6.84,-2.01,-6.53,274,283,198,245,237
1162,-0.06,-0.92,0.36,-7.08,-6.1,-7.69,276,280,197,254,233
1163,-0.03,-0.96,0.3,-17.21,3.05,-2.08,276,271,197,253,231
1164,-0.08,-0.96,0.25,7.51,-16.3,-0.18,267,277,195,251,235
1165,-0.14,-0.96,0.26,-4.27,-5.98,1.46,271,274,200,257,234
1166,-0.12,-0.97,0.23,-10.31,-9.03,2.5,275,271,197,251,230
1167,-0.13,-0.96,0.25,1.89,-5.43,-1.46,275,276,200,252,232
1168,-0.1,-0.96,0.23,-0.43,-9.03,-2.75,278,274,198,245,232
1169,-0.12,-0.96,0.26,3.6,-3.85,-2.75,280,280,200,250,232
1170,-0.13,-0.96,0.24,-1.71,-2.08,-3.23,281,276,197,249,234
1171,-0.13,-0.97,0.23,-4.03,-2.99,-2.99,280,278,204,250,234
1172,-0.14,-0.97,0.21,1.77,-3.78,-1.53,280,271,198,250,230
1173,-0.13,-0.96,0.24,-1.59,-3.91,-2.26,281,276,198,250,231
1174,-0.13,-0.97,0.22,0.24,6.23,-4.88,280,277,198,248,233
1175,-0.12,-0.96,0.25,0.18,-1.83,-2.62,282,281,198,253,231
1176,-0.13,-0.92,0.25,7.2,-1.59,-2.14,280,273,211,253,264
1177,-0.14,-0.95,0.29,0.55,-3.05,-2.14,278,278,195,248,233
1178,-0.14,-0.95,0.28,-1.95,-4.52,-2.14,282,278,197,252,234
1179,-0.13,-0.95,0.28,2.14,-3.42,-2.56,280,281,201,249,235
1180,-0.11,-0.94,0.31,3.6,-5.07,-1.22,279,276,198,251,233
1181,-0.14,-0.93,0.32,7.08,-3.36,-0.85,279,281,201,252,234
1182,-0.13,-0.94,0.33,-0.12,-3.11,-2.56,285,282,196,250,232
1183,-0.14,-0.95,0.31,0.43,-5.19,0.43,282,280,196,254,233
1184,-0.11,-0.94,0.32,3.11,-3.85,-1.46,284,283,203,253,233
1185,-0.11,-0.94,0.3,9.28,-3.3,0.0,284,279,199,254,233
1186,-0.14,-0.9,0.4,9.95,-6.04,-1.1,284,285,199,251,234
1187,-0.14,-0.91,0.38,-4.58,-0.18,-7.75,285,282,196,251,234
1188,-0.13,-0.92,0.38,1.77,-1.89,-0.85,284,282,202,251,236
1189,-0.13,-0.92,0.38,0.18,-2.99,-2.26,287,284,203,263,225
1190,-0.12,-0.92,0.38,-1.46,-4.03,-0.49,288,285,199,252,234
1191,-0.1,-0.91,0.38,0.85,-3.11,-0.06,292,284,196,252,232
1192,-0.13,-0.91,0.38,-0.31,-3.48,-1.77,289,285,199,254,232
1193,-0.13,-0.92,0.38,2.69,-2.93,-3.3,288,281,201,253,233
1194,-0.11,-0.92,0.38,-0.43,-2.2,-4.09,290,287,199,252,237
1195,-0.11,-0.9,0.39,3.91,-2.5,-2.44,293,283,201,249,237
1196,-0.11,-0.91,0.4,0.67,-2.75,-3.3,292,286,202,253,238
1197,-0.11,-0.91,0.41,1.53,-3.6,-2.75,287,281,200,255,237
1198,-0.13,-0.92,0.38,0.37,-4.94,-1.22,292,281,202,251,232
1199,-0.14,-0.91,0.41,-0.61,-3.3,-0.18,293,294,204,255,234
1200,-0.12,-0.9,0.42,-1.34,-4.09,-2.01,294,282,205,252,234
1201,-0.14,-0.89,0.39,4.52,-0.12,-7.02,293,287,196,253,233
1202,-0.12,-0.9,0.41,0.18,-3.6,-2.44,288,285,204,253,235
1203,-0.11,-0.9,0.42,1.53,-2.81,-2.14,291,286,200,256,245
1204,-0.11,-0.91,0.42,-0.31,-3.23,-1.95,286,291,202,256,237
1205,-0.1,-0.89,0.41,-3.36,-4.94,-0.37,293,286,200,252,234
1206,-0.11,-0.91,0.42,-7.63,-4.94,1.1,292,290,198,255,235
1207,-0.12,-0.91,0.39,0.12,-3.78,-3.23,292,285,201,250,237
1208,-0.11,-0.91,0.39,-0.18,-4.15,-2.62,294,287,203,252,238
1209,-0.12,-0.9,0.42,-0.31,-4.94,-2.69,282,289,195,252,235
1210,-0.09,-0.91,0.41,2.14,0.67,-2.62,288,286,198,253,235
1211,-0.11,-0.91,0.38,10.25,-5.43,-3.17,284,286,202,253,233
1212,-0.07,-0.87,0.5,0.85,-4.82,-16.36,289,285,204,251,233
1213,0.02,-0.91,0.47,-9.22,-4.64,-0.55,291,287,202,250,235
1214,0.01,-0.91,0.45,-12.39,-12.7,7.57,291,283,204,252,234
1215,0.05,-0.91,0.42,-3.97,0.43,-12.45,292,285,202,252,235
1216,0.03,-0.94,0.34,-5.74,11.78,1.04,292,290,201,256,233
1217,-0.06,-0.93,0.4,1.77,0.49,5.37,291,291,203,254,239
1218,-0.07,-0.93,0.34,-16.42,2.2,-5.68,293,290,201,255,235
1219,-0.09,-0.94,0.3,2.01,-6.47,-3.97,291,288,206,255,234
1220,-0.08,-0.96,0.3,-4.7,-3.66,-3.17,293,289,201,252,234
1221,-0.07,-0.95,0.29,-1.34,-3.3,-2.44,293,291,209,253,231
1222,-0.07,-0.96,0.3,4.88,-5.92,-3.54,294,287,208,255,230
1223,-0.04,-0.95,0.31,3.17,-2.38,-4.33,296,292,202,253,237
1224,-0.05,-0.96,0.29,-0.73,-7.26,0.06,294,291,203,256,237
1225,-0.08,-0.96,0.27,0.55,-3.11,-2.75,294,288,205,250,235
1226,-0.08,-0.95,0.29,0.55,-4.7,-0.24,296,285,200,257,237
1227,-0.07,-0.95,0.29,-0.18,-3.97,-1.71,295,285,200,256,234
1228,-0.09,-0.96,0.28,6.29,0.24,-3.05,297,286,202,251,230
1229,-0.08,-0.95,0.31,1.77,-4.21,-2.75,295,285,202,257,237
1230,-0.07,-0.94,0.33,0.67,-4.21,-2.2,296,294,202,251,232
1231,-0.08,-0.95,0.32,0.61,-4.15,-2.08,294,288,200,256,237
1232,-0.07,-0.95,0.31,1.22,-3.05,-2.26,295,287,202,257,237
1233,-0.07,-0.94,0.34,1.83,-3.42,-2.01,296,291,204,255,237
1234,-0.08,-0.94,0.32,0.79,-3.54,-2.38,300,289,205,254,235
1235,-0.08,-0.95,0.3,8.79,-1.34,0.06,298,284,206,257,240
1236,-0.12,-0.94,0.37,6.53,-2.81,1.77,296,292,206,267,228
1237,-0.11,-0.92,0.39,-3.54,-7.2,-3.48,298,289,201,252,229
1238,-0.1,-0.94,0.33,1.1,-2.5,-0.92,298,289,205,258,236
1239,-0.1,-0.94,0.34,-3.17,-4.76,-3.42,297,286,203,252,234
1240,-0.05,-0.94,0.29,-3.42,2.38,-5.55,299,291,206,254,235
1241,-0.05,-0.94,0.33,0.67,-2.38,-2.56,301,293,203,250,234
1242,-0.09,-0.94,0.33,1.16,-2.38,-2.08,300,292,206,256,231
1243,-0.09,-0.94,0.32,0.24,-2.81,-3.42,302,289,205,255,236
1244,-0.08,-0.95,0.32,-0.73,-2.87,-2.81,300,293,205,255,234
1245,-0.1,-0.93,0.32,-1.59,-0.67,-3.91,301,292,204,251,232
1246,-0.07,-0.95,0.3,3.54,-1.83,-2.56,303,291,204,255,234
1247,-0.09,-0.95,0.33,0.49,-4.03,-2.38,302,287,206,263,236
1248,-0.09,-0.93,0.32,2.81,-3.85,-2.26,298,289,203,253,234
1249,-0.08,-0.93,0.33,-1.46,-3.42,-2.32,303,294,200,254,235
1250,-0.1,-0.94,0.31,-0.24,-0.61,-2.2,303,293,205,254,234
1251,-0.08,-0.94,0.33,0.85,-3.54,-1.65,303,290,205,253,233
1252,-0.1,-0.95,0.3,-2.2,-4.7,-2.56,303,291,201,253,237
1253,-0.09,-0.96,0.29,-6.16,-5.07,-2.69,302,292,203,251,236
1254,-0.06,-0.96,0.23,-5.49,-8.73,-1.1,302,289,204,255,245
1255,-0.08,-0.97,0.24,-2.08,-3.97,-1.4,300,292,204,257,236
1256,-0.09,-0.97,0.25,-1.1,-1.83,-1.59,305,294,200,258,237
1257,-0.1,-0.97,0.25,-0.31,-3.05,-2.44,301,289,200,257,238
1258,-0.09,-0.96,0.24,-0.61,-1.95,-2.62,303,298,203,254,232
1259,-0.09,-0.98,0.25,-0.55,-3.17,-2.01,302,290,203,253,232
1260,-0.08,-0.97,0.24,-0.37,-1.83,-2.81,303,287,202,254,233
1261,-0.1,-0.97,0.23,-1.59,-2.56,-2.62,303,290,202,257,232
1262,-0.08,-0.97,0.23,1.95,-3.05,-2.01,304,295,204,261,235
1263,-0.09,-0.97,0.23,-0.43,-2.62,-3.97,300,287,206,254,239
1264,-0.09,-0.98,0.22,-0.67,-2.81,-2.69,303,286,202,253,237
1265,-0.09,-0.97,0.24,2.01,-3.6,-1.34,302,294,201,254,238
1266,-0.1,-0.96,0.25,2.87,-2.38,-1.04,303,290,204,250,234
1267,-0.11,-0.96,0.26,-0.55,-2.81,-2.69,305,288,201,256,236
1268,-0.11,-0.96,0.24,-0.49,-3.05,-2.5,303,291,204,254,236
1269,-0.11,-0.96,0.25,0.43,-3.66,-1.89,304,290,204,257,235
1270,-0.1,-0.96,0.25,-0.61,-2.87,-2.56,305,290,206,257,232
1271,-0.1,-0.96,0.24,0.98,-2.56,-2.2,304,290,207,254,234
1272,-0.11,-0.96,0.23,-0.06,-3.85,-2.44,304,292,203,256,235
1273,-0.1,-0.96,0.25,2.2,-3.42,-2.81,300,295,204,256,264
1274,-0.11,-0.96,0.26,0.92,-3.11,-1.83,299,300,206,254,234
1275,-0.11,-0.96,0.26,0.73,-3.72,-2.32,304,286,202,255,235
1276,-0.12,-0.96,0.26,0.12,-1.16,-2.38,300,290,206,255,234
1277,-0.08,-0.96,0.25,2.32,-1.34,-2.81,306,293,203,257,237
1278,-0.11,-0.96,0.26,-3.05,-1.34,-5.0,303,286,202,253,237
1279,-0.1,-0.96,0.24,-1.22,-1.89,-2.56,305,293,203,259,235
1280,-0.12,-0.96,0.24,-0.37,-2.99,-2.87,304,287,206,261,231
1281,-0.11,-0.96,0.27,2.14,-2.44,-1.95,299,292,205,256,236
1282,-0.11,-0.96,0.25,2.26,-4.58,-1.34,303,295,201,253,235
1283,-0.11,-0.96,0.25,0.55,-3.17,-3.48,301,295,205,256,233
1284,-0.12,-0.96,0.28,-2.99,6.41,-6.77,304,293,213,255,236
1285,-0.11,-0.95,0.26,0.37,-3.3,-1.22,304,295,206,254,233
1286,-0.09,-0.97,0.24,0.98,-3.36,-3.66,308,292,203,254,231
1287,-0.1,-0.97,0.23,0.67,-2.32,-1.95,307,290,204,255,228
1288,-0.1,-0.96,0.26,1.28,-1.95,-2.62,312,292,201,256,235
1289,-0.1,-0.97,0.25,-0.61,-2.62,-2.75,311,297,207,258,246
1290,-0.1,-0.97,0.22,-0.73,-0.61,-3.3,312,287,204,258,232
1291,-0.1,-0.96,0.28,4.33,-7.75,2.01,308,289,204,259,237
1292,-0.1,-0.97,0.22,-5.13,-3.3,-4.46,309,292,206,258,234
1293,-0.1,-0.97,0.24,-0.73,-4.09,-2.26,311,296,204,257,236
1294,-0.1,-0.96,0.24,0.06,-3.6,-2.26,309,290,206,257,238
1295,-0.1,-0.97,0.23,-0.18,-2.93,-2.62,311,292,206,256,233
1296,-0.11,-0.97,0.24,-0.98,-2.99,-1.22,311,291,204,258,234
1297,-0.11,-0.96,0.23,0.98,-2.44,-1.65,312,293,203,255,232
1298,-0.11,-0.97,0.22,0.43,-3.54,-2.08,309,291,206,256,235
1299,-0.12,-0.96,0.24,0.12,-3.48,-2.99,311,297,206,261,236
1300,-0.13,-0.96,0.25,-2.14,-2.5,-1.89,313,295,204,256,235
1301,-0.13,-0.96,0.27,-0.43,-3.6,-0.67,311,294,203,252,236
1302,-0.12,-0.96,0.25,1.4,-4.15,-0.79,311,293,205,258,234
1303,-0.12,-0.97,0.23,1.16,-3.23,-2.08,310,287,205,256,250
1304,-0.13,-0.96,0.24,-0.49,-2.32,-2.93,315,294,202,260,237
1305,-0.11,-0.96,0.24,1.65,-3.48,-1.89,309,294,208,253,235
1306,-0.11,-0.96,0.24,1.53,-3.42,-1.34,311,292,205,260,237
1307,-0.11,-0.96,0.23,0.24,-3.48,-2.38,314,293,205,256,234
1308,-0.1,-0.96,0.23,1.4,-1.83,-3.3,311,293,202,257,232
1309,-0.11,-0.96,0.23,-0.24,-3.17,-2.81,311,295,208,259,234
1310,-0.11,-0.96,0.23,-0.31,-1.89,-3.66,309,290,205,257,238
1311,-0.12,-0.96,0.24,1.04,-2.87,-1.71,310,291,209,255,238
1312,-0.12,-0.96,0.24,0.73,-2.99,-2.38,313,293,203,260,234
1313,-0.13,-0.96,0.24,0.06,-3.54,-3.42,312,288,207,259,241
1314,-0.12,-0.96,0.25,-0.18,-1.83,-2.99,310,298,206,260,236
1315,-0.11,-0.96,0.25,1.46,-2.62,-2.14,312,294,207,259,237
1316,-0.12,-0.96,0.25,-0.12,-2.32,-2.75,310,293,204,257,234
1317,-0.12,-0.96,0.24,-0.37,-3.05,-2.69,314,293,203,259,235
1318,-0.1,-0.96,0.25,0.92,-3.66,-1.04,313,292,202,256,235
1319,-0.1,-0.96,0.24,0.43,-2.75,-1.65,313,295,201,259,235
1320,-0.11,-0.96,0.24,-2.93,-2.26,-2.14,312,298,205,256,237
1321,-0.1,-0.97,0.21,-3.85,-0.98,-5.19,313,293,206,256,232
1322,-0.12,-0.97,0.22,-3.42,-2.38,-2.5,315,294,201,257,237
1323,-0.12,-0.97,0.22,-1.04,-3.23,-2.87,313,296,208,254,236
1324,-0.12,-0.97,0.22,-0.49,-2.81,-3.36,315,294,205,255,235
1325,-0.12,-0.97,0.21,0.85,-2.32,-2.32,309,292,208,255,234
1326,-0.13,-0.97,0.22,-0.43,-3.42,-2.38,315,289,207,260,277
1327,-0.12,-0.96,0.24,2.08,-2.69,-1.83,313,293,206,258,233
1328,-0.11,-0.96,0.22,1.46,-3.66,-1.34,314,295,208,256,234
1329,-0.11,-0.96,0.23,1.22,-2.93,-2.93,315,294,207,260,235
1330,-0.11,-0.96,0.23,0.92,-3.23,-1.95,309,296,204,257,237
1331,-0.12,-0.96,0.23,0.0,-3.05,-2.62,312,288,205,255,235
1332,-0.12,-0.96,0.24,0.31,-3.05,-2.81,316,296,207,255,231
1333,-0.12,-0.97,0.23,0.43,-2.26,-3.11,313,294,208,256,237
1334,-0.13,-0.96,0.22,0.55,-2.44,-1.59,311,295,208,257,234
1335,-0.13,-0.96,0.24,0.37,-3.36,-2.2,311,297,209,256,237
1336,-0.12,-0.96,0.22,0.67,-3.05,-3.17,313,295,203,257,231
1337,-0.13,-0.96,0.25,1.34,-3.42,-2.87,310,297,206,260,237
1338,-0.13,-0.96,0.24,1.77,-3.3,-2.87,312,294,208,255,234
1339,-0.13,-0.96,0.26,0.98,-3.36,-1.16,314,297,208,254,236
1340,-0.13,-0.96,0.25,0.0,-3.05,-1.83,304,297,205,252,235
1341,-0.13,-0.96,0.25,0.79,-2.62,-2.38,313,289,208,257,236
1342,-0.13,-0.95,0.25,-0.18,-2.93,-3.05,313,293,208,255,235
1343,-0.12,-0.96,0.26,-0.18,-3.36,-2.26,312,298,205,259,236
1344,-0.12,-0.96,0.26,-0.37,-3.91,-2.01,315,293,202,257,238
1345,-0.13,-0.96,0.25,0.06,-2.44,-2.56,314,293,206,258,233
1346,-0.13,-0.96,0.25,1.22,-2.44,-2.99,312,298,208,260,237
1347,-0.13,-0.96,0.26,-0.06,-2.75,-2.93,316,299,205,255,236
1348,-0.13,-0.96,0.26,-0.12,-2.56,-1.83,311,298,208,259,234
1349,-0.14,-0.96,0.25,-0.31,-3.91,-1.4,312,296,205,257,235
1350,-0.12,-0.95,0.26,1.28,-3.17,-2.44,315,294,208,260,235
1351,-0.13,-0.96,0.26,1.1,-3.42,-2.5,312,294,206,258,239
1352,-0.12,-0.95,0.26,2.69,-2.81,-2.75,313,290,205,256,235
1353,-0.13,-0.96,0.26,2.93,-1.71,-1.59,310,292,209,257,237
1354,-0.15,-0.95,0.29,0.37,-0.24,-2.5,306,288,203,259,238
1355,-0.14,-0.95,0.27,0.0,-2.08,-2.81,312,293,208,259,238
1356,-0.14,-0.95,0.28,-0.79,-2.38,-4.15,309,296,206,254,238
1357,-0.13,-0.95,0.28,0.92,-2.87,-2.69,307,293,205,257,234
1358,-0.14,-0.95,0.28,0.31,-2.75,-2.93,308,294,205,258,236
1359,-0.14,-0.96,0.29,-1.22,-2.87,-1.89,306,288,206,260,234
1360,-0.13,-0.95,0.29,0.49,-3.36,-2.32,309,292,208,256,235
1361,-0.14,-0.95,0.27,0.67,-2.14,-2.69,306,292,204,259,238
1362,-0.14,-0.95,0.27,1.53,-4.52,-1.4,310,287,208,257,224
1363,-0.15,-0.95,0.29,0.12,-2.75,-0.92,316,292,207,261,269
1364,-0.15,-0.95,0.29,-0.79,-3.17,-2.14,314,287,203,256,237
1365,-0.14,-0.95,0.29,0.67,-2.5,-2.93,311,291,205,261,236
1366,-0.14,-0.94,0.29,0.43,-2.99,-2.38,312,293,207,260,236
1367,-0.13,-0.95,0.29,0.24,-2.81,-2.87,312,292,205,258,235
1368,-0.14,-0.95,0.3,0.37,-2.99,-2.26,311,296,208,260,231
1369,-0.13,-0.95,0.28,-0.43,-3.6,-1.89,314,304,206,256,233
1370,-0.13,-0.94,0.28,1.1,-3.36,-2.08,312,298,209,261,237
1371,-0.14,-0.94,0.29,-1.04,-3.85,-2.38,315,289,209,258,238
1372,-0.14,-0.94,0.29,0.98,-2.87,-2.14,312,296,207,258,238
1373,-0.15,-0.95,0.29,-0.31,-2.69,-3.23,311,293,210,260,239
1374,-0.18,-0.95,0.31,-0.85,0.79,-6.53,309,295,208,259,251
1375,-0.12,-0.95,0.25,-0.43,1.04,-4.52,313,293,203,262,235
1376,-0.09,-0.95,0.26,0.0,1.53,-6.65,315,292,206,261,235
1377,-0.06,-0.95,0.28,5.0,-1.71,-0.73,310,294,204,258,235
1378,-0.1,-0.96,0.27,-0.79,-4.7,-1.4,312,288,205,258,238
1379,-0.05,-0.95,0.25,7.57,-2.01,1.22,313,294,204,261,234
1380,-0.09,-0.95,0.32,-2.2,-2.93,-2.81,313,296,209,257,235
1381,-0.07,-0.96,0.23,-1.22,-2.44,-4.64,311,296,208,257,239
1382,-0.1,-0.96,0.27,-0.31,-3.66,-2.56,313,294,206,262,237
1383,-0.08,-0.95,0.26,2.5,-2.14,2.2,314,291,206,258,233
1384,-0.09,-0.96,0.26,1.16,-2.56,-0.85,310,295,209,258,236
1385,-0.11,-0.96,0.27,0.85,-2.5,-2.38,312,297,209,259,237
1386,-0.1,-0.95,0.28,0.73,-4.15,-1.28,313,292,209,257,235
1387,-0.1,-0.95,0.28,1.34,-2.87,-2.38,313,290,205,261,236
1388,-0.11,-0.95,0.28,0.24,-3.42,-2.08,313,296,207,259,235
1389,-0.1,-0.95,0.28,1.71,-3.91,-2.5,310,295,204,258,235
1390,-0.11,-0.95,0.3,0.55,-2.75,-1.53,311,293,209,257,235
1391,-0.1,-0.95,0.28,0.18,-3.48,-1.83,314,295,206,261,236
1392,-0.1,-0.95,0.29,0.85,-2.32,-2.01,313,299,209,258,237
1393,-0.11,-0.95,0.29,-0.24,-3.36,-1.83,313,298,208,261,237
1394,-0.11,-0.95,0.29,0.18,-2.75,-2.38,316,290,208,262,238
1395,-0.12,-0.95,0.28,-0.12,-3.48,-1.77,311,292,209,260,236
1396,-0.12,-0.95,0.28,0.73,-3.42,-2.5,312,296,207,262,232
1397,-0.12,-0.95,0.3,2.26,-2.08,-1.77,315,289,206,260,236
1398,-0.11,-0.95,0.28,1.53,-3.23,-2.87,313,295,205,259,233
1399,-0.11,-0.95,0.3,0.12,-2.75,-2.01,313,295,206,259,233
1400,-0.12,-0.95,0.29,0.06,-3.23,-2.5,313,295,209,258,233
1401,-0.11,-0.95,0.29,0.06,-2.56,-2.44,320,294,208,262,238
1402,-0.1,-0.95,0.27,-0.49,-2.08,-4.94,312,294,208,260,238
1403,-0.12,-0.95,0.3,-0.31,-3.23,-2.56,313,290,207,260,239
1404,-0.12,-0.95,0.3,0.79,-3.54,-1.95,313,299,205,262,233
1405,-0.13,-0.95,0.3,-0.85,-3.48,-2.62,316,295,209,260,265
1406,-0.13,-0.95,0.29,1.59,-2.08,-2.5,316,293,203,261,237
1407,-0.12,-0.95,0.29,1.1,-3.78,-2.5,310,297,209,261,237
1408,-0.12,-0.95,0.3,1.77,-3.36,-2.08,310,296,208,260,237
1409,-0.12,-0.94,0.31,1.4,-3.05,-2.01,311,295,208,259,235
1410,-0.13,-0.94,0.3,0.06,-3.05,-2.38,314,298,205,258,239
1411,-0.12,-0.94,0.3,0.61,-2.62,-2.75,311,295,206,259,235
1412,-0.14,-0.95,0.3,0.98,-2.32,-1.95,320,290,209,259,238
1413,-0.13,-0.94,0.31,-0.12,-3.66,-2.69,315,299,207,261,237
1414,-0.13,-0.95,0.3,0.92,-3.11,-2.62,313,295,205,259,236
1415,-0.13,-0.95,0.3,-2.62,-2.56,-2.5,315,297,209,259,237
1416,-0.12,-0.95,0.31,-0.06,-2.26,-3.11,317,289,209,259,236
1417,-0.12,-0.94,0.29,2.32,-2.93,-2.08,320,294,207,260,237
1418,-0.12,-0.95,0.29,-1.59,-1.28,-4.03,315,287,206,260,252
1419,-0.12,-0.95,0.3,-0.06,-2.01,-3.36,316,300,208,260,236
1420,-0.11,-0.94,0.3,-1.28,-2.14,-3.23,316,299,210,261,236
1421,-0.14,-0.95,0.3,1.65,-4.82,0.73,318,297,208,260,240
1422,-0.13,-0.95,0.3,2.26,-2.38,-1.83,316,300,208,259,238
1423,-0.13,-0.95,0.3,-1.83,-2.69,-3.6,318,294,209,257,234
1424,-0.13,-0.95,0.3,1.46,-3.05,-2.08,318,299,204,257,236
1425,-0.13,-0.94,0.31,1.83,-3.05,-2.38,318,298,205,261,238
1426,-0.13,-0.94,0.32,1.77,-3.66,-2.14,321,291,206,261,235
1427,-0.13,-0.95,0.31,-1.65,-3.23,-2.62,316,301,204,263,235
1428,-0.13,-0.94,0.31,0.37,-2.93,-1.95,316,290,211,260,240
1429,-0.11,-0.94,0.3,-0.73,-2.81,-2.38,318,299,206,263,233
1430,-0.13,-0.94,0.3,-0.37,-3.05,-2.38,321,301,211,259,234
1431,-0.13,-0.94,0.3,1.04,-2.93,-3.17,319,294,209,260,237
1432,-0.12,-0.94,0.31,-0.37,-3.36,-3.11,321,293,209,259,237
1433,-0.12,-0.94,0.3,1.71,-2.99,-3.72,321,292,208,263,236
1434,-0.12,-0.94,0.29,2.2,-0.85,-5.19,316,308,207,261,239
1435,-0.13,-0.94,0.3,-1.28,-2.26,-3.66,316,301,210,257,238
1436,-0.14,-0.94,0.31,-0.98,-2.99,-2.44,318,301,207,260,237
1437,-0.12,-0.95,0.29,1.34,-2.14,-2.75,315,294,206,262,236
1438,-0.12,-0.94,0.31,-0.98,-1.53,-2.32,316,301,207,261,248
1439,-0.14,-0.94,0.32,1.71,-1.53,-2.99,319,291,210,261,235
1440,-0.14,-0.94,0.3,1.34,-3.72,-2.32,319,297,213,261,238
1441,-0.14,-0.94,0.31,1.53,-2.62,-3.36,320,301,207,268,238
1442,-0.14,-0.94,0.33,1.46,-0.79,-3.97,318,300,208,262,238
1443,-0.13,-0.93,0.34,-2.08,-3.3,-1.89,320,295,209,261,236
1444,-0.13,-0.93,0.32,4.03,-2.38,-2.08,316,297,207,263,238
1445,-0.08,-0.95,0.25,-19.59,5.8,-23.32,314,298,211,260,237
1446,-0.08,-0.95,0.22,-6.1,-4.15,-1.46,316,292,204,261,243
1447,-0.12,-0.98,0.22,-17.52,2.01,1.89,320,300,206,260,237
1448,-0.12,-0.96,0.16,6.47,-11.29,4.7,318,303,207,258,235
1449,-0.06,-0.96,0.22,15.2,-6.41,-1.77,320,297,205,263,234
1450,-0.13,-0.96,0.23,5.0,-5.92,3.05,323,304,214,261,238
1451,-0.11,-0.95,0.27,-0.06,-1.83,-2.26,322,303,209,261,238
1452,-0.15,-0.96,0.27,-3.05,-2.56,2.08,327,297,209,260,233
1453,-0.1,-0.95,0.27,2.69,-5.19,1.59,325,294,208,262,235
1454,-0.09,-0.94,0.21,10.93,-27.65,0.31,325,305,205,262,236
1455,-0.13,-0.95,0.27,1.1,1.16,-8.48,316,297,208,263,238
1456,-0.11,-0.97,0.28,-2.08,-5.43,-14.71,320,296,210,262,239
1457,-0.11,-0.95,0.27,0.49,-4.27,-2.69,317,301,209,261,239
1458,-0.11,-0.95,0.28,2.26,-5.43,-0.43,321,301,206,261,237
1459,-0.11,-0.95,0.29,-0.49,-2.38,-3.54,323,304,206,267,238
1460,-0.12,-0.95,0.29,0.18,-3.91,-1.34,322,301,211,261,237
1461,-0.1,-0.95,0.28,-1.22,-2.62,-2.93,324,300,220,261,234
1462,-0.11,-0.95,0.27,-0.24,-2.81,-2.56,326,301,211,257,232
1463,-0.1,-0.96,0.28,0.61,-0.73,-2.44,323,301,211,261,235
1464,-0.1,-0.95,0.28,-0.61,-4.76,-0.98,317,299,210,262,236
1465,-0.1,-0.96,0.28,1.65,-1.95,-3.3,324,304,209,260,237
1466,-0.11,-0.95,0.28,-0.31,-2.87,-2.69,326,294,210,261,239
1467,-0.11,-0.96,0.27,0.31,-2.44,-2.87,329,303,208,267,234
1468,-0.11,-0.95,0.28,0.92,-3.17,-2.26,324,295,211,259,236
1469,-0.11,-0.96,0.28,-0.43,-3.11,-2.56,322,301,209,272,237
1470,-0.11,-0.95,0.29,1.59,-4.09,-1.46,322,301,211,264,255
1471,-0.11,-0.95,0.28,-0.43,-2.81,-2.32,325,297,208,261,236
1472,-0.11,-0.95,0.29,-1.4,-3.23,-1.53,326,300,208,264,232
1473,-0.12,-0.95,0.29,0.31,-3.11,-2.01,325,302,208,264,239
1474,-0.11,-0.95,0.28,-0.31,-3.11,-2.08,326,297,209,263,236
1475,-0.1,-0.95,0.28,1.16,-2.62,-2.44,325,296,208,263,236
1476,-0.12,-0.95,0.28,0.0,-3.36,-2.38,326,296,208,262,238
1477,-0.12,-0.96,0.27,-0.61,-3.23,-2.5,318,301,211,264,236
1478,-0.12,-0.95,0.28,0.49,-2.2,-2.93,328,302,208,264,236
1479,-0.09,-0.95,0.26,0.79,-1.89,-2.44,322,304,207,262,253
1480,-0.11,-0.96,0.26,-0.49,-3.48,-2.14,326,299,209,264,242
1481,-0.11,-0.96,0.27,0.18,-3.54,-1.65,328,303,210,261,239
1482,-0.12,-0.95,0.26,0.37,-3.05,-2.44,325,306,213,263,237
1483,-0.12,-0.96,0.27,-0.43,-2.93,-3.05,324,303,211,262,236
1484,-0.14,-0.96,0.25,2.93,2.38,-5.86,325,312,208,259,245
1485,-0.11,-0.95,0.27,-0.24,-2.5,-3.11,326,303,219,262,237
1486,-0.09,-0.95,0.26,1.28,-4.46,-1.4,325,302,207,261,235
1487,-0.11,-0.95,0.28,1.46,-2.99,-1.28,321,291,212,258,236
1488,-0.12,-0.95,0.27,-0.18,-3.54,-2.56,328,301,211,264,248
1489,-0.11,-0.95,0.29,0.43,-3.54,-1.4,326,295,212,261,236
1490,-0.12,-0.95,0.29,0.12,-3.05,-2.99,328,292,209,263,238
1491,-0.11,-0.95,0.3,0.12,-2.5,-2.62,327,296,207,265,237
1492,-0.12,-0.95,0.29,0.55,-2.99,-2.2,325,301,208,265,236
1493,-0.11,-0.95,0.28,1.83,-2.56,-2.62,326,300,209,262,237
1494,-0.13,-0.95,0.29,1.04,-1.83,-2.56,328,297,212,264,236
1495,-0.12,-0.95,0.29,0.55,-3.36,-2.26,327,305,209,265,239
1496,-0.12,-0.95,0.29,0.12,-3.66,-1.59,323,297,211,263,236
1497,-0.12,-0.95,0.29,0.61,-3.23,-2.44,326,308,209,262,235
1498,-0.11,-0.95,0.29,0.06,-3.6,-2.01,326,302,209,262,236
1499,-0.12,-0.95,0.29,0.79,-3.85,-2.14,324,301,211,262,239
1500,-0.13,-0.95,0.3,1.65,-3.05,-2.2,322,301,206,263,236
1501,-0.13,-0.94,0.3,0.06,-2.75,-2.62,324,297,212,261,239
1502,-0.12,-0.95,0.29,-1.04,-2.93,-2.08,332,294,207,261,236
1503,-0.12,-0.95,0.29,-0.55,-3.78,-2.08,322,299,209,259,237
1504,-0.13,-0.95,0.29,0.31,-2.56,-2.38,326,302,209,270,236
1505,-0.13,-0.95,0.29,0.12,-3.48,-1.89,322,303,206,262,237
1506,-0.12,-0.95,0.29,1.71,-2.93,-2.32,326,303,210,262,238
1507,-0.13,-0.95,0.29,0.37,-3.05,-2.32,326,300,209,263,239
1508,-0.12,-0.95,0.29,0.85,-3.97,-1.34,326,300,211,264,238
1509,-0.13,-0.95,0.29,0.98,-2.99,-2.26,324,299,212,257,237
1510,-0.13,-0.94,0.3,1.4,-0.79,-3.97,327,299,211,260,237
1511,-0.13,-0.94,0.3,0.67,-3.05,-2.01,326,300,212,264,236
1512,-0.13,-0.94,0.29,0.61,-3.05,-2.2,327,298,210,262,237
1513,-0.13,-0.95,0.3,-0.37,-3.72,-2.01,327,302,212,263,235
1514,-0.13,-0.94,0.31,1.04,-3.54,-2.14,324,299,210,261,237
1515,-0.13,-0.94,0.3,1.28,-3.23,-1.59,329,301,210,263,247
1516,-0.14,-0.94,0.31,-0.06,-3.6,-2.01,328,298,214,260,234
1517,-0.14,-0.94,0.31,0.67,-3.48,-1.65,328,298,207,266,237
1518,-0.14,-0.94,0.3,0.0,-2.44,-2.5,328,302,207,264,238
1519,-0.13,-0.94,0.3,-1.04,-2.44,-3.17,326,295,212,266,239
1520,-0.14,-0.94,0.3,-0.37,-2.81,-3.23,326,297,207,263,239
1521,-0.13,-0.94,0.31,3.48,2.26,-4.88,326,301,212,261,236
1522,-0.15,-0.94,0.35,0.31,3.17,-6.47,326,297,210,262,236
1523,-0.11,-0.94,0.31,-0.06,3.72,-1.04,325,298,211,260,239
1524,-0.11,-0.97,0.19,0.12,2.5,-2.38,325,301,202,264,237
1525,-0.08,-0.95,0.24,-5.92,-5.25,-12.27,324,294,212,262,237
1526,-0.06,-0.98,0.18,1.95,1.83,-1.4,325,300,209,264,239
1527,-0.07,-0.97,0.21,1.65,-3.54,-1.34,327,295,213,258,237
1528,-0.1,-0.98,0.19,-1.89,-3.6,-1.4,324,298,211,262,233
1529,-0.09,-0.97,0.19,-1.95,-3.91,-2.56,326,301,213,262,236
1530,-0.1,-0.97,0.22,-0.43,-3.66,-1.28,326,303,215,261,237
1531,-0.11,-0.97,0.19,-0.92,-3.6,-1.16,323,299,210,259,236
1532,-0.1,-0.98,0.19,-0.18,-3.66,-1.71,326,303,212,264,235
1533,-0.14,-0.94,0.3,11.41,-5.8,-1.34,286,261,187,235,231
1534,-0.15,-0.92,0.32,-3.42,-4.76,-3.05,288,262,190,237,229
1535,-0.15,-0.93,0.35,0.49,-1.16,-0.18,290,263,189,236,237
1536,-0.13,-0.94,0.33,-0.67,-2.14,-2.01,290,262,186,237,234
1537,-0.14,-0.94,0.27,-1.71,-5.07,-0.37,293,261,185,238,233
1538,-0.13,-0.94,0.32,7.2,0.61,-3.91,293,266,185,238,235
1539,-0.13,-0.93,0.34,1.04,-2.2,-2.56,295,273,187,241,236
1540,-0.14,-0.92,0.34,-0.67,-3.11,-2.93,295,271,188,242,234
1541,-0.14,-0.93,0.35,-1.95,-4.03,-3.78,298,266,188,240,237
1542,-0.13,-0.93,0.36,0.49,-2.5,-4.94,300,269,189,238,235
1543,-0.16,-0.92,0.38,2.99,0.31,-2.87,301,270,191,238,247
1544,-0.16,-0.91,0.39,0.12,-4.09,-1.28,303,271,187,239,230
1545,-0.12,-0.92,0.39,1.04,4.94,-8.12,303,270,189,240,234
1546,-0.16,-0.89,0.47,18.74,2.75,-1.22,304,274,188,240,231
1547,-0.06,-0.92,0.37,2.38,-2.14,-4.33,306,269,191,238,234
1548,-0.1,-0.91,0.46,4.27,-5.25,3.66,305,276,192,239,235
1549,-0.13,-0.89,0.44,5.43,-3.54,2.5,303,274,193,241,234
1550,-0.13,-0.88,0.46,3.17,-3.6,-2.38,306,275,191,245,238
1551,-0.14,-0.88,0.46,2.44,-3.11,-1.71,307,271,190,242,238
1552,-0.13,-0.88,0.46,0.31,-3.3,-2.14,310,279,194,239,235
1553,-0.1,-0.87,0.48,3.42,-4.7,-2.56,311,278,190,241,235
1554,-0.12,-0.87,0.48,0.49,-2.44,-1.77,311,282,189,246,233
1555,-0.13,-0.87,0.49,-0.92,-2.44,-2.26,310,279,194,246,237
1556,-0.12,-0.87,0.49,0.18,-4.09,-2.14,310,278,194,242,236
1557,-0.13,-0.88,0.47,-2.62,-2.14,-4.64,306,284,189,246,232
1558,-0.12,-0.87,0.49,1.59,-3.05,-1.59,309,281,192,244,236
1559,-0.12,-0.85,0.5,-0.37,-2.87,-3.36,307,279,193,243,240
1560,-0.13,-0.86,0.52,8.85,-5.13,1.4,303,279,194,245,237
1561,-0.13,-0.85,0.53,1.65,-3.48,-1.46,298,284,193,246,238
1562,-0.13,-0.85,0.52,1.28,-2.87,-2.26,302,274,193,245,240
1563,-0.14,-0.85,0.52,1.1,-2.56,-2.62,303,291,197,244,237
1564,-0.13,-0.85,0.52,1.89,-2.32,-3.23,303,283,194,244,238
1565,-0.13,-0.85,0.52,2.2,-3.42,-1.83,305,279,196,245,242
1566,-0.13,-0.85,0.52,2.81,-2.99,-2.56,304,276,195,249,234
1567,-0.13,-0.84,0.53,0.98,-3.6,-2.01,305,284,192,256,240
1568,-0.13,-0.84,0.53,-1.59,-2.32,-2.75,308,285,195,244,239
1569,-0.13,-0.84,0.53,1.22,-3.54,-2.26,309,284,195,246,240
1570,-0.12,-0.84,0.54,1.53,-2.87,-2.5,308,277,194,249,244
1571,-0.13,-0.84,0.54,0.55,-2.75,-2.87,306,277,195,245,236
1572,-0.13,-0.84,0.54,1.53,-3.23,-1.89,305,283,194,245,239
1573,-0.13,-0.83,0.54,0.24,-3.05,-2.26,308,282,200,250,238
1574,-0.12,-0.83,0.55,2.08,-2.38,-2.62,308,281,198,250,238
1575,-0.13,-0.84,0.54,-0.37,-3.23,-2.38,307,284,198,250,240
1576,-0.14,-0.83,0.55,-0.61,-4.46,-0.55,307,281,194,244,243
1577,-0.12,-0.84,0.53,1.28,-2.56,-3.23,310,285,194,247,240
1578,-0.13,-0.84,0.52,0.12,-1.1,-3.42,310,284,198,248,240
1579,-0.12,-0.85,0.53,0.12,-2.44,-4.09,305,282,195,249,239
1580,-0.13,-0.85,0.53,-3.48,-3.66,-2.81,310,287,197,250,241
1581,-0.12,-0.83,0.54,-3.54,-6.59,-0.79,311,283,196,249,241
1582,-0.12,-0.84,0.54,-1.53,-2.14,-3.66,306,282,199,249,239
1583,-0.12,-0.84,0.53,1.83,-2.75,-2.62,310,286,199,247,242
1584,-0.12,-0.83,0.54,2.99,-6.1,0.24,310,278,201,252,239
1585,-0.11,-0.84,0.53,3.72,-2.81,-1.95,311,280,199,251,240
1586,-0.11,-0.83,0.54,-1.28,-2.26,-4.09,313,283,197,250,240
1587,-0.11,-0.84,0.54,1.04,-3.36,-1.65,311,289,196,253,238
1588,-0.15,-0.83,0.56,10.07,4.09,2.81,300,283,196,248,242
1589,-0.14,-0.82,0.56,-1.04,-1.34,-3.48,290,286,200,246,237
1590,-0.14,-0.85,0.52,-0.67,-3.66,-1.83,306,286,200,248,241
1591,-0.12,-0.85,0.5,-0.06,-2.5,-4.33,303,288,198,261,238
1592,-0.14,-0.85,0.52,-0.55,-3.23,-2.81,305,291,195,250,241
1593,-0.14,-0.87,0.49,-1.71,-3.17,-2.75,305,287,197,253,243
1594,-0.14,-0.84,0.53,-0.49,-3.78,-1.46,306,282,198,252,239
1595,-0.13,-0.85,0.52,1.22,-2.99,-2.69,308,285,200,248,241
1596,-0.13,-0.84,0.53,1.77,-2.26,-2.5,309,287,196,250,254
1597,-0.15,-0.84,0.54,1.65,-4.76,-0.98,309,284,201,252,241
1598,-0.15,-0.83,0.55,2.75,-3.05,-2.2,302,282,199,253,240
1599,-0.15,-0.83,0.55,0.12,-2.5,-2.81,307,283,214,252,241
1600,-0.14,-0.83,0.54,0.79,-2.99,-2.32,306,280,197,252,240
1601,-0.14,-0.83,0.54,1.34,-1.4,-2.56,308,283,201,253,240
1602,-0.15,-0.82,0.56,2.2,-2.81,-3.17,304,282,201,250,240
1603,-0.14,-0.82,0.55,0.18,-2.26,-3.3,306,282,196,253,241
1604,-0.14,-0.82,0.56,1.65,-4.46,-2.08,310,286,196,255,243
1605,-0.15,-0.81,0.55,0.73,-4.27,-3.11,308,276,202,254,238
1606,-0.14,-0.81,0.58,2.32,-5.31,-1.65,307,279,202,251,240
1607,-0.15,-0.81,0.56,1.04,-3.54,-3.17,307,283,198,251,243
1608,-0.14,-0.82,0.56,0.18,-2.99,-2.5,307,279,202,250,238
1609,-0.14,-0.82,0.56,-0.85,-0.92,-3.17,306,282,197,248,242
1610,-0.14,-0.82,0.57,1.77,-3.66,-0.79,306,277,198,254,240
1611,-0.14,-0.81,0.57,-0.79,-2.93,-2.2,309,284,197,252,243
1612,-0.14,-0.81,0.58,0.43,-2.81,-0.67,304,281,203,252,240
1613,-0.15,-0.82,0.57,1.1,-2.99,-2.2,308,277,198,253,242
1614,-0.15,-0.84,0.58,0.73,-3.11,-3.36,309,283,196,251,240
1615,-0.13,-0.8,0.59,0.43,-2.99,-2.75,308,286,197,268,239
1616,-0.14,-0.81,0.58,1.77,-2.5,-2.14,311,287,198,251,240
1617,-0.14,-0.81,0.59,-0.18,-1.04,-3.17,307,282,200,259,249
1618,-0.15,-0.8,0.59,-0.18,-2.87,-1.28,309,281,202,252,242
1619,-0.14,-0.81,0.58,0.18,-2.32,-1.59,306,288,198,251,252
1620,-0.16,-0.8,0.59,0.31,-1.4,-1.71,308,283,202,250,243
1621,-0.17,-0.81,0.58,-0.49,-2.32,-2.08,305,286,197,254,246
1622,-0.13,-0.79,0.61,1.46,-3.11,0.12,306,282,211,253,239
1623,-0.16,-0.8,0.58,-1.95,-4.33,-1.46,310,287,198,253,240
1624,-0.13,-0.79,0.61,-1.71,-3.85,-3.72,306,283,204,251,243
1625,-0.1,-0.8,0.6,5.74,-4.88,-4.58,303,284,199,251,245
1626,-0.14,-0.81,0.57,2.32,-2.14,1.16,309,282,203,254,243
1627,-0.13,-0.77,0.63,-1.53,-1.22,-3.66,310,282,201,251,258
1628,-0.16,-0.8,0.61,-8.97,-4.52,1.04,309,283,202,261,241
1629,-0.11,-0.79,0.6,3.54,-3.48,-6.23,309,282,200,255,245
1630,-0.15,-0.79,0.62,-0.73,-3.3,-1.1,308,285,201,252,243
1631,-0.1,-0.79,0.61,-0.85,-4.58,-7.39,309,281,204,253,240
1632,-0.14,-0.81,0.58,2.81,-5.19,-2.99,309,284,200,254,240
1633,-0.14,-0.84,0.61,-0.79,-3.17,-4.27,309,289,203,250,241
1634,-0.08,-0.85,0.53,5.37,12.57,-13.67,311,280,201,253,258
1635,-0.21,-0.8,0.63,14.16,6.41,-15.08,312,279,199,254,236
1636,-0.15,-0.78,0.59,12.7,12.33,-10.07,309,282,203,248,237
1637,-0.13,-0.75,0.66,22.09,6.47,11.35,311,285,201,250,238
1638,-0.17,-0.79,0.58,-9.09,8.24,-8.54,311,279,200,249,235
1639,-0.2,-0.75,0.66,24.66,-9.58,9.28,311,283,200,249,235
1640,-0.25,-0.69,0.7,-1.1,-1.34,0.85,313,286,201,250,237
1641,-0.24,-0.69,0.7,-2.56,-6.16,-2.26,307,284,200,249,238
1642,-0.22,-0.73,0.68,1.16,-2.69,-1.4,314,286,203,253,233
1643,-0.22,-0.73,0.68,-1.46,-13.31,-0.73,314,281,198,250,237
1644,-0.17,-0.74,0.67,-13.55,-18.92,-8.36,313,282,204,253,244
1645,-0.06,-0.78,0.63,-7.26,-23.25,-9.09,314,286,199,251,234
1646,0.03,-0.8,0.62,-9.77,-14.77,-1.95,312,286,202,251,237
1647,0.09,-0.81,0.58,9.7,0.67,-8.73,311,287,204,253,239
1648,0.03,-0.78,0.61,2.01,-5.74,-1.4,311,290,197,253,244
1649,0.05,-0.8,0.61,5.25,-2.75,4.03,317,290,199,250,240
1650,0.03,-0.81,0.59,2.81,-4.76,-1.28,315,293,201,254,241
1651,0.03,-0.78,0.63,4.27,-4.46,-3.23,311,283,202,252,239
1652,-0.0,-0.81,0.61,-1.95,-4.82,-0.12,314,284,200,257,231
1653,0.03,-0.78,0.64,2.87,-7.2,-0.12,312,289,204,251,234
1654,0.0,-0.76,0.68,0.55,-0.55,-1.04,315,286,201,255,233
1655,0.05,-0.78,0.62,-0.06,1.53,1.59,312,288,200,255,241
1656,0.01,-0.81,0.6,-4.46,-0.85,-2.99,315,284,205,253,239
1657,-0.0,-0.81,0.6,-3.78,-11.54,-3.42,311,291,200,255,280
1658,-0.01,-0.82,0.6,1.4,-4.46,0.73,313,287,204,254,238
1659,0.01,-0.81,0.59,-1.4,-6.9,-7.32,317,287,201,255,239
1660,-0.01,-0.82,0.56,0.31,6.77,-0.55,317,291,202,255,239
1661,-0.04,-0.7,0.81,-18.31,-4.94,0.61,307,286,199,252,239
1662,-0.11,-0.86,0.54,-1.53,-19.78,14.22,292,285,198,246,240
1663,-0.19,-0.86,0.56,-16.6,-8.67,7.14,290,278,196,242,237
1664,-0.24,-0.81,0.49,33.57,16.24,-12.45,290,279,199,242,245
1665,-0.18,-0.84,0.57,-1.89,-4.27,-3.97,288,283,200,243,233
1666,-0.16,-0.93,0.54,0.12,-0.67,-7.14,290,277,197,240,236
1667,-0.14,-0.82,0.45,-1.71,-22.95,-3.17,291,284,200,241,236
1668,-0.13,-0.82,0.55,10.5,-0.61,0.06,292,283,198,244,244
1669,-0.1,-0.85,0.44,-12.82,2.99,-13.55,298,285,202,238,236
1670,-0.09,-0.84,0.5,5.8,-2.38,-10.13,297,281,201,243,235
1671,-0.1,-0.87,0.51,-25.63,-0.55,-4.7,297,288,210,243,235
1672,-0.1,-0.92,0.38,-6.84,-2.01,-6.53,274,283,198,245,237
1673,-0.06,-0.92,0.36,-7.08,-6.1,-7.69,276,280,197,254,233
1674,-0.03,-0.96,0.3,-17.21,3.05,-2.08,276,271,197,253,231
1675,-0.08,-0.96,0.25,7.51,-16.3,-0.18,267,277,195,251,235
1676,-0.14,-0.96,0.26,-4.27,-5.98,1.46,271,274,200,257,234
1677,-0.12,-0.97,0.23,-10.31,-9.03,2.5,275,271,197,251,230
1678,-0.13,-0.96,0.25,1.89,-5.43,-1.46,275,276,200,252,232
1679,-0.1,-0.96,0.23,-0.43,-9.03,-2.75,278,274,198,245,232
1680,-0.12,-0.96,0.26,3.6,-3.85,-2.75,280,280,200,250,232
1681,-0.13,-0.96,0.24,-1.71,-2.08,-3.23,281,276,197,249,234
1682,-0.13,-0.97,0.23,-4.03,-2.99,-2.99,280,278,204,250,234
1683,-0.14,-0.97,0.21,1.77,-3.78,-1.53,280,271,198,250,230
1684,-0.13,-0.96,0.24,-1.59,-3.91,-2.26,281,276,198,250,231
1685,-0.13,-0.97,0.22,0.24,6.23,-4.88,280,277,198,248,233
1686,-0.12,-0.96,0.25,0.18,-1.83,-2.62,282,281,198,253,231
1687,-0.13,-0.92,0.25,7.2,-1.59,-2.14,280,273,211,253,264
1688,-0.14,-0.95,0.29,0.55,-3.05,-2.14,278,278,195,248,233
1689,-0.14,-0.95,0.28,-1.95,-4.52,-2.14,282,278,197,252,234
1690,-0.13,-0.95,0.28,2.14,-3.42,-2.56,280,281,201,249,235
1691,-0.11,-0.94,0.31,3.6,-5.07,-1.22,279,276,198,251,233
1692,-0.14,-0.93,0.32,7.08,-3.36,-0.85,279,281,201,252,234
1693,-0.13,-0.94,0.33,-0.12,-3.11,-2.56,285,282,196,250,232
1694,-0.14,-0.95,0.31,0.43,-5.19,0.43,282,280,196,254,233
1695,-0.11,-0.94,0.32,3.11,-3.85,-1.46,284,283,203,253,233
1696,-0.11,-0.94,0.3,9.28,-3.3,0.0,284,279,199,254,233
1697,-0.14,-0.9,0.4,9.95,-6.04,-1.1,284,285,199,251,234
1698,-0.14,-0.91,0.38,-4.58,-0.18,-7.75,285,282,196,251,234
1699,-0.13,-0.92,0.38,1.77,-1.89,-0.85,284,282,202,251,236
1700,-0.13,-0.92,0.38,0.18,-2.99,-2.26,287,284,203,263,225
1701,-0.12,-0.92,0.38,-1.46,-4.03,-0.49,288,285,199,252,234
1702,-0.1,-0.91,0.38,0.85,-3.11,-0.06,292,284,196,252,232
1703,-0.13,-0.91,0.38,-0.31,-3.48,-1.77,289,285,199,254,232
1704,-0.13,-0.92,0.38,2.69,-2.93,-3.3,288,281,201,253,233
1705,-0.11,-0.92,0.38,-0.43,-2.2,-4.09,290,287,199,252,237
1706,-0.11,-0.9,0.39,3.91,-2.5,-2.44,293,283,201,249,237
1707,-0.11,-0.91,0.4,0.67,-2.75,-3.3,292,286,202,253,238
1708,-0.11,-0.91,0.41,1.53,-3.6,-2.75,287,281,200,255,237
1709,-0.13,-0.92,0.38,0.37,-4.94,-1.22,292,281,202,251,232
1710,-0.14,-0.91,0.41,-0.61,-3.3,-0.18,293,294,204,255,234
1711,-0.12,-0.9,0.42,-1.34,-4.09,-2.01,294,282,205,252,234
1712,-0.14,-0.89,0.39,4.52,-0.12,-7.02,293,287,196,253,233
1713,-0.12,-0.9,0.41,0.18,-3.6,-2.44,288,285,204,253,235
1714,-0.11,-0.9,0.42,1.53,-2.81,-2.14,291,286,200,256,245
1715,-0.11,-0.91,0.42,-0.31,-3.23,-1.95,286,291,202,256,237
1716,-0.1,-0.89,0.41,-3.36,-4.94,-0.37,293,286,200,252,234
1717,-0.11,-0.91,0.42,-7.63,-4.94,1.1,292,290,198,255,235
1718,-0.12,-0.91,0.39,0.12,-3.78,-3.23,292,285,201,250,237
1719,-0.11,-0.91,0.39,-0.18,-4.15,-2.62,294,287,203,252,238
1720,-0.12,-0.9,0.42,-0.31,-4.94,-2.69,282,289,195,252,235
1721,-0.09,-0.91,0.41,2.14,0.67,-2.62,288,286,198,253,235
1722,-0.11,-0.91,0.38,10.25,-5.43,-3.17,284,286,202,253,233
1723,-0.07,-0.87,0.5,0.85,-4.82,-16.36,289,285,204,251,233
1724,0.02,-0.91,0.47,-9.22,-4.64,-0.55,291,287,202,250,235
1725,0.01,-0.91,0.45,-12.39,-12.7,7.57,291,283,204,252,234
1726,0.05,-0.91,0.42,-3.97,0.43,-12.45,292,285,202,252,235
1727,0.03,-0.94,0.34,-5.74,11.78,1.04,292,290,201,256,233
1728,-0.06,-0.93,0.4,1.77,0.49,5.37,291,291,203,254,239
1729,-0.07,-0.93,0.34,-16.42,2.2,-5.68,293,290,201,255,235
1730,-0.09,-0.94,0.3,2.01,-6.47,-3.97,291,288,206,255,234
1731,-0.08,-0.96,0.3,-4.7,-3.66,-3.17,293,289,201,252,234
1732,-0.07,-0.95,0.29,-1.34,-3.3,-2.44,293,291,209,253,231
1733,-0.07,-0.96,0.3,4.88,-5.92,-3.54,294,287,208,255,230
1734,-0.04,-0.95,0.31,3.17,-2.38,-4.33,296,292,202,253,237
1735,-0.05,-0.96,0.29,-0.73,-7.26,0.06,294,291,203,256,237
1736,-0.08,-0.96,0.27,0.55,-3.11,-2.75,294,288,205,250,235
1737,-0.08,-0.95,0.29,0.55,-4.7,-0.24,296,285,200,257,237
1738,-0.07,-0.95,0.29,-0.18,-3.97,-1.71,295,285,200,256,234
1739,-0.09,-0.96,0.28,6.29,0.24,-3.05,297,286,202,251,230
1740,-0.08,-0.95,0.31,1.77,-4.21,-2.75,295,285,202,257,237
1741,-0.07,-0.94,0.33,0.67,-4.21,-2.2,296,294,202,251,232
1742,-0.08,-0.95,0.32,0.61,-4.15,-2.08,294,288,200,256,237
1743,-0.07,-0.95,0.31,1.22,-3.05,-2.26,295,287,202,257,237
1744,-0.07,-0.94,0.34,1.83,-3.42,-2.01,296,291,204,255,237
1745,-0.08,-0.94,0.32,0.79,-3.54,-2.38,300,289,205,254,235
1746,-0.08,-0.95,0.3,8.79,-1.34,0.06,298,284,206,257,240
1747,-0.12,-0.94,0.37,6.53,-2.81,1.77,296,292,206,267,228
1748,-0.11,-0.92,0.39,-3.54,-7.2,-3.48,298,289,201,252,229
1749,-0.1,-0.94,0.33,1.1,-2.5,-0.92,298,289,205,258,236
1750,-0.1,-0.94,0.34,-3.17,-4.76,-3.42,297,286,203,252,234
1751,-0.05,-0.94,0.29,-3.42,2.38,-5.55,299,291,206,254,235
1752,-0.05,-0.94,0.33,0.67,-2.38,-2.56,301,293,203,250,234
1753,-0.09,-0.94,0.33,1.16,-2.38,-2.08,300,292,206,256,231
1754,-0.09,-0.94,0.32,0.24,-2.81,-3.42,302,289,205,255,236
1755,-0.08,-0.95,0.32,-0.73,-2.87,-2.81,300,293,205,255,234
1756,-0.1,-0.93,0.32,-1.59,-0.67,-3.91,301,292,204,251,232
1757,-0.07,-0.95,0.3,3.54,-1.83,-2.56,303,291,204,255,234
1758,-0.09,-0.95,0.33,0.49,-4.03,-2.38,302,287,206,263,236
1759,-0.09,-0.93,0.32,2.81,-3.85,-2.26,298,289,203,253,234
1760,-0.08,-0.93,0.33,-1.46,-3.42,-2.32,303,294,200,254,235
1761,-0.1,-0.94,0.31,-0.24,-0.61,-2.2,303,293,205,254,234
1762,-0.08,-0.94,0.33,0.85,-3.54,-1.65,303,290,205,253,233
1763,-0.1,-0.95,0.3,-2.2,-4.7,-2.56,303,291,201,253,237
1764,-0.09,-0.96,0.29,-6.16,-5.07,-2.69,302,292,203,251,236
1765,-0.06,-0.96,0.23,-5.49,-8.73,-1.1,302,289,204,255,245
1766,-0.08,-0.97,0.24,-2.08,-3.97,-1.4,300,292,204,257,236
1767,-0.09,-0.97,0.25,-1.1,-1.83,-1.59,305,294,200,258,237
1768,-0.1,-0.97,0.25,-0.31,-3.05,-2.44,301,289,200,257,238
1769,-0.09,-0.96,0.24,-0.61,-1.95,-2.62,303,298,203,254,232
1770,-0.09,-0.98,0.25,-0.55,-3.17,-2.01,302,290,203,253,232
1771,-0.08,-0.97,0.24,-0.37,-1.83,-2.81,303,287,202,254,233
1772,-0.1,-0.97,0.23,-1.59,-2.56,-2.62,303,290,202,257,232
1773,-0.08,-0.97,0.23,1.95,-3.05,-2.01,304,295,204,261,235
1774,-0.09,-0.97,0.23,-0.43,-2.62,-3.97,300,287,206,254,239
1775,-0.09,-0.98,0.22,-0.67,-2.81,-2.69,303,286,202,253,237
1776,-0.09,-0.97,0.24,2.01,-3.6,-1.34,302,294,201,254,238
1777,-0.1,-0.96,0.25,2.87,-2.38,-1.04,303,290,204,250,234
1778,-0.11,-0.96,0.26,-0.55,-2.81,-2.69,305,288,201,256,236
1779,-0.11,-0.96,0.24,-0.49,-3.05,-2.5,303,291,204,254,236
1780,-0.11,-0.96,0.25,0.43,-3.66,-1.89,304,290,204,257,235
1781,-0.1,-0.96,0.25,-0.61,-2.87,-2.56,305,290,206,257,232
1782,-0.1,-0.96,0.24,0.98,-2.56,-2.2,304,290,207,254,234
1783,-0.11,-0.96,0.23,-0.06,-3.85,-2.44,304,292,203,256,235
1784,-0.1,-0.96,0.25,2.2,-3.42,-2.81,300,295,204,256,264
1785,-0.11,-0.96,0.26,0.92,-3.11,-1.83,299,300,206,254,234
1786,-0.11,-0.96,0.26,0.73,-3.72,-2.32,304,286,202,255,235
1787,-0.12,-0.96,0.26,0.12,-1.16,-2.38,300,290,206,255,234
1788,-0.08,-0.96,0.25,2.32,-1.34,-2.81,306,293,203,257,237
1789,-0.11,-0.96,0.26,-3.05,-1.34,-5.0,303,286,202,253,237
1790,-0.1,-0.96,0.24,-1.22,-1.89,-2.56,305,293,203,259,235
1791,-0.12,-0.96,0.24,-0.37,-2.99,-2.87,304,287,206,261,231
1792,-0.11,-0.96,0.27,2.14,-2.44,-1.95,299,292,205,256,236
1793,-0.11,-0.96,0.25,2.26,-4.58,-1.34,303,295,201,253,235
1794,-0.11,-0.96,0.25,0.55,-3.17,-3.48,301,295,205,256,233
1795,-0.12,-0.96,0.28,-2.99,6.41,-6.77,304,293,213,255,236
1796,-0.11,-0.95,0.26,0.37,-3.3,-1.22,304,295,206,254,233
1797,-0.09,-0.97,0.24,0.98,-3.36,-3.66,308,292,203,254,231
1798,-0.1,-0.97,0.23,0.67,-2.32,-1.95,307,290,204,255,228
1799,-0.1,-0.96,0.26,1.28,-1.95,-2.62,312,292,201,256,235
1800,-0.1,-0.97,0.25,-0.61,-2.62,-2.75,311,297,207,258,246
1801,-0.1,-0.97,0.22,-0.73,-0.61,-3.3,312,287,204,258,232
1802,-0.1,-0.96,0.28,4.33,-7.75,2.01,308,289,204,259,237
1803,-0.1,-0.97,0.22,-5.13,-3.3,-4.46,309,292,206,258,234
1804,-0.1,-0.97,0.24,-0.73,-4.09,-2.26,311,296,204,257,236
1805,-0.1,-0.96,0.24,0.06,-3.6,-2.26,309,290,206,257,238
1806,-0.1,-0.97,0.23,-0.18,-2.93,-2.62,311,292,206,256,233
1807,-0.11,-0.97,0.24,-0.98,-2.99,-1.22,311,291,204,258,234
1808,-0.11,-0.96,0.23,0.98,-2.44,-1.65,312,293,203,255,232
1809,-0.11,-0.97,0.22,0.43,-3.54,-2.08,309,291,206,256,235
1810,-0.12,-0.96,0.24,0.12,-3.48,-2.99,311,297,206,261,236
1811,-0.13,-0.96,0.25,-2.14,-2.5,-1.89,313,295,204,256,235
1812,-0.13,-0.96,0.27,-0.43,-3.6,-0.67,311,294,203,252,236
1813,-0.12,-0.96,0.25,1.4,-4.15,-0.79,311,293,205,258,234
1814,-0.12,-0.97,0.23,1.16,-3.23,-2.08,310,287,205,256,250
1815,-0.13,-0.96,0.24,-0.49,-2.32,-2.93,315,294,202,260,237
1816,-0.11,-0.96,0.24,1.65,-3.48,-1.89,309,294,208,253,235
1817,-0.11,-0.96,0.24,1.53,-3.42,-1.34,311,292,205,260,237
1818,-0.11,-0.96,0.23,0.24,-3.48,-2.38,314,293,205,256,234
1819,-0.1,-0.96,0.23,1.4,-1.83,-3.3,311,293,202,257,232
1820,-0.11,-0.96,0.23,-0.24,-3.17,-2.81,311,295,208,259,234
1821,-0.11,-0.96,0.23,-0.31,-1.89,-3.66,309,290,205,257,238
1822,-0.12,-0.96,0.24,1.04,-2.87,-1.71,310,291,209,255,238
1823,-0.12,-0.96,0.24,0.73,-2.99,-2.38,313,293,203,260,234
1824,-0.13,-0.96,0.24,0.06,-3.54,-3.42,312,288,207,259,241
1825,-0.12,-0.96,0.25,-0.18,-1.83,-2.99,310,298,206,260,236
1826,-0.11,-0.96,0.25,1.46,-2.62,-2.14,312,294,207,259,237
1827,-0.12,-0.96,0.25,-0.12,-2.32,-2.75,310,293,204,257,234
1828,-0.12,-0.96,0.24,-0.37,-3.05,-2.69,314,293,203,259,235
1829,-0.1,-0.96,0.25,0.92,-3.66,-1.04,313,292,202,256,235
1830,-0.1,-0.96,0.24,0.43,-2.75,-1.65,313,295,201,259,235
1831,-0.11,-0.96,0.24,-2.93,-2.26,-2.14,312,298,205,256,237
1832,-0.1,-0.97,0.21,-3.85,-0.98,-5.19,313,293,206,256,232
1833,-0.12,-0.97,0.22,-3.42,-2.38,-2.5,315,294,201,257,237
1834,-0.12,-0.97,0.22,-1.04,-3.23,-2.87,313,296,208,254,236
1835,-0.12,-0.97,0.22,-0.49,-2.81,-3.36,315,294,205,255,235
1836,-0.12,-0.97,0.21,0.85,-2.32,-2.32,309,292,208,255,234
1837,-0.13,-0.97,0.22,-0.43,-3.42,-2.38,315,289,207,260,277
1838,-0.12,-0.96,0.24,2.08,-2.69,-1.83,313,293,206,258,233
1839,-0.11,-0.96,0.22,1.46,-3.66,-1.34,314,295,208,256,234
1840,-0.11,-0.96,0.23,1.22,-2.93,-2.93,315,294,207,260,235
1841,-0.11,-0.96,0.23,0.92,-3.23,-1.95,309,296,204,257,237
1842,-0.12,-0.96,0.23,0.0,-3.05,-2.62,312,288,205,255,235
1843,-0.12,-0.96,0.24,0.31,-3.05,-2.81,316,296,207,255,231
1844,-0.12,-0.97,0.23,0.43,-2.26,-3.11,313,294,208,256,237
1845,-0.13,-0.96,0.22,0.55,-2.44,-1.59,311,295,208,257,234
1846,-0.13,-0.96,0.24,0.37,-3.36,-2.2,311,297,209,256,237
1847,-0.12,-0.96,0.22,0.67,-3.05,-3.17,313,295,203,257,231
1848,-0.13,-0.96,0.25,1.34,-3.42,-2.87,310,297,206,260,237
1849,-0.13,-0.96,0.24,1.77,-3.3,-2.87,312,294,208,255,234
1850,-0.13,-0.96,0.26,0.98,-3.36,-1.16,314,297,208,254,236
1851,-0.13,-0.96,0.25,0.0,-3.05,-1.83,304,297,205,252,235
1852,-0.13,-0.96,0.25,0.79,-2.62,-2.38,313,289,208,257,236
1853,-0.13,-0.95,0.25,-0.18,-2.93,-3.05,313,293,208,255,235
1854,-0.12,-0.96,0.26,-0.18,-3.36,-2.26,312,298,205,259,236
1855,-0.12,-0.96,0.26,-0.37,-3.91,-2.01,315,293,202,257,238
1856,-0.13,-0.96,0.25,0.06,-2.44,-2.56,314,293,206,258,233
1857,-0.13,-0.96,0.25,1.22,-2.44,-2.99,312,298,208,260,237
1858,-0.13,-0.96,0.26,-0.06,-2.75,-2.93,316,299,205,255,236
1859,-0.13,-0.96,0.26,-0.12,-2.56,-1.83,311,298,208,259,234
1860,-0.14,-0.96,0.25,-0.31,-3.91,-1.4,312,296,205,257,235
1861,-0.12,-0.95,0.26,1.28,-3.17,-2.44,315,294,208,260,235
1862,-0.13,-0.96,0.26,1.1,-3.42,-2.5,312,294,206,258,239
1863,-0.12,-0.95,0.26,2.69,-2.81,-2.75,313,290,205,256,235
1864,-0.13,-0.96,0.26,2.93,-1.71,-1.59,310,292,209,257,237
1865,-0.15,-0.95,0.29,0.37,-0.24,-2.5,306,288,203,259,238
1866,-0.14,-0.95,0.27,0.0,-2.08,-2.81,312,293,208,259,238
1867,-0.14,-0.95,0.28,-0.79,-2.38,-4.15,309,296,206,254,238
1868,-0.13,-0.95,0.28,0.92,-2.87,-2.69,307,293,205,257,234
1869,-0.14,-0.95,0.28,0.31,-2.75,-2.93,308,294,205,258,236
1870,-0.14,-0.96,0.29,-1.22,-2.87,-1.89,306,288,206,260,234
1871,-0.13,-0.95,0.29,0.49,-3.36,-2.32,309,292,208,256,235
1872,-0.14,-0.95,0.27,0.67,-2.14,-2.69,306,292,204,259,238
1873,-0.14,-0.95,0.27,1.53,-4.52,-1.4,310,287,208,257,224
1874,-0.15,-0.95,0.29,0.12,-2.75,-0.92,316,292,207,261,269
1875,-0.15,-0.95,0.29,-0.79,-3.17,-2.14,314,287,203,256,237
1876,-0.14,-0.95,0.29,0.67,-2.5,-2.93,311,291,205,261,236
1877,-0.14,-0.94,0.29,0.43,-2.99,-2.38,312,293,207,260,236
1878,-0.13,-0.95,0.29,0.24,-2.81,-2.87,312,292,205,258,235
1879,-0.14,-0.95,0.3,0.37,-2.99,-2.26,311,296,208,260,231
1880,-0.13,-0.95,0.28,-0.43,-3.6,-1.89,314,304,206,256,233
1881,-0.13,-0.94,0.28,1.1,-3.36,-2.08,312,298,209,261,237
1882,-0.14,-0.94,0.29,-1.04,-3.85,-2.38,315,289,209,258,238
1883,-0.14,-0.94,0.29,0.98,-2.87,-2.14,312,296,207,258,238
1884,-0.15,-0.95,0.29,-0.31,-2.69,-3.23,311,293,210,260,239
1885,-0.18,-0.95,0.31,-0.85,0.79,-6.53,309,295,208,259,251
1886,-0.12,-0.95,0.25,-0.43,1.04,-4.52,313,293,203,262,235
1887,-0.09,-0.95,0.26,0.0,1.53,-6.65,315,292,206,261,235
1888,-0.06,-0.95,0.28,5.0,-1.71,-0.73,310,294,204,258,235
1889,-0.1,-0.96,0.27,-0.79,-4.7,-1.4,312,288,205,258,238
1890,-0.05,-0.95,0.25,7.57,-2.01,1.22,313,294,204,261,234
1891,-0.09,-0.95,0.32,-2.2,-2.93,-2.81,313,296,209,257,235
1892,-0.07,-0.96,0.23,-1.22,-2.44,-4.64,311,296,208,257,239
1893,-0.1,-0.96,0.27,-0.31,-3.66,-2.56,313,294,206,262,237
1894,-0.08,-0.95,0.26,2.5,-2.14,2.2,314,291,206,258,233
1895,-0.09,-0.96,0.26,1.16,-2.56,-0.85,310,295,209,258,236
1896,-0.11,-0.96,0.27,0.85,-2.5,-2.38,312,297,209,259,237
1897,-0.1,-0.95,0.28,0.73,-4.15,-1.28,313,292,209,257,235
1898,-0.1,-0.95,0.28,1.34,-2.87,-2.38,313,290,205,261,236
1899,-0.11,-0.95,0.28,0.24,-3.42,-2.08,313,296,207,259,235
1900,-0.1,-0.95,0.28,1.71,-3.91,-2.5,310,295,204,258,235
1901,-0.11,-0.95,0.3,0.55,-2.75,-1.53,311,293,209,257,235
1902,-0.1,-0.95,0.28,0.18,-3.48,-1.83,314,295,206,261,236
1903,-0.1,-0.95,0.29,0.85,-2.32,-2.01,313,299,209,258,237
1904,-0.11,-0.95,0.29,-0.24,-3.36,-1.83,313,298,208,261,237
1905,-0.11,-0.95,0.29,0.18,-2.75,-2.38,316,290,208,262,238
1906,-0.12,-0.95,0.28,-0.12,-3.48,-1.77,311,292,209,260,236
1907,-0.12,-0.95,0.28,0.73,-3.42,-2.5,312,296,207,262,232
1908,-0.12,-0.95,0.3,2.26,-2.08,-1.77,315,289,206,260,236
1909,-0.11,-0.95,0.28,1.53,-3.23,-2.87,313,295,205,259,233
1910,-0.11,-0.95,0.3,0.12,-2.75,-2.01,313,295,206,259,233
1911,-0.12,-0.95,0.29,0.06,-3.23,-2.5,313,295,209,258,233
1912,-0.11,-0.95,0.29,0.06,-2.56,-2.44,320,294,208,262,238
1913,-0.1,-0.95,0.27,-0.49,-2.08,-4.94,312,294,208,260,238
1914,-0.12,-0.95,0.3,-0.31,-3.23,-2.56,313,290,207,260,239
1915,-0.12,-0.95,0.3,0.79,-3.54,-1.95,313,299,205,262,233
1916,-0.13,-0.95,0.3,-0.85,-3.48,-2.62,316,295,209,260,265
1917,-0.13,-0.95,0.29,1.59,-2.08,-2.5,316,293,203,261,237
1918,-0.12,-0.95,0.29,1.1,-3.78,-2.5,310,297,209,261,237
1919,-0.12,-0.95,0.3,1.77,-3.36,-2.08,310,296,208,260,237
1920,-0.12,-0.94,0.31,1.4,-3.05,-2.01,311,295,208,259,235
1921,-0.13,-0.94,0.3,0.06,-3.05,-2.38,314,298,205,258,239
1922,-0.12,-0.94,0.3,0.61,-2.62,-2.75,311,295,206,259,235
1923,-0.14,-0.95,0.3,0.98,-2.32,-1.95,320,290,209,259,238
1924,-0.13,-0.94,0.31,-0.12,-3.66,-2.69,315,299,207,261,237
1925,-0.13,-0.95,0.3,0.92,-3.11,-2.62,313,295,205,259,236
1926,-0.13,-0.95,0.3,-2.62,-2.56,-2.5,315,297,209,259,237
1927,-0.12,-0.95,0.31,-0.06,-2.26,-3.11,317,289,209,259,236
1928,-0.12,-0.94,0.29,2.32,-2.93,-2.08,320,294,207,260,237
1929,-0.12,-0.95,0.29,-1.59,-1.28,-4.03,315,287,206,260,252
1930,-0.12,-0.95,0.3,-0.06,-2.01,-3.36,316,300,208,260,236
1931,-0.11,-0.94,0.3,-1.28,-2.14,-3.23,316,299,210,261,236
1932,-0.14,-0.95,0.3,1.65,-4.82,0.73,318,297,208,260,240
1933,-0.13,-0.95,0.3,2.26,-2.38,-1.83,316,300,208,259,238
1934,-0.13,-0.95,0.3,-1.83,-2.69,-3.6,318,294,209,257,234
1935,-0.13,-0.95,0.3,1.46,-3.05,-2.08,318,299,204,257,236
1936,-0.13,-0.94,0.31,1.83,-3.05,-2.38,318,298,205,261,238
1937,-0.13,-0.94,0.32,1.77,-3.66,-2.14,321,291,206,261,235
1938,-0.13,-0.95,0.31,-1.65,-3.23,-2.62,316,301,204,263,235
1939,-0.13,-0.94,0.31,0.37,-2.93,-1.95,316,290,211,260,240
1940,-0.11,-0.94,0.3,-0.73,-2.81,-2.38,318,299,206,263,233
1941,-0.13,-0.94,0.3,-0.37,-3.05,-2.38,321,301,211,259,234
1942,-0.13,-0.94,0.3,1.04,-2.93,-3.17,319,294,209,260,237
1943,-0.12,-0.94,0.31,-0.37,-3.36,-3.11,321,293,209,259,237
1944,-0.12,-0.94,0.3,1.71,-2.99,-3.72,321,292,208,263,236
1945,-0.12,-0.94,0.29,2.2,-0.85,-5.19,316,308,207,261,239
1946,-0.13,-0.94,0.3,-1.28,-2.26,-3.66,316,301,210,257,238
1947,-0.14,-0.94,0.31,-0.98,-2.99,-2.44,318,301,207,260,237
1948,-0.12,-0.95,0.29,1.34,-2.14,-2.75,315,294,206,262,236
1949,-0.12,-0.94,0.31,-0.98,-1.53,-2.32,316,301,207,261,248
1950,-0.14,-0.94,0.32,1.71,-1.53,-2.99,319,291,210,261,235
1951,-0.14,-0.94,0.3,1.34,-3.72,-2.32,319,297,213,261,238
1952,-0.14,-0.94,0.31,1.53,-2.62,-3.36,320,301,207,268,238
1953,-0.14,-0.94,0.33,1.46,-0.79,-3.97,318,300,208,262,238
1954,-0.13,-0.93,0.34,-2.08,-3.3,-1.89,320,295,209,261,236
1955,-0.13,-0.93,0.32,4.03,-2.38,-2.08,316,297,207,263,238
1956,-0.08,-0.95,0.25,-19.59,5.8,-23.32,314,298,211,260,237
1957,-0.08,-0.95,0.22,-6.1,-4.15,-1.46,316,292,204,261,243
1958,-0.12,-0.98,0.22,-17.52,2.01,1.89,320,300,206,260,237
1959,-0.12,-0.96,0.16,6.47,-11.29,4.7,318,303,207,258,235
1960,-0.06,-0.96,0.22,15.2,-6.41,-1.77,320,297,205,263,234
1961,-0.13,-0.96,0.23,5.0,-5.92,3.05,323,304,214,261,238
1962,-0.11,-0.95,0.27,-0.06,-1.83,-2.26,322,303,209,261,238
1963,-0.15,-0.96,0.27,-3.05,-2.56,2.08,327,297,209,260,233
1964,-0.1,-0.95,0.27,2.69,-5.19,1.59,325,294,208,262,235
1965,-0.09,-0.94,0.21,10.93,-27.65,0.31,325,305,205,262,236
1966,-0.13,-0.95,0.27,1.1,1.16,-8.48,316,297,208,263,238
1967,-0.11,-0.97,0.28,-2.08,-5.43,-14.71,320,296,210,262,239
1968,-0.11,-0.95,0.27,0.49,-4.27,-2.69,317,301,209,261,239
1969,-0.11,-0.95,0.28,2.26,-5.43,-0.43,321,301,206,261,237
1970,-0.11,-0.95,0.29,-0.49,-2.38,-3.54,323,304,206,267,238
1971,-0.12,-0.95,0.29,0.18,-3.91,-1.34,322,301,211,261,237
1972,-0.1,-0.95,0.28,-1.22,-2.62,-2.93,324,300,220,261,234
1973,-0.11,-0.95,0.27,-0.24,-2.81,-2.56,326,301,211,257,232
1974,-0.1,-0.96,0.28,0.61,-0.73,-2.44,323,301,211,261,235
1975,-0.1,-0.95,0.28,-0.61,-4.76,-0.98,317,299,210,262,236
1976,-0.1,-0.96,0.28,1.65,-1.95,-3.3,324,304,209,260,237
1977,-0.11,-0.95,0.28,-0.31,-2.87,-2.69,326,294,210,261,239
1978,-0.11,-0.96,0.27,0.31,-2.44,-2.87,329,303,208,267,234
1979,-0.11,-0.95,0.28,0.92,-3.17,-2.26,324,295,211,259,236
1980,-0.11,-0.96,0.28,-0.43,-3.11,-2.56,322,301,209,272,237
1981,-0.11,-0.95,0.29,1.59,-4.09,-1.46,322,301,211,264,255
1982,-0.11,-0.95,0.28,-0.43,-2.81,-2.32,325,297,208,261,236
1983,-0.11,-0.95,0.29,-1.4,-3.23,-1.53,326,300,208,264,232
1984,-0.12,-0.95,0.29,0.31,-3.11,-2.01,325,302,208,264,239
1985,-0.11,-0.95,0.28,-0.31,-3.11,-2.08,326,297,209,263,236
1986,-0.1,-0.95,0.28,1.16,-2.62,-2.44,325,296,208,263,236
1987,-0.12,-0.95,0.28,0.0,-3.36,-2.38,326,296,208,262,238
1988,-0.12,-0.96,0.27,-0.61,-3.23,-2.5,318,301,211,264,236
1989,-0.12,-0.95,0.28,0.49,-2.2,-2.93,328,302,208,264,236
1990,-0.09,-0.95,0.26,0.79,-1.89,-2.44,322,304,207,262,253
1991,-0.11,-0.96,0.26,-0.49,-3.48,-2.14,326,299,209,264,242
1992,-0.11,-0.96,0.27,0.18,-3.54,-1.65,328,303,210,261,239
1993,-0.12,-0.95,0.26,0.37,-3.05,-2.44,325,306,213,263,237
1994,-0.12,-0.96,0.27,-0.43,-2.93,-3.05,324,303,211,262,236
1995,-0.14,-0.96,0.25,2.93,2.38,-5.86,325,312,208,259,245
1996,-0.11,-0.95,0.27,-0.24,-2.5,-3.11,326,303,219,262,237
1997,-0.09,-0.95,0.26,1.28,-4.46,-1.4,325,302,207,261,235
1998,-0.11,-0.95,0.28,1.46,-2.99,-1.28,321,291,212,258,236
1999,-0.12,-0.95,0.27,-0.18,-3.54,-2.56,328,301,211,264,248
2000,-0.11,-0.95,0.29,0.43,-3.54,-1.4,326,295,212,261,236
2001,-0.12,-0.95,0.29,0.12,-3.05,-2.99,328,292,209,263,238
2002,-0.11,-0.95,0.3,0.12,-2.5,-2.62,327,296,207,265,237
2003,-0.12,-0.95,0.29,0.55,-2.99,-2.2,325,301,208,265,236
2004,-0.11,-0.95,0.28,1.83,-2.56,-2.62,326,300,209,262,237
2005,-0.13,-0.95,0.29,1.04,-1.83,-2.56,328,297,212,264,236
2006,-0.12,-0.95,0.29,0.55,-3.36,-2.26,327,305,209,265,239
2007,-0.12,-0.95,0.29,0.12,-3.66,-1.59,323,297,211,263,236
2008,-0.12,-0.95,0.29,0.61,-3.23,-2.44,326,308,209,262,235
2009,-0.11,-0.95,0.29,0.06,-3.6,-2.01,326,302,209,262,236
2010,-0.12,-0.95,0.29,0.79,-3.85,-2.14,324,301,211,262,239
2011,-0.13,-0.95,0.3,1.65,-3.05,-2.2,322,301,206,263,236
2012,-0.13,-0.94,0.3,0.06,-2.75,-2.62,324,297,212,261,239
2013,-0.12,-0.95,0.29,-1.04,-2.93,-2.08,332,294,207,261,236
2014,-0.12,-0.95,0.29,-0.55,-3.78,-2.08,322,299,209,259,237
2015,-0.13,-0.95,0.29,0.31,-2.56,-2.38,326,302,209,270,236
2016,-0.13,-0.95,0.29,0.12,-3.48,-1.89,322,303,206,262,237
2017,-0.12,-0.95,0.29,1.71,-2.93,-2.32,326,303,210,262,238
2018,-0.13,-0.95,0.29,0.37,-3.05,-2.32,326,300,209,263,239
2019,-0.12,-0.95,0.29,0.85,-3.97,-1.34,326,300,211,264,238
2020,-0.13,-0.95,0.29,0.98,-2.99,-2.26,324,299,212,257,237
2021,-0.13,-0.94,0.3,1.4,-0.79,-3.97,327,299,211,260,237
2022,-0.13,-0.94,0.3,0.67,-3.05,-2.01,326,300,212,264,236
2023,-0.13,-0.94,0.29,0.61,-3.05,-2.2,327,298,210,262,237
2024,-0.13,-0.95,0.3,-0.37,-3.72,-2.01,327,302,212,263,235
2025,-0.13,-0.94,0.31,1.04,-3.54,-2.14,324,299,210,261,237
2026,-0.13,-0.94,0.3,1.28,-3.23,-1.59,329,301,210,263,247
2027,-0.14,-0.94,0.31,-0.06,-3.6,-2.01,328,298,214,260,234
2028,-0.14,-0.94,0.31,0.67,-3.48,-1.65,328,298,207,266,237
2029,-0.14,-0.94,0.3,0.0,-2.44,-2.5,328,302,207,264,238
2030,-0.13,-0.94,0.3,-1.04,-2.44,-3.17,326,295,212,266,239
2031,-0.14,-0.94,0.3,-0.37,-2.81,-3.23,326,297,207,263,239
2032,-0.13,-0.94,0.31,3.48,2.26,-4.88,326,301,212,261,236
2033,-0.15,-0.94,0.35,0.31,3.17,-6.47,326,297,210,262,236
2034,-0.11,-0.94,0.31,-0.06,3.72,-1.04,325,298,211,260,239
2035,-0.11,-0.97,0.19,0.12,2.5,-2.38,325,301,202,264,237
2036,-0.08,-0.95,0.24,-5.92,-5.25,-12.27,324,294,212,262,237
2037,-0.06,-0.98,0.18,1.95,1.83,-1.4,325,300,209,264,239
2038,-0.07,-0.97,0.21,1.65,-3.54,-1.34,327,295,213,258,237
2039,-0.1,-0.98,0.19,-1.89,-3.6,-1.4,324,298,211,262,233
2040,-0.09,-0.97,0.19,-1.95,-3.91,-2.56,326,301,213,262,236
2041,-0.1,-0.97,0.22,-0.43,-3.66,-1.28,326,303,215,261,237
2042,-0.11,-0.97,0.19,-0.92,-3.6,-1.16,323,299,210,259,236
2043,-0.1,-0.98,0.19,-0.18,-3.66,-1.71,326,303,212,264,235
