,aX,aY,aZ,gX,gY,gZ,little,ring,middle,index,thumb
0,0.96,-0.29,-0.04,2.62,-4.82,0.55,401,295,222,271,196
1,0.94,-0.3,-0.06,0.18,-4.82,-2.62,403,295,220,271,194
2,0.97,-0.31,-0.06,-0.61,-2.87,-3.66,395,287,218,272,195
3,0.95,-0.31,-0.04,0.61,-0.61,-0.55,396,292,221,270,194
4,0.91,-0.33,-0.03,2.38,-3.85,-5.74,401,289,218,269,197
5,0.93,-0.3,-0.09,-4.94,-3.42,0.85,400,289,218,271,197
6,0.92,-0.31,-0.09,4.27,-1.22,-2.14,405,288,220,272,199
7,0.98,-0.31,-0.12,2.44,-5.25,-3.17,402,294,225,272,199
8,0.95,-0.32,-0.1,0.61,-1.83,-1.65,401,298,217,273,196
9,0.95,-0.33,-0.11,-0.55,-3.11,-0.55,403,293,217,274,200
10,0.95,-0.33,-0.1,1.89,0.06,-2.99,406,291,224,272,198
11,0.94,-0.33,-0.12,4.94,-3.05,-2.26,410,295,223,275,197
12,0.93,-0.35,-0.1,0.67,-0.73,-3.3,409,289,222,270,199
13,0.94,-0.35,-0.09,-2.69,-2.93,-2.2,408,291,222,270,198
14,0.93,-0.34,-0.11,-0.06,-2.62,-2.75,408,300,219,275,197
15,0.94,-0.34,-0.1,-0.24,-3.48,-1.71,409,290,223,272,198
16,0.93,-0.34,-0.12,1.22,-4.15,-1.95,407,298,222,272,200
17,0.93,-0.34,-0.12,0.61,-1.95,-2.56,410,293,217,275,200
18,0.92,-0.35,-0.12,-0.73,-4.39,-2.81,411,289,219,274,197
19,0.93,-0.34,-0.13,2.14,-2.26,-2.81,408,297,219,274,198
20,0.94,-0.34,-0.12,0.79,-3.3,-2.38,410,291,220,275,229
21,0.92,-0.34,-0.13,0.37,-2.56,-2.26,411,294,219,273,200
22,0.93,-0.34,-0.12,0.37,-2.62,-2.69,410,301,222,281,197
23,0.93,-0.34,-0.13,0.06,-3.66,-2.38,410,295,219,276,201
24,0.93,-0.34,-0.12,0.73,-2.08,-2.69,410,293,219,275,200
25,0.93,-0.34,-0.12,0.85,-2.5,-2.75,410,300,221,275,198
26,0.93,-0.34,-0.12,0.92,-2.75,-1.95,412,294,218,275,198
27,0.93,-0.34,-0.13,1.28,-1.71,-2.26,410,292,223,270,199
28,0.94,-0.34,-0.12,-0.06,-2.87,-2.44,409,296,223,273,201
29,0.93,-0.33,-0.12,2.26,-2.44,-2.69,409,295,222,272,199
30,0.93,-0.34,-0.13,0.49,-5.0,-3.11,409,295,222,276,199
31,0.94,-0.35,-0.11,0.31,-3.42,-2.32,410,300,220,274,198
32,0.93,-0.34,-0.13,0.06,-3.42,-1.89,407,300,219,274,201
33,0.93,-0.35,-0.12,0.73,-2.2,-2.56,410,301,223,276,199
34,0.95,-0.34,-0.13,0.18,-3.23,-3.85,410,294,221,275,199
35,0.93,-0.34,-0.12,0.79,-2.62,-2.87,409,299,215,275,198
36,0.93,-0.34,-0.12,0.43,-3.66,-2.81,410,291,223,276,202
37,0.93,-0.34,-0.13,0.79,-1.89,-3.11,410,294,219,271,203
38,0.93,-0.34,-0.13,0.61,-2.75,-2.44,413,299,221,273,202
39,0.93,-0.34,-0.13,-0.06,-2.87,-2.26,405,299,221,274,199
40,0.93,-0.34,-0.12,0.31,-2.5,-2.38,409,295,223,281,200
41,0.93,-0.34,-0.12,0.67,-2.2,-2.26,410,298,221,275,201
42,0.91,-0.34,-0.11,-0.18,-2.01,-1.28,410,296,222,281,199
43,0.93,-0.34,-0.11,0.73,-2.26,-2.99,411,294,223,276,200
44,0.94,-0.34,-0.12,0.43,-2.32,-2.99,408,296,222,274,198
45,0.92,-0.34,-0.11,-1.1,-3.36,-2.62,409,299,223,276,201
46,0.94,-0.34,-0.11,0.18,-2.56,-2.26,409,294,222,283,202
47,0.93,-0.34,-0.13,-0.12,-2.32,-2.5,409,299,221,275,203
48,0.93,-0.33,-0.11,-0.31,-1.83,-2.32,409,299,221,275,200
49,0.91,-0.35,-0.1,-1.16,-5.68,4.09,401,297,222,278,203
50,0.93,-0.38,-0.11,3.66,-3.85,0.79,397,312,224,275,201
51,0.94,-0.36,-0.14,-0.61,-3.78,-4.82,400,303,221,277,203
52,0.92,-0.36,-0.12,0.37,-2.56,-2.99,400,299,227,281,202
53,0.93,-0.35,-0.14,-0.12,-2.69,-4.15,404,300,220,274,202
54,0.93,-0.35,-0.12,0.06,-3.23,-2.08,402,294,222,278,202
55,0.93,-0.36,-0.13,1.04,-2.81,-3.23,402,300,226,275,202
56,0.92,-0.35,-0.12,-0.24,-3.78,-2.44,393,298,224,278,197
57,0.93,-0.34,-0.13,1.34,-2.01,-2.75,402,293,222,273,202
58,0.92,-0.35,-0.12,0.24,-1.83,-2.14,401,303,221,276,203
59,0.93,-0.35,-0.13,0.61,-2.62,-2.56,406,310,224,275,199
60,0.94,-0.35,-0.12,0.18,-3.17,-2.26,403,302,224,276,201
61,0.94,-0.34,-0.12,0.12,-2.99,-2.75,403,298,222,275,200
62,0.93,-0.36,-0.09,-4.09,-2.08,-3.11,400,303,221,277,202
63,0.93,-0.34,-0.15,-2.2,-10.25,-5.55,405,300,223,276,203
64,0.96,-0.33,-0.15,-4.39,-9.4,-8.0,404,300,224,278,201
65,0.93,-0.35,-0.16,-0.31,-3.91,-2.2,394,304,232,274,200
66,0.83,-0.37,-0.15,-5.49,-6.16,-8.54,400,300,225,278,202
67,0.93,-0.34,-0.15,1.16,-5.49,-5.25,397,304,226,275,202
68,0.97,-0.32,-0.15,-4.88,-8.97,-1.16,402,295,223,274,202
69,0.9,-0.33,-0.18,-11.72,-9.28,-9.09,396,298,223,276,200
70,0.95,-0.33,-0.14,1.46,-5.19,-0.79,395,295,225,276,205
71,0.94,-0.33,-0.14,-2.5,-4.15,-2.38,391,300,224,276,203
72,0.93,-0.33,-0.16,-1.1,-2.5,-2.44,393,299,226,280,202
73,0.95,-0.34,-0.15,2.81,-1.4,-1.22,395,299,223,284,203
74,0.95,-0.35,-0.14,-1.28,-2.75,-4.94,390,298,225,276,202
75,0.93,-0.35,-0.13,-1.71,-3.42,-2.62,388,301,222,277,201
76,0.97,-0.34,-0.14,-0.61,-1.77,-5.25,391,294,224,276,201
77,0.94,-0.34,-0.13,1.53,-4.64,-0.67,393,298,225,277,199
78,0.97,-0.31,-0.15,-3.36,-5.13,-3.97,387,297,227,277,202
79,0.93,-0.35,-0.12,-0.61,-1.89,-4.03,384,301,220,276,201
80,0.94,-0.35,-0.14,1.22,-5.07,-2.56,386,300,222,278,199
81,0.9,-0.32,-0.15,-0.98,0.79,-8.79,386,303,232,272,201
82,0.91,-0.35,-0.12,5.8,1.53,-0.18,386,301,225,279,211
83,0.95,-0.33,-0.14,1.46,-6.47,-3.05,383,307,230,278,203
84,0.95,-0.34,-0.16,1.89,-3.54,-1.4,381,302,223,279,201
85,0.92,-0.34,-0.13,0.06,-3.11,-2.75,380,296,222,278,201
86,0.92,-0.34,-0.14,-1.65,-1.89,-3.05,381,300,223,278,201
87,0.94,-0.34,-0.15,-1.4,-3.97,-2.2,377,302,225,273,199
88,0.94,-0.32,-0.15,0.18,-2.87,-3.48,379,299,222,279,202
89,0.95,-0.32,-0.15,0.67,-1.95,-3.05,380,300,225,275,201
90,0.93,-0.33,-0.12,-0.12,-1.77,-1.71,379,297,225,278,201
91,0.92,-0.33,-0.16,-0.37,-3.97,-2.2,381,301,225,275,201
92,0.95,-0.33,-0.13,2.08,-2.2,-2.01,377,303,225,276,204
93,0.93,-0.34,-0.15,2.38,-2.2,1.65,377,304,221,276,201
94,0.9,-0.36,-0.17,4.46,-15.38,-2.87,376,300,226,284,203
95,0.91,-0.35,-0.15,-2.69,-4.39,-1.34,381,304,223,279,203
96,0.88,-0.37,-0.16,-2.69,-6.29,-0.67,376,297,221,278,201
97,0.92,-0.37,-0.15,-0.18,-2.14,-2.32,371,304,225,277,201
98,0.89,-0.36,-0.15,-3.05,0.49,-8.91,374,306,225,278,203
99,0.91,-0.36,-0.13,1.22,-1.59,-1.16,371,303,224,279,242
100,0.91,-0.35,-0.18,5.37,-3.48,-3.05,381,303,223,277,202
101,0.92,-0.35,-0.17,-0.98,-3.36,-2.5,388,301,224,277,201
102,0.9,-0.37,-0.16,0.79,-3.23,-4.82,388,304,227,274,198
103,0.9,-0.35,-0.17,0.06,0.92,-6.53,388,305,223,278,202
104,0.9,-0.35,-0.18,-0.37,-7.39,-2.5,390,302,227,278,199
105,0.92,-0.34,-0.19,1.89,-4.33,0.79,386,305,227,280,203
106,0.92,-0.34,-0.17,2.08,-1.22,-2.01,387,305,224,280,203
107,0.92,-0.35,-0.19,-1.4,-3.11,-2.26,390,302,227,278,201
108,0.92,-0.34,-0.17,0.98,-0.55,-2.69,390,304,224,282,204
109,0.92,-0.32,-0.18,-0.98,-4.76,-3.3,386,302,225,278,203
110,0.92,-0.35,-0.17,-0.24,2.2,-6.16,389,298,226,280,200
111,0.91,-0.36,-0.13,1.59,-3.48,-9.09,387,299,224,280,204
112,0.93,-0.33,-0.1,-2.69,-2.56,-14.71,386,301,224,278,205
113,0.94,-0.29,-0.12,4.39,8.91,0.61,386,300,226,277,202
114,0.95,-0.3,-0.08,0.85,-8.73,-4.27,387,301,223,279,202
115,0.95,-0.29,-0.11,0.06,-6.65,-3.85,386,303,226,276,201
116,0.95,-0.29,-0.12,0.12,-2.01,-2.14,387,298,226,279,202
117,0.95,-0.29,-0.14,0.31,-3.42,-2.26,388,298,221,279,203
118,0.96,-0.29,-0.17,1.34,-6.84,-1.95,389,304,221,280,203
119,0.95,-0.3,-0.15,0.79,-2.93,-2.44,389,309,225,281,205
120,0.95,-0.31,-0.13,0.12,-5.49,-1.53,392,304,226,278,204
121,0.94,-0.32,-0.12,0.92,-3.66,-2.81,389,298,223,274,203
122,0.94,-0.31,-0.14,-0.92,-3.54,-2.5,397,305,226,281,204
123,0.94,-0.31,-0.12,0.24,-4.33,-2.69,391,300,224,280,214
124,0.93,-0.31,-0.12,0.98,-1.77,-2.93,394,312,224,281,200
125,0.94,-0.31,-0.13,0.06,-1.77,-2.56,390,296,228,279,202
126,0.94,-0.3,-0.14,0.98,-3.11,-2.5,393,297,226,279,205
127,0.95,-0.3,-0.15,-0.06,-3.17,-2.44,391,300,225,278,207
128,0.94,-0.3,-0.14,0.98,-4.52,-2.56,390,306,228,280,202
129,0.95,-0.31,-0.15,0.37,-3.42,-2.01,388,304,226,281,203
130,0.94,-0.3,-0.14,0.79,-3.17,-3.17,392,303,227,287,203
131,0.92,-0.3,-0.14,0.31,-0.67,-5.31,388,300,227,276,203
132,0.94,-0.3,-0.13,-0.06,-3.54,-2.69,389,301,227,277,202
133,0.94,-0.3,-0.14,-0.49,-4.03,-2.01,391,299,227,279,203
134,0.94,-0.3,-0.14,0.67,-1.89,-2.62,391,306,227,282,206
135,0.95,-0.31,-0.14,-0.18,-2.69,-2.2,392,300,228,280,203
136,0.95,-0.31,-0.14,2.5,-3.85,-2.2,392,300,227,276,203
137,0.94,-0.31,-0.13,-0.18,-3.23,-2.08,390,305,226,277,205
138,0.94,-0.31,-0.13,0.49,-1.71,-1.4,392,305,227,280,204
139,0.95,-0.31,-0.14,1.1,-2.75,-3.11,392,302,224,278,203
140,0.94,-0.31,-0.15,-0.12,-2.75,-2.14,391,301,225,277,203
141,0.93,-0.31,-0.14,0.43,-2.75,-2.2,389,303,223,282,204
142,0.94,-0.3,-0.14,-0.49,-3.11,-2.38,392,304,226,278,203
143,0.94,-0.33,-0.15,9.77,-1.53,11.66,393,302,225,275,204
144,0.79,-0.42,-0.11,3.17,-10.99,1.1,391,301,227,279,200
145,0.93,-0.45,-0.16,-4.33,-1.16,-6.84,389,303,223,281,218
146,0.88,-0.45,-0.16,1.34,-0.61,-0.67,386,300,228,278,205
147,0.85,-0.46,-0.16,-0.24,0.06,-5.68,390,303,227,277,205
148,0.87,-0.44,-0.13,0.61,-5.31,-5.86,389,302,225,280,200
149,0.93,-0.4,-0.14,-6.47,-3.05,-13.85,385,301,234,281,200
150,0.98,-0.3,-0.18,-0.43,-5.13,-18.37,387,302,228,281,205
151,0.92,-0.33,-0.2,4.64,3.42,-1.95,389,303,228,278,203
152,0.91,-0.33,-0.18,1.83,-2.08,-2.5,388,300,227,279,203
153,0.92,-0.34,-0.17,1.53,-2.93,-1.95,386,305,230,281,205
154,0.94,-0.33,-0.16,0.67,-3.17,-2.32,389,297,224,276,204
155,0.92,-0.33,-0.17,2.2,0.24,-2.01,390,301,229,281,201
156,0.93,-0.33,-0.17,0.12,-3.23,-2.38,388,298,224,281,205
157,0.94,-0.33,-0.16,2.56,-1.59,-2.38,389,305,228,276,203
158,0.92,-0.33,-0.17,-0.55,-2.99,-2.44,389,306,230,280,206
159,0.93,-0.34,-0.17,1.1,-3.54,-1.89,389,302,226,279,203
160,0.93,-0.34,-0.17,0.67,-3.3,-2.56,388,303,236,292,202
161,0.92,-0.34,-0.16,0.67,-3.72,-2.93,390,314,225,281,204
162,0.93,-0.34,-0.18,0.43,-2.56,-2.69,388,305,225,278,206
163,0.93,-0.33,-0.17,1.46,-3.36,-3.05,386,300,226,278,201
164,0.92,-0.33,-0.17,1.1,-3.11,-2.81,385,302,225,279,200
165,0.93,-0.34,-0.17,0.06,-2.81,-2.44,389,306,227,280,203
166,0.93,-0.34,-0.17,1.53,-2.44,-3.05,387,307,226,280,203
167,0.92,-0.33,-0.17,0.18,-2.69,-2.44,389,307,228,279,202
168,0.92,-0.34,-0.18,0.55,-3.48,-2.38,384,302,226,272,205
169,0.92,-0.35,-0.18,1.65,-4.64,-2.69,392,297,241,279,205
170,0.92,-0.34,-0.18,0.73,-2.08,-3.36,390,302,227,280,206
171,0.92,-0.34,-0.17,-1.34,-3.97,-2.62,391,306,224,284,207
172,0.92,-0.34,-0.18,0.92,-1.59,-2.62,385,302,223,278,204
173,0.91,-0.34,-0.17,-0.24,-1.1,-2.38,386,303,226,279,202
174,0.93,-0.34,-0.17,1.1,-3.85,-1.89,390,302,238,280,205
175,0.92,-0.34,-0.17,0.06,-2.62,-1.89,390,304,227,281,212
176,0.93,-0.34,-0.18,0.0,-4.03,-4.03,391,308,225,279,205
177,0.92,-0.34,-0.18,-0.98,-3.48,-2.62,393,299,226,282,204
178,0.93,-0.34,-0.16,0.24,-4.03,-2.01,388,303,225,281,203
179,0.92,-0.35,-0.18,0.79,-2.81,-2.38,390,302,224,280,204
180,0.93,-0.35,-0.17,0.06,-2.99,-2.01,392,306,225,279,203
181,0.92,-0.35,-0.17,0.98,-2.26,-2.2,393,306,226,281,200
182,0.92,-0.35,-0.17,0.55,-2.26,-3.05,391,306,229,281,206
183,0.92,-0.35,-0.17,-0.98,-3.23,-2.5,391,306,223,283,205
184,0.93,-0.35,-0.16,0.06,-4.33,-1.77,391,306,225,279,206
185,0.92,-0.36,-0.17,0.0,-3.36,-2.75,393,305,225,282,207
186,0.93,-0.35,-0.16,1.34,-2.01,-3.11,389,303,229,279,204
187,0.93,-0.34,-0.17,0.92,-3.48,-3.42,394,303,225,279,207
188,0.92,-0.35,-0.17,0.37,-2.69,-2.14,396,306,229,282,202
189,0.92,-0.35,-0.17,0.67,-2.38,-2.01,389,303,226,280,206
190,0.92,-0.36,-0.15,-2.14,-4.27,-1.04,395,302,228,281,244
191,0.92,-0.36,-0.17,-0.06,-4.15,-1.95,392,303,229,280,205
192,0.92,-0.36,-0.17,-0.06,-3.23,-2.93,391,302,226,281,206
193,0.92,-0.36,-0.17,-0.92,-4.03,-2.5,393,302,224,282,205
194,0.92,-0.36,-0.18,0.12,-2.93,-2.81,384,307,226,281,207
195,0.92,-0.36,-0.18,0.18,-3.91,-2.75,393,305,226,281,207
196,0.92,-0.36,-0.18,0.85,-2.5,-2.38,390,300,224,282,204
197,0.92,-0.36,-0.18,0.92,-2.32,-2.38,392,306,232,280,205
198,0.92,-0.36,-0.19,-0.43,-3.11,-2.08,391,305,226,277,202
199,0.91,-0.37,-0.18,0.12,-3.23,-1.83,394,306,223,279,205
200,0.91,-0.36,-0.19,0.43,-4.21,-2.56,393,306,225,281,207
201,0.92,-0.37,-0.17,1.1,-2.69,-3.05,393,305,226,282,206
202,0.92,-0.37,-0.18,0.06,-2.14,-2.87,395,304,227,278,205
203,0.92,-0.36,-0.18,0.18,-2.69,-2.2,390,306,224,286,207
204,0.93,-0.36,-0.18,0.37,-3.48,-1.71,395,307,228,280,213
205,0.92,-0.37,-0.18,0.12,-2.26,-2.01,393,306,229,278,205
206,0.91,-0.37,-0.18,-0.18,-3.11,-1.65,390,308,227,283,204
207,0.91,-0.37,-0.19,-0.12,-4.09,-2.38,391,307,226,279,207
208,0.92,-0.37,-0.17,-1.34,-3.42,-0.98,391,304,222,279,212
209,0.91,-0.37,-0.19,-0.73,-3.6,-1.95,386,305,226,284,203
210,0.91,-0.37,-0.18,-0.61,-2.99,-2.81,394,307,226,278,206
211,0.92,-0.37,-0.18,-0.31,-4.33,-1.83,392,303,240,281,205
212,0.91,-0.37,-0.19,-0.12,-3.48,-1.71,395,306,227,280,205
213,0.91,-0.36,-0.19,0.61,-1.16,-2.32,394,306,228,282,200
214,0.92,-0.37,-0.18,0.98,-7.81,-3.11,388,300,227,281,205
215,0.91,-0.38,-0.18,0.85,-2.62,-2.62,403,303,228,281,204
216,0.91,-0.37,-0.18,0.12,-3.05,-2.81,392,306,229,280,208
217,0.91,-0.37,-0.18,0.85,-2.2,-2.93,392,299,226,283,208
218,0.91,-0.37,-0.18,0.24,-3.3,-2.5,392,304,224,278,206
219,0.91,-0.37,-0.18,0.85,-2.2,-2.32,389,304,233,280,206
220,0.91,-0.37,-0.19,0.37,-2.99,-1.77,391,305,224,282,207
221,0.9,-0.38,-0.17,0.31,-2.62,-1.53,391,304,223,283,206
222,0.9,-0.38,-0.18,0.37,-2.32,-2.01,391,303,226,277,205
223,0.9,-0.38,-0.19,0.79,-2.56,-1.71,392,302,226,281,203
224,0.9,-0.38,-0.2,1.59,-3.23,-2.56,388,303,225,281,202
225,0.9,-0.39,-0.19,-0.49,-4.46,-2.81,390,309,226,282,202
226,0.91,-0.38,-0.18,0.67,-2.5,-2.87,392,305,224,280,205
227,0.91,-0.39,-0.19,0.0,-4.15,-1.83,392,307,227,281,206
228,0.91,-0.39,-0.18,-0.06,-3.3,-2.2,391,306,221,279,205
229,0.9,-0.39,-0.19,0.98,-2.87,-2.32,392,300,226,277,207
230,0.9,-0.39,-0.18,0.37,-2.62,-2.2,388,303,226,283,205
231,0.9,-0.38,-0.18,0.92,-3.17,-2.2,391,298,226,286,205
232,0.89,-0.39,-0.19,-0.24,-3.11,-1.83,393,306,223,275,207
233,0.9,-0.39,-0.19,0.55,-2.87,-3.11,396,310,226,280,203
234,0.9,-0.38,-0.19,0.98,-3.3,-3.3,392,304,226,281,214
235,0.9,-0.38,-0.19,0.73,-3.48,-1.89,391,305,224,279,207
236,0.9,-0.39,-0.18,-0.06,-2.5,-2.08,394,308,229,281,206
237,0.9,-0.39,-0.18,0.12,-2.38,-2.01,388,304,226,282,207
238,0.9,-0.39,-0.19,0.55,-3.3,-2.56,394,302,226,280,205
239,0.9,-0.39,-0.18,1.53,-2.75,-2.5,391,303,228,283,205
240,0.9,-0.39,-0.19,0.67,-3.3,-2.08,391,305,227,285,203
241,0.9,-0.39,-0.17,0.06,-0.85,-3.23,389,303,224,280,205
242,0.9,-0.39,-0.18,0.18,-2.26,-2.69,392,304,224,286,208
243,0.91,-0.39,-0.18,-0.43,-2.87,-1.83,391,304,228,279,208
244,0.9,-0.39,-0.18,0.61,-2.5,-2.01,390,306,226,280,206
245,0.89,-0.39,-0.19,0.73,-2.93,-1.71,390,308,228,283,209
246,0.9,-0.4,-0.18,0.18,-2.08,-2.08,394,305,224,280,207
247,0.89,-0.39,-0.19,-0.06,-2.81,-2.32,391,309,229,283,214
248,0.9,-0.4,-0.19,-0.37,-3.6,-2.08,391,307,227,280,207
249,0.9,-0.39,-0.21,1.1,-2.62,-2.81,392,305,228,283,204
250,0.9,-0.39,-0.19,0.31,-3.05,-3.23,393,320,228,284,208
251,0.91,-0.39,-0.2,0.55,-2.87,-3.23,388,307,224,281,206
252,0.9,-0.39,-0.2,0.18,-2.93,-1.53,389,304,223,283,207
253,0.9,-0.38,-0.2,1.1,-2.81,-2.62,390,299,226,284,205
254,0.9,-0.39,-0.2,1.46,-2.99,-2.75,387,305,226,279,205
255,0.9,-0.39,-0.19,0.61,-1.59,-2.69,393,309,227,281,205
256,0.9,-0.39,-0.18,0.55,-2.81,-2.32,393,301,225,283,208
257,0.9,-0.4,-0.18,-0.31,-3.3,-3.42,392,300,226,280,209
258,0.91,-0.38,-0.18,0.67,-2.56,-3.11,391,306,226,280,206
259,0.9,-0.38,-0.19,1.65,-2.93,-3.17,391,305,226,281,198
260,0.9,-0.38,-0.19,-0.67,-3.23,-2.44,389,308,226,284,205
261,0.9,-0.39,-0.2,1.71,-1.83,-1.89,389,303,229,280,208
262,0.91,-0.38,-0.19,-1.53,-2.01,-3.11,391,307,228,283,204
263,0.9,-0.39,-0.18,-0.98,-0.61,-0.73,387,307,228,279,206
264,0.91,-0.38,-0.18,1.65,-1.95,-1.71,390,308,229,280,207
265,0.89,-0.39,-0.18,2.5,-2.32,-1.95,392,309,229,280,229
266,0.91,-0.38,-0.21,0.55,-1.89,-4.27,394,304,230,283,212
267,0.88,-0.4,-0.17,2.01,-1.71,-2.56,389,300,226,281,206
268,0.88,-0.4,-0.18,-4.15,-3.97,-6.47,390,299,229,293,205
269,0.9,-0.38,-0.19,-1.65,-2.99,-2.93,394,303,229,282,208
270,0.9,-0.38,-0.19,0.18,-3.78,-4.46,388,301,226,281,207
271,0.89,-0.39,-0.19,0.49,-4.39,-0.98,391,310,225,281,203
272,0.89,-0.39,-0.2,-0.24,-0.43,-4.64,393,304,229,279,236
273,0.91,-0.38,-0.17,0.79,-2.81,-2.69,387,305,228,279,207
274,0.9,-0.38,-0.18,2.56,-3.23,-3.97,391,307,227,278,206
275,0.9,-0.35,-0.18,2.44,-3.6,-8.85,391,302,227,283,207
276,0.91,-0.35,-0.1,-9.22,-11.54,-1.71,389,300,226,281,205
277,0.96,-0.33,-0.11,5.98,-10.56,-2.56,389,305,228,280,207
278,0.92,-0.36,-0.13,-5.07,-3.72,-1.34,390,308,240,277,207
279,0.97,-0.33,-0.13,15.01,4.33,-6.59,386,308,226,285,208
280,0.96,-0.28,-0.13,0.55,1.53,-4.88,389,304,227,280,204
281,0.91,-0.31,-0.1,-1.22,-0.79,-6.53,392,304,226,284,208
282,0.95,-0.29,-0.12,0.55,-2.75,-3.72,389,307,225,280,203
283,0.94,-0.29,-0.11,-1.28,-5.43,0.43,387,298,229,281,208
284,0.97,-0.29,-0.09,1.04,-2.75,-1.59,390,305,229,280,206
285,0.96,-0.27,-0.1,2.14,-1.53,-1.77,387,308,229,281,205
286,0.96,-0.27,-0.1,2.08,-3.42,-2.38,389,309,229,284,206
287,0.98,-0.27,-0.1,2.08,-1.65,-2.44,388,310,227,284,206
288,0.95,-0.27,-0.1,-0.55,-3.6,-2.32,387,302,227,284,207
289,0.96,-0.27,-0.1,-2.38,-4.03,-2.69,384,302,225,281,208
290,0.96,-0.26,-0.1,-0.43,-3.42,-2.56,385,306,226,282,206
291,0.96,-0.28,-0.09,-3.48,-6.35,0.98,384,302,226,283,204
292,0.92,-0.25,-0.11,5.43,-0.92,-0.24,382,307,229,284,217
293,0.93,-0.28,-0.14,0.67,-1.65,-5.31,383,306,225,281,209
294,0.96,-0.28,-0.14,0.85,-2.44,-2.32,386,306,230,279,207
295,0.96,-0.26,-0.15,-1.95,-4.15,-2.01,381,306,225,281,206
296,0.96,-0.27,-0.13,-0.73,-3.42,-2.26,381,309,228,282,204
297,0.96,-0.28,-0.12,-0.12,-1.65,-1.59,386,307,229,281,209
298,0.97,-0.28,-0.13,1.04,-2.75,-1.4,380,306,232,280,209
299,0.95,-0.29,-0.14,1.53,-3.91,-1.1,384,309,229,279,206
300,0.94,-0.28,-0.15,3.05,-5.49,-1.65,388,301,223,280,204
301,0.94,-0.32,-0.14,-0.79,-1.83,-2.44,394,304,227,282,206
302,0.94,-0.31,-0.12,-1.89,-3.97,-1.34,388,307,226,280,206
303,0.94,-0.31,-0.14,0.49,-4.82,-2.99,391,305,229,282,209
304,0.98,-0.28,-0.14,-2.08,-3.05,-4.27,395,300,227,282,209
305,0.97,-0.29,-0.16,7.26,-9.46,6.29,394,304,230,282,208
306,0.89,-0.37,-0.11,-0.73,-3.66,2.2,396,304,227,283,205
307,0.96,-0.3,-0.12,7.2,-0.98,-6.71,397,306,224,282,243
308,0.93,-0.33,-0.14,1.16,-1.59,-6.23,396,299,230,285,211
309,0.88,-0.39,-0.13,5.43,1.28,3.72,395,301,228,285,210
310,0.96,-0.4,-0.11,1.89,5.43,-13.18,393,301,227,284,214
311,0.95,-0.37,-0.14,-2.14,-14.4,1.83,399,308,224,284,209
312,0.91,-0.38,-0.17,-2.2,-1.34,-11.05,401,303,225,284,206
313,0.93,-0.36,-0.13,3.42,-6.41,-3.54,398,299,225,280,206
314,0.98,-0.37,-0.14,4.82,11.11,0.49,402,300,227,276,207
315,0.9,-0.37,-0.09,1.65,2.99,-7.93,395,295,227,280,206
316,0.92,-0.37,-0.07,-2.5,-2.93,0.18,399,296,223,281,207
317,0.93,-0.37,-0.06,-1.59,-3.3,-2.14,396,298,224,280,207
318,0.92,-0.37,-0.06,0.61,-3.17,-2.75,397,299,224,280,206
319,0.93,-0.38,-0.04,-0.43,-4.82,-1.53,401,300,228,283,207
320,0.92,-0.37,-0.05,0.79,-2.62,-2.5,398,302,228,281,209
321,0.92,-0.38,-0.07,-2.38,-3.72,-2.2,400,299,224,281,206
322,0.92,-0.39,-0.05,-1.53,-4.03,-2.56,396,299,230,282,208
323,0.94,-0.37,-0.08,2.44,-1.77,-3.3,394,294,225,282,210
324,0.94,-0.38,-0.03,-0.43,-1.22,-0.92,395,299,227,281,208
325,0.93,-0.38,-0.03,-1.46,-4.64,-1.16,394,301,232,286,213
326,0.91,-0.39,-0.06,1.22,-3.23,-3.17,394,295,226,281,207
327,0.92,-0.38,-0.06,2.44,-2.87,-3.23,391,299,228,279,208
328,0.93,-0.38,-0.06,-0.12,-6.16,-1.59,393,299,222,284,209
329,0.91,-0.38,-0.06,0.73,-2.32,-0.37,392,299,224,280,203
330,0.92,-0.38,-0.06,0.92,-0.85,-2.44,395,304,226,282,208
331,0.93,-0.38,-0.05,1.53,-2.5,-1.89,389,299,225,282,205
332,0.92,-0.39,-0.06,0.18,-3.42,-3.85,387,298,224,282,209
333,0.92,-0.38,-0.07,0.12,-3.66,-2.99,390,301,225,281,210
334,0.93,-0.38,-0.04,0.92,-2.93,-1.65,392,300,225,279,208
335,0.93,-0.39,-0.05,2.62,-2.26,-2.62,389,303,226,281,209
336,0.92,-0.37,-0.06,0.49,-1.53,-2.75,387,302,225,280,205
337,0.93,-0.38,-0.08,2.38,-5.19,-2.32,387,301,232,281,209
338,0.92,-0.38,-0.05,0.12,-3.97,-2.32,385,300,226,280,216
339,0.92,-0.38,-0.04,0.31,-2.14,-1.77,384,300,226,282,208
340,0.92,-0.39,-0.05,1.04,-2.08,-2.26,389,303,225,281,208
341,0.91,-0.39,-0.06,2.99,-2.5,-3.05,386,300,225,280,206
342,0.91,-0.39,-0.04,1.89,0.31,-2.32,386,301,227,281,208
343,0.92,-0.39,-0.05,0.12,-3.23,-2.87,386,300,224,281,207
344,0.92,-0.39,-0.03,-0.24,-2.81,-1.59,385,297,227,282,204
345,0.92,-0.39,-0.04,0.73,-2.26,-2.08,382,301,220,286,211
346,0.93,-0.39,-0.04,0.18,-2.81,-3.17,380,304,229,281,207
347,0.91,-0.38,-0.05,0.61,-4.09,-2.81,387,297,227,282,208
348,0.92,-0.39,-0.06,-0.73,-4.21,-1.83,387,304,228,284,207
349,0.92,-0.39,-0.05,0.61,-2.38,-2.32,385,305,226,285,208
350,0.92,-0.38,-0.06,0.98,-2.5,-3.11,387,302,228,283,208
351,0.91,-0.38,-0.06,0.31,-3.66,-0.85,387,302,226,284,209
352,0.91,-0.39,-0.05,0.0,-2.56,-2.2,387,301,229,284,207
353,0.92,-0.39,-0.04,-0.67,-2.56,-1.53,383,306,225,279,207
354,0.9,-0.4,-0.06,-0.43,-5.25,-1.83,389,305,229,282,209
355,0.92,-0.39,-0.06,3.17,-1.4,-3.85,387,305,223,285,206
356,0.92,-0.39,-0.06,0.61,-3.11,-1.28,384,315,226,285,211
357,0.93,-0.39,-0.05,-0.18,-3.23,-1.28,383,307,232,281,204
358,0.92,-0.39,-0.06,0.24,-3.11,-2.2,385,303,228,284,209
359,0.93,-0.4,-0.05,-0.73,-4.76,-2.14,387,302,229,281,210
360,0.92,-0.4,-0.04,0.67,-3.23,-2.44,383,302,227,289,206
361,0.92,-0.39,-0.05,0.37,-3.11,-2.99,385,303,227,281,213
362,1.1,-0.38,-0.18,2.69,-13.79,13.79,376,298,227,283,210
363,0.91,-0.39,-0.08,-6.47,-2.01,3.54,382,300,233,285,207
364,0.93,-0.38,-0.05,0.18,-2.75,-2.56,379,302,227,282,207
365,0.94,-0.37,-0.06,2.2,-2.26,-0.37,376,302,225,283,206
366,0.93,-0.37,-0.06,-0.67,-4.09,-0.55,379,299,229,282,208
367,0.94,-0.38,-0.08,-4.46,-8.12,-0.98,378,298,228,284,209
368,0.92,-0.38,-0.07,-1.22,-2.2,-1.95,377,318,225,282,209
369,0.93,-0.38,-0.08,-0.12,-2.01,-1.95,370,305,226,279,208
370,0.92,-0.39,-0.06,-1.04,-3.05,-0.73,372,316,227,282,208
371,0.9,-0.4,-0.09,-2.08,-1.16,-3.17,366,302,227,282,206
372,0.92,-0.39,-0.08,2.81,-1.28,-3.48,370,304,226,282,207
373,0.92,-0.4,-0.07,0.55,-1.53,-2.93,360,299,228,284,203
374,0.91,-0.4,-0.07,1.04,-2.62,-2.01,355,303,227,281,225
375,0.92,-0.41,-0.09,0.73,-3.3,-3.3,353,304,229,282,211
376,0.92,-0.39,-0.09,-0.55,-2.69,-2.81,353,305,229,283,208
377,0.92,-0.39,-0.08,-0.24,-3.36,-2.32,348,302,227,283,208
378,0.93,-0.39,-0.08,0.55,-3.23,-4.7,350,309,225,281,205
379,0.93,-0.4,-0.07,-1.16,-3.6,-0.55,354,300,227,284,210
380,0.92,-0.4,-0.08,-1.53,-4.33,-1.53,354,308,227,284,211
381,0.91,-0.38,-0.08,-1.4,0.73,-4.39,348,306,227,281,207
382,0.93,-0.38,-0.08,1.89,-3.54,-3.3,353,308,229,285,210
383,0.93,-0.39,-0.07,0.43,-2.93,-2.93,353,305,228,284,208
384,0.93,-0.38,-0.08,-0.12,-4.03,-1.95,352,303,227,280,205
385,0.91,-0.38,-0.07,0.98,-2.44,-2.56,355,305,227,283,209
386,0.92,-0.38,-0.08,0.49,-5.31,-1.71,356,307,228,291,210
387,0.89,-0.38,-0.1,3.48,-4.64,-0.18,368,302,225,279,211
388,0.92,-0.4,-0.1,2.81,-4.52,-2.5,365,303,233,284,209
389,0.91,-0.39,-0.13,11.84,-2.38,3.72,371,300,229,281,210
390,0.92,-0.42,-0.09,0.31,-2.69,-0.98,386,306,224,282,239
391,0.91,-0.41,-0.1,4.21,-6.65,-3.6,393,308,227,285,209
392,0.92,-0.4,-0.1,-0.06,-2.87,-1.95,392,308,227,281,208
393,0.9,-0.41,-0.11,1.53,-3.72,-2.75,391,307,229,283,211
394,0.96,-0.39,-0.09,5.13,-5.25,-6.59,391,303,227,282,207
395,0.9,-0.4,-0.07,3.3,-1.4,-4.03,390,301,228,284,210
396,0.93,-0.4,-0.04,0.12,-3.78,-2.93,388,305,227,283,209
397,0.92,-0.41,-0.05,-0.55,-3.72,-2.26,387,308,230,282,211
398,0.9,-0.4,-0.04,4.7,-4.46,-3.23,384,310,231,284,207
399,0.92,-0.4,-0.05,0.61,-1.77,-3.42,385,302,232,283,209
400,0.93,-0.4,-0.08,-0.31,-5.25,-3.78,382,308,229,285,210
401,0.9,-0.42,-0.05,2.38,-2.81,-2.81,383,310,225,282,211
402,0.92,-0.42,-0.05,-0.49,-3.66,-3.11,387,309,229,283,208
403,0.93,-0.43,-0.06,-0.37,-4.21,-1.83,386,302,230,284,211
404,0.91,-0.42,-0.05,-0.12,-2.38,-2.69,385,307,226,281,208
405,0.92,-0.41,-0.06,-0.55,-5.62,-1.71,381,307,227,282,208
406,0.91,-0.41,-0.07,-0.98,-3.66,-1.83,385,308,227,285,208
407,0.91,-0.41,-0.05,1.4,-1.71,-1.71,385,311,230,281,210
408,0.9,-0.41,-0.06,0.18,-3.17,-2.81,387,312,228,284,209
409,0.91,-0.43,-0.07,-0.31,-2.32,0.18,383,309,227,283,210
410,0.92,-0.43,-0.06,-1.1,-0.18,-3.72,385,318,232,284,220
411,0.91,-0.42,-0.06,1.71,-1.22,-3.23,384,311,232,281,208
412,0.92,-0.41,-0.05,1.89,-2.69,-2.62,386,310,229,284,208
413,0.9,-0.41,-0.03,-1.28,-2.87,-2.01,387,304,228,284,221
414,0.89,-0.41,-0.05,-1.4,-3.72,-1.95,384,311,231,285,211
415,0.9,-0.42,-0.09,0.37,-2.32,-4.46,382,312,227,284,210
416,0.9,-0.42,-0.05,2.81,-2.75,-1.83,388,306,226,286,238
417,0.92,-0.41,-0.06,0.67,-2.87,-2.69,386,306,232,282,211
418,0.91,-0.41,-0.06,0.12,-2.44,-2.75,389,312,228,282,207
419,0.9,-0.41,-0.04,-0.31,-2.08,-2.99,387,308,228,284,210
420,0.92,-0.42,-0.06,-1.04,-4.09,-2.26,384,309,231,287,209
421,0.9,-0.42,-0.05,-1.46,-3.91,-1.34,383,305,230,286,210
422,0.91,-0.41,-0.06,0.31,-4.94,-1.77,381,307,228,283,206
423,0.92,-0.41,-0.04,-4.09,-3.48,6.1,379,309,229,294,211
424,0.92,-0.41,-0.05,-0.43,-3.72,0.0,384,311,231,283,210
425,0.9,-0.42,-0.06,-1.16,-3.48,-1.71,385,313,232,295,209
426,0.91,-0.42,-0.05,-1.1,-4.33,-1.71,386,303,230,285,212
427,0.91,-0.42,-0.06,0.73,-2.44,-1.95,382,308,228,288,209
428,0.91,-0.42,-0.04,-0.55,-3.66,-2.93,384,311,231,283,209
429,0.91,-0.42,-0.05,0.79,-3.42,-3.05,384,305,230,294,210
430,0.92,-0.42,-0.06,0.12,-2.32,-2.26,384,309,231,287,210
431,0.91,-0.42,-0.04,0.43,-2.32,-1.95,384,311,228,284,211
432,0.92,-0.42,-0.06,0.18,-2.62,-2.08,384,309,229,287,211
433,0.9,-0.42,-0.04,-0.06,-3.05,-1.28,383,309,230,284,210
434,0.91,-0.43,-0.04,-0.24,-1.59,-1.95,381,306,232,284,209
435,0.91,-0.42,-0.06,0.55,-3.17,-2.01,381,309,230,286,213
436,0.91,-0.42,-0.05,0.12,-2.87,-2.32,382,312,228,283,211
437,0.91,-0.43,-0.04,-0.31,-3.3,-2.01,378,311,230,284,222
438,0.91,-0.42,-0.05,2.26,-2.14,-2.99,384,310,232,285,207
439,0.9,-0.42,-0.05,2.38,-2.32,-2.62,383,310,233,287,211
440,0.9,-0.43,-0.06,1.65,-2.5,-4.58,379,312,229,286,211
441,0.9,-0.42,-0.07,0.92,-3.3,-2.44,382,311,230,286,210
442,0.91,-0.42,-0.05,1.16,-2.08,-2.2,384,309,230,282,207
443,0.9,-0.42,-0.05,-0.43,-3.17,-1.77,387,313,231,285,208
444,0.91,-0.42,-0.06,0.37,-4.33,-2.69,383,305,229,285,211
445,0.9,-0.42,-0.06,0.24,-3.11,-3.11,378,309,229,287,211
446,0.91,-0.42,-0.05,-0.73,-3.78,-1.83,380,312,230,286,209
447,0.92,-0.42,-0.06,1.34,-2.56,-3.66,379,317,227,284,208
448,0.91,-0.42,-0.05,1.4,-2.69,-2.01,383,305,230,283,212
449,0.92,-0.42,-0.07,-0.49,-2.5,-2.99,379,309,232,284,211
450,0.91,-0.43,-0.05,3.05,-1.34,-2.26,385,310,233,283,214
451,0.91,-0.42,-0.06,-1.1,-3.17,-1.89,380,307,231,286,208
452,0.9,-0.42,-0.07,0.49,-2.75,-3.72,384,310,230,281,210
453,0.91,-0.42,-0.06,0.0,-3.11,-2.75,383,314,229,288,209
454,0.9,-0.42,-0.04,-2.2,-3.36,-1.83,382,313,229,287,209
455,0.9,-0.42,-0.06,1.34,-2.32,-1.83,378,311,232,284,208
456,0.91,-0.42,-0.06,-0.85,-1.77,-2.87,380,312,228,281,208
457,0.9,-0.42,-0.07,0.31,-2.56,-4.09,383,311,227,284,209
458,0.9,-0.42,-0.06,-0.24,-2.01,-2.14,385,310,233,284,209
459,0.91,-0.42,-0.05,0.18,-2.87,-2.38,383,315,233,291,213
460,0.91,-0.41,-0.06,0.12,-1.65,-2.32,377,312,231,290,209
461,0.91,-0.43,-0.06,-1.4,-4.64,-1.95,377,312,233,288,211
462,0.89,-0.42,-0.05,-0.24,-2.87,-1.46,379,312,229,284,209
463,0.9,-0.42,-0.07,0.18,-3.42,-3.05,379,312,230,284,211
464,0.9,-0.42,-0.05,0.85,-2.62,-2.14,381,316,233,282,205
465,0.89,-0.42,-0.04,0.24,-2.87,-3.05,376,313,232,283,209
466,0.9,-0.42,-0.06,0.31,-3.11,-2.81,381,318,230,284,210
467,0.91,-0.42,-0.07,-1.4,-3.05,-2.81,378,312,235,285,210
468,0.91,-0.42,-0.06,-0.31,-3.3,-2.32,379,315,230,283,209
469,0.91,-0.42,-0.06,0.92,-2.26,-2.56,375,317,233,284,205
470,0.9,-0.42,-0.06,0.43,-3.23,-1.53,381,317,233,287,209
471,0.9,-0.42,-0.06,0.31,-2.81,-2.32,377,314,230,286,208
472,0.9,-0.42,-0.05,0.55,-3.23,-2.38,380,317,231,285,212
473,0.91,-0.42,-0.04,-0.67,-3.3,-2.75,376,310,232,286,208
474,0.9,-0.43,-0.04,0.06,-3.11,-1.65,373,312,237,284,210
475,0.91,-0.42,-0.05,-0.67,-2.32,-3.05,374,321,232,285,210
476,0.91,-0.42,-0.06,0.31,-3.23,-2.2,378,317,235,292,211
477,0.91,-0.42,-0.06,0.24,-3.23,-1.46,384,312,230,280,211
478,0.91,-0.42,-0.06,0.18,-2.38,-2.69,378,316,234,289,210
479,0.91,-0.42,-0.08,0.43,-3.3,-2.5,376,313,229,284,207
480,0.9,-0.42,-0.06,1.16,-2.14,-2.69,375,314,231,283,210
481,0.92,-0.42,-0.06,1.04,-2.62,-3.11,376,312,236,286,212
482,0.9,-0.42,-0.05,-0.37,-4.7,-1.53,378,309,230,284,211
483,0.91,-0.42,-0.06,0.55,-2.62,-2.99,377,315,235,283,209
484,0.9,-0.41,-0.07,0.67,-3.48,-1.95,369,316,234,286,210
485,0.91,-0.41,-0.06,0.18,-2.93,-2.44,368,314,232,287,208
486,0.91,-0.41,-0.04,0.0,-3.66,-1.04,374,311,232,283,210
487,0.92,-0.42,-0.07,2.62,-6.47,-1.46,374,311,235,285,210
488,0.9,-0.43,-0.02,-2.87,0.67,-1.46,378,313,230,283,212
489,0.9,-0.44,-0.06,-2.08,-1.59,-2.87,385,311,231,286,213
490,0.92,-0.43,-0.07,-3.17,-16.66,-7.26,388,312,232,285,211
491,0.92,-0.38,-0.13,-7.57,-4.64,-8.24,390,311,232,284,213
492,0.92,-0.37,-0.14,5.31,2.99,-2.38,386,314,234,283,212
493,0.93,-0.37,-0.11,-5.07,-4.09,-1.04,391,313,245,282,213
494,0.91,-0.38,-0.11,-5.19,-5.74,-0.37,391,313,233,286,209
495,0.94,-0.38,-0.05,-6.9,-6.35,-0.73,385,315,233,284,214
496,0.92,-0.38,-0.13,-0.12,-4.03,-0.98,386,313,235,287,213
497,0.93,-0.38,-0.13,3.3,-3.36,-2.38,388,312,235,283,214
498,0.92,-0.38,-0.12,1.59,-3.11,-2.62,385,316,235,295,211
499,0.91,-0.38,-0.12,0.55,-2.32,-2.44,387,314,234,285,210
500,0.91,-0.38,-0.13,-0.55,-3.72,-1.34,385,316,235,285,209
501,0.91,-0.38,-0.12,-0.24,-0.79,-2.69,387,314,233,284,208
502,0.96,-0.29,-0.04,2.62,-4.82,0.55,401,295,222,271,196
503,0.94,-0.3,-0.06,0.18,-4.82,-2.62,403,295,220,271,194
504,0.97,-0.31,-0.06,-0.61,-2.87,-3.66,395,287,218,272,195
505,0.95,-0.31,-0.04,0.61,-0.61,-0.55,396,292,221,270,194
506,0.91,-0.33,-0.03,2.38,-3.85,-5.74,401,289,218,269,197
507,0.93,-0.3,-0.09,-4.94,-3.42,0.85,400,289,218,271,197
508,0.92,-0.31,-0.09,4.27,-1.22,-2.14,405,288,220,272,199
509,0.98,-0.31,-0.12,2.44,-5.25,-3.17,402,294,225,272,199
510,0.95,-0.32,-0.1,0.61,-1.83,-1.65,401,298,217,273,196
511,0.95,-0.33,-0.11,-0.55,-3.11,-0.55,403,293,217,274,200
512,0.95,-0.33,-0.1,1.89,0.06,-2.99,406,291,224,272,198
513,0.94,-0.33,-0.12,4.94,-3.05,-2.26,410,295,223,275,197
514,0.93,-0.35,-0.1,0.67,-0.73,-3.3,409,289,222,270,199
515,0.94,-0.35,-0.09,-2.69,-2.93,-2.2,408,291,222,270,198
516,0.93,-0.34,-0.11,-0.06,-2.62,-2.75,408,300,219,275,197
517,0.94,-0.34,-0.1,-0.24,-3.48,-1.71,409,290,223,272,198
518,0.93,-0.34,-0.12,1.22,-4.15,-1.95,407,298,222,272,200
519,0.93,-0.34,-0.12,0.61,-1.95,-2.56,410,293,217,275,200
520,0.92,-0.35,-0.12,-0.73,-4.39,-2.81,411,289,219,274,197
521,0.93,-0.34,-0.13,2.14,-2.26,-2.81,408,297,219,274,198
522,0.94,-0.34,-0.12,0.79,-3.3,-2.38,410,291,220,275,229
523,0.92,-0.34,-0.13,0.37,-2.56,-2.26,411,294,219,273,200
524,0.93,-0.34,-0.12,0.37,-2.62,-2.69,410,301,222,281,197
525,0.93,-0.34,-0.13,0.06,-3.66,-2.38,410,295,219,276,201
526,0.93,-0.34,-0.12,0.73,-2.08,-2.69,410,293,219,275,200
527,0.93,-0.34,-0.12,0.85,-2.5,-2.75,410,300,221,275,198
528,0.93,-0.34,-0.12,0.92,-2.75,-1.95,412,294,218,275,198
529,0.93,-0.34,-0.13,1.28,-1.71,-2.26,410,292,223,270,199
530,0.94,-0.34,-0.12,-0.06,-2.87,-2.44,409,296,223,273,201
531,0.93,-0.33,-0.12,2.26,-2.44,-2.69,409,295,222,272,199
532,0.93,-0.34,-0.13,0.49,-5.0,-3.11,409,295,222,276,199
533,0.94,-0.35,-0.11,0.31,-3.42,-2.32,410,300,220,274,198
534,0.93,-0.34,-0.13,0.06,-3.42,-1.89,407,300,219,274,201
535,0.93,-0.35,-0.12,0.73,-2.2,-2.56,410,301,223,276,199
536,0.95,-0.34,-0.13,0.18,-3.23,-3.85,410,294,221,275,199
537,0.93,-0.34,-0.12,0.79,-2.62,-2.87,409,299,215,275,198
538,0.93,-0.34,-0.12,0.43,-3.66,-2.81,410,291,223,276,202
539,0.93,-0.34,-0.13,0.79,-1.89,-3.11,410,294,219,271,203
540,0.93,-0.34,-0.13,0.61,-2.75,-2.44,413,299,221,273,202
541,0.93,-0.34,-0.13,-0.06,-2.87,-2.26,405,299,221,274,199
542,0.93,-0.34,-0.12,0.31,-2.5,-2.38,409,295,223,281,200
543,0.93,-0.34,-0.12,0.67,-2.2,-2.26,410,298,221,275,201
544,0.91,-0.34,-0.11,-0.18,-2.01,-1.28,410,296,222,281,199
545,0.93,-0.34,-0.11,0.73,-2.26,-2.99,411,294,223,276,200
546,0.94,-0.34,-0.12,0.43,-2.32,-2.99,408,296,222,274,198
547,0.92,-0.34,-0.11,-1.1,-3.36,-2.62,409,299,223,276,201
548,0.94,-0.34,-0.11,0.18,-2.56,-2.26,409,294,222,283,202
549,0.93,-0.34,-0.13,-0.12,-2.32,-2.5,409,299,221,275,203
550,0.93,-0.33,-0.11,-0.31,-1.83,-2.32,409,299,221,275,200
551,0.91,-0.35,-0.1,-1.16,-5.68,4.09,401,297,222,278,203
552,0.93,-0.38,-0.11,3.66,-3.85,0.79,397,312,224,275,201
553,0.94,-0.36,-0.14,-0.61,-3.78,-4.82,400,303,221,277,203
554,0.92,-0.36,-0.12,0.37,-2.56,-2.99,400,299,227,281,202
555,0.93,-0.35,-0.14,-0.12,-2.69,-4.15,404,300,220,274,202
556,0.93,-0.35,-0.12,0.06,-3.23,-2.08,402,294,222,278,202
557,0.93,-0.36,-0.13,1.04,-2.81,-3.23,402,300,226,275,202
558,0.92,-0.35,-0.12,-0.24,-3.78,-2.44,393,298,224,278,197
559,0.93,-0.34,-0.13,1.34,-2.01,-2.75,402,293,222,273,202
560,0.92,-0.35,-0.12,0.24,-1.83,-2.14,401,303,221,276,203
561,0.93,-0.35,-0.13,0.61,-2.62,-2.56,406,310,224,275,199
562,0.94,-0.35,-0.12,0.18,-3.17,-2.26,403,302,224,276,201
563,0.94,-0.34,-0.12,0.12,-2.99,-2.75,403,298,222,275,200
564,0.93,-0.36,-0.09,-4.09,-2.08,-3.11,400,303,221,277,202
565,0.93,-0.34,-0.15,-2.2,-10.25,-5.55,405,300,223,276,203
566,0.96,-0.33,-0.15,-4.39,-9.4,-8.0,404,300,224,278,201
567,0.93,-0.35,-0.16,-0.31,-3.91,-2.2,394,304,232,274,200
568,0.83,-0.37,-0.15,-5.49,-6.16,-8.54,400,300,225,278,202
569,0.93,-0.34,-0.15,1.16,-5.49,-5.25,397,304,226,275,202
570,0.97,-0.32,-0.15,-4.88,-8.97,-1.16,402,295,223,274,202
571,0.9,-0.33,-0.18,-11.72,-9.28,-9.09,396,298,223,276,200
572,0.95,-0.33,-0.14,1.46,-5.19,-0.79,395,295,225,276,205
573,0.94,-0.33,-0.14,-2.5,-4.15,-2.38,391,300,224,276,203
574,0.93,-0.33,-0.16,-1.1,-2.5,-2.44,393,299,226,280,202
575,0.95,-0.34,-0.15,2.81,-1.4,-1.22,395,299,223,284,203
576,0.95,-0.35,-0.14,-1.28,-2.75,-4.94,390,298,225,276,202
577,0.93,-0.35,-0.13,-1.71,-3.42,-2.62,388,301,222,277,201
578,0.97,-0.34,-0.14,-0.61,-1.77,-5.25,391,294,224,276,201
579,0.94,-0.34,-0.13,1.53,-4.64,-0.67,393,298,225,277,199
580,0.97,-0.31,-0.15,-3.36,-5.13,-3.97,387,297,227,277,202
581,0.93,-0.35,-0.12,-0.61,-1.89,-4.03,384,301,220,276,201
582,0.94,-0.35,-0.14,1.22,-5.07,-2.56,386,300,222,278,199
583,0.9,-0.32,-0.15,-0.98,0.79,-8.79,386,303,232,272,201
584,0.91,-0.35,-0.12,5.8,1.53,-0.18,386,301,225,279,211
585,0.95,-0.33,-0.14,1.46,-6.47,-3.05,383,307,230,278,203
586,0.95,-0.34,-0.16,1.89,-3.54,-1.4,381,302,223,279,201
587,0.92,-0.34,-0.13,0.06,-3.11,-2.75,380,296,222,278,201
588,0.92,-0.34,-0.14,-1.65,-1.89,-3.05,381,300,223,278,201
589,0.94,-0.34,-0.15,-1.4,-3.97,-2.2,377,302,225,273,199
590,0.94,-0.32,-0.15,0.18,-2.87,-3.48,379,299,222,279,202
591,0.95,-0.32,-0.15,0.67,-1.95,-3.05,380,300,225,275,201
592,0.93,-0.33,-0.12,-0.12,-1.77,-1.71,379,297,225,278,201
593,0.92,-0.33,-0.16,-0.37,-3.97,-2.2,381,301,225,275,201
594,0.95,-0.33,-0.13,2.08,-2.2,-2.01,377,303,225,276,204
595,0.93,-0.34,-0.15,2.38,-2.2,1.65,377,304,221,276,201
596,0.9,-0.36,-0.17,4.46,-15.38,-2.87,376,300,226,284,203
597,0.91,-0.35,-0.15,-2.69,-4.39,-1.34,381,304,223,279,203
598,0.88,-0.37,-0.16,-2.69,-6.29,-0.67,376,297,221,278,201
599,0.92,-0.37,-0.15,-0.18,-2.14,-2.32,371,304,225,277,201
600,0.89,-0.36,-0.15,-3.05,0.49,-8.91,374,306,225,278,203
601,0.91,-0.36,-0.13,1.22,-1.59,-1.16,371,303,224,279,242
602,0.91,-0.35,-0.18,5.37,-3.48,-3.05,381,303,223,277,202
603,0.92,-0.35,-0.17,-0.98,-3.36,-2.5,388,301,224,277,201
604,0.9,-0.37,-0.16,0.79,-3.23,-4.82,388,304,227,274,198
605,0.9,-0.35,-0.17,0.06,0.92,-6.53,388,305,223,278,202
606,0.9,-0.35,-0.18,-0.37,-7.39,-2.5,390,302,227,278,199
607,0.92,-0.34,-0.19,1.89,-4.33,0.79,386,305,227,280,203
608,0.92,-0.34,-0.17,2.08,-1.22,-2.01,387,305,224,280,203
609,0.92,-0.35,-0.19,-1.4,-3.11,-2.26,390,302,227,278,201
610,0.92,-0.34,-0.17,0.98,-0.55,-2.69,390,304,224,282,204
611,0.92,-0.32,-0.18,-0.98,-4.76,-3.3,386,302,225,278,203
612,0.92,-0.35,-0.17,-0.24,2.2,-6.16,389,298,226,280,200
613,0.91,-0.36,-0.13,1.59,-3.48,-9.09,387,299,224,280,204
614,0.93,-0.33,-0.1,-2.69,-2.56,-14.71,386,301,224,278,205
615,0.94,-0.29,-0.12,4.39,8.91,0.61,386,300,226,277,202
616,0.95,-0.3,-0.08,0.85,-8.73,-4.27,387,301,223,279,202
617,0.95,-0.29,-0.11,0.06,-6.65,-3.85,386,303,226,276,201
618,0.95,-0.29,-0.12,0.12,-2.01,-2.14,387,298,226,279,202
619,0.95,-0.29,-0.14,0.31,-3.42,-2.26,388,298,221,279,203
620,0.96,-0.29,-0.17,1.34,-6.84,-1.95,389,304,221,280,203
621,0.95,-0.3,-0.15,0.79,-2.93,-2.44,389,309,225,281,205
622,0.95,-0.31,-0.13,0.12,-5.49,-1.53,392,304,226,278,204
623,0.94,-0.32,-0.12,0.92,-3.66,-2.81,389,298,223,274,203
624,0.94,-0.31,-0.14,-0.92,-3.54,-2.5,397,305,226,281,204
625,0.94,-0.31,-0.12,0.24,-4.33,-2.69,391,300,224,280,214
626,0.93,-0.31,-0.12,0.98,-1.77,-2.93,394,312,224,281,200
627,0.94,-0.31,-0.13,0.06,-1.77,-2.56,390,296,228,279,202
628,0.94,-0.3,-0.14,0.98,-3.11,-2.5,393,297,226,279,205
629,0.95,-0.3,-0.15,-0.06,-3.17,-2.44,391,300,225,278,207
630,0.94,-0.3,-0.14,0.98,-4.52,-2.56,390,306,228,280,202
631,0.95,-0.31,-0.15,0.37,-3.42,-2.01,388,304,226,281,203
632,0.94,-0.3,-0.14,0.79,-3.17,-3.17,392,303,227,287,203
633,0.92,-0.3,-0.14,0.31,-0.67,-5.31,388,300,227,276,203
634,0.94,-0.3,-0.13,-0.06,-3.54,-2.69,389,301,227,277,202
635,0.94,-0.3,-0.14,-0.49,-4.03,-2.01,391,299,227,279,203
636,0.94,-0.3,-0.14,0.67,-1.89,-2.62,391,306,227,282,206
637,0.95,-0.31,-0.14,-0.18,-2.69,-2.2,392,300,228,280,203
638,0.95,-0.31,-0.14,2.5,-3.85,-2.2,392,300,227,276,203
639,0.94,-0.31,-0.13,-0.18,-3.23,-2.08,390,305,226,277,205
640,0.94,-0.31,-0.13,0.49,-1.71,-1.4,392,305,227,280,204
641,0.95,-0.31,-0.14,1.1,-2.75,-3.11,392,302,224,278,203
642,0.94,-0.31,-0.15,-0.12,-2.75,-2.14,391,301,225,277,203
643,0.93,-0.31,-0.14,0.43,-2.75,-2.2,389,303,223,282,204
644,0.94,-0.3,-0.14,-0.49,-3.11,-2.38,392,304,226,278,203
645,0.94,-0.33,-0.15,9.77,-1.53,11.66,393,302,225,275,204
646,0.79,-0.42,-0.11,3.17,-10.99,1.1,391,301,227,279,200
647,0.93,-0.45,-0.16,-4.33,-1.16,-6.84,389,303,223,281,218
648,0.88,-0.45,-0.16,1.34,-0.61,-0.67,386,300,228,278,205
649,0.85,-0.46,-0.16,-0.24,0.06,-5.68,390,303,227,277,205
650,0.87,-0.44,-0.13,0.61,-5.31,-5.86,389,302,225,280,200
651,0.93,-0.4,-0.14,-6.47,-3.05,-13.85,385,301,234,281,200
652,0.98,-0.3,-0.18,-0.43,-5.13,-18.37,387,302,228,281,205
653,0.92,-0.33,-0.2,4.64,3.42,-1.95,389,303,228,278,203
654,0.91,-0.33,-0.18,1.83,-2.08,-2.5,388,300,227,279,203
655,0.92,-0.34,-0.17,1.53,-2.93,-1.95,386,305,230,281,205
656,0.94,-0.33,-0.16,0.67,-3.17,-2.32,389,297,224,276,204
657,0.92,-0.33,-0.17,2.2,0.24,-2.01,390,301,229,281,201
658,0.93,-0.33,-0.17,0.12,-3.23,-2.38,388,298,224,281,205
659,0.94,-0.33,-0.16,2.56,-1.59,-2.38,389,305,228,276,203
660,0.92,-0.33,-0.17,-0.55,-2.99,-2.44,389,306,230,280,206
661,0.93,-0.34,-0.17,1.1,-3.54,-1.89,389,302,226,279,203
662,0.93,-0.34,-0.17,0.67,-3.3,-2.56,388,303,236,292,202
663,0.92,-0.34,-0.16,0.67,-3.72,-2.93,390,314,225,281,204
664,0.93,-0.34,-0.18,0.43,-2.56,-2.69,388,305,225,278,206
665,0.93,-0.33,-0.17,1.46,-3.36,-3.05,386,300,226,278,201
666,0.92,-0.33,-0.17,1.1,-3.11,-2.81,385,302,225,279,200
667,0.93,-0.34,-0.17,0.06,-2.81,-2.44,389,306,227,280,203
668,0.93,-0.34,-0.17,1.53,-2.44,-3.05,387,307,226,280,203
669,0.92,-0.33,-0.17,0.18,-2.69,-2.44,389,307,228,279,202
670,0.92,-0.34,-0.18,0.55,-3.48,-2.38,384,302,226,272,205
671,0.92,-0.35,-0.18,1.65,-4.64,-2.69,392,297,241,279,205
672,0.92,-0.34,-0.18,0.73,-2.08,-3.36,390,302,227,280,206
673,0.92,-0.34,-0.17,-1.34,-3.97,-2.62,391,306,224,284,207
674,0.92,-0.34,-0.18,0.92,-1.59,-2.62,385,302,223,278,204
675,0.91,-0.34,-0.17,-0.24,-1.1,-2.38,386,303,226,279,202
676,0.93,-0.34,-0.17,1.1,-3.85,-1.89,390,302,238,280,205
677,0.92,-0.34,-0.17,0.06,-2.62,-1.89,390,304,227,281,212
678,0.93,-0.34,-0.18,0.0,-4.03,-4.03,391,308,225,279,205
679,0.92,-0.34,-0.18,-0.98,-3.48,-2.62,393,299,226,282,204
680,0.93,-0.34,-0.16,0.24,-4.03,-2.01,388,303,225,281,203
681,0.92,-0.35,-0.18,0.79,-2.81,-2.38,390,302,224,280,204
682,0.93,-0.35,-0.17,0.06,-2.99,-2.01,392,306,225,279,203
683,0.92,-0.35,-0.17,0.98,-2.26,-2.2,393,306,226,281,200
684,0.92,-0.35,-0.17,0.55,-2.26,-3.05,391,306,229,281,206
685,0.92,-0.35,-0.17,-0.98,-3.23,-2.5,391,306,223,283,205
686,0.93,-0.35,-0.16,0.06,-4.33,-1.77,391,306,225,279,206
687,0.92,-0.36,-0.17,0.0,-3.36,-2.75,393,305,225,282,207
688,0.93,-0.35,-0.16,1.34,-2.01,-3.11,389,303,229,279,204
689,0.93,-0.34,-0.17,0.92,-3.48,-3.42,394,303,225,279,207
690,0.92,-0.35,-0.17,0.37,-2.69,-2.14,396,306,229,282,202
691,0.92,-0.35,-0.17,0.67,-2.38,-2.01,389,303,226,280,206
692,0.92,-0.36,-0.15,-2.14,-4.27,-1.04,395,302,228,281,244
693,0.92,-0.36,-0.17,-0.06,-4.15,-1.95,392,303,229,280,205
694,0.92,-0.36,-0.17,-0.06,-3.23,-2.93,391,302,226,281,206
695,0.92,-0.36,-0.17,-0.92,-4.03,-2.5,393,302,224,282,205
696,0.92,-0.36,-0.18,0.12,-2.93,-2.81,384,307,226,281,207
697,0.92,-0.36,-0.18,0.18,-3.91,-2.75,393,305,226,281,207
698,0.92,-0.36,-0.18,0.85,-2.5,-2.38,390,300,224,282,204
699,0.92,-0.36,-0.18,0.92,-2.32,-2.38,392,306,232,280,205
700,0.92,-0.36,-0.19,-0.43,-3.11,-2.08,391,305,226,277,202
701,0.91,-0.37,-0.18,0.12,-3.23,-1.83,394,306,223,279,205
702,0.91,-0.36,-0.19,0.43,-4.21,-2.56,393,306,225,281,207
703,0.92,-0.37,-0.17,1.1,-2.69,-3.05,393,305,226,282,206
704,0.92,-0.37,-0.18,0.06,-2.14,-2.87,395,304,227,278,205
705,0.92,-0.36,-0.18,0.18,-2.69,-2.2,390,306,224,286,207
706,0.93,-0.36,-0.18,0.37,-3.48,-1.71,395,307,228,280,213
707,0.92,-0.37,-0.18,0.12,-2.26,-2.01,393,306,229,278,205
708,0.91,-0.37,-0.18,-0.18,-3.11,-1.65,390,308,227,283,204
709,0.91,-0.37,-0.19,-0.12,-4.09,-2.38,391,307,226,279,207
710,0.92,-0.37,-0.17,-1.34,-3.42,-0.98,391,304,222,279,212
711,0.91,-0.37,-0.19,-0.73,-3.6,-1.95,386,305,226,284,203
712,0.91,-0.37,-0.18,-0.61,-2.99,-2.81,394,307,226,278,206
713,0.92,-0.37,-0.18,-0.31,-4.33,-1.83,392,303,240,281,205
714,0.91,-0.37,-0.19,-0.12,-3.48,-1.71,395,306,227,280,205
715,0.91,-0.36,-0.19,0.61,-1.16,-2.32,394,306,228,282,200
716,0.92,-0.37,-0.18,0.98,-7.81,-3.11,388,300,227,281,205
717,0.91,-0.38,-0.18,0.85,-2.62,-2.62,403,303,228,281,204
718,0.91,-0.37,-0.18,0.12,-3.05,-2.81,392,306,229,280,208
719,0.91,-0.37,-0.18,0.85,-2.2,-2.93,392,299,226,283,208
720,0.91,-0.37,-0.18,0.24,-3.3,-2.5,392,304,224,278,206
721,0.91,-0.37,-0.18,0.85,-2.2,-2.32,389,304,233,280,206
722,0.91,-0.37,-0.19,0.37,-2.99,-1.77,391,305,224,282,207
723,0.9,-0.38,-0.17,0.31,-2.62,-1.53,391,304,223,283,206
724,0.9,-0.38,-0.18,0.37,-2.32,-2.01,391,303,226,277,205
725,0.9,-0.38,-0.19,0.79,-2.56,-1.71,392,302,226,281,203
726,0.9,-0.38,-0.2,1.59,-3.23,-2.56,388,303,225,281,202
727,0.9,-0.39,-0.19,-0.49,-4.46,-2.81,390,309,226,282,202
728,0.91,-0.38,-0.18,0.67,-2.5,-2.87,392,305,224,280,205
729,0.91,-0.39,-0.19,0.0,-4.15,-1.83,392,307,227,281,206
730,0.91,-0.39,-0.18,-0.06,-3.3,-2.2,391,306,221,279,205
731,0.9,-0.39,-0.19,0.98,-2.87,-2.32,392,300,226,277,207
732,0.9,-0.39,-0.18,0.37,-2.62,-2.2,388,303,226,283,205
733,0.9,-0.38,-0.18,0.92,-3.17,-2.2,391,298,226,286,205
734,0.89,-0.39,-0.19,-0.24,-3.11,-1.83,393,306,223,275,207
735,0.9,-0.39,-0.19,0.55,-2.87,-3.11,396,310,226,280,203
736,0.9,-0.38,-0.19,0.98,-3.3,-3.3,392,304,226,281,214
737,0.9,-0.38,-0.19,0.73,-3.48,-1.89,391,305,224,279,207
738,0.9,-0.39,-0.18,-0.06,-2.5,-2.08,394,308,229,281,206
739,0.9,-0.39,-0.18,0.12,-2.38,-2.01,388,304,226,282,207
740,0.9,-0.39,-0.19,0.55,-3.3,-2.56,394,302,226,280,205
741,0.9,-0.39,-0.18,1.53,-2.75,-2.5,391,303,228,283,205
742,0.9,-0.39,-0.19,0.67,-3.3,-2.08,391,305,227,285,203
743,0.9,-0.39,-0.17,0.06,-0.85,-3.23,389,303,224,280,205
744,0.9,-0.39,-0.18,0.18,-2.26,-2.69,392,304,224,286,208
745,0.91,-0.39,-0.18,-0.43,-2.87,-1.83,391,304,228,279,208
746,0.9,-0.39,-0.18,0.61,-2.5,-2.01,390,306,226,280,206
747,0.89,-0.39,-0.19,0.73,-2.93,-1.71,390,308,228,283,209
748,0.9,-0.4,-0.18,0.18,-2.08,-2.08,394,305,224,280,207
749,0.89,-0.39,-0.19,-0.06,-2.81,-2.32,391,309,229,283,214
750,0.9,-0.4,-0.19,-0.37,-3.6,-2.08,391,307,227,280,207
751,0.9,-0.39,-0.21,1.1,-2.62,-2.81,392,305,228,283,204
752,0.9,-0.39,-0.19,0.31,-3.05,-3.23,393,320,228,284,208
753,0.91,-0.39,-0.2,0.55,-2.87,-3.23,388,307,224,281,206
754,0.9,-0.39,-0.2,0.18,-2.93,-1.53,389,304,223,283,207
755,0.9,-0.38,-0.2,1.1,-2.81,-2.62,390,299,226,284,205
756,0.9,-0.39,-0.2,1.46,-2.99,-2.75,387,305,226,279,205
757,0.9,-0.39,-0.19,0.61,-1.59,-2.69,393,309,227,281,205
758,0.9,-0.39,-0.18,0.55,-2.81,-2.32,393,301,225,283,208
759,0.9,-0.4,-0.18,-0.31,-3.3,-3.42,392,300,226,280,209
760,0.91,-0.38,-0.18,0.67,-2.56,-3.11,391,306,226,280,206
761,0.9,-0.38,-0.19,1.65,-2.93,-3.17,391,305,226,281,198
762,0.9,-0.38,-0.19,-0.67,-3.23,-2.44,389,308,226,284,205
763,0.9,-0.39,-0.2,1.71,-1.83,-1.89,389,303,229,280,208
764,0.91,-0.38,-0.19,-1.53,-2.01,-3.11,391,307,228,283,204
765,0.9,-0.39,-0.18,-0.98,-0.61,-0.73,387,307,228,279,206
766,0.91,-0.38,-0.18,1.65,-1.95,-1.71,390,308,229,280,207
767,0.89,-0.39,-0.18,2.5,-2.32,-1.95,392,309,229,280,229
768,0.91,-0.38,-0.21,0.55,-1.89,-4.27,394,304,230,283,212
769,0.88,-0.4,-0.17,2.01,-1.71,-2.56,389,300,226,281,206
770,0.88,-0.4,-0.18,-4.15,-3.97,-6.47,390,299,229,293,205
771,0.9,-0.38,-0.19,-1.65,-2.99,-2.93,394,303,229,282,208
772,0.9,-0.38,-0.19,0.18,-3.78,-4.46,388,301,226,281,207
773,0.89,-0.39,-0.19,0.49,-4.39,-0.98,391,310,225,281,203
774,0.89,-0.39,-0.2,-0.24,-0.43,-4.64,393,304,229,279,236
775,0.91,-0.38,-0.17,0.79,-2.81,-2.69,387,305,228,279,207
776,0.9,-0.38,-0.18,2.56,-3.23,-3.97,391,307,227,278,206
777,0.9,-0.35,-0.18,2.44,-3.6,-8.85,391,302,227,283,207
778,0.91,-0.35,-0.1,-9.22,-11.54,-1.71,389,300,226,281,205
779,0.96,-0.33,-0.11,5.98,-10.56,-2.56,389,305,228,280,207
780,0.92,-0.36,-0.13,-5.07,-3.72,-1.34,390,308,240,277,207
781,0.97,-0.33,-0.13,15.01,4.33,-6.59,386,308,226,285,208
782,0.96,-0.28,-0.13,0.55,1.53,-4.88,389,304,227,280,204
783,0.91,-0.31,-0.1,-1.22,-0.79,-6.53,392,304,226,284,208
784,0.95,-0.29,-0.12,0.55,-2.75,-3.72,389,307,225,280,203
785,0.94,-0.29,-0.11,-1.28,-5.43,0.43,387,298,229,281,208
786,0.97,-0.29,-0.09,1.04,-2.75,-1.59,390,305,229,280,206
787,0.96,-0.27,-0.1,2.14,-1.53,-1.77,387,308,229,281,205
788,0.96,-0.27,-0.1,2.08,-3.42,-2.38,389,309,229,284,206
789,0.98,-0.27,-0.1,2.08,-1.65,-2.44,388,310,227,284,206
790,0.95,-0.27,-0.1,-0.55,-3.6,-2.32,387,302,227,284,207
791,0.96,-0.27,-0.1,-2.38,-4.03,-2.69,384,302,225,281,208
792,0.96,-0.26,-0.1,-0.43,-3.42,-2.56,385,306,226,282,206
793,0.96,-0.28,-0.09,-3.48,-6.35,0.98,384,302,226,283,204
794,0.92,-0.25,-0.11,5.43,-0.92,-0.24,382,307,229,284,217
795,0.93,-0.28,-0.14,0.67,-1.65,-5.31,383,306,225,281,209
796,0.96,-0.28,-0.14,0.85,-2.44,-2.32,386,306,230,279,207
797,0.96,-0.26,-0.15,-1.95,-4.15,-2.01,381,306,225,281,206
798,0.96,-0.27,-0.13,-0.73,-3.42,-2.26,381,309,228,282,204
799,0.96,-0.28,-0.12,-0.12,-1.65,-1.59,386,307,229,281,209
800,0.97,-0.28,-0.13,1.04,-2.75,-1.4,380,306,232,280,209
801,0.95,-0.29,-0.14,1.53,-3.91,-1.1,384,309,229,279,206
802,0.94,-0.28,-0.15,3.05,-5.49,-1.65,388,301,223,280,204
803,0.94,-0.32,-0.14,-0.79,-1.83,-2.44,394,304,227,282,206
804,0.94,-0.31,-0.12,-1.89,-3.97,-1.34,388,307,226,280,206
805,0.94,-0.31,-0.14,0.49,-4.82,-2.99,391,305,229,282,209
806,0.98,-0.28,-0.14,-2.08,-3.05,-4.27,395,300,227,282,209
807,0.97,-0.29,-0.16,7.26,-9.46,6.29,394,304,230,282,208
808,0.89,-0.37,-0.11,-0.73,-3.66,2.2,396,304,227,283,205
809,0.96,-0.3,-0.12,7.2,-0.98,-6.71,397,306,224,282,243
810,0.93,-0.33,-0.14,1.16,-1.59,-6.23,396,299,230,285,211
811,0.88,-0.39,-0.13,5.43,1.28,3.72,395,301,228,285,210
812,0.96,-0.4,-0.11,1.89,5.43,-13.18,393,301,227,284,214
813,0.95,-0.37,-0.14,-2.14,-14.4,1.83,399,308,224,284,209
814,0.91,-0.38,-0.17,-2.2,-1.34,-11.05,401,303,225,284,206
815,0.93,-0.36,-0.13,3.42,-6.41,-3.54,398,299,225,280,206
816,0.98,-0.37,-0.14,4.82,11.11,0.49,402,300,227,276,207
817,0.9,-0.37,-0.09,1.65,2.99,-7.93,395,295,227,280,206
818,0.92,-0.37,-0.07,-2.5,-2.93,0.18,399,296,223,281,207
819,0.93,-0.37,-0.06,-1.59,-3.3,-2.14,396,298,224,280,207
820,0.92,-0.37,-0.06,0.61,-3.17,-2.75,397,299,224,280,206
821,0.93,-0.38,-0.04,-0.43,-4.82,-1.53,401,300,228,283,207
822,0.92,-0.37,-0.05,0.79,-2.62,-2.5,398,302,228,281,209
823,0.92,-0.38,-0.07,-2.38,-3.72,-2.2,400,299,224,281,206
824,0.92,-0.39,-0.05,-1.53,-4.03,-2.56,396,299,230,282,208
825,0.94,-0.37,-0.08,2.44,-1.77,-3.3,394,294,225,282,210
826,0.94,-0.38,-0.03,-0.43,-1.22,-0.92,395,299,227,281,208
827,0.93,-0.38,-0.03,-1.46,-4.64,-1.16,394,301,232,286,213
828,0.91,-0.39,-0.06,1.22,-3.23,-3.17,394,295,226,281,207
829,0.92,-0.38,-0.06,2.44,-2.87,-3.23,391,299,228,279,208
830,0.93,-0.38,-0.06,-0.12,-6.16,-1.59,393,299,222,284,209
831,0.91,-0.38,-0.06,0.73,-2.32,-0.37,392,299,224,280,203
832,0.92,-0.38,-0.06,0.92,-0.85,-2.44,395,304,226,282,208
833,0.93,-0.38,-0.05,1.53,-2.5,-1.89,389,299,225,282,205
834,0.92,-0.39,-0.06,0.18,-3.42,-3.85,387,298,224,282,209
835,0.92,-0.38,-0.07,0.12,-3.66,-2.99,390,301,225,281,210
836,0.93,-0.38,-0.04,0.92,-2.93,-1.65,392,300,225,279,208
837,0.93,-0.39,-0.05,2.62,-2.26,-2.62,389,303,226,281,209
838,0.92,-0.37,-0.06,0.49,-1.53,-2.75,387,302,225,280,205
839,0.93,-0.38,-0.08,2.38,-5.19,-2.32,387,301,232,281,209
840,0.92,-0.38,-0.05,0.12,-3.97,-2.32,385,300,226,280,216
841,0.92,-0.38,-0.04,0.31,-2.14,-1.77,384,300,226,282,208
842,0.92,-0.39,-0.05,1.04,-2.08,-2.26,389,303,225,281,208
843,0.91,-0.39,-0.06,2.99,-2.5,-3.05,386,300,225,280,206
844,0.91,-0.39,-0.04,1.89,0.31,-2.32,386,301,227,281,208
845,0.92,-0.39,-0.05,0.12,-3.23,-2.87,386,300,224,281,207
846,0.92,-0.39,-0.03,-0.24,-2.81,-1.59,385,297,227,282,204
847,0.92,-0.39,-0.04,0.73,-2.26,-2.08,382,301,220,286,211
848,0.93,-0.39,-0.04,0.18,-2.81,-3.17,380,304,229,281,207
849,0.91,-0.38,-0.05,0.61,-4.09,-2.81,387,297,227,282,208
850,0.92,-0.39,-0.06,-0.73,-4.21,-1.83,387,304,228,284,207
851,0.92,-0.39,-0.05,0.61,-2.38,-2.32,385,305,226,285,208
852,0.92,-0.38,-0.06,0.98,-2.5,-3.11,387,302,228,283,208
853,0.91,-0.38,-0.06,0.31,-3.66,-0.85,387,302,226,284,209
854,0.91,-0.39,-0.05,0.0,-2.56,-2.2,387,301,229,284,207
855,0.92,-0.39,-0.04,-0.67,-2.56,-1.53,383,306,225,279,207
856,0.9,-0.4,-0.06,-0.43,-5.25,-1.83,389,305,229,282,209
857,0.92,-0.39,-0.06,3.17,-1.4,-3.85,387,305,223,285,206
858,0.92,-0.39,-0.06,0.61,-3.11,-1.28,384,315,226,285,211
859,0.93,-0.39,-0.05,-0.18,-3.23,-1.28,383,307,232,281,204
860,0.92,-0.39,-0.06,0.24,-3.11,-2.2,385,303,228,284,209
861,0.93,-0.4,-0.05,-0.73,-4.76,-2.14,387,302,229,281,210
862,0.92,-0.4,-0.04,0.67,-3.23,-2.44,383,302,227,289,206
863,0.92,-0.39,-0.05,0.37,-3.11,-2.99,385,303,227,281,213
864,1.1,-0.38,-0.18,2.69,-13.79,13.79,376,298,227,283,210
865,0.91,-0.39,-0.08,-6.47,-2.01,3.54,382,300,233,285,207
866,0.93,-0.38,-0.05,0.18,-2.75,-2.56,379,302,227,282,207
867,0.94,-0.37,-0.06,2.2,-2.26,-0.37,376,302,225,283,206
868,0.93,-0.37,-0.06,-0.67,-4.09,-0.55,379,299,229,282,208
869,0.94,-0.38,-0.08,-4.46,-8.12,-0.98,378,298,228,284,209
870,0.92,-0.38,-0.07,-1.22,-2.2,-1.95,377,318,225,282,209
871,0.93,-0.38,-0.08,-0.12,-2.01,-1.95,370,305,226,279,208
872,0.92,-0.39,-0.06,-1.04,-3.05,-0.73,372,316,227,282,208
873,0.9,-0.4,-0.09,-2.08,-1.16,-3.17,366,302,227,282,206
874,0.92,-0.39,-0.08,2.81,-1.28,-3.48,370,304,226,282,207
875,0.92,-0.4,-0.07,0.55,-1.53,-2.93,360,299,228,284,203
876,0.91,-0.4,-0.07,1.04,-2.62,-2.01,355,303,227,281,225
877,0.92,-0.41,-0.09,0.73,-3.3,-3.3,353,304,229,282,211
878,0.92,-0.39,-0.09,-0.55,-2.69,-2.81,353,305,229,283,208
879,0.92,-0.39,-0.08,-0.24,-3.36,-2.32,348,302,227,283,208
880,0.93,-0.39,-0.08,0.55,-3.23,-4.7,350,309,225,281,205
881,0.93,-0.4,-0.07,-1.16,-3.6,-0.55,354,300,227,284,210
882,0.92,-0.4,-0.08,-1.53,-4.33,-1.53,354,308,227,284,211
883,0.91,-0.38,-0.08,-1.4,0.73,-4.39,348,306,227,281,207
884,0.93,-0.38,-0.08,1.89,-3.54,-3.3,353,308,229,285,210
885,0.93,-0.39,-0.07,0.43,-2.93,-2.93,353,305,228,284,208
886,0.93,-0.38,-0.08,-0.12,-4.03,-1.95,352,303,227,280,205
887,0.91,-0.38,-0.07,0.98,-2.44,-2.56,355,305,227,283,209
888,0.92,-0.38,-0.08,0.49,-5.31,-1.71,356,307,228,291,210
889,0.89,-0.38,-0.1,3.48,-4.64,-0.18,368,302,225,279,211
890,0.92,-0.4,-0.1,2.81,-4.52,-2.5,365,303,233,284,209
891,0.91,-0.39,-0.13,11.84,-2.38,3.72,371,300,229,281,210
892,0.92,-0.42,-0.09,0.31,-2.69,-0.98,386,306,224,282,239
893,0.91,-0.41,-0.1,4.21,-6.65,-3.6,393,308,227,285,209
894,0.92,-0.4,-0.1,-0.06,-2.87,-1.95,392,308,227,281,208
895,0.9,-0.41,-0.11,1.53,-3.72,-2.75,391,307,229,283,211
896,0.96,-0.39,-0.09,5.13,-5.25,-6.59,391,303,227,282,207
897,0.9,-0.4,-0.07,3.3,-1.4,-4.03,390,301,228,284,210
898,0.93,-0.4,-0.04,0.12,-3.78,-2.93,388,305,227,283,209
899,0.92,-0.41,-0.05,-0.55,-3.72,-2.26,387,308,230,282,211
900,0.9,-0.4,-0.04,4.7,-4.46,-3.23,384,310,231,284,207
901,0.92,-0.4,-0.05,0.61,-1.77,-3.42,385,302,232,283,209
902,0.93,-0.4,-0.08,-0.31,-5.25,-3.78,382,308,229,285,210
903,0.9,-0.42,-0.05,2.38,-2.81,-2.81,383,310,225,282,211
904,0.92,-0.42,-0.05,-0.49,-3.66,-3.11,387,309,229,283,208
905,0.93,-0.43,-0.06,-0.37,-4.21,-1.83,386,302,230,284,211
906,0.91,-0.42,-0.05,-0.12,-2.38,-2.69,385,307,226,281,208
907,0.92,-0.41,-0.06,-0.55,-5.62,-1.71,381,307,227,282,208
908,0.91,-0.41,-0.07,-0.98,-3.66,-1.83,385,308,227,285,208
909,0.91,-0.41,-0.05,1.4,-1.71,-1.71,385,311,230,281,210
910,0.9,-0.41,-0.06,0.18,-3.17,-2.81,387,312,228,284,209
911,0.91,-0.43,-0.07,-0.31,-2.32,0.18,383,309,227,283,210
912,0.92,-0.43,-0.06,-1.1,-0.18,-3.72,385,318,232,284,220
913,0.91,-0.42,-0.06,1.71,-1.22,-3.23,384,311,232,281,208
914,0.92,-0.41,-0.05,1.89,-2.69,-2.62,386,310,229,284,208
915,0.9,-0.41,-0.03,-1.28,-2.87,-2.01,387,304,228,284,221
916,0.89,-0.41,-0.05,-1.4,-3.72,-1.95,384,311,231,285,211
917,0.9,-0.42,-0.09,0.37,-2.32,-4.46,382,312,227,284,210
918,0.9,-0.42,-0.05,2.81,-2.75,-1.83,388,306,226,286,238
919,0.92,-0.41,-0.06,0.67,-2.87,-2.69,386,306,232,282,211
920,0.91,-0.41,-0.06,0.12,-2.44,-2.75,389,312,228,282,207
921,0.9,-0.41,-0.04,-0.31,-2.08,-2.99,387,308,228,284,210
922,0.92,-0.42,-0.06,-1.04,-4.09,-2.26,384,309,231,287,209
923,0.9,-0.42,-0.05,-1.46,-3.91,-1.34,383,305,230,286,210
924,0.91,-0.41,-0.06,0.31,-4.94,-1.77,381,307,228,283,206
925,0.92,-0.41,-0.04,-4.09,-3.48,6.1,379,309,229,294,211
926,0.92,-0.41,-0.05,-0.43,-3.72,0.0,384,311,231,283,210
927,0.9,-0.42,-0.06,-1.16,-3.48,-1.71,385,313,232,295,209
928,0.91,-0.42,-0.05,-1.1,-4.33,-1.71,386,303,230,285,212
929,0.91,-0.42,-0.06,0.73,-2.44,-1.95,382,308,228,288,209
930,0.91,-0.42,-0.04,-0.55,-3.66,-2.93,384,311,231,283,209
931,0.91,-0.42,-0.05,0.79,-3.42,-3.05,384,305,230,294,210
932,0.92,-0.42,-0.06,0.12,-2.32,-2.26,384,309,231,287,210
933,0.91,-0.42,-0.04,0.43,-2.32,-1.95,384,311,228,284,211
934,0.92,-0.42,-0.06,0.18,-2.62,-2.08,384,309,229,287,211
935,0.9,-0.42,-0.04,-0.06,-3.05,-1.28,383,309,230,284,210
936,0.91,-0.43,-0.04,-0.24,-1.59,-1.95,381,306,232,284,209
937,0.91,-0.42,-0.06,0.55,-3.17,-2.01,381,309,230,286,213
938,0.91,-0.42,-0.05,0.12,-2.87,-2.32,382,312,228,283,211
939,0.91,-0.43,-0.04,-0.31,-3.3,-2.01,378,311,230,284,222
940,0.91,-0.42,-0.05,2.26,-2.14,-2.99,384,310,232,285,207
941,0.9,-0.42,-0.05,2.38,-2.32,-2.62,383,310,233,287,211
942,0.9,-0.43,-0.06,1.65,-2.5,-4.58,379,312,229,286,211
943,0.9,-0.42,-0.07,0.92,-3.3,-2.44,382,311,230,286,210
944,0.91,-0.42,-0.05,1.16,-2.08,-2.2,384,309,230,282,207
945,0.9,-0.42,-0.05,-0.43,-3.17,-1.77,387,313,231,285,208
946,0.91,-0.42,-0.06,0.37,-4.33,-2.69,383,305,229,285,211
947,0.9,-0.42,-0.06,0.24,-3.11,-3.11,378,309,229,287,211
948,0.91,-0.42,-0.05,-0.73,-3.78,-1.83,380,312,230,286,209
949,0.92,-0.42,-0.06,1.34,-2.56,-3.66,379,317,227,284,208
950,0.91,-0.42,-0.05,1.4,-2.69,-2.01,383,305,230,283,212
951,0.92,-0.42,-0.07,-0.49,-2.5,-2.99,379,309,232,284,211
952,0.91,-0.43,-0.05,3.05,-1.34,-2.26,385,310,233,283,214
953,0.91,-0.42,-0.06,-1.1,-3.17,-1.89,380,307,231,286,208
954,0.9,-0.42,-0.07,0.49,-2.75,-3.72,384,310,230,281,210
955,0.91,-0.42,-0.06,0.0,-3.11,-2.75,383,314,229,288,209
956,0.9,-0.42,-0.04,-2.2,-3.36,-1.83,382,313,229,287,209
957,0.9,-0.42,-0.06,1.34,-2.32,-1.83,378,311,232,284,208
958,0.91,-0.42,-0.06,-0.85,-1.77,-2.87,380,312,228,281,208
959,0.9,-0.42,-0.07,0.31,-2.56,-4.09,383,311,227,284,209
960,0.9,-0.42,-0.06,-0.24,-2.01,-2.14,385,310,233,284,209
961,0.91,-0.42,-0.05,0.18,-2.87,-2.38,383,315,233,291,213
962,0.91,-0.41,-0.06,0.12,-1.65,-2.32,377,312,231,290,209
963,0.91,-0.43,-0.06,-1.4,-4.64,-1.95,377,312,233,288,211
964,0.89,-0.42,-0.05,-0.24,-2.87,-1.46,379,312,229,284,209
965,0.9,-0.42,-0.07,0.18,-3.42,-3.05,379,312,230,284,211
966,0.9,-0.42,-0.05,0.85,-2.62,-2.14,381,316,233,282,205
967,0.89,-0.42,-0.04,0.24,-2.87,-3.05,376,313,232,283,209
968,0.9,-0.42,-0.06,0.31,-3.11,-2.81,381,318,230,284,210
969,0.91,-0.42,-0.07,-1.4,-3.05,-2.81,378,312,235,285,210
970,0.91,-0.42,-0.06,-0.31,-3.3,-2.32,379,315,230,283,209
971,0.91,-0.42,-0.06,0.92,-2.26,-2.56,375,317,233,284,205
972,0.9,-0.42,-0.06,0.43,-3.23,-1.53,381,317,233,287,209
973,0.9,-0.42,-0.06,0.31,-2.81,-2.32,377,314,230,286,208
974,0.9,-0.42,-0.05,0.55,-3.23,-2.38,380,317,231,285,212
975,0.91,-0.42,-0.04,-0.67,-3.3,-2.75,376,310,232,286,208
976,0.9,-0.43,-0.04,0.06,-3.11,-1.65,373,312,237,284,210
977,0.91,-0.42,-0.05,-0.67,-2.32,-3.05,374,321,232,285,210
978,0.91,-0.42,-0.06,0.31,-3.23,-2.2,378,317,235,292,211
979,0.91,-0.42,-0.06,0.24,-3.23,-1.46,384,312,230,280,211
980,0.91,-0.42,-0.06,0.18,-2.38,-2.69,378,316,234,289,210
981,0.91,-0.42,-0.08,0.43,-3.3,-2.5,376,313,229,284,207
982,0.9,-0.42,-0.06,1.16,-2.14,-2.69,375,314,231,283,210
983,0.92,-0.42,-0.06,1.04,-2.62,-3.11,376,312,236,286,212
984,0.9,-0.42,-0.05,-0.37,-4.7,-1.53,378,309,230,284,211
985,0.91,-0.42,-0.06,0.55,-2.62,-2.99,377,315,235,283,209
986,0.9,-0.41,-0.07,0.67,-3.48,-1.95,369,316,234,286,210
987,0.91,-0.41,-0.06,0.18,-2.93,-2.44,368,314,232,287,208
988,0.91,-0.41,-0.04,0.0,-3.66,-1.04,374,311,232,283,210
989,0.92,-0.42,-0.07,2.62,-6.47,-1.46,374,311,235,285,210
990,0.9,-0.43,-0.02,-2.87,0.67,-1.46,378,313,230,283,212
991,0.9,-0.44,-0.06,-2.08,-1.59,-2.87,385,311,231,286,213
992,0.92,-0.43,-0.07,-3.17,-16.66,-7.26,388,312,232,285,211
993,0.92,-0.38,-0.13,-7.57,-4.64,-8.24,390,311,232,284,213
994,0.92,-0.37,-0.14,5.31,2.99,-2.38,386,314,234,283,212
995,0.93,-0.37,-0.11,-5.07,-4.09,-1.04,391,313,245,282,213
996,0.91,-0.38,-0.11,-5.19,-5.74,-0.37,391,313,233,286,209
997,0.94,-0.38,-0.05,-6.9,-6.35,-0.73,385,315,233,284,214
998,0.92,-0.38,-0.13,-0.12,-4.03,-0.98,386,313,235,287,213
999,0.93,-0.38,-0.13,3.3,-3.36,-2.38,388,312,235,283,214
1000,0.92,-0.38,-0.12,1.59,-3.11,-2.62,385,316,235,295,211
1001,0.91,-0.38,-0.12,0.55,-2.32,-2.44,387,314,234,285,210
1002,0.91,-0.38,-0.13,-0.55,-3.72,-1.34,385,316,235,285,209
1003,0.91,-0.38,-0.12,-0.24,-0.79,-2.69,387,314,233,284,208
1004,0.96,-0.29,-0.04,2.62,-4.82,0.55,401,295,222,271,196
1005,0.94,-0.3,-0.06,0.18,-4.82,-2.62,403,295,220,271,194
1006,0.97,-0.31,-0.06,-0.61,-2.87,-3.66,395,287,218,272,195
1007,0.95,-0.31,-0.04,0.61,-0.61,-0.55,396,292,221,270,194
1008,0.91,-0.33,-0.03,2.38,-3.85,-5.74,401,289,218,269,197
1009,0.93,-0.3,-0.09,-4.94,-3.42,0.85,400,289,218,271,197
1010,0.92,-0.31,-0.09,4.27,-1.22,-2.14,405,288,220,272,199
1011,0.98,-0.31,-0.12,2.44,-5.25,-3.17,402,294,225,272,199
1012,0.95,-0.32,-0.1,0.61,-1.83,-1.65,401,298,217,273,196
1013,0.95,-0.33,-0.11,-0.55,-3.11,-0.55,403,293,217,274,200
1014,0.95,-0.33,-0.1,1.89,0.06,-2.99,406,291,224,272,198
1015,0.94,-0.33,-0.12,4.94,-3.05,-2.26,410,295,223,275,197
1016,0.93,-0.35,-0.1,0.67,-0.73,-3.3,409,289,222,270,199
1017,0.94,-0.35,-0.09,-2.69,-2.93,-2.2,408,291,222,270,198
1018,0.93,-0.34,-0.11,-0.06,-2.62,-2.75,408,300,219,275,197
1019,0.94,-0.34,-0.1,-0.24,-3.48,-1.71,409,290,223,272,198
1020,0.93,-0.34,-0.12,1.22,-4.15,-1.95,407,298,222,272,200
1021,0.93,-0.34,-0.12,0.61,-1.95,-2.56,410,293,217,275,200
1022,0.92,-0.35,-0.12,-0.73,-4.39,-2.81,411,289,219,274,197
1023,0.93,-0.34,-0.13,2.14,-2.26,-2.81,408,297,219,274,198
1024,0.94,-0.34,-0.12,0.79,-3.3,-2.38,410,291,220,275,229
1025,0.92,-0.34,-0.13,0.37,-2.56,-2.26,411,294,219,273,200
1026,0.93,-0.34,-0.12,0.37,-2.62,-2.69,410,301,222,281,197
1027,0.93,-0.34,-0.13,0.06,-3.66,-2.38,410,295,219,276,201
1028,0.93,-0.34,-0.12,0.73,-2.08,-2.69,410,293,219,275,200
1029,0.93,-0.34,-0.12,0.85,-2.5,-2.75,410,300,221,275,198
1030,0.93,-0.34,-0.12,0.92,-2.75,-1.95,412,294,218,275,198
1031,0.93,-0.34,-0.13,1.28,-1.71,-2.26,410,292,223,270,199
1032,0.94,-0.34,-0.12,-0.06,-2.87,-2.44,409,296,223,273,201
1033,0.93,-0.33,-0.12,2.26,-2.44,-2.69,409,295,222,272,199
1034,0.93,-0.34,-0.13,0.49,-5.0,-3.11,409,295,222,276,199
1035,0.94,-0.35,-0.11,0.31,-3.42,-2.32,410,300,220,274,198
1036,0.93,-0.34,-0.13,0.06,-3.42,-1.89,407,300,219,274,201
1037,0.93,-0.35,-0.12,0.73,-2.2,-2.56,410,301,223,276,199
1038,0.95,-0.34,-0.13,0.18,-3.23,-3.85,410,294,221,275,199
1039,0.93,-0.34,-0.12,0.79,-2.62,-2.87,409,299,215,275,198
1040,0.93,-0.34,-0.12,0.43,-3.66,-2.81,410,291,223,276,202
1041,0.93,-0.34,-0.13,0.79,-1.89,-3.11,410,294,219,271,203
1042,0.93,-0.34,-0.13,0.61,-2.75,-2.44,413,299,221,273,202
1043,0.93,-0.34,-0.13,-0.06,-2.87,-2.26,405,299,221,274,199
1044,0.93,-0.34,-0.12,0.31,-2.5,-2.38,409,295,223,281,200
1045,0.93,-0.34,-0.12,0.67,-2.2,-2.26,410,298,221,275,201
1046,0.91,-0.34,-0.11,-0.18,-2.01,-1.28,410,296,222,281,199
1047,0.93,-0.34,-0.11,0.73,-2.26,-2.99,411,294,223,276,200
1048,0.94,-0.34,-0.12,0.43,-2.32,-2.99,408,296,222,274,198
1049,0.92,-0.34,-0.11,-1.1,-3.36,-2.62,409,299,223,276,201
1050,0.94,-0.34,-0.11,0.18,-2.56,-2.26,409,294,222,283,202
1051,0.93,-0.34,-0.13,-0.12,-2.32,-2.5,409,299,221,275,203
1052,0.93,-0.33,-0.11,-0.31,-1.83,-2.32,409,299,221,275,200
1053,0.91,-0.35,-0.1,-1.16,-5.68,4.09,401,297,222,278,203
1054,0.93,-0.38,-0.11,3.66,-3.85,0.79,397,312,224,275,201
1055,0.94,-0.36,-0.14,-0.61,-3.78,-4.82,400,303,221,277,203
1056,0.92,-0.36,-0.12,0.37,-2.56,-2.99,400,299,227,281,202
1057,0.93,-0.35,-0.14,-0.12,-2.69,-4.15,404,300,220,274,202
1058,0.93,-0.35,-0.12,0.06,-3.23,-2.08,402,294,222,278,202
1059,0.93,-0.36,-0.13,1.04,-2.81,-3.23,402,300,226,275,202
1060,0.92,-0.35,-0.12,-0.24,-3.78,-2.44,393,298,224,278,197
1061,0.93,-0.34,-0.13,1.34,-2.01,-2.75,402,293,222,273,202
1062,0.92,-0.35,-0.12,0.24,-1.83,-2.14,401,303,221,276,203
1063,0.93,-0.35,-0.13,0.61,-2.62,-2.56,406,310,224,275,199
1064,0.94,-0.35,-0.12,0.18,-3.17,-2.26,403,302,224,276,201
1065,0.94,-0.34,-0.12,0.12,-2.99,-2.75,403,298,222,275,200
1066,0.93,-0.36,-0.09,-4.09,-2.08,-3.11,400,303,221,277,202
1067,0.93,-0.34,-0.15,-2.2,-10.25,-5.55,405,300,223,276,203
1068,0.96,-0.33,-0.15,-4.39,-9.4,-8.0,404,300,224,278,201
1069,0.93,-0.35,-0.16,-0.31,-3.91,-2.2,394,304,232,274,200
1070,0.83,-0.37,-0.15,-5.49,-6.16,-8.54,400,300,225,278,202
1071,0.93,-0.34,-0.15,1.16,-5.49,-5.25,397,304,226,275,202
1072,0.97,-0.32,-0.15,-4.88,-8.97,-1.16,402,295,223,274,202
1073,0.9,-0.33,-0.18,-11.72,-9.28,-9.09,396,298,223,276,200
1074,0.95,-0.33,-0.14,1.46,-5.19,-0.79,395,295,225,276,205
1075,0.94,-0.33,-0.14,-2.5,-4.15,-2.38,391,300,224,276,203
1076,0.93,-0.33,-0.16,-1.1,-2.5,-2.44,393,299,226,280,202
1077,0.95,-0.34,-0.15,2.81,-1.4,-1.22,395,299,223,284,203
1078,0.95,-0.35,-0.14,-1.28,-2.75,-4.94,390,298,225,276,202
1079,0.93,-0.35,-0.13,-1.71,-3.42,-2.62,388,301,222,277,201
1080,0.97,-0.34,-0.14,-0.61,-1.77,-5.25,391,294,224,276,201
1081,0.94,-0.34,-0.13,1.53,-4.64,-0.67,393,298,225,277,199
1082,0.97,-0.31,-0.15,-3.36,-5.13,-3.97,387,297,227,277,202
1083,0.93,-0.35,-0.12,-0.61,-1.89,-4.03,384,301,220,276,201
1084,0.94,-0.35,-0.14,1.22,-5.07,-2.56,386,300,222,278,199
1085,0.9,-0.32,-0.15,-0.98,0.79,-8.79,386,303,232,272,201
1086,0.91,-0.35,-0.12,5.8,1.53,-0.18,386,301,225,279,211
1087,0.95,-0.33,-0.14,1.46,-6.47,-3.05,383,307,230,278,203
1088,0.95,-0.34,-0.16,1.89,-3.54,-1.4,381,302,223,279,201
1089,0.92,-0.34,-0.13,0.06,-3.11,-2.75,380,296,222,278,201
1090,0.92,-0.34,-0.14,-1.65,-1.89,-3.05,381,300,223,278,201
1091,0.94,-0.34,-0.15,-1.4,-3.97,-2.2,377,302,225,273,199
1092,0.94,-0.32,-0.15,0.18,-2.87,-3.48,379,299,222,279,202
1093,0.95,-0.32,-0.15,0.67,-1.95,-3.05,380,300,225,275,201
1094,0.93,-0.33,-0.12,-0.12,-1.77,-1.71,379,297,225,278,201
1095,0.92,-0.33,-0.16,-0.37,-3.97,-2.2,381,301,225,275,201
1096,0.95,-0.33,-0.13,2.08,-2.2,-2.01,377,303,225,276,204
1097,0.93,-0.34,-0.15,2.38,-2.2,1.65,377,304,221,276,201
1098,0.9,-0.36,-0.17,4.46,-15.38,-2.87,376,300,226,284,203
1099,0.91,-0.35,-0.15,-2.69,-4.39,-1.34,381,304,223,279,203
1100,0.88,-0.37,-0.16,-2.69,-6.29,-0.67,376,297,221,278,201
1101,0.92,-0.37,-0.15,-0.18,-2.14,-2.32,371,304,225,277,201
1102,0.89,-0.36,-0.15,-3.05,0.49,-8.91,374,306,225,278,203
1103,0.91,-0.36,-0.13,1.22,-1.59,-1.16,371,303,224,279,242
1104,0.91,-0.35,-0.18,5.37,-3.48,-3.05,381,303,223,277,202
1105,0.92,-0.35,-0.17,-0.98,-3.36,-2.5,388,301,224,277,201
1106,0.9,-0.37,-0.16,0.79,-3.23,-4.82,388,304,227,274,198
1107,0.9,-0.35,-0.17,0.06,0.92,-6.53,388,305,223,278,202
1108,0.9,-0.35,-0.18,-0.37,-7.39,-2.5,390,302,227,278,199
1109,0.92,-0.34,-0.19,1.89,-4.33,0.79,386,305,227,280,203
1110,0.92,-0.34,-0.17,2.08,-1.22,-2.01,387,305,224,280,203
1111,0.92,-0.35,-0.19,-1.4,-3.11,-2.26,390,302,227,278,201
1112,0.92,-0.34,-0.17,0.98,-0.55,-2.69,390,304,224,282,204
1113,0.92,-0.32,-0.18,-0.98,-4.76,-3.3,386,302,225,278,203
1114,0.92,-0.35,-0.17,-0.24,2.2,-6.16,389,298,226,280,200
1115,0.91,-0.36,-0.13,1.59,-3.48,-9.09,387,299,224,280,204
1116,0.93,-0.33,-0.1,-2.69,-2.56,-14.71,386,301,224,278,205
1117,0.94,-0.29,-0.12,4.39,8.91,0.61,386,300,226,277,202
1118,0.95,-0.3,-0.08,0.85,-8.73,-4.27,387,301,223,279,202
1119,0.95,-0.29,-0.11,0.06,-6.65,-3.85,386,303,226,276,201
1120,0.95,-0.29,-0.12,0.12,-2.01,-2.14,387,298,226,279,202
1121,0.95,-0.29,-0.14,0.31,-3.42,-2.26,388,298,221,279,203
1122,0.96,-0.29,-0.17,1.34,-6.84,-1.95,389,304,221,280,203
1123,0.95,-0.3,-0.15,0.79,-2.93,-2.44,389,309,225,281,205
1124,0.95,-0.31,-0.13,0.12,-5.49,-1.53,392,304,226,278,204
1125,0.94,-0.32,-0.12,0.92,-3.66,-2.81,389,298,223,274,203
1126,0.94,-0.31,-0.14,-0.92,-3.54,-2.5,397,305,226,281,204
1127,0.94,-0.31,-0.12,0.24,-4.33,-2.69,391,300,224,280,214
1128,0.93,-0.31,-0.12,0.98,-1.77,-2.93,394,312,224,281,200
1129,0.94,-0.31,-0.13,0.06,-1.77,-2.56,390,296,228,279,202
1130,0.94,-0.3,-0.14,0.98,-3.11,-2.5,393,297,226,279,205
1131,0.95,-0.3,-0.15,-0.06,-3.17,-2.44,391,300,225,278,207
1132,0.94,-0.3,-0.14,0.98,-4.52,-2.56,390,306,228,280,202
1133,0.95,-0.31,-0.15,0.37,-3.42,-2.01,388,304,226,281,203
1134,0.94,-0.3,-0.14,0.79,-3.17,-3.17,392,303,227,287,203
1135,0.92,-0.3,-0.14,0.31,-0.67,-5.31,388,300,227,276,203
1136,0.94,-0.3,-0.13,-0.06,-3.54,-2.69,389,301,227,277,202
1137,0.94,-0.3,-0.14,-0.49,-4.03,-2.01,391,299,227,279,203
1138,0.94,-0.3,-0.14,0.67,-1.89,-2.62,391,306,227,282,206
1139,0.95,-0.31,-0.14,-0.18,-2.69,-2.2,392,300,228,280,203
1140,0.95,-0.31,-0.14,2.5,-3.85,-2.2,392,300,227,276,203
1141,0.94,-0.31,-0.13,-0.18,-3.23,-2.08,390,305,226,277,205
1142,0.94,-0.31,-0.13,0.49,-1.71,-1.4,392,305,227,280,204
1143,0.95,-0.31,-0.14,1.1,-2.75,-3.11,392,302,224,278,203
1144,0.94,-0.31,-0.15,-0.12,-2.75,-2.14,391,301,225,277,203
1145,0.93,-0.31,-0.14,0.43,-2.75,-2.2,389,303,223,282,204
1146,0.94,-0.3,-0.14,-0.49,-3.11,-2.38,392,304,226,278,203
1147,0.94,-0.33,-0.15,9.77,-1.53,11.66,393,302,225,275,204
1148,0.79,-0.42,-0.11,3.17,-10.99,1.1,391,301,227,279,200
1149,0.93,-0.45,-0.16,-4.33,-1.16,-6.84,389,303,223,281,218
1150,0.88,-0.45,-0.16,1.34,-0.61,-0.67,386,300,228,278,205
1151,0.85,-0.46,-0.16,-0.24,0.06,-5.68,390,303,227,277,205
1152,0.87,-0.44,-0.13,0.61,-5.31,-5.86,389,302,225,280,200
1153,0.93,-0.4,-0.14,-6.47,-3.05,-13.85,385,301,234,281,200
1154,0.98,-0.3,-0.18,-0.43,-5.13,-18.37,387,302,228,281,205
1155,0.92,-0.33,-0.2,4.64,3.42,-1.95,389,303,228,278,203
1156,0.91,-0.33,-0.18,1.83,-2.08,-2.5,388,300,227,279,203
1157,0.92,-0.34,-0.17,1.53,-2.93,-1.95,386,305,230,281,205
1158,0.94,-0.33,-0.16,0.67,-3.17,-2.32,389,297,224,276,204
1159,0.92,-0.33,-0.17,2.2,0.24,-2.01,390,301,229,281,201
1160,0.93,-0.33,-0.17,0.12,-3.23,-2.38,388,298,224,281,205
1161,0.94,-0.33,-0.16,2.56,-1.59,-2.38,389,305,228,276,203
1162,0.92,-0.33,-0.17,-0.55,-2.99,-2.44,389,306,230,280,206
1163,0.93,-0.34,-0.17,1.1,-3.54,-1.89,389,302,226,279,203
1164,0.93,-0.34,-0.17,0.67,-3.3,-2.56,388,303,236,292,202
1165,0.92,-0.34,-0.16,0.67,-3.72,-2.93,390,314,225,281,204
1166,0.93,-0.34,-0.18,0.43,-2.56,-2.69,388,305,225,278,206
1167,0.93,-0.33,-0.17,1.46,-3.36,-3.05,386,300,226,278,201
1168,0.92,-0.33,-0.17,1.1,-3.11,-2.81,385,302,225,279,200
1169,0.93,-0.34,-0.17,0.06,-2.81,-2.44,389,306,227,280,203
1170,0.93,-0.34,-0.17,1.53,-2.44,-3.05,387,307,226,280,203
1171,0.92,-0.33,-0.17,0.18,-2.69,-2.44,389,307,228,279,202
1172,0.92,-0.34,-0.18,0.55,-3.48,-2.38,384,302,226,272,205
1173,0.92,-0.35,-0.18,1.65,-4.64,-2.69,392,297,241,279,205
1174,0.92,-0.34,-0.18,0.73,-2.08,-3.36,390,302,227,280,206
1175,0.92,-0.34,-0.17,-1.34,-3.97,-2.62,391,306,224,284,207
1176,0.92,-0.34,-0.18,0.92,-1.59,-2.62,385,302,223,278,204
1177,0.91,-0.34,-0.17,-0.24,-1.1,-2.38,386,303,226,279,202
1178,0.93,-0.34,-0.17,1.1,-3.85,-1.89,390,302,238,280,205
1179,0.92,-0.34,-0.17,0.06,-2.62,-1.89,390,304,227,281,212
1180,0.93,-0.34,-0.18,0.0,-4.03,-4.03,391,308,225,279,205
1181,0.92,-0.34,-0.18,-0.98,-3.48,-2.62,393,299,226,282,204
1182,0.93,-0.34,-0.16,0.24,-4.03,-2.01,388,303,225,281,203
1183,0.92,-0.35,-0.18,0.79,-2.81,-2.38,390,302,224,280,204
1184,0.93,-0.35,-0.17,0.06,-2.99,-2.01,392,306,225,279,203
1185,0.92,-0.35,-0.17,0.98,-2.26,-2.2,393,306,226,281,200
1186,0.92,-0.35,-0.17,0.55,-2.26,-3.05,391,306,229,281,206
1187,0.92,-0.35,-0.17,-0.98,-3.23,-2.5,391,306,223,283,205
1188,0.93,-0.35,-0.16,0.06,-4.33,-1.77,391,306,225,279,206
1189,0.92,-0.36,-0.17,0.0,-3.36,-2.75,393,305,225,282,207
1190,0.93,-0.35,-0.16,1.34,-2.01,-3.11,389,303,229,279,204
1191,0.93,-0.34,-0.17,0.92,-3.48,-3.42,394,303,225,279,207
1192,0.92,-0.35,-0.17,0.37,-2.69,-2.14,396,306,229,282,202
1193,0.92,-0.35,-0.17,0.67,-2.38,-2.01,389,303,226,280,206
1194,0.92,-0.36,-0.15,-2.14,-4.27,-1.04,395,302,228,281,244
1195,0.92,-0.36,-0.17,-0.06,-4.15,-1.95,392,303,229,280,205
1196,0.92,-0.36,-0.17,-0.06,-3.23,-2.93,391,302,226,281,206
1197,0.92,-0.36,-0.17,-0.92,-4.03,-2.5,393,302,224,282,205
1198,0.92,-0.36,-0.18,0.12,-2.93,-2.81,384,307,226,281,207
1199,0.92,-0.36,-0.18,0.18,-3.91,-2.75,393,305,226,281,207
1200,0.92,-0.36,-0.18,0.85,-2.5,-2.38,390,300,224,282,204
1201,0.92,-0.36,-0.18,0.92,-2.32,-2.38,392,306,232,280,205
1202,0.92,-0.36,-0.19,-0.43,-3.11,-2.08,391,305,226,277,202
1203,0.91,-0.37,-0.18,0.12,-3.23,-1.83,394,306,223,279,205
1204,0.91,-0.36,-0.19,0.43,-4.21,-2.56,393,306,225,281,207
1205,0.92,-0.37,-0.17,1.1,-2.69,-3.05,393,305,226,282,206
1206,0.92,-0.37,-0.18,0.06,-2.14,-2.87,395,304,227,278,205
1207,0.92,-0.36,-0.18,0.18,-2.69,-2.2,390,306,224,286,207
1208,0.93,-0.36,-0.18,0.37,-3.48,-1.71,395,307,228,280,213
1209,0.92,-0.37,-0.18,0.12,-2.26,-2.01,393,306,229,278,205
1210,0.91,-0.37,-0.18,-0.18,-3.11,-1.65,390,308,227,283,204
1211,0.91,-0.37,-0.19,-0.12,-4.09,-2.38,391,307,226,279,207
1212,0.92,-0.37,-0.17,-1.34,-3.42,-0.98,391,304,222,279,212
1213,0.91,-0.37,-0.19,-0.73,-3.6,-1.95,386,305,226,284,203
1214,0.91,-0.37,-0.18,-0.61,-2.99,-2.81,394,307,226,278,206
1215,0.92,-0.37,-0.18,-0.31,-4.33,-1.83,392,303,240,281,205
1216,0.91,-0.37,-0.19,-0.12,-3.48,-1.71,395,306,227,280,205
1217,0.91,-0.36,-0.19,0.61,-1.16,-2.32,394,306,228,282,200
1218,0.92,-0.37,-0.18,0.98,-7.81,-3.11,388,300,227,281,205
1219,0.91,-0.38,-0.18,0.85,-2.62,-2.62,403,303,228,281,204
1220,0.91,-0.37,-0.18,0.12,-3.05,-2.81,392,306,229,280,208
1221,0.91,-0.37,-0.18,0.85,-2.2,-2.93,392,299,226,283,208
1222,0.91,-0.37,-0.18,0.24,-3.3,-2.5,392,304,224,278,206
1223,0.91,-0.37,-0.18,0.85,-2.2,-2.32,389,304,233,280,206
1224,0.91,-0.37,-0.19,0.37,-2.99,-1.77,391,305,224,282,207
1225,0.9,-0.38,-0.17,0.31,-2.62,-1.53,391,304,223,283,206
1226,0.9,-0.38,-0.18,0.37,-2.32,-2.01,391,303,226,277,205
1227,0.9,-0.38,-0.19,0.79,-2.56,-1.71,392,302,226,281,203
1228,0.9,-0.38,-0.2,1.59,-3.23,-2.56,388,303,225,281,202
1229,0.9,-0.39,-0.19,-0.49,-4.46,-2.81,390,309,226,282,202
1230,0.91,-0.38,-0.18,0.67,-2.5,-2.87,392,305,224,280,205
1231,0.91,-0.39,-0.19,0.0,-4.15,-1.83,392,307,227,281,206
1232,0.91,-0.39,-0.18,-0.06,-3.3,-2.2,391,306,221,279,205
1233,0.9,-0.39,-0.19,0.98,-2.87,-2.32,392,300,226,277,207
1234,0.9,-0.39,-0.18,0.37,-2.62,-2.2,388,303,226,283,205
1235,0.9,-0.38,-0.18,0.92,-3.17,-2.2,391,298,226,286,205
1236,0.89,-0.39,-0.19,-0.24,-3.11,-1.83,393,306,223,275,207
1237,0.9,-0.39,-0.19,0.55,-2.87,-3.11,396,310,226,280,203
1238,0.9,-0.38,-0.19,0.98,-3.3,-3.3,392,304,226,281,214
1239,0.9,-0.38,-0.19,0.73,-3.48,-1.89,391,305,224,279,207
1240,0.9,-0.39,-0.18,-0.06,-2.5,-2.08,394,308,229,281,206
1241,0.9,-0.39,-0.18,0.12,-2.38,-2.01,388,304,226,282,207
1242,0.9,-0.39,-0.19,0.55,-3.3,-2.56,394,302,226,280,205
1243,0.9,-0.39,-0.18,1.53,-2.75,-2.5,391,303,228,283,205
1244,0.9,-0.39,-0.19,0.67,-3.3,-2.08,391,305,227,285,203
1245,0.9,-0.39,-0.17,0.06,-0.85,-3.23,389,303,224,280,205
1246,0.9,-0.39,-0.18,0.18,-2.26,-2.69,392,304,224,286,208
1247,0.91,-0.39,-0.18,-0.43,-2.87,-1.83,391,304,228,279,208
1248,0.9,-0.39,-0.18,0.61,-2.5,-2.01,390,306,226,280,206
1249,0.89,-0.39,-0.19,0.73,-2.93,-1.71,390,308,228,283,209
1250,0.9,-0.4,-0.18,0.18,-2.08,-2.08,394,305,224,280,207
1251,0.89,-0.39,-0.19,-0.06,-2.81,-2.32,391,309,229,283,214
1252,0.9,-0.4,-0.19,-0.37,-3.6,-2.08,391,307,227,280,207
1253,0.9,-0.39,-0.21,1.1,-2.62,-2.81,392,305,228,283,204
1254,0.9,-0.39,-0.19,0.31,-3.05,-3.23,393,320,228,284,208
1255,0.91,-0.39,-0.2,0.55,-2.87,-3.23,388,307,224,281,206
1256,0.9,-0.39,-0.2,0.18,-2.93,-1.53,389,304,223,283,207
1257,0.9,-0.38,-0.2,1.1,-2.81,-2.62,390,299,226,284,205
1258,0.9,-0.39,-0.2,1.46,-2.99,-2.75,387,305,226,279,205
1259,0.9,-0.39,-0.19,0.61,-1.59,-2.69,393,309,227,281,205
1260,0.9,-0.39,-0.18,0.55,-2.81,-2.32,393,301,225,283,208
1261,0.9,-0.4,-0.18,-0.31,-3.3,-3.42,392,300,226,280,209
1262,0.91,-0.38,-0.18,0.67,-2.56,-3.11,391,306,226,280,206
1263,0.9,-0.38,-0.19,1.65,-2.93,-3.17,391,305,226,281,198
1264,0.9,-0.38,-0.19,-0.67,-3.23,-2.44,389,308,226,284,205
1265,0.9,-0.39,-0.2,1.71,-1.83,-1.89,389,303,229,280,208
1266,0.91,-0.38,-0.19,-1.53,-2.01,-3.11,391,307,228,283,204
1267,0.9,-0.39,-0.18,-0.98,-0.61,-0.73,387,307,228,279,206
1268,0.91,-0.38,-0.18,1.65,-1.95,-1.71,390,308,229,280,207
1269,0.89,-0.39,-0.18,2.5,-2.32,-1.95,392,309,229,280,229
1270,0.91,-0.38,-0.21,0.55,-1.89,-4.27,394,304,230,283,212
1271,0.88,-0.4,-0.17,2.01,-1.71,-2.56,389,300,226,281,206
1272,0.88,-0.4,-0.18,-4.15,-3.97,-6.47,390,299,229,293,205
1273,0.9,-0.38,-0.19,-1.65,-2.99,-2.93,394,303,229,282,208
1274,0.9,-0.38,-0.19,0.18,-3.78,-4.46,388,301,226,281,207
1275,0.89,-0.39,-0.19,0.49,-4.39,-0.98,391,310,225,281,203
1276,0.89,-0.39,-0.2,-0.24,-0.43,-4.64,393,304,229,279,236
1277,0.91,-0.38,-0.17,0.79,-2.81,-2.69,387,305,228,279,207
1278,0.9,-0.38,-0.18,2.56,-3.23,-3.97,391,307,227,278,206
1279,0.9,-0.35,-0.18,2.44,-3.6,-8.85,391,302,227,283,207
1280,0.91,-0.35,-0.1,-9.22,-11.54,-1.71,389,300,226,281,205
1281,0.96,-0.33,-0.11,5.98,-10.56,-2.56,389,305,228,280,207
1282,0.92,-0.36,-0.13,-5.07,-3.72,-1.34,390,308,240,277,207
1283,0.97,-0.33,-0.13,15.01,4.33,-6.59,386,308,226,285,208
1284,0.96,-0.28,-0.13,0.55,1.53,-4.88,389,304,227,280,204
1285,0.91,-0.31,-0.1,-1.22,-0.79,-6.53,392,304,226,284,208
1286,0.95,-0.29,-0.12,0.55,-2.75,-3.72,389,307,225,280,203
1287,0.94,-0.29,-0.11,-1.28,-5.43,0.43,387,298,229,281,208
1288,0.97,-0.29,-0.09,1.04,-2.75,-1.59,390,305,229,280,206
1289,0.96,-0.27,-0.1,2.14,-1.53,-1.77,387,308,229,281,205
1290,0.96,-0.27,-0.1,2.08,-3.42,-2.38,389,309,229,284,206
1291,0.98,-0.27,-0.1,2.08,-1.65,-2.44,388,310,227,284,206
1292,0.95,-0.27,-0.1,-0.55,-3.6,-2.32,387,302,227,284,207
1293,0.96,-0.27,-0.1,-2.38,-4.03,-2.69,384,302,225,281,208
1294,0.96,-0.26,-0.1,-0.43,-3.42,-2.56,385,306,226,282,206
1295,0.96,-0.28,-0.09,-3.48,-6.35,0.98,384,302,226,283,204
1296,0.92,-0.25,-0.11,5.43,-0.92,-0.24,382,307,229,284,217
1297,0.93,-0.28,-0.14,0.67,-1.65,-5.31,383,306,225,281,209
1298,0.96,-0.28,-0.14,0.85,-2.44,-2.32,386,306,230,279,207
1299,0.96,-0.26,-0.15,-1.95,-4.15,-2.01,381,306,225,281,206
1300,0.96,-0.27,-0.13,-0.73,-3.42,-2.26,381,309,228,282,204
1301,0.96,-0.28,-0.12,-0.12,-1.65,-1.59,386,307,229,281,209
1302,0.97,-0.28,-0.13,1.04,-2.75,-1.4,380,306,232,280,209
1303,0.95,-0.29,-0.14,1.53,-3.91,-1.1,384,309,229,279,206
1304,0.94,-0.28,-0.15,3.05,-5.49,-1.65,388,301,223,280,204
1305,0.94,-0.32,-0.14,-0.79,-1.83,-2.44,394,304,227,282,206
1306,0.94,-0.31,-0.12,-1.89,-3.97,-1.34,388,307,226,280,206
1307,0.94,-0.31,-0.14,0.49,-4.82,-2.99,391,305,229,282,209
1308,0.98,-0.28,-0.14,-2.08,-3.05,-4.27,395,300,227,282,209
1309,0.97,-0.29,-0.16,7.26,-9.46,6.29,394,304,230,282,208
1310,0.89,-0.37,-0.11,-0.73,-3.66,2.2,396,304,227,283,205
1311,0.96,-0.3,-0.12,7.2,-0.98,-6.71,397,306,224,282,243
1312,0.93,-0.33,-0.14,1.16,-1.59,-6.23,396,299,230,285,211
1313,0.88,-0.39,-0.13,5.43,1.28,3.72,395,301,228,285,210
1314,0.96,-0.4,-0.11,1.89,5.43,-13.18,393,301,227,284,214
1315,0.95,-0.37,-0.14,-2.14,-14.4,1.83,399,308,224,284,209
1316,0.91,-0.38,-0.17,-2.2,-1.34,-11.05,401,303,225,284,206
1317,0.93,-0.36,-0.13,3.42,-6.41,-3.54,398,299,225,280,206
1318,0.98,-0.37,-0.14,4.82,11.11,0.49,402,300,227,276,207
1319,0.9,-0.37,-0.09,1.65,2.99,-7.93,395,295,227,280,206
1320,0.92,-0.37,-0.07,-2.5,-2.93,0.18,399,296,223,281,207
1321,0.93,-0.37,-0.06,-1.59,-3.3,-2.14,396,298,224,280,207
1322,0.92,-0.37,-0.06,0.61,-3.17,-2.75,397,299,224,280,206
1323,0.93,-0.38,-0.04,-0.43,-4.82,-1.53,401,300,228,283,207
1324,0.92,-0.37,-0.05,0.79,-2.62,-2.5,398,302,228,281,209
1325,0.92,-0.38,-0.07,-2.38,-3.72,-2.2,400,299,224,281,206
1326,0.92,-0.39,-0.05,-1.53,-4.03,-2.56,396,299,230,282,208
1327,0.94,-0.37,-0.08,2.44,-1.77,-3.3,394,294,225,282,210
1328,0.94,-0.38,-0.03,-0.43,-1.22,-0.92,395,299,227,281,208
1329,0.93,-0.38,-0.03,-1.46,-4.64,-1.16,394,301,232,286,213
1330,0.91,-0.39,-0.06,1.22,-3.23,-3.17,394,295,226,281,207
1331,0.92,-0.38,-0.06,2.44,-2.87,-3.23,391,299,228,279,208
1332,0.93,-0.38,-0.06,-0.12,-6.16,-1.59,393,299,222,284,209
1333,0.91,-0.38,-0.06,0.73,-2.32,-0.37,392,299,224,280,203
1334,0.92,-0.38,-0.06,0.92,-0.85,-2.44,395,304,226,282,208
1335,0.93,-0.38,-0.05,1.53,-2.5,-1.89,389,299,225,282,205
1336,0.92,-0.39,-0.06,0.18,-3.42,-3.85,387,298,224,282,209
1337,0.92,-0.38,-0.07,0.12,-3.66,-2.99,390,301,225,281,210
1338,0.93,-0.38,-0.04,0.92,-2.93,-1.65,392,300,225,279,208
1339,0.93,-0.39,-0.05,2.62,-2.26,-2.62,389,303,226,281,209
1340,0.92,-0.37,-0.06,0.49,-1.53,-2.75,387,302,225,280,205
1341,0.93,-0.38,-0.08,2.38,-5.19,-2.32,387,301,232,281,209
1342,0.92,-0.38,-0.05,0.12,-3.97,-2.32,385,300,226,280,216
1343,0.92,-0.38,-0.04,0.31,-2.14,-1.77,384,300,226,282,208
1344,0.92,-0.39,-0.05,1.04,-2.08,-2.26,389,303,225,281,208
1345,0.91,-0.39,-0.06,2.99,-2.5,-3.05,386,300,225,280,206
1346,0.91,-0.39,-0.04,1.89,0.31,-2.32,386,301,227,281,208
1347,0.92,-0.39,-0.05,0.12,-3.23,-2.87,386,300,224,281,207
1348,0.92,-0.39,-0.03,-0.24,-2.81,-1.59,385,297,227,282,204
1349,0.92,-0.39,-0.04,0.73,-2.26,-2.08,382,301,220,286,211
1350,0.93,-0.39,-0.04,0.18,-2.81,-3.17,380,304,229,281,207
1351,0.91,-0.38,-0.05,0.61,-4.09,-2.81,387,297,227,282,208
1352,0.92,-0.39,-0.06,-0.73,-4.21,-1.83,387,304,228,284,207
1353,0.92,-0.39,-0.05,0.61,-2.38,-2.32,385,305,226,285,208
1354,0.92,-0.38,-0.06,0.98,-2.5,-3.11,387,302,228,283,208
1355,0.91,-0.38,-0.06,0.31,-3.66,-0.85,387,302,226,284,209
1356,0.91,-0.39,-0.05,0.0,-2.56,-2.2,387,301,229,284,207
1357,0.92,-0.39,-0.04,-0.67,-2.56,-1.53,383,306,225,279,207
1358,0.9,-0.4,-0.06,-0.43,-5.25,-1.83,389,305,229,282,209
1359,0.92,-0.39,-0.06,3.17,-1.4,-3.85,387,305,223,285,206
1360,0.92,-0.39,-0.06,0.61,-3.11,-1.28,384,315,226,285,211
1361,0.93,-0.39,-0.05,-0.18,-3.23,-1.28,383,307,232,281,204
1362,0.92,-0.39,-0.06,0.24,-3.11,-2.2,385,303,228,284,209
1363,0.93,-0.4,-0.05,-0.73,-4.76,-2.14,387,302,229,281,210
1364,0.92,-0.4,-0.04,0.67,-3.23,-2.44,383,302,227,289,206
1365,0.92,-0.39,-0.05,0.37,-3.11,-2.99,385,303,227,281,213
1366,1.1,-0.38,-0.18,2.69,-13.79,13.79,376,298,227,283,210
1367,0.91,-0.39,-0.08,-6.47,-2.01,3.54,382,300,233,285,207
1368,0.93,-0.38,-0.05,0.18,-2.75,-2.56,379,302,227,282,207
1369,0.94,-0.37,-0.06,2.2,-2.26,-0.37,376,302,225,283,206
1370,0.93,-0.37,-0.06,-0.67,-4.09,-0.55,379,299,229,282,208
1371,0.94,-0.38,-0.08,-4.46,-8.12,-0.98,378,298,228,284,209
1372,0.92,-0.38,-0.07,-1.22,-2.2,-1.95,377,318,225,282,209
1373,0.93,-0.38,-0.08,-0.12,-2.01,-1.95,370,305,226,279,208
1374,0.92,-0.39,-0.06,-1.04,-3.05,-0.73,372,316,227,282,208
1375,0.9,-0.4,-0.09,-2.08,-1.16,-3.17,366,302,227,282,206
1376,0.92,-0.39,-0.08,2.81,-1.28,-3.48,370,304,226,282,207
1377,0.92,-0.4,-0.07,0.55,-1.53,-2.93,360,299,228,284,203
1378,0.91,-0.4,-0.07,1.04,-2.62,-2.01,355,303,227,281,225
1379,0.92,-0.41,-0.09,0.73,-3.3,-3.3,353,304,229,282,211
1380,0.92,-0.39,-0.09,-0.55,-2.69,-2.81,353,305,229,283,208
1381,0.92,-0.39,-0.08,-0.24,-3.36,-2.32,348,302,227,283,208
1382,0.93,-0.39,-0.08,0.55,-3.23,-4.7,350,309,225,281,205
1383,0.93,-0.4,-0.07,-1.16,-3.6,-0.55,354,300,227,284,210
1384,0.92,-0.4,-0.08,-1.53,-4.33,-1.53,354,308,227,284,211
1385,0.91,-0.38,-0.08,-1.4,0.73,-4.39,348,306,227,281,207
1386,0.93,-0.38,-0.08,1.89,-3.54,-3.3,353,308,229,285,210
1387,0.93,-0.39,-0.07,0.43,-2.93,-2.93,353,305,228,284,208
1388,0.93,-0.38,-0.08,-0.12,-4.03,-1.95,352,303,227,280,205
1389,0.91,-0.38,-0.07,0.98,-2.44,-2.56,355,305,227,283,209
1390,0.92,-0.38,-0.08,0.49,-5.31,-1.71,356,307,228,291,210
1391,0.89,-0.38,-0.1,3.48,-4.64,-0.18,368,302,225,279,211
1392,0.92,-0.4,-0.1,2.81,-4.52,-2.5,365,303,233,284,209
1393,0.91,-0.39,-0.13,11.84,-2.38,3.72,371,300,229,281,210
1394,0.92,-0.42,-0.09,0.31,-2.69,-0.98,386,306,224,282,239
1395,0.91,-0.41,-0.1,4.21,-6.65,-3.6,393,308,227,285,209
1396,0.92,-0.4,-0.1,-0.06,-2.87,-1.95,392,308,227,281,208
1397,0.9,-0.41,-0.11,1.53,-3.72,-2.75,391,307,229,283,211
1398,0.96,-0.39,-0.09,5.13,-5.25,-6.59,391,303,227,282,207
1399,0.9,-0.4,-0.07,3.3,-1.4,-4.03,390,301,228,284,210
1400,0.93,-0.4,-0.04,0.12,-3.78,-2.93,388,305,227,283,209
1401,0.92,-0.41,-0.05,-0.55,-3.72,-2.26,387,308,230,282,211
1402,0.9,-0.4,-0.04,4.7,-4.46,-3.23,384,310,231,284,207
1403,0.92,-0.4,-0.05,0.61,-1.77,-3.42,385,302,232,283,209
1404,0.93,-0.4,-0.08,-0.31,-5.25,-3.78,382,308,229,285,210
1405,0.9,-0.42,-0.05,2.38,-2.81,-2.81,383,310,225,282,211
1406,0.92,-0.42,-0.05,-0.49,-3.66,-3.11,387,309,229,283,208
1407,0.93,-0.43,-0.06,-0.37,-4.21,-1.83,386,302,230,284,211
1408,0.91,-0.42,-0.05,-0.12,-2.38,-2.69,385,307,226,281,208
1409,0.92,-0.41,-0.06,-0.55,-5.62,-1.71,381,307,227,282,208
1410,0.91,-0.41,-0.07,-0.98,-3.66,-1.83,385,308,227,285,208
1411,0.91,-0.41,-0.05,1.4,-1.71,-1.71,385,311,230,281,210
1412,0.9,-0.41,-0.06,0.18,-3.17,-2.81,387,312,228,284,209
1413,0.91,-0.43,-0.07,-0.31,-2.32,0.18,383,309,227,283,210
1414,0.92,-0.43,-0.06,-1.1,-0.18,-3.72,385,318,232,284,220
1415,0.91,-0.42,-0.06,1.71,-1.22,-3.23,384,311,232,281,208
1416,0.92,-0.41,-0.05,1.89,-2.69,-2.62,386,310,229,284,208
1417,0.9,-0.41,-0.03,-1.28,-2.87,-2.01,387,304,228,284,221
1418,0.89,-0.41,-0.05,-1.4,-3.72,-1.95,384,311,231,285,211
1419,0.9,-0.42,-0.09,0.37,-2.32,-4.46,382,312,227,284,210
1420,0.9,-0.42,-0.05,2.81,-2.75,-1.83,388,306,226,286,238
1421,0.92,-0.41,-0.06,0.67,-2.87,-2.69,386,306,232,282,211
1422,0.91,-0.41,-0.06,0.12,-2.44,-2.75,389,312,228,282,207
1423,0.9,-0.41,-0.04,-0.31,-2.08,-2.99,387,308,228,284,210
1424,0.92,-0.42,-0.06,-1.04,-4.09,-2.26,384,309,231,287,209
1425,0.9,-0.42,-0.05,-1.46,-3.91,-1.34,383,305,230,286,210
1426,0.91,-0.41,-0.06,0.31,-4.94,-1.77,381,307,228,283,206
1427,0.92,-0.41,-0.04,-4.09,-3.48,6.1,379,309,229,294,211
1428,0.92,-0.41,-0.05,-0.43,-3.72,0.0,384,311,231,283,210
1429,0.9,-0.42,-0.06,-1.16,-3.48,-1.71,385,313,232,295,209
1430,0.91,-0.42,-0.05,-1.1,-4.33,-1.71,386,303,230,285,212
1431,0.91,-0.42,-0.06,0.73,-2.44,-1.95,382,308,228,288,209
1432,0.91,-0.42,-0.04,-0.55,-3.66,-2.93,384,311,231,283,209
1433,0.91,-0.42,-0.05,0.79,-3.42,-3.05,384,305,230,294,210
1434,0.92,-0.42,-0.06,0.12,-2.32,-2.26,384,309,231,287,210
1435,0.91,-0.42,-0.04,0.43,-2.32,-1.95,384,311,228,284,211
1436,0.92,-0.42,-0.06,0.18,-2.62,-2.08,384,309,229,287,211
1437,0.9,-0.42,-0.04,-0.06,-3.05,-1.28,383,309,230,284,210
1438,0.91,-0.43,-0.04,-0.24,-1.59,-1.95,381,306,232,284,209
1439,0.91,-0.42,-0.06,0.55,-3.17,-2.01,381,309,230,286,213
1440,0.91,-0.42,-0.05,0.12,-2.87,-2.32,382,312,228,283,211
1441,0.91,-0.43,-0.04,-0.31,-3.3,-2.01,378,311,230,284,222
1442,0.91,-0.42,-0.05,2.26,-2.14,-2.99,384,310,232,285,207
1443,0.9,-0.42,-0.05,2.38,-2.32,-2.62,383,310,233,287,211
1444,0.9,-0.43,-0.06,1.65,-2.5,-4.58,379,312,229,286,211
1445,0.9,-0.42,-0.07,0.92,-3.3,-2.44,382,311,230,286,210
1446,0.91,-0.42,-0.05,1.16,-2.08,-2.2,384,309,230,282,207
1447,0.9,-0.42,-0.05,-0.43,-3.17,-1.77,387,313,231,285,208
1448,0.91,-0.42,-0.06,0.37,-4.33,-2.69,383,305,229,285,211
1449,0.9,-0.42,-0.06,0.24,-3.11,-3.11,378,309,229,287,211
1450,0.91,-0.42,-0.05,-0.73,-3.78,-1.83,380,312,230,286,209
1451,0.92,-0.42,-0.06,1.34,-2.56,-3.66,379,317,227,284,208
1452,0.91,-0.42,-0.05,1.4,-2.69,-2.01,383,305,230,283,212
1453,0.92,-0.42,-0.07,-0.49,-2.5,-2.99,379,309,232,284,211
1454,0.91,-0.43,-0.05,3.05,-1.34,-2.26,385,310,233,283,214
1455,0.91,-0.42,-0.06,-1.1,-3.17,-1.89,380,307,231,286,208
1456,0.9,-0.42,-0.07,0.49,-2.75,-3.72,384,310,230,281,210
1457,0.91,-0.42,-0.06,0.0,-3.11,-2.75,383,314,229,288,209
1458,0.9,-0.42,-0.04,-2.2,-3.36,-1.83,382,313,229,287,209
1459,0.9,-0.42,-0.06,1.34,-2.32,-1.83,378,311,232,284,208
1460,0.91,-0.42,-0.06,-0.85,-1.77,-2.87,380,312,228,281,208
1461,0.9,-0.42,-0.07,0.31,-2.56,-4.09,383,311,227,284,209
1462,0.9,-0.42,-0.06,-0.24,-2.01,-2.14,385,310,233,284,209
1463,0.91,-0.42,-0.05,0.18,-2.87,-2.38,383,315,233,291,213
1464,0.91,-0.41,-0.06,0.12,-1.65,-2.32,377,312,231,290,209
1465,0.91,-0.43,-0.06,-1.4,-4.64,-1.95,377,312,233,288,211
1466,0.89,-0.42,-0.05,-0.24,-2.87,-1.46,379,312,229,284,209
1467,0.9,-0.42,-0.07,0.18,-3.42,-3.05,379,312,230,284,211
1468,0.9,-0.42,-0.05,0.85,-2.62,-2.14,381,316,233,282,205
1469,0.89,-0.42,-0.04,0.24,-2.87,-3.05,376,313,232,283,209
1470,0.9,-0.42,-0.06,0.31,-3.11,-2.81,381,318,230,284,210
1471,0.91,-0.42,-0.07,-1.4,-3.05,-2.81,378,312,235,285,210
1472,0.91,-0.42,-0.06,-0.31,-3.3,-2.32,379,315,230,283,209
1473,0.91,-0.42,-0.06,0.92,-2.26,-2.56,375,317,233,284,205
1474,0.9,-0.42,-0.06,0.43,-3.23,-1.53,381,317,233,287,209
1475,0.9,-0.42,-0.06,0.31,-2.81,-2.32,377,314,230,286,208
1476,0.9,-0.42,-0.05,0.55,-3.23,-2.38,380,317,231,285,212
1477,0.91,-0.42,-0.04,-0.67,-3.3,-2.75,376,310,232,286,208
1478,0.9,-0.43,-0.04,0.06,-3.11,-1.65,373,312,237,284,210
1479,0.91,-0.42,-0.05,-0.67,-2.32,-3.05,374,321,232,285,210
1480,0.91,-0.42,-0.06,0.31,-3.23,-2.2,378,317,235,292,211
1481,0.91,-0.42,-0.06,0.24,-3.23,-1.46,384,312,230,280,211
1482,0.91,-0.42,-0.06,0.18,-2.38,-2.69,378,316,234,289,210
1483,0.91,-0.42,-0.08,0.43,-3.3,-2.5,376,313,229,284,207
1484,0.9,-0.42,-0.06,1.16,-2.14,-2.69,375,314,231,283,210
1485,0.92,-0.42,-0.06,1.04,-2.62,-3.11,376,312,236,286,212
1486,0.9,-0.42,-0.05,-0.37,-4.7,-1.53,378,309,230,284,211
1487,0.91,-0.42,-0.06,0.55,-2.62,-2.99,377,315,235,283,209
1488,0.9,-0.41,-0.07,0.67,-3.48,-1.95,369,316,234,286,210
1489,0.91,-0.41,-0.06,0.18,-2.93,-2.44,368,314,232,287,208
1490,0.91,-0.41,-0.04,0.0,-3.66,-1.04,374,311,232,283,210
1491,0.92,-0.42,-0.07,2.62,-6.47,-1.46,374,311,235,285,210
1492,0.9,-0.43,-0.02,-2.87,0.67,-1.46,378,313,230,283,212
1493,0.9,-0.44,-0.06,-2.08,-1.59,-2.87,385,311,231,286,213
1494,0.92,-0.43,-0.07,-3.17,-16.66,-7.26,388,312,232,285,211
1495,0.92,-0.38,-0.13,-7.57,-4.64,-8.24,390,311,232,284,213
1496,0.92,-0.37,-0.14,5.31,2.99,-2.38,386,314,234,283,212
1497,0.93,-0.37,-0.11,-5.07,-4.09,-1.04,391,313,245,282,213
1498,0.91,-0.38,-0.11,-5.19,-5.74,-0.37,391,313,233,286,209
1499,0.94,-0.38,-0.05,-6.9,-6.35,-0.73,385,315,233,284,214
1500,0.92,-0.38,-0.13,-0.12,-4.03,-0.98,386,313,235,287,213
1501,0.93,-0.38,-0.13,3.3,-3.36,-2.38,388,312,235,283,214
1502,0.92,-0.38,-0.12,1.59,-3.11,-2.62,385,316,235,295,211
1503,0.91,-0.38,-0.12,0.55,-2.32,-2.44,387,314,234,285,210
1504,0.91,-0.38,-0.13,-0.55,-3.72,-1.34,385,316,235,285,209
1505,0.91,-0.38,-0.12,-0.24,-0.79,-2.69,387,314,233,284,208
1506,0.96,-0.29,-0.04,2.62,-4.82,0.55,401,295,222,271,196
1507,0.94,-0.3,-0.06,0.18,-4.82,-2.62,403,295,220,271,194
1508,0.97,-0.31,-0.06,-0.61,-2.87,-3.66,395,287,218,272,195
1509,0.95,-0.31,-0.04,0.61,-0.61,-0.55,396,292,221,270,194
1510,0.91,-0.33,-0.03,2.38,-3.85,-5.74,401,289,218,269,197
1511,0.93,-0.3,-0.09,-4.94,-3.42,0.85,400,289,218,271,197
1512,0.92,-0.31,-0.09,4.27,-1.22,-2.14,405,288,220,272,199
1513,0.98,-0.31,-0.12,2.44,-5.25,-3.17,402,294,225,272,199
1514,0.95,-0.32,-0.1,0.61,-1.83,-1.65,401,298,217,273,196
1515,0.95,-0.33,-0.11,-0.55,-3.11,-0.55,403,293,217,274,200
1516,0.95,-0.33,-0.1,1.89,0.06,-2.99,406,291,224,272,198
1517,0.94,-0.33,-0.12,4.94,-3.05,-2.26,410,295,223,275,197
1518,0.93,-0.35,-0.1,0.67,-0.73,-3.3,409,289,222,270,199
1519,0.94,-0.35,-0.09,-2.69,-2.93,-2.2,408,291,222,270,198
1520,0.93,-0.34,-0.11,-0.06,-2.62,-2.75,408,300,219,275,197
1521,0.94,-0.34,-0.1,-0.24,-3.48,-1.71,409,290,223,272,198
1522,0.93,-0.34,-0.12,1.22,-4.15,-1.95,407,298,222,272,200
1523,0.93,-0.34,-0.12,0.61,-1.95,-2.56,410,293,217,275,200
1524,0.92,-0.35,-0.12,-0.73,-4.39,-2.81,411,289,219,274,197
1525,0.93,-0.34,-0.13,2.14,-2.26,-2.81,408,297,219,274,198
1526,0.94,-0.34,-0.12,0.79,-3.3,-2.38,410,291,220,275,229
1527,0.92,-0.34,-0.13,0.37,-2.56,-2.26,411,294,219,273,200
1528,0.93,-0.34,-0.12,0.37,-2.62,-2.69,410,301,222,281,197
1529,0.93,-0.34,-0.13,0.06,-3.66,-2.38,410,295,219,276,201
1530,0.93,-0.34,-0.12,0.73,-2.08,-2.69,410,293,219,275,200
1531,0.93,-0.34,-0.12,0.85,-2.5,-2.75,410,300,221,275,198
1532,0.93,-0.34,-0.12,0.92,-2.75,-1.95,412,294,218,275,198
1533,0.93,-0.34,-0.13,1.28,-1.71,-2.26,410,292,223,270,199
1534,0.94,-0.34,-0.12,-0.06,-2.87,-2.44,409,296,223,273,201
1535,0.93,-0.33,-0.12,2.26,-2.44,-2.69,409,295,222,272,199
1536,0.93,-0.34,-0.13,0.49,-5.0,-3.11,409,295,222,276,199
1537,0.94,-0.35,-0.11,0.31,-3.42,-2.32,410,300,220,274,198
1538,0.93,-0.34,-0.13,0.06,-3.42,-1.89,407,300,219,274,201
1539,0.93,-0.35,-0.12,0.73,-2.2,-2.56,410,301,223,276,199
1540,0.95,-0.34,-0.13,0.18,-3.23,-3.85,410,294,221,275,199
1541,0.93,-0.34,-0.12,0.79,-2.62,-2.87,409,299,215,275,198
1542,0.93,-0.34,-0.12,0.43,-3.66,-2.81,410,291,223,276,202
1543,0.93,-0.34,-0.13,0.79,-1.89,-3.11,410,294,219,271,203
1544,0.93,-0.34,-0.13,0.61,-2.75,-2.44,413,299,221,273,202
1545,0.93,-0.34,-0.13,-0.06,-2.87,-2.26,405,299,221,274,199
1546,0.93,-0.34,-0.12,0.31,-2.5,-2.38,409,295,223,281,200
1547,0.93,-0.34,-0.12,0.67,-2.2,-2.26,410,298,221,275,201
1548,0.91,-0.34,-0.11,-0.18,-2.01,-1.28,410,296,222,281,199
1549,0.93,-0.34,-0.11,0.73,-2.26,-2.99,411,294,223,276,200
1550,0.94,-0.34,-0.12,0.43,-2.32,-2.99,408,296,222,274,198
1551,0.92,-0.34,-0.11,-1.1,-3.36,-2.62,409,299,223,276,201
1552,0.94,-0.34,-0.11,0.18,-2.56,-2.26,409,294,222,283,202
1553,0.93,-0.34,-0.13,-0.12,-2.32,-2.5,409,299,221,275,203
1554,0.93,-0.33,-0.11,-0.31,-1.83,-2.32,409,299,221,275,200
1555,0.91,-0.35,-0.1,-1.16,-5.68,4.09,401,297,222,278,203
1556,0.93,-0.38,-0.11,3.66,-3.85,0.79,397,312,224,275,201
1557,0.94,-0.36,-0.14,-0.61,-3.78,-4.82,400,303,221,277,203
1558,0.92,-0.36,-0.12,0.37,-2.56,-2.99,400,299,227,281,202
1559,0.93,-0.35,-0.14,-0.12,-2.69,-4.15,404,300,220,274,202
1560,0.93,-0.35,-0.12,0.06,-3.23,-2.08,402,294,222,278,202
1561,0.93,-0.36,-0.13,1.04,-2.81,-3.23,402,300,226,275,202
1562,0.92,-0.35,-0.12,-0.24,-3.78,-2.44,393,298,224,278,197
1563,0.93,-0.34,-0.13,1.34,-2.01,-2.75,402,293,222,273,202
1564,0.92,-0.35,-0.12,0.24,-1.83,-2.14,401,303,221,276,203
1565,0.93,-0.35,-0.13,0.61,-2.62,-2.56,406,310,224,275,199
1566,0.94,-0.35,-0.12,0.18,-3.17,-2.26,403,302,224,276,201
1567,0.94,-0.34,-0.12,0.12,-2.99,-2.75,403,298,222,275,200
1568,0.93,-0.36,-0.09,-4.09,-2.08,-3.11,400,303,221,277,202
1569,0.93,-0.34,-0.15,-2.2,-10.25,-5.55,405,300,223,276,203
1570,0.96,-0.33,-0.15,-4.39,-9.4,-8.0,404,300,224,278,201
1571,0.93,-0.35,-0.16,-0.31,-3.91,-2.2,394,304,232,274,200
1572,0.83,-0.37,-0.15,-5.49,-6.16,-8.54,400,300,225,278,202
1573,0.93,-0.34,-0.15,1.16,-5.49,-5.25,397,304,226,275,202
1574,0.97,-0.32,-0.15,-4.88,-8.97,-1.16,402,295,223,274,202
1575,0.9,-0.33,-0.18,-11.72,-9.28,-9.09,396,298,223,276,200
1576,0.95,-0.33,-0.14,1.46,-5.19,-0.79,395,295,225,276,205
1577,0.94,-0.33,-0.14,-2.5,-4.15,-2.38,391,300,224,276,203
1578,0.93,-0.33,-0.16,-1.1,-2.5,-2.44,393,299,226,280,202
1579,0.95,-0.34,-0.15,2.81,-1.4,-1.22,395,299,223,284,203
1580,0.95,-0.35,-0.14,-1.28,-2.75,-4.94,390,298,225,276,202
1581,0.93,-0.35,-0.13,-1.71,-3.42,-2.62,388,301,222,277,201
1582,0.97,-0.34,-0.14,-0.61,-1.77,-5.25,391,294,224,276,201
1583,0.94,-0.34,-0.13,1.53,-4.64,-0.67,393,298,225,277,199
1584,0.97,-0.31,-0.15,-3.36,-5.13,-3.97,387,297,227,277,202
1585,0.93,-0.35,-0.12,-0.61,-1.89,-4.03,384,301,220,276,201
1586,0.94,-0.35,-0.14,1.22,-5.07,-2.56,386,300,222,278,199
1587,0.9,-0.32,-0.15,-0.98,0.79,-8.79,386,303,232,272,201
1588,0.91,-0.35,-0.12,5.8,1.53,-0.18,386,301,225,279,211
1589,0.95,-0.33,-0.14,1.46,-6.47,-3.05,383,307,230,278,203
1590,0.95,-0.34,-0.16,1.89,-3.54,-1.4,381,302,223,279,201
1591,0.92,-0.34,-0.13,0.06,-3.11,-2.75,380,296,222,278,201
1592,0.92,-0.34,-0.14,-1.65,-1.89,-3.05,381,300,223,278,201
1593,0.94,-0.34,-0.15,-1.4,-3.97,-2.2,377,302,225,273,199
1594,0.94,-0.32,-0.15,0.18,-2.87,-3.48,379,299,222,279,202
1595,0.95,-0.32,-0.15,0.67,-1.95,-3.05,380,300,225,275,201
1596,0.93,-0.33,-0.12,-0.12,-1.77,-1.71,379,297,225,278,201
1597,0.92,-0.33,-0.16,-0.37,-3.97,-2.2,381,301,225,275,201
1598,0.95,-0.33,-0.13,2.08,-2.2,-2.01,377,303,225,276,204
1599,0.93,-0.34,-0.15,2.38,-2.2,1.65,377,304,221,276,201
1600,0.9,-0.36,-0.17,4.46,-15.38,-2.87,376,300,226,284,203
1601,0.91,-0.35,-0.15,-2.69,-4.39,-1.34,381,304,223,279,203
1602,0.88,-0.37,-0.16,-2.69,-6.29,-0.67,376,297,221,278,201
1603,0.92,-0.37,-0.15,-0.18,-2.14,-2.32,371,304,225,277,201
1604,0.89,-0.36,-0.15,-3.05,0.49,-8.91,374,306,225,278,203
1605,0.91,-0.36,-0.13,1.22,-1.59,-1.16,371,303,224,279,242
1606,0.91,-0.35,-0.18,5.37,-3.48,-3.05,381,303,223,277,202
1607,0.92,-0.35,-0.17,-0.98,-3.36,-2.5,388,301,224,277,201
1608,0.9,-0.37,-0.16,0.79,-3.23,-4.82,388,304,227,274,198
1609,0.9,-0.35,-0.17,0.06,0.92,-6.53,388,305,223,278,202
1610,0.9,-0.35,-0.18,-0.37,-7.39,-2.5,390,302,227,278,199
1611,0.92,-0.34,-0.19,1.89,-4.33,0.79,386,305,227,280,203
1612,0.92,-0.34,-0.17,2.08,-1.22,-2.01,387,305,224,280,203
1613,0.92,-0.35,-0.19,-1.4,-3.11,-2.26,390,302,227,278,201
1614,0.92,-0.34,-0.17,0.98,-0.55,-2.69,390,304,224,282,204
1615,0.92,-0.32,-0.18,-0.98,-4.76,-3.3,386,302,225,278,203
1616,0.92,-0.35,-0.17,-0.24,2.2,-6.16,389,298,226,280,200
1617,0.91,-0.36,-0.13,1.59,-3.48,-9.09,387,299,224,280,204
1618,0.93,-0.33,-0.1,-2.69,-2.56,-14.71,386,301,224,278,205
1619,0.94,-0.29,-0.12,4.39,8.91,0.61,386,300,226,277,202
1620,0.95,-0.3,-0.08,0.85,-8.73,-4.27,387,301,223,279,202
1621,0.95,-0.29,-0.11,0.06,-6.65,-3.85,386,303,226,276,201
1622,0.95,-0.29,-0.12,0.12,-2.01,-2.14,387,298,226,279,202
1623,0.95,-0.29,-0.14,0.31,-3.42,-2.26,388,298,221,279,203
1624,0.96,-0.29,-0.17,1.34,-6.84,-1.95,389,304,221,280,203
1625,0.95,-0.3,-0.15,0.79,-2.93,-2.44,389,309,225,281,205
1626,0.95,-0.31,-0.13,0.12,-5.49,-1.53,392,304,226,278,204
1627,0.94,-0.32,-0.12,0.92,-3.66,-2.81,389,298,223,274,203
1628,0.94,-0.31,-0.14,-0.92,-3.54,-2.5,397,305,226,281,204
1629,0.94,-0.31,-0.12,0.24,-4.33,-2.69,391,300,224,280,214
1630,0.93,-0.31,-0.12,0.98,-1.77,-2.93,394,312,224,281,200
1631,0.94,-0.31,-0.13,0.06,-1.77,-2.56,390,296,228,279,202
1632,0.94,-0.3,-0.14,0.98,-3.11,-2.5,393,297,226,279,205
1633,0.95,-0.3,-0.15,-0.06,-3.17,-2.44,391,300,225,278,207
1634,0.94,-0.3,-0.14,0.98,-4.52,-2.56,390,306,228,280,202
1635,0.95,-0.31,-0.15,0.37,-3.42,-2.01,388,304,226,281,203
1636,0.94,-0.3,-0.14,0.79,-3.17,-3.17,392,303,227,287,203
1637,0.92,-0.3,-0.14,0.31,-0.67,-5.31,388,300,227,276,203
1638,0.94,-0.3,-0.13,-0.06,-3.54,-2.69,389,301,227,277,202
1639,0.94,-0.3,-0.14,-0.49,-4.03,-2.01,391,299,227,279,203
1640,0.94,-0.3,-0.14,0.67,-1.89,-2.62,391,306,227,282,206
1641,0.95,-0.31,-0.14,-0.18,-2.69,-2.2,392,300,228,280,203
1642,0.95,-0.31,-0.14,2.5,-3.85,-2.2,392,300,227,276,203
1643,0.94,-0.31,-0.13,-0.18,-3.23,-2.08,390,305,226,277,205
1644,0.94,-0.31,-0.13,0.49,-1.71,-1.4,392,305,227,280,204
1645,0.95,-0.31,-0.14,1.1,-2.75,-3.11,392,302,224,278,203
1646,0.94,-0.31,-0.15,-0.12,-2.75,-2.14,391,301,225,277,203
1647,0.93,-0.31,-0.14,0.43,-2.75,-2.2,389,303,223,282,204
1648,0.94,-0.3,-0.14,-0.49,-3.11,-2.38,392,304,226,278,203
1649,0.94,-0.33,-0.15,9.77,-1.53,11.66,393,302,225,275,204
1650,0.79,-0.42,-0.11,3.17,-10.99,1.1,391,301,227,279,200
1651,0.93,-0.45,-0.16,-4.33,-1.16,-6.84,389,303,223,281,218
1652,0.88,-0.45,-0.16,1.34,-0.61,-0.67,386,300,228,278,205
1653,0.85,-0.46,-0.16,-0.24,0.06,-5.68,390,303,227,277,205
1654,0.87,-0.44,-0.13,0.61,-5.31,-5.86,389,302,225,280,200
1655,0.93,-0.4,-0.14,-6.47,-3.05,-13.85,385,301,234,281,200
1656,0.98,-0.3,-0.18,-0.43,-5.13,-18.37,387,302,228,281,205
1657,0.92,-0.33,-0.2,4.64,3.42,-1.95,389,303,228,278,203
1658,0.91,-0.33,-0.18,1.83,-2.08,-2.5,388,300,227,279,203
1659,0.92,-0.34,-0.17,1.53,-2.93,-1.95,386,305,230,281,205
1660,0.94,-0.33,-0.16,0.67,-3.17,-2.32,389,297,224,276,204
1661,0.92,-0.33,-0.17,2.2,0.24,-2.01,390,301,229,281,201
1662,0.93,-0.33,-0.17,0.12,-3.23,-2.38,388,298,224,281,205
1663,0.94,-0.33,-0.16,2.56,-1.59,-2.38,389,305,228,276,203
1664,0.92,-0.33,-0.17,-0.55,-2.99,-2.44,389,306,230,280,206
1665,0.93,-0.34,-0.17,1.1,-3.54,-1.89,389,302,226,279,203
1666,0.93,-0.34,-0.17,0.67,-3.3,-2.56,388,303,236,292,202
1667,0.92,-0.34,-0.16,0.67,-3.72,-2.93,390,314,225,281,204
1668,0.93,-0.34,-0.18,0.43,-2.56,-2.69,388,305,225,278,206
1669,0.93,-0.33,-0.17,1.46,-3.36,-3.05,386,300,226,278,201
1670,0.92,-0.33,-0.17,1.1,-3.11,-2.81,385,302,225,279,200
1671,0.93,-0.34,-0.17,0.06,-2.81,-2.44,389,306,227,280,203
1672,0.93,-0.34,-0.17,1.53,-2.44,-3.05,387,307,226,280,203
1673,0.92,-0.33,-0.17,0.18,-2.69,-2.44,389,307,228,279,202
1674,0.92,-0.34,-0.18,0.55,-3.48,-2.38,384,302,226,272,205
1675,0.92,-0.35,-0.18,1.65,-4.64,-2.69,392,297,241,279,205
1676,0.92,-0.34,-0.18,0.73,-2.08,-3.36,390,302,227,280,206
1677,0.92,-0.34,-0.17,-1.34,-3.97,-2.62,391,306,224,284,207
1678,0.92,-0.34,-0.18,0.92,-1.59,-2.62,385,302,223,278,204
1679,0.91,-0.34,-0.17,-0.24,-1.1,-2.38,386,303,226,279,202
1680,0.93,-0.34,-0.17,1.1,-3.85,-1.89,390,302,238,280,205
1681,0.92,-0.34,-0.17,0.06,-2.62,-1.89,390,304,227,281,212
1682,0.93,-0.34,-0.18,0.0,-4.03,-4.03,391,308,225,279,205
1683,0.92,-0.34,-0.18,-0.98,-3.48,-2.62,393,299,226,282,204
1684,0.93,-0.34,-0.16,0.24,-4.03,-2.01,388,303,225,281,203
1685,0.92,-0.35,-0.18,0.79,-2.81,-2.38,390,302,224,280,204
1686,0.93,-0.35,-0.17,0.06,-2.99,-2.01,392,306,225,279,203
1687,0.92,-0.35,-0.17,0.98,-2.26,-2.2,393,306,226,281,200
1688,0.92,-0.35,-0.17,0.55,-2.26,-3.05,391,306,229,281,206
1689,0.92,-0.35,-0.17,-0.98,-3.23,-2.5,391,306,223,283,205
1690,0.93,-0.35,-0.16,0.06,-4.33,-1.77,391,306,225,279,206
1691,0.92,-0.36,-0.17,0.0,-3.36,-2.75,393,305,225,282,207
1692,0.93,-0.35,-0.16,1.34,-2.01,-3.11,389,303,229,279,204
1693,0.93,-0.34,-0.17,0.92,-3.48,-3.42,394,303,225,279,207
1694,0.92,-0.35,-0.17,0.37,-2.69,-2.14,396,306,229,282,202
1695,0.92,-0.35,-0.17,0.67,-2.38,-2.01,389,303,226,280,206
1696,0.92,-0.36,-0.15,-2.14,-4.27,-1.04,395,302,228,281,244
1697,0.92,-0.36,-0.17,-0.06,-4.15,-1.95,392,303,229,280,205
1698,0.92,-0.36,-0.17,-0.06,-3.23,-2.93,391,302,226,281,206
1699,0.92,-0.36,-0.17,-0.92,-4.03,-2.5,393,302,224,282,205
1700,0.92,-0.36,-0.18,0.12,-2.93,-2.81,384,307,226,281,207
1701,0.92,-0.36,-0.18,0.18,-3.91,-2.75,393,305,226,281,207
1702,0.92,-0.36,-0.18,0.85,-2.5,-2.38,390,300,224,282,204
1703,0.92,-0.36,-0.18,0.92,-2.32,-2.38,392,306,232,280,205
1704,0.92,-0.36,-0.19,-0.43,-3.11,-2.08,391,305,226,277,202
1705,0.91,-0.37,-0.18,0.12,-3.23,-1.83,394,306,223,279,205
1706,0.91,-0.36,-0.19,0.43,-4.21,-2.56,393,306,225,281,207
1707,0.92,-0.37,-0.17,1.1,-2.69,-3.05,393,305,226,282,206
1708,0.92,-0.37,-0.18,0.06,-2.14,-2.87,395,304,227,278,205
1709,0.92,-0.36,-0.18,0.18,-2.69,-2.2,390,306,224,286,207
1710,0.93,-0.36,-0.18,0.37,-3.48,-1.71,395,307,228,280,213
1711,0.92,-0.37,-0.18,0.12,-2.26,-2.01,393,306,229,278,205
1712,0.91,-0.37,-0.18,-0.18,-3.11,-1.65,390,308,227,283,204
1713,0.91,-0.37,-0.19,-0.12,-4.09,-2.38,391,307,226,279,207
1714,0.92,-0.37,-0.17,-1.34,-3.42,-0.98,391,304,222,279,212
1715,0.91,-0.37,-0.19,-0.73,-3.6,-1.95,386,305,226,284,203
1716,0.91,-0.37,-0.18,-0.61,-2.99,-2.81,394,307,226,278,206
1717,0.92,-0.37,-0.18,-0.31,-4.33,-1.83,392,303,240,281,205
1718,0.91,-0.37,-0.19,-0.12,-3.48,-1.71,395,306,227,280,205
1719,0.91,-0.36,-0.19,0.61,-1.16,-2.32,394,306,228,282,200
1720,0.92,-0.37,-0.18,0.98,-7.81,-3.11,388,300,227,281,205
1721,0.91,-0.38,-0.18,0.85,-2.62,-2.62,403,303,228,281,204
1722,0.91,-0.37,-0.18,0.12,-3.05,-2.81,392,306,229,280,208
1723,0.91,-0.37,-0.18,0.85,-2.2,-2.93,392,299,226,283,208
1724,0.91,-0.37,-0.18,0.24,-3.3,-2.5,392,304,224,278,206
1725,0.91,-0.37,-0.18,0.85,-2.2,-2.32,389,304,233,280,206
1726,0.91,-0.37,-0.19,0.37,-2.99,-1.77,391,305,224,282,207
1727,0.9,-0.38,-0.17,0.31,-2.62,-1.53,391,304,223,283,206
1728,0.9,-0.38,-0.18,0.37,-2.32,-2.01,391,303,226,277,205
1729,0.9,-0.38,-0.19,0.79,-2.56,-1.71,392,302,226,281,203
1730,0.9,-0.38,-0.2,1.59,-3.23,-2.56,388,303,225,281,202
1731,0.9,-0.39,-0.19,-0.49,-4.46,-2.81,390,309,226,282,202
1732,0.91,-0.38,-0.18,0.67,-2.5,-2.87,392,305,224,280,205
1733,0.91,-0.39,-0.19,0.0,-4.15,-1.83,392,307,227,281,206
1734,0.91,-0.39,-0.18,-0.06,-3.3,-2.2,391,306,221,279,205
1735,0.9,-0.39,-0.19,0.98,-2.87,-2.32,392,300,226,277,207
1736,0.9,-0.39,-0.18,0.37,-2.62,-2.2,388,303,226,283,205
1737,0.9,-0.38,-0.18,0.92,-3.17,-2.2,391,298,226,286,205
1738,0.89,-0.39,-0.19,-0.24,-3.11,-1.83,393,306,223,275,207
1739,0.9,-0.39,-0.19,0.55,-2.87,-3.11,396,310,226,280,203
1740,0.9,-0.38,-0.19,0.98,-3.3,-3.3,392,304,226,281,214
1741,0.9,-0.38,-0.19,0.73,-3.48,-1.89,391,305,224,279,207
1742,0.9,-0.39,-0.18,-0.06,-2.5,-2.08,394,308,229,281,206
1743,0.9,-0.39,-0.18,0.12,-2.38,-2.01,388,304,226,282,207
1744,0.9,-0.39,-0.19,0.55,-3.3,-2.56,394,302,226,280,205
1745,0.9,-0.39,-0.18,1.53,-2.75,-2.5,391,303,228,283,205
1746,0.9,-0.39,-0.19,0.67,-3.3,-2.08,391,305,227,285,203
1747,0.9,-0.39,-0.17,0.06,-0.85,-3.23,389,303,224,280,205
1748,0.9,-0.39,-0.18,0.18,-2.26,-2.69,392,304,224,286,208
1749,0.91,-0.39,-0.18,-0.43,-2.87,-1.83,391,304,228,279,208
1750,0.9,-0.39,-0.18,0.61,-2.5,-2.01,390,306,226,280,206
1751,0.89,-0.39,-0.19,0.73,-2.93,-1.71,390,308,228,283,209
1752,0.9,-0.4,-0.18,0.18,-2.08,-2.08,394,305,224,280,207
1753,0.89,-0.39,-0.19,-0.06,-2.81,-2.32,391,309,229,283,214
1754,0.9,-0.4,-0.19,-0.37,-3.6,-2.08,391,307,227,280,207
1755,0.9,-0.39,-0.21,1.1,-2.62,-2.81,392,305,228,283,204
1756,0.9,-0.39,-0.19,0.31,-3.05,-3.23,393,320,228,284,208
1757,0.91,-0.39,-0.2,0.55,-2.87,-3.23,388,307,224,281,206
1758,0.9,-0.39,-0.2,0.18,-2.93,-1.53,389,304,223,283,207
1759,0.9,-0.38,-0.2,1.1,-2.81,-2.62,390,299,226,284,205
1760,0.9,-0.39,-0.2,1.46,-2.99,-2.75,387,305,226,279,205
1761,0.9,-0.39,-0.19,0.61,-1.59,-2.69,393,309,227,281,205
1762,0.9,-0.39,-0.18,0.55,-2.81,-2.32,393,301,225,283,208
1763,0.9,-0.4,-0.18,-0.31,-3.3,-3.42,392,300,226,280,209
1764,0.91,-0.38,-0.18,0.67,-2.56,-3.11,391,306,226,280,206
1765,0.9,-0.38,-0.19,1.65,-2.93,-3.17,391,305,226,281,198
1766,0.9,-0.38,-0.19,-0.67,-3.23,-2.44,389,308,226,284,205
1767,0.9,-0.39,-0.2,1.71,-1.83,-1.89,389,303,229,280,208
1768,0.91,-0.38,-0.19,-1.53,-2.01,-3.11,391,307,228,283,204
1769,0.9,-0.39,-0.18,-0.98,-0.61,-0.73,387,307,228,279,206
1770,0.91,-0.38,-0.18,1.65,-1.95,-1.71,390,308,229,280,207
1771,0.89,-0.39,-0.18,2.5,-2.32,-1.95,392,309,229,280,229
1772,0.91,-0.38,-0.21,0.55,-1.89,-4.27,394,304,230,283,212
1773,0.88,-0.4,-0.17,2.01,-1.71,-2.56,389,300,226,281,206
1774,0.88,-0.4,-0.18,-4.15,-3.97,-6.47,390,299,229,293,205
1775,0.9,-0.38,-0.19,-1.65,-2.99,-2.93,394,303,229,282,208
1776,0.9,-0.38,-0.19,0.18,-3.78,-4.46,388,301,226,281,207
1777,0.89,-0.39,-0.19,0.49,-4.39,-0.98,391,310,225,281,203
1778,0.89,-0.39,-0.2,-0.24,-0.43,-4.64,393,304,229,279,236
1779,0.91,-0.38,-0.17,0.79,-2.81,-2.69,387,305,228,279,207
1780,0.9,-0.38,-0.18,2.56,-3.23,-3.97,391,307,227,278,206
1781,0.9,-0.35,-0.18,2.44,-3.6,-8.85,391,302,227,283,207
1782,0.91,-0.35,-0.1,-9.22,-11.54,-1.71,389,300,226,281,205
1783,0.96,-0.33,-0.11,5.98,-10.56,-2.56,389,305,228,280,207
1784,0.92,-0.36,-0.13,-5.07,-3.72,-1.34,390,308,240,277,207
1785,0.97,-0.33,-0.13,15.01,4.33,-6.59,386,308,226,285,208
1786,0.96,-0.28,-0.13,0.55,1.53,-4.88,389,304,227,280,204
1787,0.91,-0.31,-0.1,-1.22,-0.79,-6.53,392,304,226,284,208
1788,0.95,-0.29,-0.12,0.55,-2.75,-3.72,389,307,225,280,203
1789,0.94,-0.29,-0.11,-1.28,-5.43,0.43,387,298,229,281,208
1790,0.97,-0.29,-0.09,1.04,-2.75,-1.59,390,305,229,280,206
1791,0.96,-0.27,-0.1,2.14,-1.53,-1.77,387,308,229,281,205
1792,0.96,-0.27,-0.1,2.08,-3.42,-2.38,389,309,229,284,206
1793,0.98,-0.27,-0.1,2.08,-1.65,-2.44,388,310,227,284,206
1794,0.95,-0.27,-0.1,-0.55,-3.6,-2.32,387,302,227,284,207
1795,0.96,-0.27,-0.1,-2.38,-4.03,-2.69,384,302,225,281,208
1796,0.96,-0.26,-0.1,-0.43,-3.42,-2.56,385,306,226,282,206
1797,0.96,-0.28,-0.09,-3.48,-6.35,0.98,384,302,226,283,204
1798,0.92,-0.25,-0.11,5.43,-0.92,-0.24,382,307,229,284,217
1799,0.93,-0.28,-0.14,0.67,-1.65,-5.31,383,306,225,281,209
1800,0.96,-0.28,-0.14,0.85,-2.44,-2.32,386,306,230,279,207
1801,0.96,-0.26,-0.15,-1.95,-4.15,-2.01,381,306,225,281,206
1802,0.96,-0.27,-0.13,-0.73,-3.42,-2.26,381,309,228,282,204
1803,0.96,-0.28,-0.12,-0.12,-1.65,-1.59,386,307,229,281,209
1804,0.97,-0.28,-0.13,1.04,-2.75,-1.4,380,306,232,280,209
1805,0.95,-0.29,-0.14,1.53,-3.91,-1.1,384,309,229,279,206
1806,0.94,-0.28,-0.15,3.05,-5.49,-1.65,388,301,223,280,204
1807,0.94,-0.32,-0.14,-0.79,-1.83,-2.44,394,304,227,282,206
1808,0.94,-0.31,-0.12,-1.89,-3.97,-1.34,388,307,226,280,206
1809,0.94,-0.31,-0.14,0.49,-4.82,-2.99,391,305,229,282,209
1810,0.98,-0.28,-0.14,-2.08,-3.05,-4.27,395,300,227,282,209
1811,0.97,-0.29,-0.16,7.26,-9.46,6.29,394,304,230,282,208
1812,0.89,-0.37,-0.11,-0.73,-3.66,2.2,396,304,227,283,205
1813,0.96,-0.3,-0.12,7.2,-0.98,-6.71,397,306,224,282,243
1814,0.93,-0.33,-0.14,1.16,-1.59,-6.23,396,299,230,285,211
1815,0.88,-0.39,-0.13,5.43,1.28,3.72,395,301,228,285,210
1816,0.96,-0.4,-0.11,1.89,5.43,-13.18,393,301,227,284,214
1817,0.95,-0.37,-0.14,-2.14,-14.4,1.83,399,308,224,284,209
1818,0.91,-0.38,-0.17,-2.2,-1.34,-11.05,401,303,225,284,206
1819,0.93,-0.36,-0.13,3.42,-6.41,-3.54,398,299,225,280,206
1820,0.98,-0.37,-0.14,4.82,11.11,0.49,402,300,227,276,207
1821,0.9,-0.37,-0.09,1.65,2.99,-7.93,395,295,227,280,206
1822,0.92,-0.37,-0.07,-2.5,-2.93,0.18,399,296,223,281,207
1823,0.93,-0.37,-0.06,-1.59,-3.3,-2.14,396,298,224,280,207
1824,0.92,-0.37,-0.06,0.61,-3.17,-2.75,397,299,224,280,206
1825,0.93,-0.38,-0.04,-0.43,-4.82,-1.53,401,300,228,283,207
1826,0.92,-0.37,-0.05,0.79,-2.62,-2.5,398,302,228,281,209
1827,0.92,-0.38,-0.07,-2.38,-3.72,-2.2,400,299,224,281,206
1828,0.92,-0.39,-0.05,-1.53,-4.03,-2.56,396,299,230,282,208
1829,0.94,-0.37,-0.08,2.44,-1.77,-3.3,394,294,225,282,210
1830,0.94,-0.38,-0.03,-0.43,-1.22,-0.92,395,299,227,281,208
1831,0.93,-0.38,-0.03,-1.46,-4.64,-1.16,394,301,232,286,213
1832,0.91,-0.39,-0.06,1.22,-3.23,-3.17,394,295,226,281,207
1833,0.92,-0.38,-0.06,2.44,-2.87,-3.23,391,299,228,279,208
1834,0.93,-0.38,-0.06,-0.12,-6.16,-1.59,393,299,222,284,209
1835,0.91,-0.38,-0.06,0.73,-2.32,-0.37,392,299,224,280,203
1836,0.92,-0.38,-0.06,0.92,-0.85,-2.44,395,304,226,282,208
1837,0.93,-0.38,-0.05,1.53,-2.5,-1.89,389,299,225,282,205
1838,0.92,-0.39,-0.06,0.18,-3.42,-3.85,387,298,224,282,209
1839,0.92,-0.38,-0.07,0.12,-3.66,-2.99,390,301,225,281,210
1840,0.93,-0.38,-0.04,0.92,-2.93,-1.65,392,300,225,279,208
1841,0.93,-0.39,-0.05,2.62,-2.26,-2.62,389,303,226,281,209
1842,0.92,-0.37,-0.06,0.49,-1.53,-2.75,387,302,225,280,205
1843,0.93,-0.38,-0.08,2.38,-5.19,-2.32,387,301,232,281,209
1844,0.92,-0.38,-0.05,0.12,-3.97,-2.32,385,300,226,280,216
1845,0.92,-0.38,-0.04,0.31,-2.14,-1.77,384,300,226,282,208
1846,0.92,-0.39,-0.05,1.04,-2.08,-2.26,389,303,225,281,208
1847,0.91,-0.39,-0.06,2.99,-2.5,-3.05,386,300,225,280,206
1848,0.91,-0.39,-0.04,1.89,0.31,-2.32,386,301,227,281,208
1849,0.92,-0.39,-0.05,0.12,-3.23,-2.87,386,300,224,281,207
1850,0.92,-0.39,-0.03,-0.24,-2.81,-1.59,385,297,227,282,204
1851,0.92,-0.39,-0.04,0.73,-2.26,-2.08,382,301,220,286,211
1852,0.93,-0.39,-0.04,0.18,-2.81,-3.17,380,304,229,281,207
1853,0.91,-0.38,-0.05,0.61,-4.09,-2.81,387,297,227,282,208
1854,0.92,-0.39,-0.06,-0.73,-4.21,-1.83,387,304,228,284,207
1855,0.92,-0.39,-0.05,0.61,-2.38,-2.32,385,305,226,285,208
1856,0.92,-0.38,-0.06,0.98,-2.5,-3.11,387,302,228,283,208
1857,0.91,-0.38,-0.06,0.31,-3.66,-0.85,387,302,226,284,209
1858,0.91,-0.39,-0.05,0.0,-2.56,-2.2,387,301,229,284,207
1859,0.92,-0.39,-0.04,-0.67,-2.56,-1.53,383,306,225,279,207
1860,0.9,-0.4,-0.06,-0.43,-5.25,-1.83,389,305,229,282,209
1861,0.92,-0.39,-0.06,3.17,-1.4,-3.85,387,305,223,285,206
1862,0.92,-0.39,-0.06,0.61,-3.11,-1.28,384,315,226,285,211
1863,0.93,-0.39,-0.05,-0.18,-3.23,-1.28,383,307,232,281,204
1864,0.92,-0.39,-0.06,0.24,-3.11,-2.2,385,303,228,284,209
1865,0.93,-0.4,-0.05,-0.73,-4.76,-2.14,387,302,229,281,210
1866,0.92,-0.4,-0.04,0.67,-3.23,-2.44,383,302,227,289,206
1867,0.92,-0.39,-0.05,0.37,-3.11,-2.99,385,303,227,281,213
1868,1.1,-0.38,-0.18,2.69,-13.79,13.79,376,298,227,283,210
1869,0.91,-0.39,-0.08,-6.47,-2.01,3.54,382,300,233,285,207
1870,0.93,-0.38,-0.05,0.18,-2.75,-2.56,379,302,227,282,207
1871,0.94,-0.37,-0.06,2.2,-2.26,-0.37,376,302,225,283,206
1872,0.93,-0.37,-0.06,-0.67,-4.09,-0.55,379,299,229,282,208
1873,0.94,-0.38,-0.08,-4.46,-8.12,-0.98,378,298,228,284,209
1874,0.92,-0.38,-0.07,-1.22,-2.2,-1.95,377,318,225,282,209
1875,0.93,-0.38,-0.08,-0.12,-2.01,-1.95,370,305,226,279,208
1876,0.92,-0.39,-0.06,-1.04,-3.05,-0.73,372,316,227,282,208
1877,0.9,-0.4,-0.09,-2.08,-1.16,-3.17,366,302,227,282,206
1878,0.92,-0.39,-0.08,2.81,-1.28,-3.48,370,304,226,282,207
1879,0.92,-0.4,-0.07,0.55,-1.53,-2.93,360,299,228,284,203
1880,0.91,-0.4,-0.07,1.04,-2.62,-2.01,355,303,227,281,225
1881,0.92,-0.41,-0.09,0.73,-3.3,-3.3,353,304,229,282,211
1882,0.92,-0.39,-0.09,-0.55,-2.69,-2.81,353,305,229,283,208
1883,0.92,-0.39,-0.08,-0.24,-3.36,-2.32,348,302,227,283,208
1884,0.93,-0.39,-0.08,0.55,-3.23,-4.7,350,309,225,281,205
1885,0.93,-0.4,-0.07,-1.16,-3.6,-0.55,354,300,227,284,210
1886,0.92,-0.4,-0.08,-1.53,-4.33,-1.53,354,308,227,284,211
1887,0.91,-0.38,-0.08,-1.4,0.73,-4.39,348,306,227,281,207
1888,0.93,-0.38,-0.08,1.89,-3.54,-3.3,353,308,229,285,210
1889,0.93,-0.39,-0.07,0.43,-2.93,-2.93,353,305,228,284,208
1890,0.93,-0.38,-0.08,-0.12,-4.03,-1.95,352,303,227,280,205
1891,0.91,-0.38,-0.07,0.98,-2.44,-2.56,355,305,227,283,209
1892,0.92,-0.38,-0.08,0.49,-5.31,-1.71,356,307,228,291,210
1893,0.89,-0.38,-0.1,3.48,-4.64,-0.18,368,302,225,279,211
1894,0.92,-0.4,-0.1,2.81,-4.52,-2.5,365,303,233,284,209
1895,0.91,-0.39,-0.13,11.84,-2.38,3.72,371,300,229,281,210
1896,0.92,-0.42,-0.09,0.31,-2.69,-0.98,386,306,224,282,239
1897,0.91,-0.41,-0.1,4.21,-6.65,-3.6,393,308,227,285,209
1898,0.92,-0.4,-0.1,-0.06,-2.87,-1.95,392,308,227,281,208
1899,0.9,-0.41,-0.11,1.53,-3.72,-2.75,391,307,229,283,211
1900,0.96,-0.39,-0.09,5.13,-5.25,-6.59,391,303,227,282,207
1901,0.9,-0.4,-0.07,3.3,-1.4,-4.03,390,301,228,284,210
1902,0.93,-0.4,-0.04,0.12,-3.78,-2.93,388,305,227,283,209
1903,0.92,-0.41,-0.05,-0.55,-3.72,-2.26,387,308,230,282,211
1904,0.9,-0.4,-0.04,4.7,-4.46,-3.23,384,310,231,284,207
1905,0.92,-0.4,-0.05,0.61,-1.77,-3.42,385,302,232,283,209
1906,0.93,-0.4,-0.08,-0.31,-5.25,-3.78,382,308,229,285,210
1907,0.9,-0.42,-0.05,2.38,-2.81,-2.81,383,310,225,282,211
1908,0.92,-0.42,-0.05,-0.49,-3.66,-3.11,387,309,229,283,208
1909,0.93,-0.43,-0.06,-0.37,-4.21,-1.83,386,302,230,284,211
1910,0.91,-0.42,-0.05,-0.12,-2.38,-2.69,385,307,226,281,208
1911,0.92,-0.41,-0.06,-0.55,-5.62,-1.71,381,307,227,282,208
1912,0.91,-0.41,-0.07,-0.98,-3.66,-1.83,385,308,227,285,208
1913,0.91,-0.41,-0.05,1.4,-1.71,-1.71,385,311,230,281,210
1914,0.9,-0.41,-0.06,0.18,-3.17,-2.81,387,312,228,284,209
1915,0.91,-0.43,-0.07,-0.31,-2.32,0.18,383,309,227,283,210
1916,0.92,-0.43,-0.06,-1.1,-0.18,-3.72,385,318,232,284,220
1917,0.91,-0.42,-0.06,1.71,-1.22,-3.23,384,311,232,281,208
1918,0.92,-0.41,-0.05,1.89,-2.69,-2.62,386,310,229,284,208
1919,0.9,-0.41,-0.03,-1.28,-2.87,-2.01,387,304,228,284,221
1920,0.89,-0.41,-0.05,-1.4,-3.72,-1.95,384,311,231,285,211
1921,0.9,-0.42,-0.09,0.37,-2.32,-4.46,382,312,227,284,210
1922,0.9,-0.42,-0.05,2.81,-2.75,-1.83,388,306,226,286,238
1923,0.92,-0.41,-0.06,0.67,-2.87,-2.69,386,306,232,282,211
1924,0.91,-0.41,-0.06,0.12,-2.44,-2.75,389,312,228,282,207
1925,0.9,-0.41,-0.04,-0.31,-2.08,-2.99,387,308,228,284,210
1926,0.92,-0.42,-0.06,-1.04,-4.09,-2.26,384,309,231,287,209
1927,0.9,-0.42,-0.05,-1.46,-3.91,-1.34,383,305,230,286,210
1928,0.91,-0.41,-0.06,0.31,-4.94,-1.77,381,307,228,283,206
1929,0.92,-0.41,-0.04,-4.09,-3.48,6.1,379,309,229,294,211
1930,0.92,-0.41,-0.05,-0.43,-3.72,0.0,384,311,231,283,210
1931,0.9,-0.42,-0.06,-1.16,-3.48,-1.71,385,313,232,295,209
1932,0.91,-0.42,-0.05,-1.1,-4.33,-1.71,386,303,230,285,212
1933,0.91,-0.42,-0.06,0.73,-2.44,-1.95,382,308,228,288,209
1934,0.91,-0.42,-0.04,-0.55,-3.66,-2.93,384,311,231,283,209
1935,0.91,-0.42,-0.05,0.79,-3.42,-3.05,384,305,230,294,210
1936,0.92,-0.42,-0.06,0.12,-2.32,-2.26,384,309,231,287,210
1937,0.91,-0.42,-0.04,0.43,-2.32,-1.95,384,311,228,284,211
1938,0.92,-0.42,-0.06,0.18,-2.62,-2.08,384,309,229,287,211
1939,0.9,-0.42,-0.04,-0.06,-3.05,-1.28,383,309,230,284,210
1940,0.91,-0.43,-0.04,-0.24,-1.59,-1.95,381,306,232,284,209
1941,0.91,-0.42,-0.06,0.55,-3.17,-2.01,381,309,230,286,213
1942,0.91,-0.42,-0.05,0.12,-2.87,-2.32,382,312,228,283,211
1943,0.91,-0.43,-0.04,-0.31,-3.3,-2.01,378,311,230,284,222
1944,0.91,-0.42,-0.05,2.26,-2.14,-2.99,384,310,232,285,207
1945,0.9,-0.42,-0.05,2.38,-2.32,-2.62,383,310,233,287,211
1946,0.9,-0.43,-0.06,1.65,-2.5,-4.58,379,312,229,286,211
1947,0.9,-0.42,-0.07,0.92,-3.3,-2.44,382,311,230,286,210
1948,0.91,-0.42,-0.05,1.16,-2.08,-2.2,384,309,230,282,207
1949,0.9,-0.42,-0.05,-0.43,-3.17,-1.77,387,313,231,285,208
1950,0.91,-0.42,-0.06,0.37,-4.33,-2.69,383,305,229,285,211
1951,0.9,-0.42,-0.06,0.24,-3.11,-3.11,378,309,229,287,211
1952,0.91,-0.42,-0.05,-0.73,-3.78,-1.83,380,312,230,286,209
1953,0.92,-0.42,-0.06,1.34,-2.56,-3.66,379,317,227,284,208
1954,0.91,-0.42,-0.05,1.4,-2.69,-2.01,383,305,230,283,212
1955,0.92,-0.42,-0.07,-0.49,-2.5,-2.99,379,309,232,284,211
1956,0.91,-0.43,-0.05,3.05,-1.34,-2.26,385,310,233,283,214
1957,0.91,-0.42,-0.06,-1.1,-3.17,-1.89,380,307,231,286,208
1958,0.9,-0.42,-0.07,0.49,-2.75,-3.72,384,310,230,281,210
1959,0.91,-0.42,-0.06,0.0,-3.11,-2.75,383,314,229,288,209
1960,0.9,-0.42,-0.04,-2.2,-3.36,-1.83,382,313,229,287,209
1961,0.9,-0.42,-0.06,1.34,-2.32,-1.83,378,311,232,284,208
1962,0.91,-0.42,-0.06,-0.85,-1.77,-2.87,380,312,228,281,208
1963,0.9,-0.42,-0.07,0.31,-2.56,-4.09,383,311,227,284,209
1964,0.9,-0.42,-0.06,-0.24,-2.01,-2.14,385,310,233,284,209
1965,0.91,-0.42,-0.05,0.18,-2.87,-2.38,383,315,233,291,213
1966,0.91,-0.41,-0.06,0.12,-1.65,-2.32,377,312,231,290,209
1967,0.91,-0.43,-0.06,-1.4,-4.64,-1.95,377,312,233,288,211
1968,0.89,-0.42,-0.05,-0.24,-2.87,-1.46,379,312,229,284,209
1969,0.9,-0.42,-0.07,0.18,-3.42,-3.05,379,312,230,284,211
1970,0.9,-0.42,-0.05,0.85,-2.62,-2.14,381,316,233,282,205
1971,0.89,-0.42,-0.04,0.24,-2.87,-3.05,376,313,232,283,209
1972,0.9,-0.42,-0.06,0.31,-3.11,-2.81,381,318,230,284,210
1973,0.91,-0.42,-0.07,-1.4,-3.05,-2.81,378,312,235,285,210
1974,0.91,-0.42,-0.06,-0.31,-3.3,-2.32,379,315,230,283,209
1975,0.91,-0.42,-0.06,0.92,-2.26,-2.56,375,317,233,284,205
1976,0.9,-0.42,-0.06,0.43,-3.23,-1.53,381,317,233,287,209
1977,0.9,-0.42,-0.06,0.31,-2.81,-2.32,377,314,230,286,208
1978,0.9,-0.42,-0.05,0.55,-3.23,-2.38,380,317,231,285,212
1979,0.91,-0.42,-0.04,-0.67,-3.3,-2.75,376,310,232,286,208
1980,0.9,-0.43,-0.04,0.06,-3.11,-1.65,373,312,237,284,210
1981,0.91,-0.42,-0.05,-0.67,-2.32,-3.05,374,321,232,285,210
1982,0.91,-0.42,-0.06,0.31,-3.23,-2.2,378,317,235,292,211
1983,0.91,-0.42,-0.06,0.24,-3.23,-1.46,384,312,230,280,211
1984,0.91,-0.42,-0.06,0.18,-2.38,-2.69,378,316,234,289,210
1985,0.91,-0.42,-0.08,0.43,-3.3,-2.5,376,313,229,284,207
1986,0.9,-0.42,-0.06,1.16,-2.14,-2.69,375,314,231,283,210
1987,0.92,-0.42,-0.06,1.04,-2.62,-3.11,376,312,236,286,212
1988,0.9,-0.42,-0.05,-0.37,-4.7,-1.53,378,309,230,284,211
1989,0.91,-0.42,-0.06,0.55,-2.62,-2.99,377,315,235,283,209
1990,0.9,-0.41,-0.07,0.67,-3.48,-1.95,369,316,234,286,210
1991,0.91,-0.41,-0.06,0.18,-2.93,-2.44,368,314,232,287,208
1992,0.91,-0.41,-0.04,0.0,-3.66,-1.04,374,311,232,283,210
1993,0.92,-0.42,-0.07,2.62,-6.47,-1.46,374,311,235,285,210
1994,0.9,-0.43,-0.02,-2.87,0.67,-1.46,378,313,230,283,212
1995,0.9,-0.44,-0.06,-2.08,-1.59,-2.87,385,311,231,286,213
1996,0.92,-0.43,-0.07,-3.17,-16.66,-7.26,388,312,232,285,211
1997,0.92,-0.38,-0.13,-7.57,-4.64,-8.24,390,311,232,284,213
1998,0.92,-0.37,-0.14,5.31,2.99,-2.38,386,314,234,283,212
1999,0.93,-0.37,-0.11,-5.07,-4.09,-1.04,391,313,245,282,213
2000,0.91,-0.38,-0.11,-5.19,-5.74,-0.37,391,313,233,286,209
2001,0.94,-0.38,-0.05,-6.9,-6.35,-0.73,385,315,233,284,214
2002,0.92,-0.38,-0.13,-0.12,-4.03,-0.98,386,313,235,287,213
2003,0.93,-0.38,-0.13,3.3,-3.36,-2.38,388,312,235,283,214
2004,0.92,-0.38,-0.12,1.59,-3.11,-2.62,385,316,235,295,211
2005,0.91,-0.38,-0.12,0.55,-2.32,-2.44,387,314,234,285,210
2006,0.91,-0.38,-0.13,-0.55,-3.72,-1.34,385,316,235,285,209
2007,0.91,-0.38,-0.12,-0.24,-0.79,-2.69,387,314,233,284,208
