,aX,aY,aZ,gX,gY,gZ,little,ring,middle,index,thumb
0,-0.11,-0.89,0.46,-0.06,-2.99,-3.11,416,220,414,451,344
1,-0.11,-0.9,0.44,-1.46,-3.17,-4.15,414,221,410,446,342
2,-0.09,-0.88,0.42,-0.43,-3.54,-2.62,414,223,414,451,339
3,-0.1,-0.9,0.42,1.65,-4.64,0.06,407,222,414,450,337
4,-0.12,-0.9,0.45,-1.1,-1.77,-2.56,410,237,413,451,345
5,-0.11,-0.9,0.45,-0.06,-1.65,-1.4,410,224,423,451,346
6,-0.09,-0.9,0.42,0.73,-0.55,-2.08,406,224,413,457,341
7,-0.07,-0.89,0.4,-2.2,-2.62,-4.21,412,222,409,452,340
8,-0.12,-0.91,0.41,1.28,-1.46,-3.97,405,222,411,447,342
9,-0.09,-0.9,0.41,1.71,-6.23,-1.4,403,223,412,453,343
10,-0.09,-0.9,0.41,-0.12,-0.18,-5.49,403,224,411,447,344
11,-0.09,-0.94,0.41,1.71,-3.78,-2.08,404,225,411,457,344
12,-0.09,-0.92,0.42,1.16,-3.05,-1.59,404,222,411,457,339
13,-0.09,-0.89,0.43,1.65,-4.33,-0.18,401,224,411,457,343
14,-0.1,-0.92,0.4,0.12,-3.42,-1.34,397,226,409,459,343
15,-0.11,-0.91,0.4,-0.85,-2.93,-1.77,400,221,410,457,344
16,-0.08,-0.88,0.39,-5.43,-2.2,0.92,400,227,410,458,343
17,-0.11,-0.9,0.4,-0.18,-3.66,-1.71,398,228,412,454,345
18,-0.11,-0.92,0.4,0.31,-4.27,-3.54,397,225,409,454,343
19,-0.11,-0.89,0.42,3.91,-2.14,-1.65,399,230,411,454,346
20,-0.11,-0.85,0.38,-0.55,-2.08,-1.34,395,226,413,455,346
21,-0.12,-0.92,0.4,15.08,-2.5,-2.56,399,227,408,455,345
22,-0.1,-0.9,0.4,-2.38,-2.26,-3.3,399,229,410,450,345
23,-0.11,-0.92,0.38,-2.56,-4.64,-3.17,398,228,405,456,344
24,-0.05,-0.93,0.37,-5.25,-3.11,-3.36,399,225,407,458,345
25,-0.08,-0.93,0.36,-2.26,-3.23,-1.34,400,227,407,459,355
26,-0.08,-0.93,0.36,0.18,-2.93,-3.23,397,227,405,459,346
27,-0.08,-0.93,0.35,-2.38,-1.34,-4.21,401,226,403,455,347
28,-0.1,-0.93,0.35,0.79,-2.87,-2.26,399,226,404,459,342
29,-0.1,-0.94,0.36,-0.37,-2.93,-3.11,397,229,402,458,345
30,-0.1,-0.93,0.35,-0.43,-2.26,-3.78,398,229,402,461,347
31,-0.08,-0.91,0.36,1.95,-2.32,-4.76,397,222,405,457,345
32,-0.08,-0.92,0.38,0.79,-3.23,-3.6,400,229,402,457,346
33,-0.09,-0.91,0.39,1.28,-1.34,-2.69,397,228,404,459,345
34,-0.1,-0.92,0.37,0.98,-2.38,-2.38,397,227,400,455,348
35,-0.07,-0.93,0.35,-2.26,-1.22,-3.36,397,233,400,455,344
36,-0.11,-0.92,0.37,-0.49,-0.92,-2.69,394,224,398,460,345
37,-0.1,-0.93,0.36,0.0,-2.26,-2.01,397,228,396,455,346
38,-0.09,-0.94,0.35,1.95,-1.16,-2.32,396,227,398,451,344
39,-0.11,-0.92,0.36,0.43,-3.78,-2.2,397,227,397,461,343
40,-0.1,-0.93,0.36,1.04,-4.15,-2.26,403,225,397,458,346
41,-0.11,-0.93,0.37,0.67,-2.56,-2.38,405,228,394,455,347
42,-0.09,-0.92,0.35,0.18,-3.85,-2.08,407,228,400,458,346
43,-0.09,-0.93,0.35,-0.55,1.34,-2.81,421,227,396,455,348
44,-0.11,-0.93,0.35,-2.2,0.67,-4.52,403,230,397,454,344
45,-0.13,-0.92,0.38,1.22,-2.62,-0.12,401,231,397,467,345
46,-0.11,-0.92,0.38,1.59,-5.37,-0.79,401,229,395,454,347
47,-0.12,-0.92,0.39,0.06,-3.42,-3.11,426,231,397,460,343
48,-0.11,-0.92,0.37,2.26,-3.91,-2.38,414,231,395,460,343
49,-0.1,-0.92,0.37,0.24,-3.05,-2.87,402,234,396,459,346
50,-0.12,-0.91,0.36,-0.06,-2.93,-2.38,404,224,397,460,348
51,-0.09,-0.9,0.38,-0.37,-2.32,-2.56,405,230,396,461,346
52,-0.13,-0.92,0.38,-3.17,-2.01,-4.33,401,229,393,456,345
53,-0.12,-0.92,0.36,-1.77,-3.91,-3.42,402,228,400,460,344
54,-0.11,-0.92,0.34,0.85,-3.11,-2.99,400,232,396,452,345
55,-0.11,-0.93,0.36,1.77,-2.81,-3.78,436,232,396,456,345
56,-0.11,-0.92,0.37,1.22,-2.81,-2.32,399,230,397,461,347
57,-0.11,-0.92,0.37,-0.24,-2.38,-2.62,395,231,397,456,342
58,-0.11,-0.93,0.37,-0.61,-3.11,-1.89,399,230,396,453,341
59,-0.12,-0.92,0.37,-1.28,-1.89,-3.23,399,230,397,453,346
60,-0.12,-0.93,0.36,-1.22,-1.77,-2.93,400,230,396,458,343
61,-0.11,-0.93,0.36,1.46,-2.08,-2.01,400,232,408,458,345
62,-0.11,-0.92,0.36,0.06,-5.31,-1.89,400,228,395,451,343
63,-0.13,-0.93,0.36,-0.31,-3.54,-0.73,399,234,394,456,349
64,-0.13,-0.91,0.39,5.8,-0.67,-5.8,399,230,395,455,346
65,-0.12,-0.91,0.4,-1.1,-4.09,-2.14,402,232,393,452,346
66,-0.11,-0.92,0.37,-0.43,-2.08,-2.38,398,232,397,459,349
67,-0.11,-0.92,0.38,0.92,-2.56,-2.08,387,230,398,454,355
68,-0.1,-0.92,0.36,2.14,-3.66,-1.59,401,232,394,455,347
69,-0.13,-0.92,0.38,-0.18,-2.2,-2.99,395,232,397,461,347
70,-0.11,-0.93,0.36,-1.16,-3.36,-2.99,398,232,394,457,346
71,-0.12,-0.92,0.38,0.18,-2.01,-1.89,397,233,394,460,348
72,-0.13,-0.92,0.39,-3.6,-1.89,-3.72,398,233,388,461,349
73,-0.13,-0.93,0.33,-3.05,-2.2,-3.85,394,231,395,452,345
74,-0.14,-0.91,0.38,5.8,-2.69,-0.37,400,232,393,453,349
75,-0.15,-0.91,0.38,1.1,-5.37,0.55,418,234,394,455,347
76,-0.12,-0.92,0.37,2.69,-4.21,-1.46,397,234,395,455,345
77,-0.14,-0.91,0.4,2.93,-2.01,-3.97,398,234,391,471,349
78,-0.12,-0.92,0.39,2.38,-0.92,-3.05,399,233,397,458,345
79,-0.16,-0.92,0.37,-0.92,3.97,-2.75,414,231,394,459,346
80,-0.16,-0.92,0.37,-4.33,5.37,-0.85,415,229,392,458,346
81,-0.19,-0.92,0.29,0.55,-2.75,-3.54,416,237,395,458,346
82,-0.18,-0.94,0.28,-3.97,-0.73,-15.69,417,233,394,457,344
83,-0.19,-0.92,0.33,7.93,3.42,-19.53,414,231,394,457,346
84,-0.18,-0.94,0.32,5.92,-4.27,-6.29,413,233,393,458,346
85,-0.16,-0.94,0.29,3.3,-4.09,-0.55,414,236,394,458,349
86,-0.19,-0.92,0.39,-4.88,5.92,-12.08,414,234,395,461,347
87,-0.11,-0.95,0.31,-0.12,-0.85,-0.85,405,231,393,460,349
88,-0.12,-0.93,0.28,-5.43,3.05,-15.5,409,234,393,459,346
89,-0.12,-0.99,0.21,-21.36,4.46,-2.32,409,232,395,462,341
90,-0.09,-0.95,0.29,6.16,-10.07,-0.55,408,233,395,459,345
91,-0.13,-0.96,0.25,2.01,-3.66,-0.61,407,232,392,458,347
92,-0.13,-0.97,0.24,1.16,-6.96,-1.4,412,231,395,461,343
93,-0.13,-0.96,0.25,1.59,-4.88,-1.22,406,231,395,455,345
94,-0.14,-0.96,0.23,-1.65,-3.66,-3.3,410,233,398,462,342
95,-0.1,-0.97,0.19,3.3,-3.11,-3.05,408,236,391,454,351
96,-0.13,-0.96,0.26,2.14,-3.91,-3.36,406,233,393,458,346
97,-0.14,-0.94,0.22,-0.43,-5.37,-2.5,406,233,391,460,342
98,-0.12,-0.96,0.21,-3.72,-3.48,-3.6,408,232,389,459,342
99,-0.11,-0.97,0.2,0.61,-2.38,-3.36,404,234,388,459,343
100,-0.13,-0.96,0.2,-0.98,-4.88,-2.26,405,231,391,458,344
101,-0.14,-0.97,0.21,0.06,-2.2,-2.81,405,234,389,458,344
102,-0.15,-0.97,0.2,0.37,-3.3,-2.44,403,236,392,458,345
103,-0.07,-0.96,0.19,-2.75,-4.76,-2.56,404,236,392,458,346
104,-0.11,-0.97,0.19,-1.34,-4.03,-2.81,405,233,389,459,342
105,-0.13,-0.98,0.17,0.0,-2.93,-2.56,406,232,390,458,348
106,-0.15,-0.98,0.21,-0.55,-4.33,-1.16,407,233,394,459,348
107,-0.13,-0.98,0.19,-0.73,-2.44,-3.3,406,233,391,462,346
108,-0.1,-0.97,0.2,-1.53,-2.87,-2.93,409,234,381,457,345
109,-0.12,-0.97,0.17,3.72,-1.53,-4.7,406,235,391,459,346
110,-0.13,-0.98,0.24,1.71,12.27,-1.83,405,234,390,454,349
111,-0.11,-0.97,0.18,2.01,-3.6,0.0,407,246,389,460,343
112,-0.12,-0.96,0.2,-0.92,-2.2,-3.66,407,247,397,457,348
113,-0.11,-0.97,0.2,-1.53,0.79,-4.88,406,235,388,461,348
114,-0.11,-0.97,0.19,4.94,-0.18,-4.27,406,233,391,460,348
115,-0.14,-0.97,0.19,5.68,-5.43,-1.53,407,238,387,459,348
116,-0.12,-0.97,0.18,-1.95,-1.77,-4.7,407,237,389,457,348
117,-0.13,-0.96,0.2,2.5,-3.72,0.0,405,238,385,459,346
118,-0.13,-0.97,0.2,0.0,-4.27,-4.39,406,236,388,460,348
119,-0.11,-0.97,0.17,-2.62,-3.54,-1.53,400,235,387,458,348
120,-0.13,-0.96,0.19,1.04,-2.93,-1.46,411,234,388,460,347
121,-0.13,-0.97,0.21,-1.65,-2.38,-2.62,406,238,389,460,349
122,-0.13,-0.98,0.2,-0.67,-2.87,-2.38,407,235,387,461,347
123,-0.13,-0.94,0.19,1.4,-1.95,-3.6,403,235,388,457,347
124,-0.13,-0.97,0.17,0.43,-3.17,-2.81,408,236,387,458,343
125,-0.13,-0.96,0.19,-0.37,-2.44,-2.38,408,238,384,459,348
126,-0.13,-0.96,0.19,-0.37,-1.59,-3.17,406,236,389,457,345
127,-0.13,-0.97,0.18,-0.55,-2.32,-3.36,407,232,394,459,350
128,-0.14,-0.97,0.18,-0.12,-3.23,-3.36,407,238,390,461,347
129,-0.14,-0.97,0.18,-0.49,-3.23,-2.75,406,240,387,459,346
130,-0.14,-0.96,0.17,-0.18,-3.66,-2.2,407,236,386,459,349
131,-0.14,-0.97,0.18,0.61,-2.93,-2.93,407,236,389,463,346
132,-0.14,-0.97,0.19,0.79,-3.3,-2.26,407,236,388,455,350
133,-0.14,-0.96,0.18,-0.61,-4.09,-2.2,406,239,387,453,348
134,-0.15,-0.97,0.18,0.79,-2.81,-2.69,406,238,388,454,346
135,-0.13,-0.96,0.18,2.32,-3.78,-3.36,406,238,388,461,346
136,-0.14,-0.98,0.17,0.98,-3.23,-1.83,406,240,387,459,347
137,-0.14,-0.98,0.18,0.55,-3.3,-2.93,394,240,387,459,344
138,-0.15,-0.97,0.18,-0.37,-2.75,-2.81,408,239,388,463,350
139,-0.14,-0.97,0.19,0.12,-2.38,-2.5,408,240,386,460,348
140,-0.15,-0.96,0.19,-0.67,-0.92,-2.32,409,239,389,461,348
141,-0.15,-0.96,0.16,-1.95,-2.2,-2.81,412,242,386,454,343
142,-0.17,-0.98,0.2,0.67,-3.85,-4.03,414,237,385,462,342
143,-0.13,-0.99,0.16,3.11,-4.58,-2.62,411,235,386,456,331
144,-0.17,-0.98,0.13,-8.54,-7.51,0.0,411,235,388,463,342
145,-0.16,-0.97,0.19,-1.59,1.04,-1.71,411,241,388,457,345
146,-0.18,-0.98,0.14,-2.26,-1.65,-6.29,412,238,388,462,346
147,-0.13,-0.97,0.15,-1.77,-2.81,-4.64,413,238,383,462,345
148,-0.13,-0.98,0.2,-2.69,-0.49,-2.93,416,234,383,462,344
149,-0.12,-0.97,0.17,-10.8,2.14,-4.21,413,238,384,457,346
150,-0.12,-0.97,0.22,-1.34,-6.35,-4.39,412,238,385,455,347
151,-0.11,-0.96,0.25,-0.12,-9.03,-1.83,408,239,382,464,347
152,-0.11,-0.97,0.23,-3.66,2.56,-4.03,410,237,382,458,345
153,-0.12,-0.98,0.13,0.31,-2.81,-5.49,411,239,387,464,346
154,-0.1,-0.97,0.18,3.36,-1.71,-1.28,407,235,388,459,344
155,-0.11,-0.98,0.15,-0.79,-3.23,-4.09,408,237,387,463,346
156,-0.11,-0.97,0.19,0.06,-3.91,-0.12,405,238,387,460,348
157,-0.11,-0.97,0.18,-2.44,-2.81,-0.06,405,240,383,459,349
158,-0.09,-0.97,0.19,-1.16,-4.21,-0.79,410,240,385,462,346
159,-0.13,-0.97,0.22,-3.42,-4.15,-2.81,417,238,387,455,350
160,-0.1,-0.96,0.22,2.38,-7.63,-5.62,429,241,387,460,347
161,-0.13,-0.97,0.22,3.05,-2.75,-0.37,410,241,383,460,346
162,-0.13,-0.96,0.28,-0.92,-0.49,-3.11,411,239,386,460,347
163,-0.14,-0.96,0.24,-4.76,-2.2,-1.34,409,241,384,462,345
164,-0.13,-0.96,0.23,1.65,-3.6,-2.99,406,237,381,457,344
165,-0.13,-0.97,0.22,-2.99,-2.5,-3.11,407,239,383,460,345
166,-0.12,-0.97,0.17,-0.31,-0.06,-3.42,407,240,382,458,349
167,-0.15,-0.97,0.21,2.32,1.95,-0.37,412,240,382,460,345
168,-0.16,-0.97,0.23,-0.18,-1.46,-1.46,408,241,384,460,350
169,-0.15,-0.96,0.23,2.99,-3.11,-2.2,413,241,381,462,344
170,-0.14,-0.96,0.23,5.49,-2.69,-2.44,414,237,386,455,357
171,-0.15,-0.95,0.23,3.66,-2.5,-2.75,412,241,380,460,351
172,-0.15,-0.96,0.21,-0.12,-1.04,-2.44,411,239,378,461,339
173,-0.17,-0.96,0.24,-0.06,-5.25,-2.14,411,239,385,461,349
174,-0.16,-0.97,0.21,0.55,-3.3,-2.5,414,240,383,462,354
175,-0.16,-0.96,0.21,0.18,-2.26,-2.44,413,242,385,472,350
176,-0.16,-0.96,0.22,0.85,-3.05,-3.05,415,238,383,455,348
177,-0.17,-0.97,0.22,0.0,-3.3,-3.48,413,248,379,460,348
178,-0.16,-0.96,0.24,-0.98,-2.87,-3.91,420,240,380,460,351
179,-0.16,-0.96,0.22,-0.06,-3.6,-2.08,413,238,384,455,346
180,-0.17,-0.96,0.23,-0.06,-1.95,-2.26,412,252,385,463,347
181,-0.16,-0.96,0.22,0.12,-2.56,-1.4,412,242,385,463,349
182,-0.17,-0.96,0.22,0.49,-2.2,-2.26,404,240,383,471,344
183,-0.17,-0.96,0.22,0.55,-3.05,-2.26,413,238,383,459,350
184,-0.17,-0.96,0.22,0.31,-3.05,-2.75,414,240,383,464,349
185,-0.17,-0.95,0.23,1.71,-4.27,-2.69,412,241,381,462,348
186,-0.16,-0.96,0.23,0.67,-2.93,-2.62,412,241,381,461,350
187,-0.19,-1.0,0.32,-1.53,-2.44,-2.56,412,243,383,460,346
188,-0.17,-0.95,0.22,-0.79,-1.34,-2.44,412,241,382,460,349
189,-0.17,-0.96,0.22,-2.08,-1.95,-3.36,415,238,385,463,347
190,-0.17,-0.96,0.21,-2.62,-1.4,-4.58,413,244,383,465,347
191,-0.17,-0.96,0.22,-0.49,-2.81,-2.38,414,243,381,459,348
192,-0.16,-0.95,0.22,0.0,-3.42,-2.44,413,245,386,464,348
193,-0.17,-0.95,0.2,-0.43,-2.32,-3.91,414,246,390,458,348
194,-0.19,-0.96,0.26,0.12,-4.39,-2.75,413,241,389,461,348
195,-0.18,-0.94,0.25,5.25,-5.86,0.73,415,242,390,460,344
196,-0.17,-0.95,0.23,-3.72,-0.12,-4.88,413,245,391,460,350
197,-0.18,-0.96,0.22,-0.06,-2.93,-2.2,412,245,393,462,348
198,-0.2,-0.95,0.22,-0.92,-4.64,-4.94,419,243,387,464,350
199,-0.17,-0.96,0.25,0.18,-2.93,-1.16,412,242,390,463,348
200,-0.15,-0.95,0.22,-0.24,-3.17,-4.21,415,242,391,459,350
201,-0.17,-0.95,0.23,1.28,-3.3,-1.89,412,243,394,455,348
202,-0.17,-0.95,0.23,0.43,-3.11,-2.2,414,243,392,461,350
203,-0.17,-0.96,0.24,0.92,-3.48,-2.5,412,244,392,463,345
204,-0.16,-0.95,0.23,-1.16,-1.77,-1.71,412,243,390,465,343
205,-0.17,-0.96,0.25,0.43,-2.69,-2.14,413,242,394,464,347
206,-0.16,-0.96,0.23,-0.55,-1.46,-4.03,414,242,391,461,353
207,-0.17,-0.95,0.25,-2.08,-1.53,-2.87,414,242,391,465,349
208,-0.17,-0.94,0.24,0.37,-3.66,-2.38,408,244,393,459,350
209,-0.18,-0.96,0.24,0.67,-1.46,-5.37,411,242,391,460,346
210,-0.17,-0.95,0.25,2.08,-3.42,-2.01,412,242,391,464,349
211,-0.17,-0.95,0.25,-1.59,-0.55,-1.46,410,246,390,464,352
212,-0.17,-0.95,0.24,-0.18,-3.36,-1.83,414,240,391,462,348
213,-0.18,-0.95,0.24,0.79,-2.56,-2.62,415,242,389,464,348
214,-0.17,-0.95,0.24,-2.62,-0.49,-6.47,413,241,389,460,344
215,-0.17,-0.95,0.24,-3.11,-1.77,-1.16,412,239,393,463,350
216,-0.17,-0.95,0.24,0.37,-2.87,-2.56,409,247,389,475,351
217,-0.17,-0.96,0.24,-1.77,-2.93,-2.14,411,242,391,474,347
218,-0.16,-0.95,0.25,0.55,-3.17,-2.69,412,241,393,465,350
219,-0.17,-0.96,0.24,2.5,-3.17,-2.14,412,244,394,459,348
220,-0.18,-0.96,0.22,-1.65,-3.72,-3.05,411,245,393,461,352
221,-0.17,-0.96,0.22,-0.43,-4.27,-2.32,411,248,398,461,349
222,-0.18,-0.96,0.26,-2.93,-0.98,-3.11,420,244,391,464,350
223,-0.17,-0.97,0.23,2.08,-3.23,-1.16,413,245,389,464,348
224,-0.18,-0.95,0.21,0.79,-3.85,-3.17,414,243,392,466,349
225,-0.19,-0.92,0.2,-1.16,-2.93,-2.87,412,242,393,459,349
226,-0.17,-0.97,0.22,0.67,-2.26,-0.79,409,244,393,461,349
227,-0.2,-0.95,0.24,0.31,-0.98,-4.27,409,241,389,460,348
228,-0.21,-0.94,0.24,-2.26,-7.2,1.28,409,245,393,462,350
229,-0.21,-0.96,0.22,0.18,-4.09,0.61,411,243,395,465,350
230,-0.22,-0.94,0.27,10.07,-8.3,7.57,419,244,391,465,351
231,-0.26,-0.92,0.3,2.69,-4.39,-2.5,415,246,392,462,347
232,-0.21,-0.92,0.27,-2.14,-3.97,-2.2,414,246,393,461,346
233,-0.22,-0.92,0.35,-2.81,-1.4,0.98,412,242,392,456,345
234,-0.25,-0.89,0.35,-3.54,-3.6,-4.15,412,246,393,462,349
235,-0.22,-0.92,0.33,0.31,-3.17,-4.94,414,243,391,457,353
236,-0.24,-0.92,0.31,3.36,-2.81,-0.43,415,243,390,462,351
237,-0.24,-0.91,0.3,-0.61,-2.56,-2.93,414,245,390,462,350
238,-0.23,-0.91,0.3,2.62,-1.28,-3.85,411,245,392,465,350
239,-0.33,-0.93,0.33,4.27,7.14,-8.48,413,243,391,456,351
240,-0.16,-0.94,0.23,-4.39,10.93,-14.28,412,243,388,460,350
241,-0.16,-0.96,0.27,2.99,0.0,1.1,412,242,390,460,349
242,-0.16,-0.94,0.29,1.59,-2.44,-3.6,410,245,390,460,346
243,-0.12,-0.95,0.22,2.26,3.17,-8.06,412,246,390,462,350
244,-0.18,-0.96,0.27,-4.39,-10.13,1.89,411,245,390,460,351
245,-0.18,-0.97,0.27,2.87,-9.7,-3.3,412,246,391,461,350
246,-0.18,-0.99,0.21,-0.85,-5.0,-0.98,412,246,390,461,344
247,-0.2,-0.95,0.25,-2.87,-4.27,-2.14,412,245,390,456,348
248,-0.19,-0.95,0.28,-0.85,-5.37,-1.34,411,243,389,460,351
249,-0.21,-0.95,0.26,1.53,-5.62,-2.99,409,243,390,462,348
250,-0.22,-0.95,0.26,-1.95,-6.1,1.34,411,242,393,458,347
251,-0.21,-0.95,0.25,0.55,-1.65,-1.95,411,242,390,462,348
252,-0.21,-0.94,0.24,0.31,-4.94,-3.23,409,246,390,461,349
253,-0.19,-0.94,0.24,1.04,-3.3,-4.82,412,244,393,464,351
254,-0.18,-0.94,0.25,3.97,-6.23,-2.87,410,241,389,462,347
255,-0.19,-0.94,0.26,2.2,-3.72,0.06,408,240,390,457,349
256,-0.2,-0.94,0.27,0.55,-2.99,-2.38,411,245,385,460,349
257,-0.19,-0.95,0.27,0.06,-3.91,-2.81,406,246,390,466,350
258,-0.2,-0.94,0.26,-0.43,-1.46,-3.17,439,247,387,464,349
259,-0.21,-0.95,0.26,0.12,-3.11,-2.87,411,245,393,462,351
260,-0.2,-0.94,0.22,0.12,-2.08,-2.81,414,245,387,462,351
261,-0.21,-0.93,0.26,-1.77,-3.85,-3.78,409,242,393,457,349
262,-0.2,-0.94,0.25,-0.49,-1.1,-3.66,413,244,394,461,348
263,-0.19,-0.94,0.25,0.31,-3.48,-2.44,408,246,390,465,346
264,-0.21,-0.94,0.25,1.4,-3.3,-2.01,409,242,392,465,351
265,-0.21,-0.94,0.25,-0.43,-1.95,-2.38,408,245,390,462,349
266,-0.23,-0.93,0.27,-1.16,-3.6,-2.62,409,245,393,460,346
267,-0.21,-0.95,0.25,-1.28,-3.78,-2.56,405,246,396,457,351
268,-0.22,-0.93,0.25,-0.61,-2.08,-3.23,408,247,390,462,348
269,-0.22,-0.94,0.25,0.49,-3.66,-2.38,408,244,390,465,349
270,-0.21,-0.94,0.26,-0.18,-2.01,-3.6,408,245,390,462,347
271,-0.21,-0.94,0.26,1.22,-2.75,-3.23,409,244,392,462,344
272,-0.21,-0.94,0.26,0.06,-2.62,-2.87,409,248,388,461,350
273,-0.22,-0.94,0.26,-0.37,-2.5,-2.38,411,245,398,466,347
274,-0.22,-0.94,0.26,0.24,-2.75,-2.01,429,245,389,463,350
275,-0.22,-0.94,0.25,0.24,-3.11,-2.14,408,245,387,462,348
276,-0.22,-0.94,0.26,0.49,-2.56,-2.38,401,248,391,461,347
277,-0.22,-0.95,0.27,2.69,-4.76,-3.97,409,252,389,463,349
278,-0.23,-0.93,0.28,-2.69,-2.5,-1.89,408,246,390,470,349
279,-0.22,-0.94,0.29,-0.18,-5.68,-0.85,402,248,395,457,350
280,-0.23,-0.94,0.28,0.55,-2.99,-0.24,410,243,386,463,347
281,-0.22,-0.93,0.29,1.89,-1.28,-2.26,407,244,391,479,347
282,-0.23,-0.93,0.28,-1.83,-3.11,-2.87,411,244,386,462,348
283,-0.22,-0.93,0.25,-0.98,-2.14,-2.69,414,244,388,463,346
284,-0.23,-0.93,0.25,-0.92,-2.87,-2.75,408,244,392,466,348
285,-0.22,-0.94,0.24,0.43,-3.6,-2.32,409,249,390,459,349
286,-0.22,-0.93,0.25,0.92,-4.03,-2.56,408,248,389,466,350
287,-0.23,-0.94,0.26,1.65,-3.78,-3.23,410,246,387,462,347
288,-0.22,-0.94,0.27,-0.37,-1.71,-3.17,408,246,392,458,348
289,-0.22,-0.94,0.25,0.85,-1.65,-2.56,408,248,392,462,347
290,-0.21,-0.92,0.25,-1.65,-2.93,-1.53,409,249,386,462,346
291,-0.23,-0.95,0.28,1.28,-3.11,-0.67,406,245,389,459,349
292,-0.22,-0.93,0.25,-0.85,-2.08,-2.87,410,248,390,458,348
293,-0.23,-0.95,0.24,-0.06,-3.17,-1.83,409,249,391,463,350
294,-0.23,-0.94,0.24,0.98,-3.11,-2.38,409,246,389,461,357
295,-0.23,-0.94,0.24,1.83,-3.17,-2.87,409,250,389,466,346
296,-0.22,-0.94,0.25,1.22,-3.17,-3.66,406,247,398,462,350
297,-0.23,-0.94,0.26,0.37,-2.2,-2.2,411,250,393,465,349
298,-0.23,-0.94,0.25,-1.1,-1.95,-2.69,410,247,388,463,340
299,-0.2,-0.94,0.23,-2.62,0.24,-4.52,409,245,385,466,349
300,-0.21,-0.94,0.23,0.67,-2.56,-2.62,409,246,392,462,349
301,-0.21,-0.94,0.27,1.95,-8.79,-2.2,410,248,387,462,349
302,-0.19,-0.95,0.25,0.49,-6.41,-4.58,408,247,389,467,348
303,-0.17,-0.95,0.24,0.49,-0.67,-2.32,410,245,386,462,349
304,-0.17,-0.95,0.22,-2.08,-2.01,-3.91,409,247,390,466,348
305,-0.18,-0.96,0.2,-3.66,-0.73,-5.8,406,247,393,463,349
306,-0.17,-0.97,0.23,-1.16,-1.71,-2.62,408,249,392,457,351
307,-0.18,-0.96,0.23,1.1,-2.93,-2.93,408,248,386,458,349
308,-0.19,-0.96,0.23,0.24,-2.14,-3.11,409,258,387,458,347
309,-0.17,-0.96,0.22,0.61,-2.87,-2.08,408,250,385,458,345
310,-0.17,-0.96,0.2,0.0,-1.71,-2.44,406,253,388,467,350
311,-0.18,-0.96,0.21,0.92,-2.75,-2.01,408,250,388,466,348
312,-0.17,-0.97,0.21,-0.18,-4.64,-1.65,410,249,388,467,348
313,-0.16,-0.96,0.21,-1.65,-5.49,-2.08,408,249,392,458,346
314,-0.16,-0.96,0.18,-2.32,-3.17,-4.09,405,249,392,461,351
315,-0.17,-0.96,0.19,1.4,-2.99,-4.03,413,249,388,463,349
316,-0.17,-0.96,0.19,-0.49,-2.32,-2.56,408,250,390,462,351
317,-0.17,-0.96,0.19,-2.01,-3.11,-3.72,408,254,390,462,349
318,-0.15,-0.98,0.15,-1.83,-0.67,-3.42,408,252,391,463,349
319,-0.15,-0.97,0.17,-1.34,0.31,-5.07,408,250,390,461,347
320,-0.15,-0.97,0.17,1.16,-4.09,-0.61,409,251,391,464,349
321,-0.15,-0.95,0.19,0.43,-0.31,-2.01,407,251,389,461,346
322,-0.17,-0.97,0.19,2.81,-5.68,-0.24,407,247,391,463,347
323,-0.16,-0.97,0.18,-0.55,-3.17,-2.44,400,252,390,466,349
324,-0.17,-0.96,0.18,0.85,-2.08,-1.4,404,251,387,461,347
325,-0.17,-0.97,0.18,-0.37,-2.5,-2.01,408,249,386,462,350
326,-0.18,-0.96,0.18,-0.24,-2.44,-3.11,407,250,386,462,351
327,-0.17,-0.97,0.18,-0.67,-2.99,-3.05,409,247,387,464,348
328,-0.18,-0.96,0.18,0.18,-3.6,-1.89,404,249,388,463,349
329,-0.18,-0.96,0.18,0.12,-3.05,-2.81,406,252,385,467,348
330,-0.17,-0.96,0.18,1.1,-2.38,-2.62,408,252,387,463,350
331,-0.17,-0.96,0.18,-0.06,-2.81,-3.72,405,249,386,460,348
332,-0.17,-0.96,0.2,-0.24,-1.95,-2.14,409,253,387,464,351
333,-0.18,-0.96,0.19,0.49,-2.81,-2.26,419,252,387,463,350
334,-0.19,-0.96,0.17,0.43,-2.93,-1.95,409,251,386,462,350
335,-0.19,-0.97,0.19,0.49,-2.81,-1.28,425,248,387,463,348
336,-0.19,-0.96,0.17,1.95,-2.81,-2.93,406,245,390,463,348
337,-0.18,-0.95,0.2,2.08,-3.05,-2.2,408,251,392,463,349
338,-0.19,-0.96,0.22,0.79,-2.93,-1.65,407,251,385,463,349
339,-0.19,-0.95,0.2,0.49,-3.05,-2.2,405,252,384,462,347
340,-0.19,-0.95,0.22,-2.81,-4.15,-4.39,409,252,384,465,350
341,-0.18,-0.96,0.17,-5.62,-5.13,-5.31,407,252,386,462,349
342,-0.17,-0.97,0.16,-2.26,-1.59,-1.89,404,248,388,466,353
343,-0.17,-0.97,0.19,0.24,-2.56,-1.83,409,253,385,469,357
344,-0.18,-0.96,0.17,1.4,-3.05,-1.22,410,253,387,459,350
345,-0.18,-0.97,0.17,0.0,-3.11,-2.56,408,253,387,466,351
346,-0.18,-0.97,0.17,0.98,-3.48,-2.2,405,252,386,462,358
347,-0.18,-0.96,0.18,0.18,-3.17,-2.44,407,250,386,465,349
348,-0.19,-0.97,0.19,1.28,-2.69,-2.2,410,248,388,463,349
349,-0.16,-0.97,0.16,0.18,-3.48,-2.87,409,252,386,462,352
350,-0.18,-0.97,0.17,0.37,-3.97,-2.14,410,250,383,461,349
351,-0.17,-0.96,0.17,0.0,-2.62,-2.75,404,255,383,465,346
352,-0.18,-0.96,0.16,0.31,-2.62,-2.81,405,250,392,466,351
353,-0.17,-0.97,0.17,1.16,-2.81,-2.81,407,250,386,463,350
354,-0.17,-0.94,0.16,-1.1,-3.05,-3.72,409,254,387,458,350
355,-0.17,-0.97,0.16,1.83,-1.59,-1.65,407,250,389,467,350
356,-0.18,-0.97,0.17,0.0,-1.53,-2.75,406,251,387,463,347
357,-0.18,-0.97,0.16,-1.65,-2.08,-3.17,407,250,386,463,346
358,-0.18,-0.97,0.14,2.38,-6.04,-2.01,409,248,386,462,350
359,-0.18,-0.97,0.14,1.28,-3.6,-2.14,435,252,387,465,350
360,-0.16,-0.97,0.14,0.98,-3.91,-2.2,417,249,387,460,343
361,-0.17,-0.97,0.16,1.46,-2.87,-3.17,407,250,386,462,348
362,-0.17,-0.97,0.15,0.67,-2.93,-2.87,410,247,386,463,348
363,-0.17,-0.97,0.15,-0.12,-3.17,-2.75,426,249,385,464,348
364,-0.17,-0.96,0.15,-0.18,-2.01,-2.81,408,250,387,463,348
365,-0.18,-0.97,0.14,-0.49,-2.75,-2.62,409,250,386,465,348
366,-0.17,-0.97,0.14,0.98,-2.93,-2.01,408,250,386,463,348
367,-0.16,-0.96,0.14,0.06,-3.05,-2.56,407,250,387,463,347
368,-0.16,-0.97,0.14,0.43,-2.93,-3.23,405,250,386,461,350
369,-0.17,-0.97,0.14,0.37,-3.11,-3.11,408,250,391,458,349
370,-0.17,-0.97,0.15,0.73,-3.42,-2.56,405,252,385,460,349
371,-0.17,-0.97,0.16,-0.55,-2.44,-2.38,416,253,388,467,351
372,-0.18,-0.94,0.16,-1.77,-2.62,-3.36,408,248,386,462,351
373,-0.19,-0.97,0.15,-0.85,-3.42,-2.32,408,252,389,462,351
374,-0.17,-0.96,0.15,-1.34,-1.71,-3.85,405,251,383,458,347
375,-0.17,-0.97,0.14,0.0,-2.93,-2.56,408,251,386,461,349
376,-0.17,-0.96,0.14,1.22,-3.54,-2.81,406,250,387,458,346
377,-0.18,-0.97,0.15,0.73,-3.3,-2.93,409,250,390,462,348
378,-0.18,-0.97,0.15,-0.37,-2.87,-2.44,408,252,387,458,345
379,-0.17,-0.97,0.15,0.0,-2.69,-2.38,408,251,385,462,356
380,-0.18,-0.97,0.15,0.73,-2.38,-2.44,410,254,387,466,345
381,-0.18,-0.97,0.14,0.55,-2.69,-2.01,426,254,386,469,346
382,-0.17,-0.97,0.15,-0.67,-1.53,-2.62,409,251,387,461,349
383,-0.18,-0.97,0.15,0.61,-3.11,-2.32,406,250,388,467,351
384,-0.18,-0.97,0.14,1.16,-3.3,-3.17,404,250,386,461,350
385,-0.18,-0.97,0.15,2.99,-4.09,-2.32,407,248,385,464,347
386,-0.17,-0.98,0.16,3.11,-3.48,-2.38,409,254,395,460,349
387,-0.16,-0.96,0.16,-0.55,-2.56,-2.62,411,260,387,463,349
388,-0.18,-0.97,0.16,-0.98,-2.56,-2.81,408,252,385,466,347
389,-0.19,-0.96,0.16,-0.92,-2.2,-3.23,407,252,385,459,349
390,-0.19,-0.97,0.16,0.43,-3.54,-2.38,405,249,397,468,350
391,-0.18,-0.97,0.15,-0.79,-2.14,-3.36,409,250,383,460,350
392,-0.18,-0.97,0.15,1.16,-3.11,-2.93,409,252,388,465,350
393,-0.18,-0.96,0.16,0.61,-3.11,-3.17,410,249,383,462,347
394,-0.17,-0.97,0.16,0.31,-3.78,-2.26,409,251,389,461,341
395,-0.18,-0.97,0.16,-4.76,-0.67,-3.23,408,252,386,458,348
396,-0.17,-0.97,0.14,-0.06,-2.08,-2.38,406,248,387,464,349
397,-0.17,-0.97,0.15,0.12,-2.26,-5.0,408,253,382,459,352
398,-0.15,-0.97,0.14,-0.73,-2.26,-2.26,409,254,388,466,346
399,-0.17,-0.97,0.15,2.14,-1.65,-0.37,407,249,385,466,349
400,-0.18,-0.97,0.14,0.61,-4.21,-2.38,431,254,385,467,350
401,-0.14,-0.96,0.16,4.64,-3.97,-3.23,407,253,383,464,349
402,-0.17,-0.97,0.12,-2.69,-0.73,-4.88,408,251,388,475,349
403,-0.16,-0.98,0.15,0.37,-3.11,-2.2,410,250,380,466,349
404,-0.17,-0.98,0.13,-1.95,-1.04,-2.69,408,251,384,464,350
405,-0.17,-0.98,0.13,2.08,-0.43,-3.36,411,253,386,459,352
406,-0.17,-0.97,0.16,2.44,-2.08,-1.22,410,249,388,462,347
407,-0.18,-0.96,0.16,11.96,-7.2,-1.28,411,249,387,466,346
408,-0.17,-0.96,0.22,-1.16,-2.01,0.43,407,253,383,461,345
409,-0.17,-0.96,0.17,1.46,-3.6,-2.93,410,251,389,462,349
410,-0.18,-0.96,0.19,1.28,-3.66,-1.46,407,250,387,467,347
411,-0.16,-0.93,0.22,-0.06,-3.3,2.5,407,248,387,466,349
412,-0.22,-0.96,0.17,-7.69,-5.37,2.75,412,251,388,459,348
413,-0.23,-0.97,0.18,2.5,-5.19,-2.2,412,251,382,463,347
414,-0.19,-0.96,0.2,0.0,-2.93,-4.03,411,246,385,460,349
415,-0.19,-0.96,0.2,1.4,-3.23,-2.26,413,252,382,464,338
416,-0.19,-0.96,0.18,0.92,-3.11,-2.26,411,250,382,463,349
417,-0.2,-0.96,0.18,0.12,-2.87,-1.71,411,249,385,463,349
418,-0.2,-0.96,0.18,0.06,-3.05,-1.65,412,251,388,467,341
419,-0.19,-0.96,0.17,1.89,-4.21,-3.36,412,254,384,470,347
420,-0.19,-0.96,0.17,-1.89,-2.62,-3.66,408,250,386,465,350
421,-0.19,-0.96,0.2,-2.62,-0.24,-4.27,411,252,388,458,344
422,-0.19,-0.96,0.22,-0.85,-2.44,-4.15,411,252,385,464,348
423,-0.19,-0.96,0.17,0.79,-2.87,-2.69,413,254,389,466,348
424,-0.19,-0.96,0.18,-1.89,-2.87,-3.11,414,253,389,462,348
425,-0.18,-0.96,0.16,0.31,-2.44,-4.03,412,251,384,459,346
426,-0.18,-0.96,0.18,0.67,-2.75,-2.38,418,251,384,462,350
427,-0.18,-0.97,0.17,-0.06,-2.62,-2.2,410,253,387,458,351
428,-0.19,-0.96,0.18,-1.16,-2.01,-2.81,414,254,388,464,350
429,-0.19,-0.96,0.16,2.75,-5.07,-2.2,412,256,385,463,351
430,-0.19,-0.96,0.16,0.49,-3.3,-2.38,412,250,396,464,351
431,-0.19,-0.96,0.18,2.44,-3.3,-3.36,409,252,386,463,348
432,-0.18,-0.96,0.18,4.03,-3.42,-2.38,413,254,385,459,347
433,-0.18,-0.96,0.17,3.91,-3.85,-4.03,411,255,380,467,348
434,-0.17,-0.96,0.2,-4.7,-1.65,-1.22,409,252,385,464,348
435,-0.19,-0.96,0.16,0.37,-1.83,-3.36,418,252,384,466,349
436,-0.17,-0.96,0.16,-0.24,-2.56,-3.11,414,254,387,474,350
437,-0.19,-0.97,0.16,0.43,-3.11,-2.32,413,249,385,461,352
438,-0.19,-0.96,0.16,0.12,-2.69,-3.23,412,254,381,463,350
439,-0.18,-0.97,0.16,0.12,-3.42,-2.5,411,251,385,467,350
440,-0.2,-0.96,0.16,0.12,-2.56,-2.5,411,259,385,462,348
441,-0.18,-0.96,0.16,0.79,-3.78,-2.26,411,256,384,463,349
442,-0.19,-0.96,0.16,-0.37,-3.3,-2.2,412,253,385,463,349
443,-0.19,-0.96,0.16,-0.18,-2.56,-2.69,412,255,384,466,347
444,-0.19,-0.96,0.17,1.22,-3.72,-3.17,411,252,381,466,348
445,-0.18,-0.97,0.19,-1.53,-1.89,-3.23,413,254,385,462,349
446,-0.2,-0.97,0.14,-2.32,-1.83,-2.87,412,255,383,464,348
447,-0.18,-0.97,0.16,-0.43,-1.95,-3.42,413,255,384,463,351
448,-0.19,-0.96,0.17,-0.92,-2.26,-2.26,412,255,387,467,349
449,-0.19,-0.97,0.15,0.24,-3.17,-1.71,439,252,389,458,346
450,-0.18,-0.96,0.16,0.37,-3.11,-2.69,409,252,386,464,350
451,-0.19,-0.96,0.16,2.26,-3.66,-3.54,410,250,382,464,345
452,-0.18,-0.96,0.17,1.77,-2.26,-3.05,413,252,387,465,347
453,-0.19,-0.96,0.16,0.06,-3.11,-2.26,412,256,382,466,346
454,-0.19,-0.96,0.16,1.1,-2.56,-2.93,411,251,383,464,347
455,-0.18,-0.97,0.14,1.53,-4.15,-2.44,409,252,387,461,347
456,-0.17,-0.97,0.21,-0.92,-3.6,-1.83,414,249,383,463,348
457,-0.21,-0.97,0.15,0.43,-3.97,-0.98,412,254,390,462,348
458,-0.18,-0.97,0.16,-0.61,-1.95,-1.71,412,252,386,468,349
459,-0.19,-0.96,0.16,0.0,-3.05,-2.14,409,257,384,462,346
460,-0.19,-0.97,0.16,-0.37,-2.5,-2.75,411,255,381,462,349
461,-0.19,-0.96,0.16,0.06,-2.69,-3.36,411,255,385,467,345
462,-0.2,-0.97,0.18,0.85,-3.17,-2.69,412,252,387,464,350
463,-0.2,-0.96,0.18,0.18,-2.62,-1.95,412,252,387,462,348
464,-0.18,-0.97,0.2,3.05,-3.23,-1.28,414,255,387,461,352
465,-0.19,-0.96,0.16,1.71,-2.99,-3.05,413,258,384,465,347
466,-0.2,-0.97,0.17,1.83,-3.3,-1.46,412,252,380,466,347
467,-0.19,-0.97,0.16,1.1,-2.75,-3.23,410,253,384,462,348
468,-0.2,-0.97,0.18,2.26,-3.11,-2.32,412,252,385,466,348
469,-0.2,-0.96,0.16,0.18,-2.87,-2.62,413,255,385,465,349
470,-0.2,-0.96,0.16,0.73,-3.05,-1.89,411,254,383,463,350
471,-0.19,-0.95,0.11,-2.69,-3.3,-3.66,414,252,388,463,346
472,-0.18,-0.96,0.14,-2.87,-1.59,-2.14,436,251,386,467,349
473,-0.2,-0.96,0.15,0.24,-2.2,-3.05,412,250,382,467,349
474,-0.19,-0.96,0.14,-1.89,-2.26,-1.89,410,251,388,458,346
475,-0.2,-0.96,0.14,1.95,-2.81,-2.62,412,252,383,465,349
476,-0.2,-0.96,0.13,0.43,-3.48,-2.5,411,253,386,464,348
477,-0.21,-0.97,0.16,0.43,-2.69,-2.93,406,249,382,463,351
478,-0.2,-0.97,0.15,0.24,-2.81,-3.72,413,255,387,463,350
479,-0.2,-0.97,0.17,0.92,-1.83,-2.14,412,252,384,463,348
480,-0.21,-0.97,0.15,-1.22,-2.38,-2.69,412,254,384,467,348
481,-0.2,-0.97,0.14,-1.65,-2.08,-2.5,412,253,384,467,346
482,-0.19,-0.97,0.15,-1.28,-2.56,-2.75,410,255,384,458,351
483,-0.2,-0.97,0.15,0.43,-2.87,-2.81,412,255,373,459,349
484,-0.19,-0.96,0.14,-0.49,-2.26,-2.44,411,253,387,465,350
485,-0.19,-0.97,0.15,0.61,-2.14,-2.81,410,255,385,463,349
486,-0.2,-0.97,0.14,-0.67,-2.87,-2.62,408,256,384,465,349
487,-0.2,-0.96,0.14,-0.06,-3.11,-2.44,410,253,384,468,345
488,-0.19,-0.97,0.15,0.37,-3.23,-2.62,406,253,384,462,347
489,-0.21,-0.97,0.16,0.0,-2.81,-3.3,412,254,383,459,349
490,-0.21,-0.98,0.17,3.3,-3.36,-2.32,411,253,381,466,349
491,-0.19,-0.96,0.1,-1.95,-0.79,-6.04,410,254,384,465,349
492,-0.17,-0.98,0.14,4.46,-1.71,-2.75,449,254,383,469,346
493,-0.16,-0.97,0.12,-2.44,-2.99,-1.71,412,256,385,463,350
494,-0.17,-0.97,0.11,0.73,-2.93,-3.05,412,257,381,468,350
495,-0.17,-0.97,0.12,-0.06,-2.01,-2.38,412,254,384,462,346
496,-0.18,-0.96,0.12,-0.49,-2.75,-3.05,411,258,380,460,347
497,-0.18,-0.98,0.12,0.0,-3.05,-3.05,410,252,382,464,348
498,-0.18,-0.97,0.13,0.31,-2.93,-3.6,408,256,390,469,346
499,-0.17,-0.96,0.14,-0.43,-2.87,-2.87,413,255,387,462,350
500,-0.17,-0.98,0.14,-0.92,-1.89,-2.69,410,253,386,463,351
501,-0.18,-0.97,0.13,0.12,-2.32,-2.38,407,257,384,463,351
502,-0.11,-0.89,0.46,-0.06,-2.99,-3.11,416,220,414,451,344
503,-0.11,-0.9,0.44,-1.46,-3.17,-4.15,414,221,410,446,342
504,-0.09,-0.88,0.42,-0.43,-3.54,-2.62,414,223,414,451,339
505,-0.1,-0.9,0.42,1.65,-4.64,0.06,407,222,414,450,337
506,-0.12,-0.9,0.45,-1.1,-1.77,-2.56,410,237,413,451,345
507,-0.11,-0.9,0.45,-0.06,-1.65,-1.4,410,224,423,451,346
508,-0.09,-0.9,0.42,0.73,-0.55,-2.08,406,224,413,457,341
509,-0.07,-0.89,0.4,-2.2,-2.62,-4.21,412,222,409,452,340
510,-0.12,-0.91,0.41,1.28,-1.46,-3.97,405,222,411,447,342
511,-0.09,-0.9,0.41,1.71,-6.23,-1.4,403,223,412,453,343
512,-0.09,-0.9,0.41,-0.12,-0.18,-5.49,403,224,411,447,344
513,-0.09,-0.94,0.41,1.71,-3.78,-2.08,404,225,411,457,344
514,-0.09,-0.92,0.42,1.16,-3.05,-1.59,404,222,411,457,339
515,-0.09,-0.89,0.43,1.65,-4.33,-0.18,401,224,411,457,343
516,-0.1,-0.92,0.4,0.12,-3.42,-1.34,397,226,409,459,343
517,-0.11,-0.91,0.4,-0.85,-2.93,-1.77,400,221,410,457,344
518,-0.08,-0.88,0.39,-5.43,-2.2,0.92,400,227,410,458,343
519,-0.11,-0.9,0.4,-0.18,-3.66,-1.71,398,228,412,454,345
520,-0.11,-0.92,0.4,0.31,-4.27,-3.54,397,225,409,454,343
521,-0.11,-0.89,0.42,3.91,-2.14,-1.65,399,230,411,454,346
522,-0.11,-0.85,0.38,-0.55,-2.08,-1.34,395,226,413,455,346
523,-0.12,-0.92,0.4,15.08,-2.5,-2.56,399,227,408,455,345
524,-0.1,-0.9,0.4,-2.38,-2.26,-3.3,399,229,410,450,345
525,-0.11,-0.92,0.38,-2.56,-4.64,-3.17,398,228,405,456,344
526,-0.05,-0.93,0.37,-5.25,-3.11,-3.36,399,225,407,458,345
527,-0.08,-0.93,0.36,-2.26,-3.23,-1.34,400,227,407,459,355
528,-0.08,-0.93,0.36,0.18,-2.93,-3.23,397,227,405,459,346
529,-0.08,-0.93,0.35,-2.38,-1.34,-4.21,401,226,403,455,347
530,-0.1,-0.93,0.35,0.79,-2.87,-2.26,399,226,404,459,342
531,-0.1,-0.94,0.36,-0.37,-2.93,-3.11,397,229,402,458,345
532,-0.1,-0.93,0.35,-0.43,-2.26,-3.78,398,229,402,461,347
533,-0.08,-0.91,0.36,1.95,-2.32,-4.76,397,222,405,457,345
534,-0.08,-0.92,0.38,0.79,-3.23,-3.6,400,229,402,457,346
535,-0.09,-0.91,0.39,1.28,-1.34,-2.69,397,228,404,459,345
536,-0.1,-0.92,0.37,0.98,-2.38,-2.38,397,227,400,455,348
537,-0.07,-0.93,0.35,-2.26,-1.22,-3.36,397,233,400,455,344
538,-0.11,-0.92,0.37,-0.49,-0.92,-2.69,394,224,398,460,345
539,-0.1,-0.93,0.36,0.0,-2.26,-2.01,397,228,396,455,346
540,-0.09,-0.94,0.35,1.95,-1.16,-2.32,396,227,398,451,344
541,-0.11,-0.92,0.36,0.43,-3.78,-2.2,397,227,397,461,343
542,-0.1,-0.93,0.36,1.04,-4.15,-2.26,403,225,397,458,346
543,-0.11,-0.93,0.37,0.67,-2.56,-2.38,405,228,394,455,347
544,-0.09,-0.92,0.35,0.18,-3.85,-2.08,407,228,400,458,346
545,-0.09,-0.93,0.35,-0.55,1.34,-2.81,421,227,396,455,348
546,-0.11,-0.93,0.35,-2.2,0.67,-4.52,403,230,397,454,344
547,-0.13,-0.92,0.38,1.22,-2.62,-0.12,401,231,397,467,345
548,-0.11,-0.92,0.38,1.59,-5.37,-0.79,401,229,395,454,347
549,-0.12,-0.92,0.39,0.06,-3.42,-3.11,426,231,397,460,343
550,-0.11,-0.92,0.37,2.26,-3.91,-2.38,414,231,395,460,343
551,-0.1,-0.92,0.37,0.24,-3.05,-2.87,402,234,396,459,346
552,-0.12,-0.91,0.36,-0.06,-2.93,-2.38,404,224,397,460,348
553,-0.09,-0.9,0.38,-0.37,-2.32,-2.56,405,230,396,461,346
554,-0.13,-0.92,0.38,-3.17,-2.01,-4.33,401,229,393,456,345
555,-0.12,-0.92,0.36,-1.77,-3.91,-3.42,402,228,400,460,344
556,-0.11,-0.92,0.34,0.85,-3.11,-2.99,400,232,396,452,345
557,-0.11,-0.93,0.36,1.77,-2.81,-3.78,436,232,396,456,345
558,-0.11,-0.92,0.37,1.22,-2.81,-2.32,399,230,397,461,347
559,-0.11,-0.92,0.37,-0.24,-2.38,-2.62,395,231,397,456,342
560,-0.11,-0.93,0.37,-0.61,-3.11,-1.89,399,230,396,453,341
561,-0.12,-0.92,0.37,-1.28,-1.89,-3.23,399,230,397,453,346
562,-0.12,-0.93,0.36,-1.22,-1.77,-2.93,400,230,396,458,343
563,-0.11,-0.93,0.36,1.46,-2.08,-2.01,400,232,408,458,345
564,-0.11,-0.92,0.36,0.06,-5.31,-1.89,400,228,395,451,343
565,-0.13,-0.93,0.36,-0.31,-3.54,-0.73,399,234,394,456,349
566,-0.13,-0.91,0.39,5.8,-0.67,-5.8,399,230,395,455,346
567,-0.12,-0.91,0.4,-1.1,-4.09,-2.14,402,232,393,452,346
568,-0.11,-0.92,0.37,-0.43,-2.08,-2.38,398,232,397,459,349
569,-0.11,-0.92,0.38,0.92,-2.56,-2.08,387,230,398,454,355
570,-0.1,-0.92,0.36,2.14,-3.66,-1.59,401,232,394,455,347
571,-0.13,-0.92,0.38,-0.18,-2.2,-2.99,395,232,397,461,347
572,-0.11,-0.93,0.36,-1.16,-3.36,-2.99,398,232,394,457,346
573,-0.12,-0.92,0.38,0.18,-2.01,-1.89,397,233,394,460,348
574,-0.13,-0.92,0.39,-3.6,-1.89,-3.72,398,233,388,461,349
575,-0.13,-0.93,0.33,-3.05,-2.2,-3.85,394,231,395,452,345
576,-0.14,-0.91,0.38,5.8,-2.69,-0.37,400,232,393,453,349
577,-0.15,-0.91,0.38,1.1,-5.37,0.55,418,234,394,455,347
578,-0.12,-0.92,0.37,2.69,-4.21,-1.46,397,234,395,455,345
579,-0.14,-0.91,0.4,2.93,-2.01,-3.97,398,234,391,471,349
580,-0.12,-0.92,0.39,2.38,-0.92,-3.05,399,233,397,458,345
581,-0.16,-0.92,0.37,-0.92,3.97,-2.75,414,231,394,459,346
582,-0.16,-0.92,0.37,-4.33,5.37,-0.85,415,229,392,458,346
583,-0.19,-0.92,0.29,0.55,-2.75,-3.54,416,237,395,458,346
584,-0.18,-0.94,0.28,-3.97,-0.73,-15.69,417,233,394,457,344
585,-0.19,-0.92,0.33,7.93,3.42,-19.53,414,231,394,457,346
586,-0.18,-0.94,0.32,5.92,-4.27,-6.29,413,233,393,458,346
587,-0.16,-0.94,0.29,3.3,-4.09,-0.55,414,236,394,458,349
588,-0.19,-0.92,0.39,-4.88,5.92,-12.08,414,234,395,461,347
589,-0.11,-0.95,0.31,-0.12,-0.85,-0.85,405,231,393,460,349
590,-0.12,-0.93,0.28,-5.43,3.05,-15.5,409,234,393,459,346
591,-0.12,-0.99,0.21,-21.36,4.46,-2.32,409,232,395,462,341
592,-0.09,-0.95,0.29,6.16,-10.07,-0.55,408,233,395,459,345
593,-0.13,-0.96,0.25,2.01,-3.66,-0.61,407,232,392,458,347
594,-0.13,-0.97,0.24,1.16,-6.96,-1.4,412,231,395,461,343
595,-0.13,-0.96,0.25,1.59,-4.88,-1.22,406,231,395,455,345
596,-0.14,-0.96,0.23,-1.65,-3.66,-3.3,410,233,398,462,342
597,-0.1,-0.97,0.19,3.3,-3.11,-3.05,408,236,391,454,351
598,-0.13,-0.96,0.26,2.14,-3.91,-3.36,406,233,393,458,346
599,-0.14,-0.94,0.22,-0.43,-5.37,-2.5,406,233,391,460,342
600,-0.12,-0.96,0.21,-3.72,-3.48,-3.6,408,232,389,459,342
601,-0.11,-0.97,0.2,0.61,-2.38,-3.36,404,234,388,459,343
602,-0.13,-0.96,0.2,-0.98,-4.88,-2.26,405,231,391,458,344
603,-0.14,-0.97,0.21,0.06,-2.2,-2.81,405,234,389,458,344
604,-0.15,-0.97,0.2,0.37,-3.3,-2.44,403,236,392,458,345
605,-0.07,-0.96,0.19,-2.75,-4.76,-2.56,404,236,392,458,346
606,-0.11,-0.97,0.19,-1.34,-4.03,-2.81,405,233,389,459,342
607,-0.13,-0.98,0.17,0.0,-2.93,-2.56,406,232,390,458,348
608,-0.15,-0.98,0.21,-0.55,-4.33,-1.16,407,233,394,459,348
609,-0.13,-0.98,0.19,-0.73,-2.44,-3.3,406,233,391,462,346
610,-0.1,-0.97,0.2,-1.53,-2.87,-2.93,409,234,381,457,345
611,-0.12,-0.97,0.17,3.72,-1.53,-4.7,406,235,391,459,346
612,-0.13,-0.98,0.24,1.71,12.27,-1.83,405,234,390,454,349
613,-0.11,-0.97,0.18,2.01,-3.6,0.0,407,246,389,460,343
614,-0.12,-0.96,0.2,-0.92,-2.2,-3.66,407,247,397,457,348
615,-0.11,-0.97,0.2,-1.53,0.79,-4.88,406,235,388,461,348
616,-0.11,-0.97,0.19,4.94,-0.18,-4.27,406,233,391,460,348
617,-0.14,-0.97,0.19,5.68,-5.43,-1.53,407,238,387,459,348
618,-0.12,-0.97,0.18,-1.95,-1.77,-4.7,407,237,389,457,348
619,-0.13,-0.96,0.2,2.5,-3.72,0.0,405,238,385,459,346
620,-0.13,-0.97,0.2,0.0,-4.27,-4.39,406,236,388,460,348
621,-0.11,-0.97,0.17,-2.62,-3.54,-1.53,400,235,387,458,348
622,-0.13,-0.96,0.19,1.04,-2.93,-1.46,411,234,388,460,347
623,-0.13,-0.97,0.21,-1.65,-2.38,-2.62,406,238,389,460,349
624,-0.13,-0.98,0.2,-0.67,-2.87,-2.38,407,235,387,461,347
625,-0.13,-0.94,0.19,1.4,-1.95,-3.6,403,235,388,457,347
626,-0.13,-0.97,0.17,0.43,-3.17,-2.81,408,236,387,458,343
627,-0.13,-0.96,0.19,-0.37,-2.44,-2.38,408,238,384,459,348
628,-0.13,-0.96,0.19,-0.37,-1.59,-3.17,406,236,389,457,345
629,-0.13,-0.97,0.18,-0.55,-2.32,-3.36,407,232,394,459,350
630,-0.14,-0.97,0.18,-0.12,-3.23,-3.36,407,238,390,461,347
631,-0.14,-0.97,0.18,-0.49,-3.23,-2.75,406,240,387,459,346
632,-0.14,-0.96,0.17,-0.18,-3.66,-2.2,407,236,386,459,349
633,-0.14,-0.97,0.18,0.61,-2.93,-2.93,407,236,389,463,346
634,-0.14,-0.97,0.19,0.79,-3.3,-2.26,407,236,388,455,350
635,-0.14,-0.96,0.18,-0.61,-4.09,-2.2,406,239,387,453,348
636,-0.15,-0.97,0.18,0.79,-2.81,-2.69,406,238,388,454,346
637,-0.13,-0.96,0.18,2.32,-3.78,-3.36,406,238,388,461,346
638,-0.14,-0.98,0.17,0.98,-3.23,-1.83,406,240,387,459,347
639,-0.14,-0.98,0.18,0.55,-3.3,-2.93,394,240,387,459,344
640,-0.15,-0.97,0.18,-0.37,-2.75,-2.81,408,239,388,463,350
641,-0.14,-0.97,0.19,0.12,-2.38,-2.5,408,240,386,460,348
642,-0.15,-0.96,0.19,-0.67,-0.92,-2.32,409,239,389,461,348
643,-0.15,-0.96,0.16,-1.95,-2.2,-2.81,412,242,386,454,343
644,-0.17,-0.98,0.2,0.67,-3.85,-4.03,414,237,385,462,342
645,-0.13,-0.99,0.16,3.11,-4.58,-2.62,411,235,386,456,331
646,-0.17,-0.98,0.13,-8.54,-7.51,0.0,411,235,388,463,342
647,-0.16,-0.97,0.19,-1.59,1.04,-1.71,411,241,388,457,345
648,-0.18,-0.98,0.14,-2.26,-1.65,-6.29,412,238,388,462,346
649,-0.13,-0.97,0.15,-1.77,-2.81,-4.64,413,238,383,462,345
650,-0.13,-0.98,0.2,-2.69,-0.49,-2.93,416,234,383,462,344
651,-0.12,-0.97,0.17,-10.8,2.14,-4.21,413,238,384,457,346
652,-0.12,-0.97,0.22,-1.34,-6.35,-4.39,412,238,385,455,347
653,-0.11,-0.96,0.25,-0.12,-9.03,-1.83,408,239,382,464,347
654,-0.11,-0.97,0.23,-3.66,2.56,-4.03,410,237,382,458,345
655,-0.12,-0.98,0.13,0.31,-2.81,-5.49,411,239,387,464,346
656,-0.1,-0.97,0.18,3.36,-1.71,-1.28,407,235,388,459,344
657,-0.11,-0.98,0.15,-0.79,-3.23,-4.09,408,237,387,463,346
658,-0.11,-0.97,0.19,0.06,-3.91,-0.12,405,238,387,460,348
659,-0.11,-0.97,0.18,-2.44,-2.81,-0.06,405,240,383,459,349
660,-0.09,-0.97,0.19,-1.16,-4.21,-0.79,410,240,385,462,346
661,-0.13,-0.97,0.22,-3.42,-4.15,-2.81,417,238,387,455,350
662,-0.1,-0.96,0.22,2.38,-7.63,-5.62,429,241,387,460,347
663,-0.13,-0.97,0.22,3.05,-2.75,-0.37,410,241,383,460,346
664,-0.13,-0.96,0.28,-0.92,-0.49,-3.11,411,239,386,460,347
665,-0.14,-0.96,0.24,-4.76,-2.2,-1.34,409,241,384,462,345
666,-0.13,-0.96,0.23,1.65,-3.6,-2.99,406,237,381,457,344
667,-0.13,-0.97,0.22,-2.99,-2.5,-3.11,407,239,383,460,345
668,-0.12,-0.97,0.17,-0.31,-0.06,-3.42,407,240,382,458,349
669,-0.15,-0.97,0.21,2.32,1.95,-0.37,412,240,382,460,345
670,-0.16,-0.97,0.23,-0.18,-1.46,-1.46,408,241,384,460,350
671,-0.15,-0.96,0.23,2.99,-3.11,-2.2,413,241,381,462,344
672,-0.14,-0.96,0.23,5.49,-2.69,-2.44,414,237,386,455,357
673,-0.15,-0.95,0.23,3.66,-2.5,-2.75,412,241,380,460,351
674,-0.15,-0.96,0.21,-0.12,-1.04,-2.44,411,239,378,461,339
675,-0.17,-0.96,0.24,-0.06,-5.25,-2.14,411,239,385,461,349
676,-0.16,-0.97,0.21,0.55,-3.3,-2.5,414,240,383,462,354
677,-0.16,-0.96,0.21,0.18,-2.26,-2.44,413,242,385,472,350
678,-0.16,-0.96,0.22,0.85,-3.05,-3.05,415,238,383,455,348
679,-0.17,-0.97,0.22,0.0,-3.3,-3.48,413,248,379,460,348
680,-0.16,-0.96,0.24,-0.98,-2.87,-3.91,420,240,380,460,351
681,-0.16,-0.96,0.22,-0.06,-3.6,-2.08,413,238,384,455,346
682,-0.17,-0.96,0.23,-0.06,-1.95,-2.26,412,252,385,463,347
683,-0.16,-0.96,0.22,0.12,-2.56,-1.4,412,242,385,463,349
684,-0.17,-0.96,0.22,0.49,-2.2,-2.26,404,240,383,471,344
685,-0.17,-0.96,0.22,0.55,-3.05,-2.26,413,238,383,459,350
686,-0.17,-0.96,0.22,0.31,-3.05,-2.75,414,240,383,464,349
687,-0.17,-0.95,0.23,1.71,-4.27,-2.69,412,241,381,462,348
688,-0.16,-0.96,0.23,0.67,-2.93,-2.62,412,241,381,461,350
689,-0.19,-1.0,0.32,-1.53,-2.44,-2.56,412,243,383,460,346
690,-0.17,-0.95,0.22,-0.79,-1.34,-2.44,412,241,382,460,349
691,-0.17,-0.96,0.22,-2.08,-1.95,-3.36,415,238,385,463,347
692,-0.17,-0.96,0.21,-2.62,-1.4,-4.58,413,244,383,465,347
693,-0.17,-0.96,0.22,-0.49,-2.81,-2.38,414,243,381,459,348
694,-0.16,-0.95,0.22,0.0,-3.42,-2.44,413,245,386,464,348
695,-0.17,-0.95,0.2,-0.43,-2.32,-3.91,414,246,390,458,348
696,-0.19,-0.96,0.26,0.12,-4.39,-2.75,413,241,389,461,348
697,-0.18,-0.94,0.25,5.25,-5.86,0.73,415,242,390,460,344
698,-0.17,-0.95,0.23,-3.72,-0.12,-4.88,413,245,391,460,350
699,-0.18,-0.96,0.22,-0.06,-2.93,-2.2,412,245,393,462,348
700,-0.2,-0.95,0.22,-0.92,-4.64,-4.94,419,243,387,464,350
701,-0.17,-0.96,0.25,0.18,-2.93,-1.16,412,242,390,463,348
702,-0.15,-0.95,0.22,-0.24,-3.17,-4.21,415,242,391,459,350
703,-0.17,-0.95,0.23,1.28,-3.3,-1.89,412,243,394,455,348
704,-0.17,-0.95,0.23,0.43,-3.11,-2.2,414,243,392,461,350
705,-0.17,-0.96,0.24,0.92,-3.48,-2.5,412,244,392,463,345
706,-0.16,-0.95,0.23,-1.16,-1.77,-1.71,412,243,390,465,343
707,-0.17,-0.96,0.25,0.43,-2.69,-2.14,413,242,394,464,347
708,-0.16,-0.96,0.23,-0.55,-1.46,-4.03,414,242,391,461,353
709,-0.17,-0.95,0.25,-2.08,-1.53,-2.87,414,242,391,465,349
710,-0.17,-0.94,0.24,0.37,-3.66,-2.38,408,244,393,459,350
711,-0.18,-0.96,0.24,0.67,-1.46,-5.37,411,242,391,460,346
712,-0.17,-0.95,0.25,2.08,-3.42,-2.01,412,242,391,464,349
713,-0.17,-0.95,0.25,-1.59,-0.55,-1.46,410,246,390,464,352
714,-0.17,-0.95,0.24,-0.18,-3.36,-1.83,414,240,391,462,348
715,-0.18,-0.95,0.24,0.79,-2.56,-2.62,415,242,389,464,348
716,-0.17,-0.95,0.24,-2.62,-0.49,-6.47,413,241,389,460,344
717,-0.17,-0.95,0.24,-3.11,-1.77,-1.16,412,239,393,463,350
718,-0.17,-0.95,0.24,0.37,-2.87,-2.56,409,247,389,475,351
719,-0.17,-0.96,0.24,-1.77,-2.93,-2.14,411,242,391,474,347
720,-0.16,-0.95,0.25,0.55,-3.17,-2.69,412,241,393,465,350
721,-0.17,-0.96,0.24,2.5,-3.17,-2.14,412,244,394,459,348
722,-0.18,-0.96,0.22,-1.65,-3.72,-3.05,411,245,393,461,352
723,-0.17,-0.96,0.22,-0.43,-4.27,-2.32,411,248,398,461,349
724,-0.18,-0.96,0.26,-2.93,-0.98,-3.11,420,244,391,464,350
725,-0.17,-0.97,0.23,2.08,-3.23,-1.16,413,245,389,464,348
726,-0.18,-0.95,0.21,0.79,-3.85,-3.17,414,243,392,466,349
727,-0.19,-0.92,0.2,-1.16,-2.93,-2.87,412,242,393,459,349
728,-0.17,-0.97,0.22,0.67,-2.26,-0.79,409,244,393,461,349
729,-0.2,-0.95,0.24,0.31,-0.98,-4.27,409,241,389,460,348
730,-0.21,-0.94,0.24,-2.26,-7.2,1.28,409,245,393,462,350
731,-0.21,-0.96,0.22,0.18,-4.09,0.61,411,243,395,465,350
732,-0.22,-0.94,0.27,10.07,-8.3,7.57,419,244,391,465,351
733,-0.26,-0.92,0.3,2.69,-4.39,-2.5,415,246,392,462,347
734,-0.21,-0.92,0.27,-2.14,-3.97,-2.2,414,246,393,461,346
735,-0.22,-0.92,0.35,-2.81,-1.4,0.98,412,242,392,456,345
736,-0.25,-0.89,0.35,-3.54,-3.6,-4.15,412,246,393,462,349
737,-0.22,-0.92,0.33,0.31,-3.17,-4.94,414,243,391,457,353
738,-0.24,-0.92,0.31,3.36,-2.81,-0.43,415,243,390,462,351
739,-0.24,-0.91,0.3,-0.61,-2.56,-2.93,414,245,390,462,350
740,-0.23,-0.91,0.3,2.62,-1.28,-3.85,411,245,392,465,350
741,-0.33,-0.93,0.33,4.27,7.14,-8.48,413,243,391,456,351
742,-0.16,-0.94,0.23,-4.39,10.93,-14.28,412,243,388,460,350
743,-0.16,-0.96,0.27,2.99,0.0,1.1,412,242,390,460,349
744,-0.16,-0.94,0.29,1.59,-2.44,-3.6,410,245,390,460,346
745,-0.12,-0.95,0.22,2.26,3.17,-8.06,412,246,390,462,350
746,-0.18,-0.96,0.27,-4.39,-10.13,1.89,411,245,390,460,351
747,-0.18,-0.97,0.27,2.87,-9.7,-3.3,412,246,391,461,350
748,-0.18,-0.99,0.21,-0.85,-5.0,-0.98,412,246,390,461,344
749,-0.2,-0.95,0.25,-2.87,-4.27,-2.14,412,245,390,456,348
750,-0.19,-0.95,0.28,-0.85,-5.37,-1.34,411,243,389,460,351
751,-0.21,-0.95,0.26,1.53,-5.62,-2.99,409,243,390,462,348
752,-0.22,-0.95,0.26,-1.95,-6.1,1.34,411,242,393,458,347
753,-0.21,-0.95,0.25,0.55,-1.65,-1.95,411,242,390,462,348
754,-0.21,-0.94,0.24,0.31,-4.94,-3.23,409,246,390,461,349
755,-0.19,-0.94,0.24,1.04,-3.3,-4.82,412,244,393,464,351
756,-0.18,-0.94,0.25,3.97,-6.23,-2.87,410,241,389,462,347
757,-0.19,-0.94,0.26,2.2,-3.72,0.06,408,240,390,457,349
758,-0.2,-0.94,0.27,0.55,-2.99,-2.38,411,245,385,460,349
759,-0.19,-0.95,0.27,0.06,-3.91,-2.81,406,246,390,466,350
760,-0.2,-0.94,0.26,-0.43,-1.46,-3.17,439,247,387,464,349
761,-0.21,-0.95,0.26,0.12,-3.11,-2.87,411,245,393,462,351
762,-0.2,-0.94,0.22,0.12,-2.08,-2.81,414,245,387,462,351
763,-0.21,-0.93,0.26,-1.77,-3.85,-3.78,409,242,393,457,349
764,-0.2,-0.94,0.25,-0.49,-1.1,-3.66,413,244,394,461,348
765,-0.19,-0.94,0.25,0.31,-3.48,-2.44,408,246,390,465,346
766,-0.21,-0.94,0.25,1.4,-3.3,-2.01,409,242,392,465,351
767,-0.21,-0.94,0.25,-0.43,-1.95,-2.38,408,245,390,462,349
768,-0.23,-0.93,0.27,-1.16,-3.6,-2.62,409,245,393,460,346
769,-0.21,-0.95,0.25,-1.28,-3.78,-2.56,405,246,396,457,351
770,-0.22,-0.93,0.25,-0.61,-2.08,-3.23,408,247,390,462,348
771,-0.22,-0.94,0.25,0.49,-3.66,-2.38,408,244,390,465,349
772,-0.21,-0.94,0.26,-0.18,-2.01,-3.6,408,245,390,462,347
773,-0.21,-0.94,0.26,1.22,-2.75,-3.23,409,244,392,462,344
774,-0.21,-0.94,0.26,0.06,-2.62,-2.87,409,248,388,461,350
775,-0.22,-0.94,0.26,-0.37,-2.5,-2.38,411,245,398,466,347
776,-0.22,-0.94,0.26,0.24,-2.75,-2.01,429,245,389,463,350
777,-0.22,-0.94,0.25,0.24,-3.11,-2.14,408,245,387,462,348
778,-0.22,-0.94,0.26,0.49,-2.56,-2.38,401,248,391,461,347
779,-0.22,-0.95,0.27,2.69,-4.76,-3.97,409,252,389,463,349
780,-0.23,-0.93,0.28,-2.69,-2.5,-1.89,408,246,390,470,349
781,-0.22,-0.94,0.29,-0.18,-5.68,-0.85,402,248,395,457,350
782,-0.23,-0.94,0.28,0.55,-2.99,-0.24,410,243,386,463,347
783,-0.22,-0.93,0.29,1.89,-1.28,-2.26,407,244,391,479,347
784,-0.23,-0.93,0.28,-1.83,-3.11,-2.87,411,244,386,462,348
785,-0.22,-0.93,0.25,-0.98,-2.14,-2.69,414,244,388,463,346
786,-0.23,-0.93,0.25,-0.92,-2.87,-2.75,408,244,392,466,348
787,-0.22,-0.94,0.24,0.43,-3.6,-2.32,409,249,390,459,349
788,-0.22,-0.93,0.25,0.92,-4.03,-2.56,408,248,389,466,350
789,-0.23,-0.94,0.26,1.65,-3.78,-3.23,410,246,387,462,347
790,-0.22,-0.94,0.27,-0.37,-1.71,-3.17,408,246,392,458,348
791,-0.22,-0.94,0.25,0.85,-1.65,-2.56,408,248,392,462,347
792,-0.21,-0.92,0.25,-1.65,-2.93,-1.53,409,249,386,462,346
793,-0.23,-0.95,0.28,1.28,-3.11,-0.67,406,245,389,459,349
794,-0.22,-0.93,0.25,-0.85,-2.08,-2.87,410,248,390,458,348
795,-0.23,-0.95,0.24,-0.06,-3.17,-1.83,409,249,391,463,350
796,-0.23,-0.94,0.24,0.98,-3.11,-2.38,409,246,389,461,357
797,-0.23,-0.94,0.24,1.83,-3.17,-2.87,409,250,389,466,346
798,-0.22,-0.94,0.25,1.22,-3.17,-3.66,406,247,398,462,350
799,-0.23,-0.94,0.26,0.37,-2.2,-2.2,411,250,393,465,349
800,-0.23,-0.94,0.25,-1.1,-1.95,-2.69,410,247,388,463,340
801,-0.2,-0.94,0.23,-2.62,0.24,-4.52,409,245,385,466,349
802,-0.21,-0.94,0.23,0.67,-2.56,-2.62,409,246,392,462,349
803,-0.21,-0.94,0.27,1.95,-8.79,-2.2,410,248,387,462,349
804,-0.19,-0.95,0.25,0.49,-6.41,-4.58,408,247,389,467,348
805,-0.17,-0.95,0.24,0.49,-0.67,-2.32,410,245,386,462,349
806,-0.17,-0.95,0.22,-2.08,-2.01,-3.91,409,247,390,466,348
807,-0.18,-0.96,0.2,-3.66,-0.73,-5.8,406,247,393,463,349
808,-0.17,-0.97,0.23,-1.16,-1.71,-2.62,408,249,392,457,351
809,-0.18,-0.96,0.23,1.1,-2.93,-2.93,408,248,386,458,349
810,-0.19,-0.96,0.23,0.24,-2.14,-3.11,409,258,387,458,347
811,-0.17,-0.96,0.22,0.61,-2.87,-2.08,408,250,385,458,345
812,-0.17,-0.96,0.2,0.0,-1.71,-2.44,406,253,388,467,350
813,-0.18,-0.96,0.21,0.92,-2.75,-2.01,408,250,388,466,348
814,-0.17,-0.97,0.21,-0.18,-4.64,-1.65,410,249,388,467,348
815,-0.16,-0.96,0.21,-1.65,-5.49,-2.08,408,249,392,458,346
816,-0.16,-0.96,0.18,-2.32,-3.17,-4.09,405,249,392,461,351
817,-0.17,-0.96,0.19,1.4,-2.99,-4.03,413,249,388,463,349
818,-0.17,-0.96,0.19,-0.49,-2.32,-2.56,408,250,390,462,351
819,-0.17,-0.96,0.19,-2.01,-3.11,-3.72,408,254,390,462,349
820,-0.15,-0.98,0.15,-1.83,-0.67,-3.42,408,252,391,463,349
821,-0.15,-0.97,0.17,-1.34,0.31,-5.07,408,250,390,461,347
822,-0.15,-0.97,0.17,1.16,-4.09,-0.61,409,251,391,464,349
823,-0.15,-0.95,0.19,0.43,-0.31,-2.01,407,251,389,461,346
824,-0.17,-0.97,0.19,2.81,-5.68,-0.24,407,247,391,463,347
825,-0.16,-0.97,0.18,-0.55,-3.17,-2.44,400,252,390,466,349
826,-0.17,-0.96,0.18,0.85,-2.08,-1.4,404,251,387,461,347
827,-0.17,-0.97,0.18,-0.37,-2.5,-2.01,408,249,386,462,350
828,-0.18,-0.96,0.18,-0.24,-2.44,-3.11,407,250,386,462,351
829,-0.17,-0.97,0.18,-0.67,-2.99,-3.05,409,247,387,464,348
830,-0.18,-0.96,0.18,0.18,-3.6,-1.89,404,249,388,463,349
831,-0.18,-0.96,0.18,0.12,-3.05,-2.81,406,252,385,467,348
832,-0.17,-0.96,0.18,1.1,-2.38,-2.62,408,252,387,463,350
833,-0.17,-0.96,0.18,-0.06,-2.81,-3.72,405,249,386,460,348
834,-0.17,-0.96,0.2,-0.24,-1.95,-2.14,409,253,387,464,351
835,-0.18,-0.96,0.19,0.49,-2.81,-2.26,419,252,387,463,350
836,-0.19,-0.96,0.17,0.43,-2.93,-1.95,409,251,386,462,350
837,-0.19,-0.97,0.19,0.49,-2.81,-1.28,425,248,387,463,348
838,-0.19,-0.96,0.17,1.95,-2.81,-2.93,406,245,390,463,348
839,-0.18,-0.95,0.2,2.08,-3.05,-2.2,408,251,392,463,349
840,-0.19,-0.96,0.22,0.79,-2.93,-1.65,407,251,385,463,349
841,-0.19,-0.95,0.2,0.49,-3.05,-2.2,405,252,384,462,347
842,-0.19,-0.95,0.22,-2.81,-4.15,-4.39,409,252,384,465,350
843,-0.18,-0.96,0.17,-5.62,-5.13,-5.31,407,252,386,462,349
844,-0.17,-0.97,0.16,-2.26,-1.59,-1.89,404,248,388,466,353
845,-0.17,-0.97,0.19,0.24,-2.56,-1.83,409,253,385,469,357
846,-0.18,-0.96,0.17,1.4,-3.05,-1.22,410,253,387,459,350
847,-0.18,-0.97,0.17,0.0,-3.11,-2.56,408,253,387,466,351
848,-0.18,-0.97,0.17,0.98,-3.48,-2.2,405,252,386,462,358
849,-0.18,-0.96,0.18,0.18,-3.17,-2.44,407,250,386,465,349
850,-0.19,-0.97,0.19,1.28,-2.69,-2.2,410,248,388,463,349
851,-0.16,-0.97,0.16,0.18,-3.48,-2.87,409,252,386,462,352
852,-0.18,-0.97,0.17,0.37,-3.97,-2.14,410,250,383,461,349
853,-0.17,-0.96,0.17,0.0,-2.62,-2.75,404,255,383,465,346
854,-0.18,-0.96,0.16,0.31,-2.62,-2.81,405,250,392,466,351
855,-0.17,-0.97,0.17,1.16,-2.81,-2.81,407,250,386,463,350
856,-0.17,-0.94,0.16,-1.1,-3.05,-3.72,409,254,387,458,350
857,-0.17,-0.97,0.16,1.83,-1.59,-1.65,407,250,389,467,350
858,-0.18,-0.97,0.17,0.0,-1.53,-2.75,406,251,387,463,347
859,-0.18,-0.97,0.16,-1.65,-2.08,-3.17,407,250,386,463,346
860,-0.18,-0.97,0.14,2.38,-6.04,-2.01,409,248,386,462,350
861,-0.18,-0.97,0.14,1.28,-3.6,-2.14,435,252,387,465,350
862,-0.16,-0.97,0.14,0.98,-3.91,-2.2,417,249,387,460,343
863,-0.17,-0.97,0.16,1.46,-2.87,-3.17,407,250,386,462,348
864,-0.17,-0.97,0.15,0.67,-2.93,-2.87,410,247,386,463,348
865,-0.17,-0.97,0.15,-0.12,-3.17,-2.75,426,249,385,464,348
866,-0.17,-0.96,0.15,-0.18,-2.01,-2.81,408,250,387,463,348
867,-0.18,-0.97,0.14,-0.49,-2.75,-2.62,409,250,386,465,348
868,-0.17,-0.97,0.14,0.98,-2.93,-2.01,408,250,386,463,348
869,-0.16,-0.96,0.14,0.06,-3.05,-2.56,407,250,387,463,347
870,-0.16,-0.97,0.14,0.43,-2.93,-3.23,405,250,386,461,350
871,-0.17,-0.97,0.14,0.37,-3.11,-3.11,408,250,391,458,349
872,-0.17,-0.97,0.15,0.73,-3.42,-2.56,405,252,385,460,349
873,-0.17,-0.97,0.16,-0.55,-2.44,-2.38,416,253,388,467,351
874,-0.18,-0.94,0.16,-1.77,-2.62,-3.36,408,248,386,462,351
875,-0.19,-0.97,0.15,-0.85,-3.42,-2.32,408,252,389,462,351
876,-0.17,-0.96,0.15,-1.34,-1.71,-3.85,405,251,383,458,347
877,-0.17,-0.97,0.14,0.0,-2.93,-2.56,408,251,386,461,349
878,-0.17,-0.96,0.14,1.22,-3.54,-2.81,406,250,387,458,346
879,-0.18,-0.97,0.15,0.73,-3.3,-2.93,409,250,390,462,348
880,-0.18,-0.97,0.15,-0.37,-2.87,-2.44,408,252,387,458,345
881,-0.17,-0.97,0.15,0.0,-2.69,-2.38,408,251,385,462,356
882,-0.18,-0.97,0.15,0.73,-2.38,-2.44,410,254,387,466,345
883,-0.18,-0.97,0.14,0.55,-2.69,-2.01,426,254,386,469,346
884,-0.17,-0.97,0.15,-0.67,-1.53,-2.62,409,251,387,461,349
885,-0.18,-0.97,0.15,0.61,-3.11,-2.32,406,250,388,467,351
886,-0.18,-0.97,0.14,1.16,-3.3,-3.17,404,250,386,461,350
887,-0.18,-0.97,0.15,2.99,-4.09,-2.32,407,248,385,464,347
888,-0.17,-0.98,0.16,3.11,-3.48,-2.38,409,254,395,460,349
889,-0.16,-0.96,0.16,-0.55,-2.56,-2.62,411,260,387,463,349
890,-0.18,-0.97,0.16,-0.98,-2.56,-2.81,408,252,385,466,347
891,-0.19,-0.96,0.16,-0.92,-2.2,-3.23,407,252,385,459,349
892,-0.19,-0.97,0.16,0.43,-3.54,-2.38,405,249,397,468,350
893,-0.18,-0.97,0.15,-0.79,-2.14,-3.36,409,250,383,460,350
894,-0.18,-0.97,0.15,1.16,-3.11,-2.93,409,252,388,465,350
895,-0.18,-0.96,0.16,0.61,-3.11,-3.17,410,249,383,462,347
896,-0.17,-0.97,0.16,0.31,-3.78,-2.26,409,251,389,461,341
897,-0.18,-0.97,0.16,-4.76,-0.67,-3.23,408,252,386,458,348
898,-0.17,-0.97,0.14,-0.06,-2.08,-2.38,406,248,387,464,349
899,-0.17,-0.97,0.15,0.12,-2.26,-5.0,408,253,382,459,352
900,-0.15,-0.97,0.14,-0.73,-2.26,-2.26,409,254,388,466,346
901,-0.17,-0.97,0.15,2.14,-1.65,-0.37,407,249,385,466,349
902,-0.18,-0.97,0.14,0.61,-4.21,-2.38,431,254,385,467,350
903,-0.14,-0.96,0.16,4.64,-3.97,-3.23,407,253,383,464,349
904,-0.17,-0.97,0.12,-2.69,-0.73,-4.88,408,251,388,475,349
905,-0.16,-0.98,0.15,0.37,-3.11,-2.2,410,250,380,466,349
906,-0.17,-0.98,0.13,-1.95,-1.04,-2.69,408,251,384,464,350
907,-0.17,-0.98,0.13,2.08,-0.43,-3.36,411,253,386,459,352
908,-0.17,-0.97,0.16,2.44,-2.08,-1.22,410,249,388,462,347
909,-0.18,-0.96,0.16,11.96,-7.2,-1.28,411,249,387,466,346
910,-0.17,-0.96,0.22,-1.16,-2.01,0.43,407,253,383,461,345
911,-0.17,-0.96,0.17,1.46,-3.6,-2.93,410,251,389,462,349
912,-0.18,-0.96,0.19,1.28,-3.66,-1.46,407,250,387,467,347
913,-0.16,-0.93,0.22,-0.06,-3.3,2.5,407,248,387,466,349
914,-0.22,-0.96,0.17,-7.69,-5.37,2.75,412,251,388,459,348
915,-0.23,-0.97,0.18,2.5,-5.19,-2.2,412,251,382,463,347
916,-0.19,-0.96,0.2,0.0,-2.93,-4.03,411,246,385,460,349
917,-0.19,-0.96,0.2,1.4,-3.23,-2.26,413,252,382,464,338
918,-0.19,-0.96,0.18,0.92,-3.11,-2.26,411,250,382,463,349
919,-0.2,-0.96,0.18,0.12,-2.87,-1.71,411,249,385,463,349
920,-0.2,-0.96,0.18,0.06,-3.05,-1.65,412,251,388,467,341
921,-0.19,-0.96,0.17,1.89,-4.21,-3.36,412,254,384,470,347
922,-0.19,-0.96,0.17,-1.89,-2.62,-3.66,408,250,386,465,350
923,-0.19,-0.96,0.2,-2.62,-0.24,-4.27,411,252,388,458,344
924,-0.19,-0.96,0.22,-0.85,-2.44,-4.15,411,252,385,464,348
925,-0.19,-0.96,0.17,0.79,-2.87,-2.69,413,254,389,466,348
926,-0.19,-0.96,0.18,-1.89,-2.87,-3.11,414,253,389,462,348
927,-0.18,-0.96,0.16,0.31,-2.44,-4.03,412,251,384,459,346
928,-0.18,-0.96,0.18,0.67,-2.75,-2.38,418,251,384,462,350
929,-0.18,-0.97,0.17,-0.06,-2.62,-2.2,410,253,387,458,351
930,-0.19,-0.96,0.18,-1.16,-2.01,-2.81,414,254,388,464,350
931,-0.19,-0.96,0.16,2.75,-5.07,-2.2,412,256,385,463,351
932,-0.19,-0.96,0.16,0.49,-3.3,-2.38,412,250,396,464,351
933,-0.19,-0.96,0.18,2.44,-3.3,-3.36,409,252,386,463,348
934,-0.18,-0.96,0.18,4.03,-3.42,-2.38,413,254,385,459,347
935,-0.18,-0.96,0.17,3.91,-3.85,-4.03,411,255,380,467,348
936,-0.17,-0.96,0.2,-4.7,-1.65,-1.22,409,252,385,464,348
937,-0.19,-0.96,0.16,0.37,-1.83,-3.36,418,252,384,466,349
938,-0.17,-0.96,0.16,-0.24,-2.56,-3.11,414,254,387,474,350
939,-0.19,-0.97,0.16,0.43,-3.11,-2.32,413,249,385,461,352
940,-0.19,-0.96,0.16,0.12,-2.69,-3.23,412,254,381,463,350
941,-0.18,-0.97,0.16,0.12,-3.42,-2.5,411,251,385,467,350
942,-0.2,-0.96,0.16,0.12,-2.56,-2.5,411,259,385,462,348
943,-0.18,-0.96,0.16,0.79,-3.78,-2.26,411,256,384,463,349
944,-0.19,-0.96,0.16,-0.37,-3.3,-2.2,412,253,385,463,349
945,-0.19,-0.96,0.16,-0.18,-2.56,-2.69,412,255,384,466,347
946,-0.19,-0.96,0.17,1.22,-3.72,-3.17,411,252,381,466,348
947,-0.18,-0.97,0.19,-1.53,-1.89,-3.23,413,254,385,462,349
948,-0.2,-0.97,0.14,-2.32,-1.83,-2.87,412,255,383,464,348
949,-0.18,-0.97,0.16,-0.43,-1.95,-3.42,413,255,384,463,351
950,-0.19,-0.96,0.17,-0.92,-2.26,-2.26,412,255,387,467,349
951,-0.19,-0.97,0.15,0.24,-3.17,-1.71,439,252,389,458,346
952,-0.18,-0.96,0.16,0.37,-3.11,-2.69,409,252,386,464,350
953,-0.19,-0.96,0.16,2.26,-3.66,-3.54,410,250,382,464,345
954,-0.18,-0.96,0.17,1.77,-2.26,-3.05,413,252,387,465,347
955,-0.19,-0.96,0.16,0.06,-3.11,-2.26,412,256,382,466,346
956,-0.19,-0.96,0.16,1.1,-2.56,-2.93,411,251,383,464,347
957,-0.18,-0.97,0.14,1.53,-4.15,-2.44,409,252,387,461,347
958,-0.17,-0.97,0.21,-0.92,-3.6,-1.83,414,249,383,463,348
959,-0.21,-0.97,0.15,0.43,-3.97,-0.98,412,254,390,462,348
960,-0.18,-0.97,0.16,-0.61,-1.95,-1.71,412,252,386,468,349
961,-0.19,-0.96,0.16,0.0,-3.05,-2.14,409,257,384,462,346
962,-0.19,-0.97,0.16,-0.37,-2.5,-2.75,411,255,381,462,349
963,-0.19,-0.96,0.16,0.06,-2.69,-3.36,411,255,385,467,345
964,-0.2,-0.97,0.18,0.85,-3.17,-2.69,412,252,387,464,350
965,-0.2,-0.96,0.18,0.18,-2.62,-1.95,412,252,387,462,348
966,-0.18,-0.97,0.2,3.05,-3.23,-1.28,414,255,387,461,352
967,-0.19,-0.96,0.16,1.71,-2.99,-3.05,413,258,384,465,347
968,-0.2,-0.97,0.17,1.83,-3.3,-1.46,412,252,380,466,347
969,-0.19,-0.97,0.16,1.1,-2.75,-3.23,410,253,384,462,348
970,-0.2,-0.97,0.18,2.26,-3.11,-2.32,412,252,385,466,348
971,-0.2,-0.96,0.16,0.18,-2.87,-2.62,413,255,385,465,349
972,-0.2,-0.96,0.16,0.73,-3.05,-1.89,411,254,383,463,350
973,-0.19,-0.95,0.11,-2.69,-3.3,-3.66,414,252,388,463,346
974,-0.18,-0.96,0.14,-2.87,-1.59,-2.14,436,251,386,467,349
975,-0.2,-0.96,0.15,0.24,-2.2,-3.05,412,250,382,467,349
976,-0.19,-0.96,0.14,-1.89,-2.26,-1.89,410,251,388,458,346
977,-0.2,-0.96,0.14,1.95,-2.81,-2.62,412,252,383,465,349
978,-0.2,-0.96,0.13,0.43,-3.48,-2.5,411,253,386,464,348
979,-0.21,-0.97,0.16,0.43,-2.69,-2.93,406,249,382,463,351
980,-0.2,-0.97,0.15,0.24,-2.81,-3.72,413,255,387,463,350
981,-0.2,-0.97,0.17,0.92,-1.83,-2.14,412,252,384,463,348
982,-0.21,-0.97,0.15,-1.22,-2.38,-2.69,412,254,384,467,348
983,-0.2,-0.97,0.14,-1.65,-2.08,-2.5,412,253,384,467,346
984,-0.19,-0.97,0.15,-1.28,-2.56,-2.75,410,255,384,458,351
985,-0.2,-0.97,0.15,0.43,-2.87,-2.81,412,255,373,459,349
986,-0.19,-0.96,0.14,-0.49,-2.26,-2.44,411,253,387,465,350
987,-0.19,-0.97,0.15,0.61,-2.14,-2.81,410,255,385,463,349
988,-0.2,-0.97,0.14,-0.67,-2.87,-2.62,408,256,384,465,349
989,-0.2,-0.96,0.14,-0.06,-3.11,-2.44,410,253,384,468,345
990,-0.19,-0.97,0.15,0.37,-3.23,-2.62,406,253,384,462,347
991,-0.21,-0.97,0.16,0.0,-2.81,-3.3,412,254,383,459,349
992,-0.21,-0.98,0.17,3.3,-3.36,-2.32,411,253,381,466,349
993,-0.19,-0.96,0.1,-1.95,-0.79,-6.04,410,254,384,465,349
994,-0.17,-0.98,0.14,4.46,-1.71,-2.75,449,254,383,469,346
995,-0.16,-0.97,0.12,-2.44,-2.99,-1.71,412,256,385,463,350
996,-0.17,-0.97,0.11,0.73,-2.93,-3.05,412,257,381,468,350
997,-0.17,-0.97,0.12,-0.06,-2.01,-2.38,412,254,384,462,346
998,-0.18,-0.96,0.12,-0.49,-2.75,-3.05,411,258,380,460,347
999,-0.18,-0.98,0.12,0.0,-3.05,-3.05,410,252,382,464,348
1000,-0.18,-0.97,0.13,0.31,-2.93,-3.6,408,256,390,469,346
1001,-0.17,-0.96,0.14,-0.43,-2.87,-2.87,413,255,387,462,350
1002,-0.17,-0.98,0.14,-0.92,-1.89,-2.69,410,253,386,463,351
1003,-0.18,-0.97,0.13,0.12,-2.32,-2.38,407,257,384,463,351
1004,-0.11,-0.89,0.46,-0.06,-2.99,-3.11,416,220,414,451,344
1005,-0.11,-0.9,0.44,-1.46,-3.17,-4.15,414,221,410,446,342
1006,-0.09,-0.88,0.42,-0.43,-3.54,-2.62,414,223,414,451,339
1007,-0.1,-0.9,0.42,1.65,-4.64,0.06,407,222,414,450,337
1008,-0.12,-0.9,0.45,-1.1,-1.77,-2.56,410,237,413,451,345
1009,-0.11,-0.9,0.45,-0.06,-1.65,-1.4,410,224,423,451,346
1010,-0.09,-0.9,0.42,0.73,-0.55,-2.08,406,224,413,457,341
1011,-0.07,-0.89,0.4,-2.2,-2.62,-4.21,412,222,409,452,340
1012,-0.12,-0.91,0.41,1.28,-1.46,-3.97,405,222,411,447,342
1013,-0.09,-0.9,0.41,1.71,-6.23,-1.4,403,223,412,453,343
1014,-0.09,-0.9,0.41,-0.12,-0.18,-5.49,403,224,411,447,344
1015,-0.09,-0.94,0.41,1.71,-3.78,-2.08,404,225,411,457,344
1016,-0.09,-0.92,0.42,1.16,-3.05,-1.59,404,222,411,457,339
1017,-0.09,-0.89,0.43,1.65,-4.33,-0.18,401,224,411,457,343
1018,-0.1,-0.92,0.4,0.12,-3.42,-1.34,397,226,409,459,343
1019,-0.11,-0.91,0.4,-0.85,-2.93,-1.77,400,221,410,457,344
1020,-0.08,-0.88,0.39,-5.43,-2.2,0.92,400,227,410,458,343
1021,-0.11,-0.9,0.4,-0.18,-3.66,-1.71,398,228,412,454,345
1022,-0.11,-0.92,0.4,0.31,-4.27,-3.54,397,225,409,454,343
1023,-0.11,-0.89,0.42,3.91,-2.14,-1.65,399,230,411,454,346
1024,-0.11,-0.85,0.38,-0.55,-2.08,-1.34,395,226,413,455,346
1025,-0.12,-0.92,0.4,15.08,-2.5,-2.56,399,227,408,455,345
1026,-0.1,-0.9,0.4,-2.38,-2.26,-3.3,399,229,410,450,345
1027,-0.11,-0.92,0.38,-2.56,-4.64,-3.17,398,228,405,456,344
1028,-0.05,-0.93,0.37,-5.25,-3.11,-3.36,399,225,407,458,345
1029,-0.08,-0.93,0.36,-2.26,-3.23,-1.34,400,227,407,459,355
1030,-0.08,-0.93,0.36,0.18,-2.93,-3.23,397,227,405,459,346
1031,-0.08,-0.93,0.35,-2.38,-1.34,-4.21,401,226,403,455,347
1032,-0.1,-0.93,0.35,0.79,-2.87,-2.26,399,226,404,459,342
1033,-0.1,-0.94,0.36,-0.37,-2.93,-3.11,397,229,402,458,345
1034,-0.1,-0.93,0.35,-0.43,-2.26,-3.78,398,229,402,461,347
1035,-0.08,-0.91,0.36,1.95,-2.32,-4.76,397,222,405,457,345
1036,-0.08,-0.92,0.38,0.79,-3.23,-3.6,400,229,402,457,346
1037,-0.09,-0.91,0.39,1.28,-1.34,-2.69,397,228,404,459,345
1038,-0.1,-0.92,0.37,0.98,-2.38,-2.38,397,227,400,455,348
1039,-0.07,-0.93,0.35,-2.26,-1.22,-3.36,397,233,400,455,344
1040,-0.11,-0.92,0.37,-0.49,-0.92,-2.69,394,224,398,460,345
1041,-0.1,-0.93,0.36,0.0,-2.26,-2.01,397,228,396,455,346
1042,-0.09,-0.94,0.35,1.95,-1.16,-2.32,396,227,398,451,344
1043,-0.11,-0.92,0.36,0.43,-3.78,-2.2,397,227,397,461,343
1044,-0.1,-0.93,0.36,1.04,-4.15,-2.26,403,225,397,458,346
1045,-0.11,-0.93,0.37,0.67,-2.56,-2.38,405,228,394,455,347
1046,-0.09,-0.92,0.35,0.18,-3.85,-2.08,407,228,400,458,346
1047,-0.09,-0.93,0.35,-0.55,1.34,-2.81,421,227,396,455,348
1048,-0.11,-0.93,0.35,-2.2,0.67,-4.52,403,230,397,454,344
1049,-0.13,-0.92,0.38,1.22,-2.62,-0.12,401,231,397,467,345
1050,-0.11,-0.92,0.38,1.59,-5.37,-0.79,401,229,395,454,347
1051,-0.12,-0.92,0.39,0.06,-3.42,-3.11,426,231,397,460,343
1052,-0.11,-0.92,0.37,2.26,-3.91,-2.38,414,231,395,460,343
1053,-0.1,-0.92,0.37,0.24,-3.05,-2.87,402,234,396,459,346
1054,-0.12,-0.91,0.36,-0.06,-2.93,-2.38,404,224,397,460,348
1055,-0.09,-0.9,0.38,-0.37,-2.32,-2.56,405,230,396,461,346
1056,-0.13,-0.92,0.38,-3.17,-2.01,-4.33,401,229,393,456,345
1057,-0.12,-0.92,0.36,-1.77,-3.91,-3.42,402,228,400,460,344
1058,-0.11,-0.92,0.34,0.85,-3.11,-2.99,400,232,396,452,345
1059,-0.11,-0.93,0.36,1.77,-2.81,-3.78,436,232,396,456,345
1060,-0.11,-0.92,0.37,1.22,-2.81,-2.32,399,230,397,461,347
1061,-0.11,-0.92,0.37,-0.24,-2.38,-2.62,395,231,397,456,342
1062,-0.11,-0.93,0.37,-0.61,-3.11,-1.89,399,230,396,453,341
1063,-0.12,-0.92,0.37,-1.28,-1.89,-3.23,399,230,397,453,346
1064,-0.12,-0.93,0.36,-1.22,-1.77,-2.93,400,230,396,458,343
1065,-0.11,-0.93,0.36,1.46,-2.08,-2.01,400,232,408,458,345
1066,-0.11,-0.92,0.36,0.06,-5.31,-1.89,400,228,395,451,343
1067,-0.13,-0.93,0.36,-0.31,-3.54,-0.73,399,234,394,456,349
1068,-0.13,-0.91,0.39,5.8,-0.67,-5.8,399,230,395,455,346
1069,-0.12,-0.91,0.4,-1.1,-4.09,-2.14,402,232,393,452,346
1070,-0.11,-0.92,0.37,-0.43,-2.08,-2.38,398,232,397,459,349
1071,-0.11,-0.92,0.38,0.92,-2.56,-2.08,387,230,398,454,355
1072,-0.1,-0.92,0.36,2.14,-3.66,-1.59,401,232,394,455,347
1073,-0.13,-0.92,0.38,-0.18,-2.2,-2.99,395,232,397,461,347
1074,-0.11,-0.93,0.36,-1.16,-3.36,-2.99,398,232,394,457,346
1075,-0.12,-0.92,0.38,0.18,-2.01,-1.89,397,233,394,460,348
1076,-0.13,-0.92,0.39,-3.6,-1.89,-3.72,398,233,388,461,349
1077,-0.13,-0.93,0.33,-3.05,-2.2,-3.85,394,231,395,452,345
1078,-0.14,-0.91,0.38,5.8,-2.69,-0.37,400,232,393,453,349
1079,-0.15,-0.91,0.38,1.1,-5.37,0.55,418,234,394,455,347
1080,-0.12,-0.92,0.37,2.69,-4.21,-1.46,397,234,395,455,345
1081,-0.14,-0.91,0.4,2.93,-2.01,-3.97,398,234,391,471,349
1082,-0.12,-0.92,0.39,2.38,-0.92,-3.05,399,233,397,458,345
1083,-0.16,-0.92,0.37,-0.92,3.97,-2.75,414,231,394,459,346
1084,-0.16,-0.92,0.37,-4.33,5.37,-0.85,415,229,392,458,346
1085,-0.19,-0.92,0.29,0.55,-2.75,-3.54,416,237,395,458,346
1086,-0.18,-0.94,0.28,-3.97,-0.73,-15.69,417,233,394,457,344
1087,-0.19,-0.92,0.33,7.93,3.42,-19.53,414,231,394,457,346
1088,-0.18,-0.94,0.32,5.92,-4.27,-6.29,413,233,393,458,346
1089,-0.16,-0.94,0.29,3.3,-4.09,-0.55,414,236,394,458,349
1090,-0.19,-0.92,0.39,-4.88,5.92,-12.08,414,234,395,461,347
1091,-0.11,-0.95,0.31,-0.12,-0.85,-0.85,405,231,393,460,349
1092,-0.12,-0.93,0.28,-5.43,3.05,-15.5,409,234,393,459,346
1093,-0.12,-0.99,0.21,-21.36,4.46,-2.32,409,232,395,462,341
1094,-0.09,-0.95,0.29,6.16,-10.07,-0.55,408,233,395,459,345
1095,-0.13,-0.96,0.25,2.01,-3.66,-0.61,407,232,392,458,347
1096,-0.13,-0.97,0.24,1.16,-6.96,-1.4,412,231,395,461,343
1097,-0.13,-0.96,0.25,1.59,-4.88,-1.22,406,231,395,455,345
1098,-0.14,-0.96,0.23,-1.65,-3.66,-3.3,410,233,398,462,342
1099,-0.1,-0.97,0.19,3.3,-3.11,-3.05,408,236,391,454,351
1100,-0.13,-0.96,0.26,2.14,-3.91,-3.36,406,233,393,458,346
1101,-0.14,-0.94,0.22,-0.43,-5.37,-2.5,406,233,391,460,342
1102,-0.12,-0.96,0.21,-3.72,-3.48,-3.6,408,232,389,459,342
1103,-0.11,-0.97,0.2,0.61,-2.38,-3.36,404,234,388,459,343
1104,-0.13,-0.96,0.2,-0.98,-4.88,-2.26,405,231,391,458,344
1105,-0.14,-0.97,0.21,0.06,-2.2,-2.81,405,234,389,458,344
1106,-0.15,-0.97,0.2,0.37,-3.3,-2.44,403,236,392,458,345
1107,-0.07,-0.96,0.19,-2.75,-4.76,-2.56,404,236,392,458,346
1108,-0.11,-0.97,0.19,-1.34,-4.03,-2.81,405,233,389,459,342
1109,-0.13,-0.98,0.17,0.0,-2.93,-2.56,406,232,390,458,348
1110,-0.15,-0.98,0.21,-0.55,-4.33,-1.16,407,233,394,459,348
1111,-0.13,-0.98,0.19,-0.73,-2.44,-3.3,406,233,391,462,346
1112,-0.1,-0.97,0.2,-1.53,-2.87,-2.93,409,234,381,457,345
1113,-0.12,-0.97,0.17,3.72,-1.53,-4.7,406,235,391,459,346
1114,-0.13,-0.98,0.24,1.71,12.27,-1.83,405,234,390,454,349
1115,-0.11,-0.97,0.18,2.01,-3.6,0.0,407,246,389,460,343
1116,-0.12,-0.96,0.2,-0.92,-2.2,-3.66,407,247,397,457,348
1117,-0.11,-0.97,0.2,-1.53,0.79,-4.88,406,235,388,461,348
1118,-0.11,-0.97,0.19,4.94,-0.18,-4.27,406,233,391,460,348
1119,-0.14,-0.97,0.19,5.68,-5.43,-1.53,407,238,387,459,348
1120,-0.12,-0.97,0.18,-1.95,-1.77,-4.7,407,237,389,457,348
1121,-0.13,-0.96,0.2,2.5,-3.72,0.0,405,238,385,459,346
1122,-0.13,-0.97,0.2,0.0,-4.27,-4.39,406,236,388,460,348
1123,-0.11,-0.97,0.17,-2.62,-3.54,-1.53,400,235,387,458,348
1124,-0.13,-0.96,0.19,1.04,-2.93,-1.46,411,234,388,460,347
1125,-0.13,-0.97,0.21,-1.65,-2.38,-2.62,406,238,389,460,349
1126,-0.13,-0.98,0.2,-0.67,-2.87,-2.38,407,235,387,461,347
1127,-0.13,-0.94,0.19,1.4,-1.95,-3.6,403,235,388,457,347
1128,-0.13,-0.97,0.17,0.43,-3.17,-2.81,408,236,387,458,343
1129,-0.13,-0.96,0.19,-0.37,-2.44,-2.38,408,238,384,459,348
1130,-0.13,-0.96,0.19,-0.37,-1.59,-3.17,406,236,389,457,345
1131,-0.13,-0.97,0.18,-0.55,-2.32,-3.36,407,232,394,459,350
1132,-0.14,-0.97,0.18,-0.12,-3.23,-3.36,407,238,390,461,347
1133,-0.14,-0.97,0.18,-0.49,-3.23,-2.75,406,240,387,459,346
1134,-0.14,-0.96,0.17,-0.18,-3.66,-2.2,407,236,386,459,349
1135,-0.14,-0.97,0.18,0.61,-2.93,-2.93,407,236,389,463,346
1136,-0.14,-0.97,0.19,0.79,-3.3,-2.26,407,236,388,455,350
1137,-0.14,-0.96,0.18,-0.61,-4.09,-2.2,406,239,387,453,348
1138,-0.15,-0.97,0.18,0.79,-2.81,-2.69,406,238,388,454,346
1139,-0.13,-0.96,0.18,2.32,-3.78,-3.36,406,238,388,461,346
1140,-0.14,-0.98,0.17,0.98,-3.23,-1.83,406,240,387,459,347
1141,-0.14,-0.98,0.18,0.55,-3.3,-2.93,394,240,387,459,344
1142,-0.15,-0.97,0.18,-0.37,-2.75,-2.81,408,239,388,463,350
1143,-0.14,-0.97,0.19,0.12,-2.38,-2.5,408,240,386,460,348
1144,-0.15,-0.96,0.19,-0.67,-0.92,-2.32,409,239,389,461,348
1145,-0.15,-0.96,0.16,-1.95,-2.2,-2.81,412,242,386,454,343
1146,-0.17,-0.98,0.2,0.67,-3.85,-4.03,414,237,385,462,342
1147,-0.13,-0.99,0.16,3.11,-4.58,-2.62,411,235,386,456,331
1148,-0.17,-0.98,0.13,-8.54,-7.51,0.0,411,235,388,463,342
1149,-0.16,-0.97,0.19,-1.59,1.04,-1.71,411,241,388,457,345
1150,-0.18,-0.98,0.14,-2.26,-1.65,-6.29,412,238,388,462,346
1151,-0.13,-0.97,0.15,-1.77,-2.81,-4.64,413,238,383,462,345
1152,-0.13,-0.98,0.2,-2.69,-0.49,-2.93,416,234,383,462,344
1153,-0.12,-0.97,0.17,-10.8,2.14,-4.21,413,238,384,457,346
1154,-0.12,-0.97,0.22,-1.34,-6.35,-4.39,412,238,385,455,347
1155,-0.11,-0.96,0.25,-0.12,-9.03,-1.83,408,239,382,464,347
1156,-0.11,-0.97,0.23,-3.66,2.56,-4.03,410,237,382,458,345
1157,-0.12,-0.98,0.13,0.31,-2.81,-5.49,411,239,387,464,346
1158,-0.1,-0.97,0.18,3.36,-1.71,-1.28,407,235,388,459,344
1159,-0.11,-0.98,0.15,-0.79,-3.23,-4.09,408,237,387,463,346
1160,-0.11,-0.97,0.19,0.06,-3.91,-0.12,405,238,387,460,348
1161,-0.11,-0.97,0.18,-2.44,-2.81,-0.06,405,240,383,459,349
1162,-0.09,-0.97,0.19,-1.16,-4.21,-0.79,410,240,385,462,346
1163,-0.13,-0.97,0.22,-3.42,-4.15,-2.81,417,238,387,455,350
1164,-0.1,-0.96,0.22,2.38,-7.63,-5.62,429,241,387,460,347
1165,-0.13,-0.97,0.22,3.05,-2.75,-0.37,410,241,383,460,346
1166,-0.13,-0.96,0.28,-0.92,-0.49,-3.11,411,239,386,460,347
1167,-0.14,-0.96,0.24,-4.76,-2.2,-1.34,409,241,384,462,345
1168,-0.13,-0.96,0.23,1.65,-3.6,-2.99,406,237,381,457,344
1169,-0.13,-0.97,0.22,-2.99,-2.5,-3.11,407,239,383,460,345
1170,-0.12,-0.97,0.17,-0.31,-0.06,-3.42,407,240,382,458,349
1171,-0.15,-0.97,0.21,2.32,1.95,-0.37,412,240,382,460,345
1172,-0.16,-0.97,0.23,-0.18,-1.46,-1.46,408,241,384,460,350
1173,-0.15,-0.96,0.23,2.99,-3.11,-2.2,413,241,381,462,344
1174,-0.14,-0.96,0.23,5.49,-2.69,-2.44,414,237,386,455,357
1175,-0.15,-0.95,0.23,3.66,-2.5,-2.75,412,241,380,460,351
1176,-0.15,-0.96,0.21,-0.12,-1.04,-2.44,411,239,378,461,339
1177,-0.17,-0.96,0.24,-0.06,-5.25,-2.14,411,239,385,461,349
1178,-0.16,-0.97,0.21,0.55,-3.3,-2.5,414,240,383,462,354
1179,-0.16,-0.96,0.21,0.18,-2.26,-2.44,413,242,385,472,350
1180,-0.16,-0.96,0.22,0.85,-3.05,-3.05,415,238,383,455,348
1181,-0.17,-0.97,0.22,0.0,-3.3,-3.48,413,248,379,460,348
1182,-0.16,-0.96,0.24,-0.98,-2.87,-3.91,420,240,380,460,351
1183,-0.16,-0.96,0.22,-0.06,-3.6,-2.08,413,238,384,455,346
1184,-0.17,-0.96,0.23,-0.06,-1.95,-2.26,412,252,385,463,347
1185,-0.16,-0.96,0.22,0.12,-2.56,-1.4,412,242,385,463,349
1186,-0.17,-0.96,0.22,0.49,-2.2,-2.26,404,240,383,471,344
1187,-0.17,-0.96,0.22,0.55,-3.05,-2.26,413,238,383,459,350
1188,-0.17,-0.96,0.22,0.31,-3.05,-2.75,414,240,383,464,349
1189,-0.17,-0.95,0.23,1.71,-4.27,-2.69,412,241,381,462,348
1190,-0.16,-0.96,0.23,0.67,-2.93,-2.62,412,241,381,461,350
1191,-0.19,-1.0,0.32,-1.53,-2.44,-2.56,412,243,383,460,346
1192,-0.17,-0.95,0.22,-0.79,-1.34,-2.44,412,241,382,460,349
1193,-0.17,-0.96,0.22,-2.08,-1.95,-3.36,415,238,385,463,347
1194,-0.17,-0.96,0.21,-2.62,-1.4,-4.58,413,244,383,465,347
1195,-0.17,-0.96,0.22,-0.49,-2.81,-2.38,414,243,381,459,348
1196,-0.16,-0.95,0.22,0.0,-3.42,-2.44,413,245,386,464,348
1197,-0.17,-0.95,0.2,-0.43,-2.32,-3.91,414,246,390,458,348
1198,-0.19,-0.96,0.26,0.12,-4.39,-2.75,413,241,389,461,348
1199,-0.18,-0.94,0.25,5.25,-5.86,0.73,415,242,390,460,344
1200,-0.17,-0.95,0.23,-3.72,-0.12,-4.88,413,245,391,460,350
1201,-0.18,-0.96,0.22,-0.06,-2.93,-2.2,412,245,393,462,348
1202,-0.2,-0.95,0.22,-0.92,-4.64,-4.94,419,243,387,464,350
1203,-0.17,-0.96,0.25,0.18,-2.93,-1.16,412,242,390,463,348
1204,-0.15,-0.95,0.22,-0.24,-3.17,-4.21,415,242,391,459,350
1205,-0.17,-0.95,0.23,1.28,-3.3,-1.89,412,243,394,455,348
1206,-0.17,-0.95,0.23,0.43,-3.11,-2.2,414,243,392,461,350
1207,-0.17,-0.96,0.24,0.92,-3.48,-2.5,412,244,392,463,345
1208,-0.16,-0.95,0.23,-1.16,-1.77,-1.71,412,243,390,465,343
1209,-0.17,-0.96,0.25,0.43,-2.69,-2.14,413,242,394,464,347
1210,-0.16,-0.96,0.23,-0.55,-1.46,-4.03,414,242,391,461,353
1211,-0.17,-0.95,0.25,-2.08,-1.53,-2.87,414,242,391,465,349
1212,-0.17,-0.94,0.24,0.37,-3.66,-2.38,408,244,393,459,350
1213,-0.18,-0.96,0.24,0.67,-1.46,-5.37,411,242,391,460,346
1214,-0.17,-0.95,0.25,2.08,-3.42,-2.01,412,242,391,464,349
1215,-0.17,-0.95,0.25,-1.59,-0.55,-1.46,410,246,390,464,352
1216,-0.17,-0.95,0.24,-0.18,-3.36,-1.83,414,240,391,462,348
1217,-0.18,-0.95,0.24,0.79,-2.56,-2.62,415,242,389,464,348
1218,-0.17,-0.95,0.24,-2.62,-0.49,-6.47,413,241,389,460,344
1219,-0.17,-0.95,0.24,-3.11,-1.77,-1.16,412,239,393,463,350
1220,-0.17,-0.95,0.24,0.37,-2.87,-2.56,409,247,389,475,351
1221,-0.17,-0.96,0.24,-1.77,-2.93,-2.14,411,242,391,474,347
1222,-0.16,-0.95,0.25,0.55,-3.17,-2.69,412,241,393,465,350
1223,-0.17,-0.96,0.24,2.5,-3.17,-2.14,412,244,394,459,348
1224,-0.18,-0.96,0.22,-1.65,-3.72,-3.05,411,245,393,461,352
1225,-0.17,-0.96,0.22,-0.43,-4.27,-2.32,411,248,398,461,349
1226,-0.18,-0.96,0.26,-2.93,-0.98,-3.11,420,244,391,464,350
1227,-0.17,-0.97,0.23,2.08,-3.23,-1.16,413,245,389,464,348
1228,-0.18,-0.95,0.21,0.79,-3.85,-3.17,414,243,392,466,349
1229,-0.19,-0.92,0.2,-1.16,-2.93,-2.87,412,242,393,459,349
1230,-0.17,-0.97,0.22,0.67,-2.26,-0.79,409,244,393,461,349
1231,-0.2,-0.95,0.24,0.31,-0.98,-4.27,409,241,389,460,348
1232,-0.21,-0.94,0.24,-2.26,-7.2,1.28,409,245,393,462,350
1233,-0.21,-0.96,0.22,0.18,-4.09,0.61,411,243,395,465,350
1234,-0.22,-0.94,0.27,10.07,-8.3,7.57,419,244,391,465,351
1235,-0.26,-0.92,0.3,2.69,-4.39,-2.5,415,246,392,462,347
1236,-0.21,-0.92,0.27,-2.14,-3.97,-2.2,414,246,393,461,346
1237,-0.22,-0.92,0.35,-2.81,-1.4,0.98,412,242,392,456,345
1238,-0.25,-0.89,0.35,-3.54,-3.6,-4.15,412,246,393,462,349
1239,-0.22,-0.92,0.33,0.31,-3.17,-4.94,414,243,391,457,353
1240,-0.24,-0.92,0.31,3.36,-2.81,-0.43,415,243,390,462,351
1241,-0.24,-0.91,0.3,-0.61,-2.56,-2.93,414,245,390,462,350
1242,-0.23,-0.91,0.3,2.62,-1.28,-3.85,411,245,392,465,350
1243,-0.33,-0.93,0.33,4.27,7.14,-8.48,413,243,391,456,351
1244,-0.16,-0.94,0.23,-4.39,10.93,-14.28,412,243,388,460,350
1245,-0.16,-0.96,0.27,2.99,0.0,1.1,412,242,390,460,349
1246,-0.16,-0.94,0.29,1.59,-2.44,-3.6,410,245,390,460,346
1247,-0.12,-0.95,0.22,2.26,3.17,-8.06,412,246,390,462,350
1248,-0.18,-0.96,0.27,-4.39,-10.13,1.89,411,245,390,460,351
1249,-0.18,-0.97,0.27,2.87,-9.7,-3.3,412,246,391,461,350
1250,-0.18,-0.99,0.21,-0.85,-5.0,-0.98,412,246,390,461,344
1251,-0.2,-0.95,0.25,-2.87,-4.27,-2.14,412,245,390,456,348
1252,-0.19,-0.95,0.28,-0.85,-5.37,-1.34,411,243,389,460,351
1253,-0.21,-0.95,0.26,1.53,-5.62,-2.99,409,243,390,462,348
1254,-0.22,-0.95,0.26,-1.95,-6.1,1.34,411,242,393,458,347
1255,-0.21,-0.95,0.25,0.55,-1.65,-1.95,411,242,390,462,348
1256,-0.21,-0.94,0.24,0.31,-4.94,-3.23,409,246,390,461,349
1257,-0.19,-0.94,0.24,1.04,-3.3,-4.82,412,244,393,464,351
1258,-0.18,-0.94,0.25,3.97,-6.23,-2.87,410,241,389,462,347
1259,-0.19,-0.94,0.26,2.2,-3.72,0.06,408,240,390,457,349
1260,-0.2,-0.94,0.27,0.55,-2.99,-2.38,411,245,385,460,349
1261,-0.19,-0.95,0.27,0.06,-3.91,-2.81,406,246,390,466,350
1262,-0.2,-0.94,0.26,-0.43,-1.46,-3.17,439,247,387,464,349
1263,-0.21,-0.95,0.26,0.12,-3.11,-2.87,411,245,393,462,351
1264,-0.2,-0.94,0.22,0.12,-2.08,-2.81,414,245,387,462,351
1265,-0.21,-0.93,0.26,-1.77,-3.85,-3.78,409,242,393,457,349
1266,-0.2,-0.94,0.25,-0.49,-1.1,-3.66,413,244,394,461,348
1267,-0.19,-0.94,0.25,0.31,-3.48,-2.44,408,246,390,465,346
1268,-0.21,-0.94,0.25,1.4,-3.3,-2.01,409,242,392,465,351
1269,-0.21,-0.94,0.25,-0.43,-1.95,-2.38,408,245,390,462,349
1270,-0.23,-0.93,0.27,-1.16,-3.6,-2.62,409,245,393,460,346
1271,-0.21,-0.95,0.25,-1.28,-3.78,-2.56,405,246,396,457,351
1272,-0.22,-0.93,0.25,-0.61,-2.08,-3.23,408,247,390,462,348
1273,-0.22,-0.94,0.25,0.49,-3.66,-2.38,408,244,390,465,349
1274,-0.21,-0.94,0.26,-0.18,-2.01,-3.6,408,245,390,462,347
1275,-0.21,-0.94,0.26,1.22,-2.75,-3.23,409,244,392,462,344
1276,-0.21,-0.94,0.26,0.06,-2.62,-2.87,409,248,388,461,350
1277,-0.22,-0.94,0.26,-0.37,-2.5,-2.38,411,245,398,466,347
1278,-0.22,-0.94,0.26,0.24,-2.75,-2.01,429,245,389,463,350
1279,-0.22,-0.94,0.25,0.24,-3.11,-2.14,408,245,387,462,348
1280,-0.22,-0.94,0.26,0.49,-2.56,-2.38,401,248,391,461,347
1281,-0.22,-0.95,0.27,2.69,-4.76,-3.97,409,252,389,463,349
1282,-0.23,-0.93,0.28,-2.69,-2.5,-1.89,408,246,390,470,349
1283,-0.22,-0.94,0.29,-0.18,-5.68,-0.85,402,248,395,457,350
1284,-0.23,-0.94,0.28,0.55,-2.99,-0.24,410,243,386,463,347
1285,-0.22,-0.93,0.29,1.89,-1.28,-2.26,407,244,391,479,347
1286,-0.23,-0.93,0.28,-1.83,-3.11,-2.87,411,244,386,462,348
1287,-0.22,-0.93,0.25,-0.98,-2.14,-2.69,414,244,388,463,346
1288,-0.23,-0.93,0.25,-0.92,-2.87,-2.75,408,244,392,466,348
1289,-0.22,-0.94,0.24,0.43,-3.6,-2.32,409,249,390,459,349
1290,-0.22,-0.93,0.25,0.92,-4.03,-2.56,408,248,389,466,350
1291,-0.23,-0.94,0.26,1.65,-3.78,-3.23,410,246,387,462,347
1292,-0.22,-0.94,0.27,-0.37,-1.71,-3.17,408,246,392,458,348
1293,-0.22,-0.94,0.25,0.85,-1.65,-2.56,408,248,392,462,347
1294,-0.21,-0.92,0.25,-1.65,-2.93,-1.53,409,249,386,462,346
1295,-0.23,-0.95,0.28,1.28,-3.11,-0.67,406,245,389,459,349
1296,-0.22,-0.93,0.25,-0.85,-2.08,-2.87,410,248,390,458,348
1297,-0.23,-0.95,0.24,-0.06,-3.17,-1.83,409,249,391,463,350
1298,-0.23,-0.94,0.24,0.98,-3.11,-2.38,409,246,389,461,357
1299,-0.23,-0.94,0.24,1.83,-3.17,-2.87,409,250,389,466,346
1300,-0.22,-0.94,0.25,1.22,-3.17,-3.66,406,247,398,462,350
1301,-0.23,-0.94,0.26,0.37,-2.2,-2.2,411,250,393,465,349
1302,-0.23,-0.94,0.25,-1.1,-1.95,-2.69,410,247,388,463,340
1303,-0.2,-0.94,0.23,-2.62,0.24,-4.52,409,245,385,466,349
1304,-0.21,-0.94,0.23,0.67,-2.56,-2.62,409,246,392,462,349
1305,-0.21,-0.94,0.27,1.95,-8.79,-2.2,410,248,387,462,349
1306,-0.19,-0.95,0.25,0.49,-6.41,-4.58,408,247,389,467,348
1307,-0.17,-0.95,0.24,0.49,-0.67,-2.32,410,245,386,462,349
1308,-0.17,-0.95,0.22,-2.08,-2.01,-3.91,409,247,390,466,348
1309,-0.18,-0.96,0.2,-3.66,-0.73,-5.8,406,247,393,463,349
1310,-0.17,-0.97,0.23,-1.16,-1.71,-2.62,408,249,392,457,351
1311,-0.18,-0.96,0.23,1.1,-2.93,-2.93,408,248,386,458,349
1312,-0.19,-0.96,0.23,0.24,-2.14,-3.11,409,258,387,458,347
1313,-0.17,-0.96,0.22,0.61,-2.87,-2.08,408,250,385,458,345
1314,-0.17,-0.96,0.2,0.0,-1.71,-2.44,406,253,388,467,350
1315,-0.18,-0.96,0.21,0.92,-2.75,-2.01,408,250,388,466,348
1316,-0.17,-0.97,0.21,-0.18,-4.64,-1.65,410,249,388,467,348
1317,-0.16,-0.96,0.21,-1.65,-5.49,-2.08,408,249,392,458,346
1318,-0.16,-0.96,0.18,-2.32,-3.17,-4.09,405,249,392,461,351
1319,-0.17,-0.96,0.19,1.4,-2.99,-4.03,413,249,388,463,349
1320,-0.17,-0.96,0.19,-0.49,-2.32,-2.56,408,250,390,462,351
1321,-0.17,-0.96,0.19,-2.01,-3.11,-3.72,408,254,390,462,349
1322,-0.15,-0.98,0.15,-1.83,-0.67,-3.42,408,252,391,463,349
1323,-0.15,-0.97,0.17,-1.34,0.31,-5.07,408,250,390,461,347
1324,-0.15,-0.97,0.17,1.16,-4.09,-0.61,409,251,391,464,349
1325,-0.15,-0.95,0.19,0.43,-0.31,-2.01,407,251,389,461,346
1326,-0.17,-0.97,0.19,2.81,-5.68,-0.24,407,247,391,463,347
1327,-0.16,-0.97,0.18,-0.55,-3.17,-2.44,400,252,390,466,349
1328,-0.17,-0.96,0.18,0.85,-2.08,-1.4,404,251,387,461,347
1329,-0.17,-0.97,0.18,-0.37,-2.5,-2.01,408,249,386,462,350
1330,-0.18,-0.96,0.18,-0.24,-2.44,-3.11,407,250,386,462,351
1331,-0.17,-0.97,0.18,-0.67,-2.99,-3.05,409,247,387,464,348
1332,-0.18,-0.96,0.18,0.18,-3.6,-1.89,404,249,388,463,349
1333,-0.18,-0.96,0.18,0.12,-3.05,-2.81,406,252,385,467,348
1334,-0.17,-0.96,0.18,1.1,-2.38,-2.62,408,252,387,463,350
1335,-0.17,-0.96,0.18,-0.06,-2.81,-3.72,405,249,386,460,348
1336,-0.17,-0.96,0.2,-0.24,-1.95,-2.14,409,253,387,464,351
1337,-0.18,-0.96,0.19,0.49,-2.81,-2.26,419,252,387,463,350
1338,-0.19,-0.96,0.17,0.43,-2.93,-1.95,409,251,386,462,350
1339,-0.19,-0.97,0.19,0.49,-2.81,-1.28,425,248,387,463,348
1340,-0.19,-0.96,0.17,1.95,-2.81,-2.93,406,245,390,463,348
1341,-0.18,-0.95,0.2,2.08,-3.05,-2.2,408,251,392,463,349
1342,-0.19,-0.96,0.22,0.79,-2.93,-1.65,407,251,385,463,349
1343,-0.19,-0.95,0.2,0.49,-3.05,-2.2,405,252,384,462,347
1344,-0.19,-0.95,0.22,-2.81,-4.15,-4.39,409,252,384,465,350
1345,-0.18,-0.96,0.17,-5.62,-5.13,-5.31,407,252,386,462,349
1346,-0.17,-0.97,0.16,-2.26,-1.59,-1.89,404,248,388,466,353
1347,-0.17,-0.97,0.19,0.24,-2.56,-1.83,409,253,385,469,357
1348,-0.18,-0.96,0.17,1.4,-3.05,-1.22,410,253,387,459,350
1349,-0.18,-0.97,0.17,0.0,-3.11,-2.56,408,253,387,466,351
1350,-0.18,-0.97,0.17,0.98,-3.48,-2.2,405,252,386,462,358
1351,-0.18,-0.96,0.18,0.18,-3.17,-2.44,407,250,386,465,349
1352,-0.19,-0.97,0.19,1.28,-2.69,-2.2,410,248,388,463,349
1353,-0.16,-0.97,0.16,0.18,-3.48,-2.87,409,252,386,462,352
1354,-0.18,-0.97,0.17,0.37,-3.97,-2.14,410,250,383,461,349
1355,-0.17,-0.96,0.17,0.0,-2.62,-2.75,404,255,383,465,346
1356,-0.18,-0.96,0.16,0.31,-2.62,-2.81,405,250,392,466,351
1357,-0.17,-0.97,0.17,1.16,-2.81,-2.81,407,250,386,463,350
1358,-0.17,-0.94,0.16,-1.1,-3.05,-3.72,409,254,387,458,350
1359,-0.17,-0.97,0.16,1.83,-1.59,-1.65,407,250,389,467,350
1360,-0.18,-0.97,0.17,0.0,-1.53,-2.75,406,251,387,463,347
1361,-0.18,-0.97,0.16,-1.65,-2.08,-3.17,407,250,386,463,346
1362,-0.18,-0.97,0.14,2.38,-6.04,-2.01,409,248,386,462,350
1363,-0.18,-0.97,0.14,1.28,-3.6,-2.14,435,252,387,465,350
1364,-0.16,-0.97,0.14,0.98,-3.91,-2.2,417,249,387,460,343
1365,-0.17,-0.97,0.16,1.46,-2.87,-3.17,407,250,386,462,348
1366,-0.17,-0.97,0.15,0.67,-2.93,-2.87,410,247,386,463,348
1367,-0.17,-0.97,0.15,-0.12,-3.17,-2.75,426,249,385,464,348
1368,-0.17,-0.96,0.15,-0.18,-2.01,-2.81,408,250,387,463,348
1369,-0.18,-0.97,0.14,-0.49,-2.75,-2.62,409,250,386,465,348
1370,-0.17,-0.97,0.14,0.98,-2.93,-2.01,408,250,386,463,348
1371,-0.16,-0.96,0.14,0.06,-3.05,-2.56,407,250,387,463,347
1372,-0.16,-0.97,0.14,0.43,-2.93,-3.23,405,250,386,461,350
1373,-0.17,-0.97,0.14,0.37,-3.11,-3.11,408,250,391,458,349
1374,-0.17,-0.97,0.15,0.73,-3.42,-2.56,405,252,385,460,349
1375,-0.17,-0.97,0.16,-0.55,-2.44,-2.38,416,253,388,467,351
1376,-0.18,-0.94,0.16,-1.77,-2.62,-3.36,408,248,386,462,351
1377,-0.19,-0.97,0.15,-0.85,-3.42,-2.32,408,252,389,462,351
1378,-0.17,-0.96,0.15,-1.34,-1.71,-3.85,405,251,383,458,347
1379,-0.17,-0.97,0.14,0.0,-2.93,-2.56,408,251,386,461,349
1380,-0.17,-0.96,0.14,1.22,-3.54,-2.81,406,250,387,458,346
1381,-0.18,-0.97,0.15,0.73,-3.3,-2.93,409,250,390,462,348
1382,-0.18,-0.97,0.15,-0.37,-2.87,-2.44,408,252,387,458,345
1383,-0.17,-0.97,0.15,0.0,-2.69,-2.38,408,251,385,462,356
1384,-0.18,-0.97,0.15,0.73,-2.38,-2.44,410,254,387,466,345
1385,-0.18,-0.97,0.14,0.55,-2.69,-2.01,426,254,386,469,346
1386,-0.17,-0.97,0.15,-0.67,-1.53,-2.62,409,251,387,461,349
1387,-0.18,-0.97,0.15,0.61,-3.11,-2.32,406,250,388,467,351
1388,-0.18,-0.97,0.14,1.16,-3.3,-3.17,404,250,386,461,350
1389,-0.18,-0.97,0.15,2.99,-4.09,-2.32,407,248,385,464,347
1390,-0.17,-0.98,0.16,3.11,-3.48,-2.38,409,254,395,460,349
1391,-0.16,-0.96,0.16,-0.55,-2.56,-2.62,411,260,387,463,349
1392,-0.18,-0.97,0.16,-0.98,-2.56,-2.81,408,252,385,466,347
1393,-0.19,-0.96,0.16,-0.92,-2.2,-3.23,407,252,385,459,349
1394,-0.19,-0.97,0.16,0.43,-3.54,-2.38,405,249,397,468,350
1395,-0.18,-0.97,0.15,-0.79,-2.14,-3.36,409,250,383,460,350
1396,-0.18,-0.97,0.15,1.16,-3.11,-2.93,409,252,388,465,350
1397,-0.18,-0.96,0.16,0.61,-3.11,-3.17,410,249,383,462,347
1398,-0.17,-0.97,0.16,0.31,-3.78,-2.26,409,251,389,461,341
1399,-0.18,-0.97,0.16,-4.76,-0.67,-3.23,408,252,386,458,348
1400,-0.17,-0.97,0.14,-0.06,-2.08,-2.38,406,248,387,464,349
1401,-0.17,-0.97,0.15,0.12,-2.26,-5.0,408,253,382,459,352
1402,-0.15,-0.97,0.14,-0.73,-2.26,-2.26,409,254,388,466,346
1403,-0.17,-0.97,0.15,2.14,-1.65,-0.37,407,249,385,466,349
1404,-0.18,-0.97,0.14,0.61,-4.21,-2.38,431,254,385,467,350
1405,-0.14,-0.96,0.16,4.64,-3.97,-3.23,407,253,383,464,349
1406,-0.17,-0.97,0.12,-2.69,-0.73,-4.88,408,251,388,475,349
1407,-0.16,-0.98,0.15,0.37,-3.11,-2.2,410,250,380,466,349
1408,-0.17,-0.98,0.13,-1.95,-1.04,-2.69,408,251,384,464,350
1409,-0.17,-0.98,0.13,2.08,-0.43,-3.36,411,253,386,459,352
1410,-0.17,-0.97,0.16,2.44,-2.08,-1.22,410,249,388,462,347
1411,-0.18,-0.96,0.16,11.96,-7.2,-1.28,411,249,387,466,346
1412,-0.17,-0.96,0.22,-1.16,-2.01,0.43,407,253,383,461,345
1413,-0.17,-0.96,0.17,1.46,-3.6,-2.93,410,251,389,462,349
1414,-0.18,-0.96,0.19,1.28,-3.66,-1.46,407,250,387,467,347
1415,-0.16,-0.93,0.22,-0.06,-3.3,2.5,407,248,387,466,349
1416,-0.22,-0.96,0.17,-7.69,-5.37,2.75,412,251,388,459,348
1417,-0.23,-0.97,0.18,2.5,-5.19,-2.2,412,251,382,463,347
1418,-0.19,-0.96,0.2,0.0,-2.93,-4.03,411,246,385,460,349
1419,-0.19,-0.96,0.2,1.4,-3.23,-2.26,413,252,382,464,338
1420,-0.19,-0.96,0.18,0.92,-3.11,-2.26,411,250,382,463,349
1421,-0.2,-0.96,0.18,0.12,-2.87,-1.71,411,249,385,463,349
1422,-0.2,-0.96,0.18,0.06,-3.05,-1.65,412,251,388,467,341
1423,-0.19,-0.96,0.17,1.89,-4.21,-3.36,412,254,384,470,347
1424,-0.19,-0.96,0.17,-1.89,-2.62,-3.66,408,250,386,465,350
1425,-0.19,-0.96,0.2,-2.62,-0.24,-4.27,411,252,388,458,344
1426,-0.19,-0.96,0.22,-0.85,-2.44,-4.15,411,252,385,464,348
1427,-0.19,-0.96,0.17,0.79,-2.87,-2.69,413,254,389,466,348
1428,-0.19,-0.96,0.18,-1.89,-2.87,-3.11,414,253,389,462,348
1429,-0.18,-0.96,0.16,0.31,-2.44,-4.03,412,251,384,459,346
1430,-0.18,-0.96,0.18,0.67,-2.75,-2.38,418,251,384,462,350
1431,-0.18,-0.97,0.17,-0.06,-2.62,-2.2,410,253,387,458,351
1432,-0.19,-0.96,0.18,-1.16,-2.01,-2.81,414,254,388,464,350
1433,-0.19,-0.96,0.16,2.75,-5.07,-2.2,412,256,385,463,351
1434,-0.19,-0.96,0.16,0.49,-3.3,-2.38,412,250,396,464,351
1435,-0.19,-0.96,0.18,2.44,-3.3,-3.36,409,252,386,463,348
1436,-0.18,-0.96,0.18,4.03,-3.42,-2.38,413,254,385,459,347
1437,-0.18,-0.96,0.17,3.91,-3.85,-4.03,411,255,380,467,348
1438,-0.17,-0.96,0.2,-4.7,-1.65,-1.22,409,252,385,464,348
1439,-0.19,-0.96,0.16,0.37,-1.83,-3.36,418,252,384,466,349
1440,-0.17,-0.96,0.16,-0.24,-2.56,-3.11,414,254,387,474,350
1441,-0.19,-0.97,0.16,0.43,-3.11,-2.32,413,249,385,461,352
1442,-0.19,-0.96,0.16,0.12,-2.69,-3.23,412,254,381,463,350
1443,-0.18,-0.97,0.16,0.12,-3.42,-2.5,411,251,385,467,350
1444,-0.2,-0.96,0.16,0.12,-2.56,-2.5,411,259,385,462,348
1445,-0.18,-0.96,0.16,0.79,-3.78,-2.26,411,256,384,463,349
1446,-0.19,-0.96,0.16,-0.37,-3.3,-2.2,412,253,385,463,349
1447,-0.19,-0.96,0.16,-0.18,-2.56,-2.69,412,255,384,466,347
1448,-0.19,-0.96,0.17,1.22,-3.72,-3.17,411,252,381,466,348
1449,-0.18,-0.97,0.19,-1.53,-1.89,-3.23,413,254,385,462,349
1450,-0.2,-0.97,0.14,-2.32,-1.83,-2.87,412,255,383,464,348
1451,-0.18,-0.97,0.16,-0.43,-1.95,-3.42,413,255,384,463,351
1452,-0.19,-0.96,0.17,-0.92,-2.26,-2.26,412,255,387,467,349
1453,-0.19,-0.97,0.15,0.24,-3.17,-1.71,439,252,389,458,346
1454,-0.18,-0.96,0.16,0.37,-3.11,-2.69,409,252,386,464,350
1455,-0.19,-0.96,0.16,2.26,-3.66,-3.54,410,250,382,464,345
1456,-0.18,-0.96,0.17,1.77,-2.26,-3.05,413,252,387,465,347
1457,-0.19,-0.96,0.16,0.06,-3.11,-2.26,412,256,382,466,346
1458,-0.19,-0.96,0.16,1.1,-2.56,-2.93,411,251,383,464,347
1459,-0.18,-0.97,0.14,1.53,-4.15,-2.44,409,252,387,461,347
1460,-0.17,-0.97,0.21,-0.92,-3.6,-1.83,414,249,383,463,348
1461,-0.21,-0.97,0.15,0.43,-3.97,-0.98,412,254,390,462,348
1462,-0.18,-0.97,0.16,-0.61,-1.95,-1.71,412,252,386,468,349
1463,-0.19,-0.96,0.16,0.0,-3.05,-2.14,409,257,384,462,346
1464,-0.19,-0.97,0.16,-0.37,-2.5,-2.75,411,255,381,462,349
1465,-0.19,-0.96,0.16,0.06,-2.69,-3.36,411,255,385,467,345
1466,-0.2,-0.97,0.18,0.85,-3.17,-2.69,412,252,387,464,350
1467,-0.2,-0.96,0.18,0.18,-2.62,-1.95,412,252,387,462,348
1468,-0.18,-0.97,0.2,3.05,-3.23,-1.28,414,255,387,461,352
1469,-0.19,-0.96,0.16,1.71,-2.99,-3.05,413,258,384,465,347
1470,-0.2,-0.97,0.17,1.83,-3.3,-1.46,412,252,380,466,347
1471,-0.19,-0.97,0.16,1.1,-2.75,-3.23,410,253,384,462,348
1472,-0.2,-0.97,0.18,2.26,-3.11,-2.32,412,252,385,466,348
1473,-0.2,-0.96,0.16,0.18,-2.87,-2.62,413,255,385,465,349
1474,-0.2,-0.96,0.16,0.73,-3.05,-1.89,411,254,383,463,350
1475,-0.19,-0.95,0.11,-2.69,-3.3,-3.66,414,252,388,463,346
1476,-0.18,-0.96,0.14,-2.87,-1.59,-2.14,436,251,386,467,349
1477,-0.2,-0.96,0.15,0.24,-2.2,-3.05,412,250,382,467,349
1478,-0.19,-0.96,0.14,-1.89,-2.26,-1.89,410,251,388,458,346
1479,-0.2,-0.96,0.14,1.95,-2.81,-2.62,412,252,383,465,349
1480,-0.2,-0.96,0.13,0.43,-3.48,-2.5,411,253,386,464,348
1481,-0.21,-0.97,0.16,0.43,-2.69,-2.93,406,249,382,463,351
1482,-0.2,-0.97,0.15,0.24,-2.81,-3.72,413,255,387,463,350
1483,-0.2,-0.97,0.17,0.92,-1.83,-2.14,412,252,384,463,348
1484,-0.21,-0.97,0.15,-1.22,-2.38,-2.69,412,254,384,467,348
1485,-0.2,-0.97,0.14,-1.65,-2.08,-2.5,412,253,384,467,346
1486,-0.19,-0.97,0.15,-1.28,-2.56,-2.75,410,255,384,458,351
1487,-0.2,-0.97,0.15,0.43,-2.87,-2.81,412,255,373,459,349
1488,-0.19,-0.96,0.14,-0.49,-2.26,-2.44,411,253,387,465,350
1489,-0.19,-0.97,0.15,0.61,-2.14,-2.81,410,255,385,463,349
1490,-0.2,-0.97,0.14,-0.67,-2.87,-2.62,408,256,384,465,349
1491,-0.2,-0.96,0.14,-0.06,-3.11,-2.44,410,253,384,468,345
1492,-0.19,-0.97,0.15,0.37,-3.23,-2.62,406,253,384,462,347
1493,-0.21,-0.97,0.16,0.0,-2.81,-3.3,412,254,383,459,349
1494,-0.21,-0.98,0.17,3.3,-3.36,-2.32,411,253,381,466,349
1495,-0.19,-0.96,0.1,-1.95,-0.79,-6.04,410,254,384,465,349
1496,-0.17,-0.98,0.14,4.46,-1.71,-2.75,449,254,383,469,346
1497,-0.16,-0.97,0.12,-2.44,-2.99,-1.71,412,256,385,463,350
1498,-0.17,-0.97,0.11,0.73,-2.93,-3.05,412,257,381,468,350
1499,-0.17,-0.97,0.12,-0.06,-2.01,-2.38,412,254,384,462,346
1500,-0.18,-0.96,0.12,-0.49,-2.75,-3.05,411,258,380,460,347
1501,-0.18,-0.98,0.12,0.0,-3.05,-3.05,410,252,382,464,348
1502,-0.18,-0.97,0.13,0.31,-2.93,-3.6,408,256,390,469,346
1503,-0.17,-0.96,0.14,-0.43,-2.87,-2.87,413,255,387,462,350
1504,-0.17,-0.98,0.14,-0.92,-1.89,-2.69,410,253,386,463,351
1505,-0.18,-0.97,0.13,0.12,-2.32,-2.38,407,257,384,463,351
1506,-0.11,-0.89,0.46,-0.06,-2.99,-3.11,416,220,414,451,344
1507,-0.11,-0.9,0.44,-1.46,-3.17,-4.15,414,221,410,446,342
1508,-0.09,-0.88,0.42,-0.43,-3.54,-2.62,414,223,414,451,339
1509,-0.1,-0.9,0.42,1.65,-4.64,0.06,407,222,414,450,337
1510,-0.12,-0.9,0.45,-1.1,-1.77,-2.56,410,237,413,451,345
1511,-0.11,-0.9,0.45,-0.06,-1.65,-1.4,410,224,423,451,346
1512,-0.09,-0.9,0.42,0.73,-0.55,-2.08,406,224,413,457,341
1513,-0.07,-0.89,0.4,-2.2,-2.62,-4.21,412,222,409,452,340
1514,-0.12,-0.91,0.41,1.28,-1.46,-3.97,405,222,411,447,342
1515,-0.09,-0.9,0.41,1.71,-6.23,-1.4,403,223,412,453,343
1516,-0.09,-0.9,0.41,-0.12,-0.18,-5.49,403,224,411,447,344
1517,-0.09,-0.94,0.41,1.71,-3.78,-2.08,404,225,411,457,344
1518,-0.09,-0.92,0.42,1.16,-3.05,-1.59,404,222,411,457,339
1519,-0.09,-0.89,0.43,1.65,-4.33,-0.18,401,224,411,457,343
1520,-0.1,-0.92,0.4,0.12,-3.42,-1.34,397,226,409,459,343
1521,-0.11,-0.91,0.4,-0.85,-2.93,-1.77,400,221,410,457,344
1522,-0.08,-0.88,0.39,-5.43,-2.2,0.92,400,227,410,458,343
1523,-0.11,-0.9,0.4,-0.18,-3.66,-1.71,398,228,412,454,345
1524,-0.11,-0.92,0.4,0.31,-4.27,-3.54,397,225,409,454,343
1525,-0.11,-0.89,0.42,3.91,-2.14,-1.65,399,230,411,454,346
1526,-0.11,-0.85,0.38,-0.55,-2.08,-1.34,395,226,413,455,346
1527,-0.12,-0.92,0.4,15.08,-2.5,-2.56,399,227,408,455,345
1528,-0.1,-0.9,0.4,-2.38,-2.26,-3.3,399,229,410,450,345
1529,-0.11,-0.92,0.38,-2.56,-4.64,-3.17,398,228,405,456,344
1530,-0.05,-0.93,0.37,-5.25,-3.11,-3.36,399,225,407,458,345
1531,-0.08,-0.93,0.36,-2.26,-3.23,-1.34,400,227,407,459,355
1532,-0.08,-0.93,0.36,0.18,-2.93,-3.23,397,227,405,459,346
1533,-0.08,-0.93,0.35,-2.38,-1.34,-4.21,401,226,403,455,347
1534,-0.1,-0.93,0.35,0.79,-2.87,-2.26,399,226,404,459,342
1535,-0.1,-0.94,0.36,-0.37,-2.93,-3.11,397,229,402,458,345
1536,-0.1,-0.93,0.35,-0.43,-2.26,-3.78,398,229,402,461,347
1537,-0.08,-0.91,0.36,1.95,-2.32,-4.76,397,222,405,457,345
1538,-0.08,-0.92,0.38,0.79,-3.23,-3.6,400,229,402,457,346
1539,-0.09,-0.91,0.39,1.28,-1.34,-2.69,397,228,404,459,345
1540,-0.1,-0.92,0.37,0.98,-2.38,-2.38,397,227,400,455,348
1541,-0.07,-0.93,0.35,-2.26,-1.22,-3.36,397,233,400,455,344
1542,-0.11,-0.92,0.37,-0.49,-0.92,-2.69,394,224,398,460,345
1543,-0.1,-0.93,0.36,0.0,-2.26,-2.01,397,228,396,455,346
1544,-0.09,-0.94,0.35,1.95,-1.16,-2.32,396,227,398,451,344
1545,-0.11,-0.92,0.36,0.43,-3.78,-2.2,397,227,397,461,343
1546,-0.1,-0.93,0.36,1.04,-4.15,-2.26,403,225,397,458,346
1547,-0.11,-0.93,0.37,0.67,-2.56,-2.38,405,228,394,455,347
1548,-0.09,-0.92,0.35,0.18,-3.85,-2.08,407,228,400,458,346
1549,-0.09,-0.93,0.35,-0.55,1.34,-2.81,421,227,396,455,348
1550,-0.11,-0.93,0.35,-2.2,0.67,-4.52,403,230,397,454,344
1551,-0.13,-0.92,0.38,1.22,-2.62,-0.12,401,231,397,467,345
1552,-0.11,-0.92,0.38,1.59,-5.37,-0.79,401,229,395,454,347
1553,-0.12,-0.92,0.39,0.06,-3.42,-3.11,426,231,397,460,343
1554,-0.11,-0.92,0.37,2.26,-3.91,-2.38,414,231,395,460,343
1555,-0.1,-0.92,0.37,0.24,-3.05,-2.87,402,234,396,459,346
1556,-0.12,-0.91,0.36,-0.06,-2.93,-2.38,404,224,397,460,348
1557,-0.09,-0.9,0.38,-0.37,-2.32,-2.56,405,230,396,461,346
1558,-0.13,-0.92,0.38,-3.17,-2.01,-4.33,401,229,393,456,345
1559,-0.12,-0.92,0.36,-1.77,-3.91,-3.42,402,228,400,460,344
1560,-0.11,-0.92,0.34,0.85,-3.11,-2.99,400,232,396,452,345
1561,-0.11,-0.93,0.36,1.77,-2.81,-3.78,436,232,396,456,345
1562,-0.11,-0.92,0.37,1.22,-2.81,-2.32,399,230,397,461,347
1563,-0.11,-0.92,0.37,-0.24,-2.38,-2.62,395,231,397,456,342
1564,-0.11,-0.93,0.37,-0.61,-3.11,-1.89,399,230,396,453,341
1565,-0.12,-0.92,0.37,-1.28,-1.89,-3.23,399,230,397,453,346
1566,-0.12,-0.93,0.36,-1.22,-1.77,-2.93,400,230,396,458,343
1567,-0.11,-0.93,0.36,1.46,-2.08,-2.01,400,232,408,458,345
1568,-0.11,-0.92,0.36,0.06,-5.31,-1.89,400,228,395,451,343
1569,-0.13,-0.93,0.36,-0.31,-3.54,-0.73,399,234,394,456,349
1570,-0.13,-0.91,0.39,5.8,-0.67,-5.8,399,230,395,455,346
1571,-0.12,-0.91,0.4,-1.1,-4.09,-2.14,402,232,393,452,346
1572,-0.11,-0.92,0.37,-0.43,-2.08,-2.38,398,232,397,459,349
1573,-0.11,-0.92,0.38,0.92,-2.56,-2.08,387,230,398,454,355
1574,-0.1,-0.92,0.36,2.14,-3.66,-1.59,401,232,394,455,347
1575,-0.13,-0.92,0.38,-0.18,-2.2,-2.99,395,232,397,461,347
1576,-0.11,-0.93,0.36,-1.16,-3.36,-2.99,398,232,394,457,346
1577,-0.12,-0.92,0.38,0.18,-2.01,-1.89,397,233,394,460,348
1578,-0.13,-0.92,0.39,-3.6,-1.89,-3.72,398,233,388,461,349
1579,-0.13,-0.93,0.33,-3.05,-2.2,-3.85,394,231,395,452,345
1580,-0.14,-0.91,0.38,5.8,-2.69,-0.37,400,232,393,453,349
1581,-0.15,-0.91,0.38,1.1,-5.37,0.55,418,234,394,455,347
1582,-0.12,-0.92,0.37,2.69,-4.21,-1.46,397,234,395,455,345
1583,-0.14,-0.91,0.4,2.93,-2.01,-3.97,398,234,391,471,349
1584,-0.12,-0.92,0.39,2.38,-0.92,-3.05,399,233,397,458,345
1585,-0.16,-0.92,0.37,-0.92,3.97,-2.75,414,231,394,459,346
1586,-0.16,-0.92,0.37,-4.33,5.37,-0.85,415,229,392,458,346
1587,-0.19,-0.92,0.29,0.55,-2.75,-3.54,416,237,395,458,346
1588,-0.18,-0.94,0.28,-3.97,-0.73,-15.69,417,233,394,457,344
1589,-0.19,-0.92,0.33,7.93,3.42,-19.53,414,231,394,457,346
1590,-0.18,-0.94,0.32,5.92,-4.27,-6.29,413,233,393,458,346
1591,-0.16,-0.94,0.29,3.3,-4.09,-0.55,414,236,394,458,349
1592,-0.19,-0.92,0.39,-4.88,5.92,-12.08,414,234,395,461,347
1593,-0.11,-0.95,0.31,-0.12,-0.85,-0.85,405,231,393,460,349
1594,-0.12,-0.93,0.28,-5.43,3.05,-15.5,409,234,393,459,346
1595,-0.12,-0.99,0.21,-21.36,4.46,-2.32,409,232,395,462,341
1596,-0.09,-0.95,0.29,6.16,-10.07,-0.55,408,233,395,459,345
1597,-0.13,-0.96,0.25,2.01,-3.66,-0.61,407,232,392,458,347
1598,-0.13,-0.97,0.24,1.16,-6.96,-1.4,412,231,395,461,343
1599,-0.13,-0.96,0.25,1.59,-4.88,-1.22,406,231,395,455,345
1600,-0.14,-0.96,0.23,-1.65,-3.66,-3.3,410,233,398,462,342
1601,-0.1,-0.97,0.19,3.3,-3.11,-3.05,408,236,391,454,351
1602,-0.13,-0.96,0.26,2.14,-3.91,-3.36,406,233,393,458,346
1603,-0.14,-0.94,0.22,-0.43,-5.37,-2.5,406,233,391,460,342
1604,-0.12,-0.96,0.21,-3.72,-3.48,-3.6,408,232,389,459,342
1605,-0.11,-0.97,0.2,0.61,-2.38,-3.36,404,234,388,459,343
1606,-0.13,-0.96,0.2,-0.98,-4.88,-2.26,405,231,391,458,344
1607,-0.14,-0.97,0.21,0.06,-2.2,-2.81,405,234,389,458,344
1608,-0.15,-0.97,0.2,0.37,-3.3,-2.44,403,236,392,458,345
1609,-0.07,-0.96,0.19,-2.75,-4.76,-2.56,404,236,392,458,346
1610,-0.11,-0.97,0.19,-1.34,-4.03,-2.81,405,233,389,459,342
1611,-0.13,-0.98,0.17,0.0,-2.93,-2.56,406,232,390,458,348
1612,-0.15,-0.98,0.21,-0.55,-4.33,-1.16,407,233,394,459,348
1613,-0.13,-0.98,0.19,-0.73,-2.44,-3.3,406,233,391,462,346
1614,-0.1,-0.97,0.2,-1.53,-2.87,-2.93,409,234,381,457,345
1615,-0.12,-0.97,0.17,3.72,-1.53,-4.7,406,235,391,459,346
1616,-0.13,-0.98,0.24,1.71,12.27,-1.83,405,234,390,454,349
1617,-0.11,-0.97,0.18,2.01,-3.6,0.0,407,246,389,460,343
1618,-0.12,-0.96,0.2,-0.92,-2.2,-3.66,407,247,397,457,348
1619,-0.11,-0.97,0.2,-1.53,0.79,-4.88,406,235,388,461,348
1620,-0.11,-0.97,0.19,4.94,-0.18,-4.27,406,233,391,460,348
1621,-0.14,-0.97,0.19,5.68,-5.43,-1.53,407,238,387,459,348
1622,-0.12,-0.97,0.18,-1.95,-1.77,-4.7,407,237,389,457,348
1623,-0.13,-0.96,0.2,2.5,-3.72,0.0,405,238,385,459,346
1624,-0.13,-0.97,0.2,0.0,-4.27,-4.39,406,236,388,460,348
1625,-0.11,-0.97,0.17,-2.62,-3.54,-1.53,400,235,387,458,348
1626,-0.13,-0.96,0.19,1.04,-2.93,-1.46,411,234,388,460,347
1627,-0.13,-0.97,0.21,-1.65,-2.38,-2.62,406,238,389,460,349
1628,-0.13,-0.98,0.2,-0.67,-2.87,-2.38,407,235,387,461,347
1629,-0.13,-0.94,0.19,1.4,-1.95,-3.6,403,235,388,457,347
1630,-0.13,-0.97,0.17,0.43,-3.17,-2.81,408,236,387,458,343
1631,-0.13,-0.96,0.19,-0.37,-2.44,-2.38,408,238,384,459,348
1632,-0.13,-0.96,0.19,-0.37,-1.59,-3.17,406,236,389,457,345
1633,-0.13,-0.97,0.18,-0.55,-2.32,-3.36,407,232,394,459,350
1634,-0.14,-0.97,0.18,-0.12,-3.23,-3.36,407,238,390,461,347
1635,-0.14,-0.97,0.18,-0.49,-3.23,-2.75,406,240,387,459,346
1636,-0.14,-0.96,0.17,-0.18,-3.66,-2.2,407,236,386,459,349
1637,-0.14,-0.97,0.18,0.61,-2.93,-2.93,407,236,389,463,346
1638,-0.14,-0.97,0.19,0.79,-3.3,-2.26,407,236,388,455,350
1639,-0.14,-0.96,0.18,-0.61,-4.09,-2.2,406,239,387,453,348
1640,-0.15,-0.97,0.18,0.79,-2.81,-2.69,406,238,388,454,346
1641,-0.13,-0.96,0.18,2.32,-3.78,-3.36,406,238,388,461,346
1642,-0.14,-0.98,0.17,0.98,-3.23,-1.83,406,240,387,459,347
1643,-0.14,-0.98,0.18,0.55,-3.3,-2.93,394,240,387,459,344
1644,-0.15,-0.97,0.18,-0.37,-2.75,-2.81,408,239,388,463,350
1645,-0.14,-0.97,0.19,0.12,-2.38,-2.5,408,240,386,460,348
1646,-0.15,-0.96,0.19,-0.67,-0.92,-2.32,409,239,389,461,348
1647,-0.15,-0.96,0.16,-1.95,-2.2,-2.81,412,242,386,454,343
1648,-0.17,-0.98,0.2,0.67,-3.85,-4.03,414,237,385,462,342
1649,-0.13,-0.99,0.16,3.11,-4.58,-2.62,411,235,386,456,331
1650,-0.17,-0.98,0.13,-8.54,-7.51,0.0,411,235,388,463,342
1651,-0.16,-0.97,0.19,-1.59,1.04,-1.71,411,241,388,457,345
1652,-0.18,-0.98,0.14,-2.26,-1.65,-6.29,412,238,388,462,346
1653,-0.13,-0.97,0.15,-1.77,-2.81,-4.64,413,238,383,462,345
1654,-0.13,-0.98,0.2,-2.69,-0.49,-2.93,416,234,383,462,344
1655,-0.12,-0.97,0.17,-10.8,2.14,-4.21,413,238,384,457,346
1656,-0.12,-0.97,0.22,-1.34,-6.35,-4.39,412,238,385,455,347
1657,-0.11,-0.96,0.25,-0.12,-9.03,-1.83,408,239,382,464,347
1658,-0.11,-0.97,0.23,-3.66,2.56,-4.03,410,237,382,458,345
1659,-0.12,-0.98,0.13,0.31,-2.81,-5.49,411,239,387,464,346
1660,-0.1,-0.97,0.18,3.36,-1.71,-1.28,407,235,388,459,344
1661,-0.11,-0.98,0.15,-0.79,-3.23,-4.09,408,237,387,463,346
1662,-0.11,-0.97,0.19,0.06,-3.91,-0.12,405,238,387,460,348
1663,-0.11,-0.97,0.18,-2.44,-2.81,-0.06,405,240,383,459,349
1664,-0.09,-0.97,0.19,-1.16,-4.21,-0.79,410,240,385,462,346
1665,-0.13,-0.97,0.22,-3.42,-4.15,-2.81,417,238,387,455,350
1666,-0.1,-0.96,0.22,2.38,-7.63,-5.62,429,241,387,460,347
1667,-0.13,-0.97,0.22,3.05,-2.75,-0.37,410,241,383,460,346
1668,-0.13,-0.96,0.28,-0.92,-0.49,-3.11,411,239,386,460,347
1669,-0.14,-0.96,0.24,-4.76,-2.2,-1.34,409,241,384,462,345
1670,-0.13,-0.96,0.23,1.65,-3.6,-2.99,406,237,381,457,344
1671,-0.13,-0.97,0.22,-2.99,-2.5,-3.11,407,239,383,460,345
1672,-0.12,-0.97,0.17,-0.31,-0.06,-3.42,407,240,382,458,349
1673,-0.15,-0.97,0.21,2.32,1.95,-0.37,412,240,382,460,345
1674,-0.16,-0.97,0.23,-0.18,-1.46,-1.46,408,241,384,460,350
1675,-0.15,-0.96,0.23,2.99,-3.11,-2.2,413,241,381,462,344
1676,-0.14,-0.96,0.23,5.49,-2.69,-2.44,414,237,386,455,357
1677,-0.15,-0.95,0.23,3.66,-2.5,-2.75,412,241,380,460,351
1678,-0.15,-0.96,0.21,-0.12,-1.04,-2.44,411,239,378,461,339
1679,-0.17,-0.96,0.24,-0.06,-5.25,-2.14,411,239,385,461,349
1680,-0.16,-0.97,0.21,0.55,-3.3,-2.5,414,240,383,462,354
1681,-0.16,-0.96,0.21,0.18,-2.26,-2.44,413,242,385,472,350
1682,-0.16,-0.96,0.22,0.85,-3.05,-3.05,415,238,383,455,348
1683,-0.17,-0.97,0.22,0.0,-3.3,-3.48,413,248,379,460,348
1684,-0.16,-0.96,0.24,-0.98,-2.87,-3.91,420,240,380,460,351
1685,-0.16,-0.96,0.22,-0.06,-3.6,-2.08,413,238,384,455,346
1686,-0.17,-0.96,0.23,-0.06,-1.95,-2.26,412,252,385,463,347
1687,-0.16,-0.96,0.22,0.12,-2.56,-1.4,412,242,385,463,349
1688,-0.17,-0.96,0.22,0.49,-2.2,-2.26,404,240,383,471,344
1689,-0.17,-0.96,0.22,0.55,-3.05,-2.26,413,238,383,459,350
1690,-0.17,-0.96,0.22,0.31,-3.05,-2.75,414,240,383,464,349
1691,-0.17,-0.95,0.23,1.71,-4.27,-2.69,412,241,381,462,348
1692,-0.16,-0.96,0.23,0.67,-2.93,-2.62,412,241,381,461,350
1693,-0.19,-1.0,0.32,-1.53,-2.44,-2.56,412,243,383,460,346
1694,-0.17,-0.95,0.22,-0.79,-1.34,-2.44,412,241,382,460,349
1695,-0.17,-0.96,0.22,-2.08,-1.95,-3.36,415,238,385,463,347
1696,-0.17,-0.96,0.21,-2.62,-1.4,-4.58,413,244,383,465,347
1697,-0.17,-0.96,0.22,-0.49,-2.81,-2.38,414,243,381,459,348
1698,-0.16,-0.95,0.22,0.0,-3.42,-2.44,413,245,386,464,348
1699,-0.17,-0.95,0.2,-0.43,-2.32,-3.91,414,246,390,458,348
1700,-0.19,-0.96,0.26,0.12,-4.39,-2.75,413,241,389,461,348
1701,-0.18,-0.94,0.25,5.25,-5.86,0.73,415,242,390,460,344
1702,-0.17,-0.95,0.23,-3.72,-0.12,-4.88,413,245,391,460,350
1703,-0.18,-0.96,0.22,-0.06,-2.93,-2.2,412,245,393,462,348
1704,-0.2,-0.95,0.22,-0.92,-4.64,-4.94,419,243,387,464,350
1705,-0.17,-0.96,0.25,0.18,-2.93,-1.16,412,242,390,463,348
1706,-0.15,-0.95,0.22,-0.24,-3.17,-4.21,415,242,391,459,350
1707,-0.17,-0.95,0.23,1.28,-3.3,-1.89,412,243,394,455,348
1708,-0.17,-0.95,0.23,0.43,-3.11,-2.2,414,243,392,461,350
1709,-0.17,-0.96,0.24,0.92,-3.48,-2.5,412,244,392,463,345
1710,-0.16,-0.95,0.23,-1.16,-1.77,-1.71,412,243,390,465,343
1711,-0.17,-0.96,0.25,0.43,-2.69,-2.14,413,242,394,464,347
1712,-0.16,-0.96,0.23,-0.55,-1.46,-4.03,414,242,391,461,353
1713,-0.17,-0.95,0.25,-2.08,-1.53,-2.87,414,242,391,465,349
1714,-0.17,-0.94,0.24,0.37,-3.66,-2.38,408,244,393,459,350
1715,-0.18,-0.96,0.24,0.67,-1.46,-5.37,411,242,391,460,346
1716,-0.17,-0.95,0.25,2.08,-3.42,-2.01,412,242,391,464,349
1717,-0.17,-0.95,0.25,-1.59,-0.55,-1.46,410,246,390,464,352
1718,-0.17,-0.95,0.24,-0.18,-3.36,-1.83,414,240,391,462,348
1719,-0.18,-0.95,0.24,0.79,-2.56,-2.62,415,242,389,464,348
1720,-0.17,-0.95,0.24,-2.62,-0.49,-6.47,413,241,389,460,344
1721,-0.17,-0.95,0.24,-3.11,-1.77,-1.16,412,239,393,463,350
1722,-0.17,-0.95,0.24,0.37,-2.87,-2.56,409,247,389,475,351
1723,-0.17,-0.96,0.24,-1.77,-2.93,-2.14,411,242,391,474,347
1724,-0.16,-0.95,0.25,0.55,-3.17,-2.69,412,241,393,465,350
1725,-0.17,-0.96,0.24,2.5,-3.17,-2.14,412,244,394,459,348
1726,-0.18,-0.96,0.22,-1.65,-3.72,-3.05,411,245,393,461,352
1727,-0.17,-0.96,0.22,-0.43,-4.27,-2.32,411,248,398,461,349
1728,-0.18,-0.96,0.26,-2.93,-0.98,-3.11,420,244,391,464,350
1729,-0.17,-0.97,0.23,2.08,-3.23,-1.16,413,245,389,464,348
1730,-0.18,-0.95,0.21,0.79,-3.85,-3.17,414,243,392,466,349
1731,-0.19,-0.92,0.2,-1.16,-2.93,-2.87,412,242,393,459,349
1732,-0.17,-0.97,0.22,0.67,-2.26,-0.79,409,244,393,461,349
1733,-0.2,-0.95,0.24,0.31,-0.98,-4.27,409,241,389,460,348
1734,-0.21,-0.94,0.24,-2.26,-7.2,1.28,409,245,393,462,350
1735,-0.21,-0.96,0.22,0.18,-4.09,0.61,411,243,395,465,350
1736,-0.22,-0.94,0.27,10.07,-8.3,7.57,419,244,391,465,351
1737,-0.26,-0.92,0.3,2.69,-4.39,-2.5,415,246,392,462,347
1738,-0.21,-0.92,0.27,-2.14,-3.97,-2.2,414,246,393,461,346
1739,-0.22,-0.92,0.35,-2.81,-1.4,0.98,412,242,392,456,345
1740,-0.25,-0.89,0.35,-3.54,-3.6,-4.15,412,246,393,462,349
1741,-0.22,-0.92,0.33,0.31,-3.17,-4.94,414,243,391,457,353
1742,-0.24,-0.92,0.31,3.36,-2.81,-0.43,415,243,390,462,351
1743,-0.24,-0.91,0.3,-0.61,-2.56,-2.93,414,245,390,462,350
1744,-0.23,-0.91,0.3,2.62,-1.28,-3.85,411,245,392,465,350
1745,-0.33,-0.93,0.33,4.27,7.14,-8.48,413,243,391,456,351
1746,-0.16,-0.94,0.23,-4.39,10.93,-14.28,412,243,388,460,350
1747,-0.16,-0.96,0.27,2.99,0.0,1.1,412,242,390,460,349
1748,-0.16,-0.94,0.29,1.59,-2.44,-3.6,410,245,390,460,346
1749,-0.12,-0.95,0.22,2.26,3.17,-8.06,412,246,390,462,350
1750,-0.18,-0.96,0.27,-4.39,-10.13,1.89,411,245,390,460,351
1751,-0.18,-0.97,0.27,2.87,-9.7,-3.3,412,246,391,461,350
1752,-0.18,-0.99,0.21,-0.85,-5.0,-0.98,412,246,390,461,344
1753,-0.2,-0.95,0.25,-2.87,-4.27,-2.14,412,245,390,456,348
1754,-0.19,-0.95,0.28,-0.85,-5.37,-1.34,411,243,389,460,351
1755,-0.21,-0.95,0.26,1.53,-5.62,-2.99,409,243,390,462,348
1756,-0.22,-0.95,0.26,-1.95,-6.1,1.34,411,242,393,458,347
1757,-0.21,-0.95,0.25,0.55,-1.65,-1.95,411,242,390,462,348
1758,-0.21,-0.94,0.24,0.31,-4.94,-3.23,409,246,390,461,349
1759,-0.19,-0.94,0.24,1.04,-3.3,-4.82,412,244,393,464,351
1760,-0.18,-0.94,0.25,3.97,-6.23,-2.87,410,241,389,462,347
1761,-0.19,-0.94,0.26,2.2,-3.72,0.06,408,240,390,457,349
1762,-0.2,-0.94,0.27,0.55,-2.99,-2.38,411,245,385,460,349
1763,-0.19,-0.95,0.27,0.06,-3.91,-2.81,406,246,390,466,350
1764,-0.2,-0.94,0.26,-0.43,-1.46,-3.17,439,247,387,464,349
1765,-0.21,-0.95,0.26,0.12,-3.11,-2.87,411,245,393,462,351
1766,-0.2,-0.94,0.22,0.12,-2.08,-2.81,414,245,387,462,351
1767,-0.21,-0.93,0.26,-1.77,-3.85,-3.78,409,242,393,457,349
1768,-0.2,-0.94,0.25,-0.49,-1.1,-3.66,413,244,394,461,348
1769,-0.19,-0.94,0.25,0.31,-3.48,-2.44,408,246,390,465,346
1770,-0.21,-0.94,0.25,1.4,-3.3,-2.01,409,242,392,465,351
1771,-0.21,-0.94,0.25,-0.43,-1.95,-2.38,408,245,390,462,349
1772,-0.23,-0.93,0.27,-1.16,-3.6,-2.62,409,245,393,460,346
1773,-0.21,-0.95,0.25,-1.28,-3.78,-2.56,405,246,396,457,351
1774,-0.22,-0.93,0.25,-0.61,-2.08,-3.23,408,247,390,462,348
1775,-0.22,-0.94,0.25,0.49,-3.66,-2.38,408,244,390,465,349
1776,-0.21,-0.94,0.26,-0.18,-2.01,-3.6,408,245,390,462,347
1777,-0.21,-0.94,0.26,1.22,-2.75,-3.23,409,244,392,462,344
1778,-0.21,-0.94,0.26,0.06,-2.62,-2.87,409,248,388,461,350
1779,-0.22,-0.94,0.26,-0.37,-2.5,-2.38,411,245,398,466,347
1780,-0.22,-0.94,0.26,0.24,-2.75,-2.01,429,245,389,463,350
1781,-0.22,-0.94,0.25,0.24,-3.11,-2.14,408,245,387,462,348
1782,-0.22,-0.94,0.26,0.49,-2.56,-2.38,401,248,391,461,347
1783,-0.22,-0.95,0.27,2.69,-4.76,-3.97,409,252,389,463,349
1784,-0.23,-0.93,0.28,-2.69,-2.5,-1.89,408,246,390,470,349
1785,-0.22,-0.94,0.29,-0.18,-5.68,-0.85,402,248,395,457,350
1786,-0.23,-0.94,0.28,0.55,-2.99,-0.24,410,243,386,463,347
1787,-0.22,-0.93,0.29,1.89,-1.28,-2.26,407,244,391,479,347
1788,-0.23,-0.93,0.28,-1.83,-3.11,-2.87,411,244,386,462,348
1789,-0.22,-0.93,0.25,-0.98,-2.14,-2.69,414,244,388,463,346
1790,-0.23,-0.93,0.25,-0.92,-2.87,-2.75,408,244,392,466,348
1791,-0.22,-0.94,0.24,0.43,-3.6,-2.32,409,249,390,459,349
1792,-0.22,-0.93,0.25,0.92,-4.03,-2.56,408,248,389,466,350
1793,-0.23,-0.94,0.26,1.65,-3.78,-3.23,410,246,387,462,347
1794,-0.22,-0.94,0.27,-0.37,-1.71,-3.17,408,246,392,458,348
1795,-0.22,-0.94,0.25,0.85,-1.65,-2.56,408,248,392,462,347
1796,-0.21,-0.92,0.25,-1.65,-2.93,-1.53,409,249,386,462,346
1797,-0.23,-0.95,0.28,1.28,-3.11,-0.67,406,245,389,459,349
1798,-0.22,-0.93,0.25,-0.85,-2.08,-2.87,410,248,390,458,348
1799,-0.23,-0.95,0.24,-0.06,-3.17,-1.83,409,249,391,463,350
1800,-0.23,-0.94,0.24,0.98,-3.11,-2.38,409,246,389,461,357
1801,-0.23,-0.94,0.24,1.83,-3.17,-2.87,409,250,389,466,346
1802,-0.22,-0.94,0.25,1.22,-3.17,-3.66,406,247,398,462,350
1803,-0.23,-0.94,0.26,0.37,-2.2,-2.2,411,250,393,465,349
1804,-0.23,-0.94,0.25,-1.1,-1.95,-2.69,410,247,388,463,340
1805,-0.2,-0.94,0.23,-2.62,0.24,-4.52,409,245,385,466,349
1806,-0.21,-0.94,0.23,0.67,-2.56,-2.62,409,246,392,462,349
1807,-0.21,-0.94,0.27,1.95,-8.79,-2.2,410,248,387,462,349
1808,-0.19,-0.95,0.25,0.49,-6.41,-4.58,408,247,389,467,348
1809,-0.17,-0.95,0.24,0.49,-0.67,-2.32,410,245,386,462,349
1810,-0.17,-0.95,0.22,-2.08,-2.01,-3.91,409,247,390,466,348
1811,-0.18,-0.96,0.2,-3.66,-0.73,-5.8,406,247,393,463,349
1812,-0.17,-0.97,0.23,-1.16,-1.71,-2.62,408,249,392,457,351
1813,-0.18,-0.96,0.23,1.1,-2.93,-2.93,408,248,386,458,349
1814,-0.19,-0.96,0.23,0.24,-2.14,-3.11,409,258,387,458,347
1815,-0.17,-0.96,0.22,0.61,-2.87,-2.08,408,250,385,458,345
1816,-0.17,-0.96,0.2,0.0,-1.71,-2.44,406,253,388,467,350
1817,-0.18,-0.96,0.21,0.92,-2.75,-2.01,408,250,388,466,348
1818,-0.17,-0.97,0.21,-0.18,-4.64,-1.65,410,249,388,467,348
1819,-0.16,-0.96,0.21,-1.65,-5.49,-2.08,408,249,392,458,346
1820,-0.16,-0.96,0.18,-2.32,-3.17,-4.09,405,249,392,461,351
1821,-0.17,-0.96,0.19,1.4,-2.99,-4.03,413,249,388,463,349
1822,-0.17,-0.96,0.19,-0.49,-2.32,-2.56,408,250,390,462,351
1823,-0.17,-0.96,0.19,-2.01,-3.11,-3.72,408,254,390,462,349
1824,-0.15,-0.98,0.15,-1.83,-0.67,-3.42,408,252,391,463,349
1825,-0.15,-0.97,0.17,-1.34,0.31,-5.07,408,250,390,461,347
1826,-0.15,-0.97,0.17,1.16,-4.09,-0.61,409,251,391,464,349
1827,-0.15,-0.95,0.19,0.43,-0.31,-2.01,407,251,389,461,346
1828,-0.17,-0.97,0.19,2.81,-5.68,-0.24,407,247,391,463,347
1829,-0.16,-0.97,0.18,-0.55,-3.17,-2.44,400,252,390,466,349
1830,-0.17,-0.96,0.18,0.85,-2.08,-1.4,404,251,387,461,347
1831,-0.17,-0.97,0.18,-0.37,-2.5,-2.01,408,249,386,462,350
1832,-0.18,-0.96,0.18,-0.24,-2.44,-3.11,407,250,386,462,351
1833,-0.17,-0.97,0.18,-0.67,-2.99,-3.05,409,247,387,464,348
1834,-0.18,-0.96,0.18,0.18,-3.6,-1.89,404,249,388,463,349
1835,-0.18,-0.96,0.18,0.12,-3.05,-2.81,406,252,385,467,348
1836,-0.17,-0.96,0.18,1.1,-2.38,-2.62,408,252,387,463,350
1837,-0.17,-0.96,0.18,-0.06,-2.81,-3.72,405,249,386,460,348
1838,-0.17,-0.96,0.2,-0.24,-1.95,-2.14,409,253,387,464,351
1839,-0.18,-0.96,0.19,0.49,-2.81,-2.26,419,252,387,463,350
1840,-0.19,-0.96,0.17,0.43,-2.93,-1.95,409,251,386,462,350
1841,-0.19,-0.97,0.19,0.49,-2.81,-1.28,425,248,387,463,348
1842,-0.19,-0.96,0.17,1.95,-2.81,-2.93,406,245,390,463,348
1843,-0.18,-0.95,0.2,2.08,-3.05,-2.2,408,251,392,463,349
1844,-0.19,-0.96,0.22,0.79,-2.93,-1.65,407,251,385,463,349
1845,-0.19,-0.95,0.2,0.49,-3.05,-2.2,405,252,384,462,347
1846,-0.19,-0.95,0.22,-2.81,-4.15,-4.39,409,252,384,465,350
1847,-0.18,-0.96,0.17,-5.62,-5.13,-5.31,407,252,386,462,349
1848,-0.17,-0.97,0.16,-2.26,-1.59,-1.89,404,248,388,466,353
1849,-0.17,-0.97,0.19,0.24,-2.56,-1.83,409,253,385,469,357
1850,-0.18,-0.96,0.17,1.4,-3.05,-1.22,410,253,387,459,350
1851,-0.18,-0.97,0.17,0.0,-3.11,-2.56,408,253,387,466,351
1852,-0.18,-0.97,0.17,0.98,-3.48,-2.2,405,252,386,462,358
1853,-0.18,-0.96,0.18,0.18,-3.17,-2.44,407,250,386,465,349
1854,-0.19,-0.97,0.19,1.28,-2.69,-2.2,410,248,388,463,349
1855,-0.16,-0.97,0.16,0.18,-3.48,-2.87,409,252,386,462,352
1856,-0.18,-0.97,0.17,0.37,-3.97,-2.14,410,250,383,461,349
1857,-0.17,-0.96,0.17,0.0,-2.62,-2.75,404,255,383,465,346
1858,-0.18,-0.96,0.16,0.31,-2.62,-2.81,405,250,392,466,351
1859,-0.17,-0.97,0.17,1.16,-2.81,-2.81,407,250,386,463,350
1860,-0.17,-0.94,0.16,-1.1,-3.05,-3.72,409,254,387,458,350
1861,-0.17,-0.97,0.16,1.83,-1.59,-1.65,407,250,389,467,350
1862,-0.18,-0.97,0.17,0.0,-1.53,-2.75,406,251,387,463,347
1863,-0.18,-0.97,0.16,-1.65,-2.08,-3.17,407,250,386,463,346
1864,-0.18,-0.97,0.14,2.38,-6.04,-2.01,409,248,386,462,350
1865,-0.18,-0.97,0.14,1.28,-3.6,-2.14,435,252,387,465,350
1866,-0.16,-0.97,0.14,0.98,-3.91,-2.2,417,249,387,460,343
1867,-0.17,-0.97,0.16,1.46,-2.87,-3.17,407,250,386,462,348
1868,-0.17,-0.97,0.15,0.67,-2.93,-2.87,410,247,386,463,348
1869,-0.17,-0.97,0.15,-0.12,-3.17,-2.75,426,249,385,464,348
1870,-0.17,-0.96,0.15,-0.18,-2.01,-2.81,408,250,387,463,348
1871,-0.18,-0.97,0.14,-0.49,-2.75,-2.62,409,250,386,465,348
1872,-0.17,-0.97,0.14,0.98,-2.93,-2.01,408,250,386,463,348
1873,-0.16,-0.96,0.14,0.06,-3.05,-2.56,407,250,387,463,347
1874,-0.16,-0.97,0.14,0.43,-2.93,-3.23,405,250,386,461,350
1875,-0.17,-0.97,0.14,0.37,-3.11,-3.11,408,250,391,458,349
1876,-0.17,-0.97,0.15,0.73,-3.42,-2.56,405,252,385,460,349
1877,-0.17,-0.97,0.16,-0.55,-2.44,-2.38,416,253,388,467,351
1878,-0.18,-0.94,0.16,-1.77,-2.62,-3.36,408,248,386,462,351
1879,-0.19,-0.97,0.15,-0.85,-3.42,-2.32,408,252,389,462,351
1880,-0.17,-0.96,0.15,-1.34,-1.71,-3.85,405,251,383,458,347
1881,-0.17,-0.97,0.14,0.0,-2.93,-2.56,408,251,386,461,349
1882,-0.17,-0.96,0.14,1.22,-3.54,-2.81,406,250,387,458,346
1883,-0.18,-0.97,0.15,0.73,-3.3,-2.93,409,250,390,462,348
1884,-0.18,-0.97,0.15,-0.37,-2.87,-2.44,408,252,387,458,345
1885,-0.17,-0.97,0.15,0.0,-2.69,-2.38,408,251,385,462,356
1886,-0.18,-0.97,0.15,0.73,-2.38,-2.44,410,254,387,466,345
1887,-0.18,-0.97,0.14,0.55,-2.69,-2.01,426,254,386,469,346
1888,-0.17,-0.97,0.15,-0.67,-1.53,-2.62,409,251,387,461,349
1889,-0.18,-0.97,0.15,0.61,-3.11,-2.32,406,250,388,467,351
1890,-0.18,-0.97,0.14,1.16,-3.3,-3.17,404,250,386,461,350
1891,-0.18,-0.97,0.15,2.99,-4.09,-2.32,407,248,385,464,347
1892,-0.17,-0.98,0.16,3.11,-3.48,-2.38,409,254,395,460,349
1893,-0.16,-0.96,0.16,-0.55,-2.56,-2.62,411,260,387,463,349
1894,-0.18,-0.97,0.16,-0.98,-2.56,-2.81,408,252,385,466,347
1895,-0.19,-0.96,0.16,-0.92,-2.2,-3.23,407,252,385,459,349
1896,-0.19,-0.97,0.16,0.43,-3.54,-2.38,405,249,397,468,350
1897,-0.18,-0.97,0.15,-0.79,-2.14,-3.36,409,250,383,460,350
1898,-0.18,-0.97,0.15,1.16,-3.11,-2.93,409,252,388,465,350
1899,-0.18,-0.96,0.16,0.61,-3.11,-3.17,410,249,383,462,347
1900,-0.17,-0.97,0.16,0.31,-3.78,-2.26,409,251,389,461,341
1901,-0.18,-0.97,0.16,-4.76,-0.67,-3.23,408,252,386,458,348
1902,-0.17,-0.97,0.14,-0.06,-2.08,-2.38,406,248,387,464,349
1903,-0.17,-0.97,0.15,0.12,-2.26,-5.0,408,253,382,459,352
1904,-0.15,-0.97,0.14,-0.73,-2.26,-2.26,409,254,388,466,346
1905,-0.17,-0.97,0.15,2.14,-1.65,-0.37,407,249,385,466,349
1906,-0.18,-0.97,0.14,0.61,-4.21,-2.38,431,254,385,467,350
1907,-0.14,-0.96,0.16,4.64,-3.97,-3.23,407,253,383,464,349
1908,-0.17,-0.97,0.12,-2.69,-0.73,-4.88,408,251,388,475,349
1909,-0.16,-0.98,0.15,0.37,-3.11,-2.2,410,250,380,466,349
1910,-0.17,-0.98,0.13,-1.95,-1.04,-2.69,408,251,384,464,350
1911,-0.17,-0.98,0.13,2.08,-0.43,-3.36,411,253,386,459,352
1912,-0.17,-0.97,0.16,2.44,-2.08,-1.22,410,249,388,462,347
1913,-0.18,-0.96,0.16,11.96,-7.2,-1.28,411,249,387,466,346
1914,-0.17,-0.96,0.22,-1.16,-2.01,0.43,407,253,383,461,345
1915,-0.17,-0.96,0.17,1.46,-3.6,-2.93,410,251,389,462,349
1916,-0.18,-0.96,0.19,1.28,-3.66,-1.46,407,250,387,467,347
1917,-0.16,-0.93,0.22,-0.06,-3.3,2.5,407,248,387,466,349
1918,-0.22,-0.96,0.17,-7.69,-5.37,2.75,412,251,388,459,348
1919,-0.23,-0.97,0.18,2.5,-5.19,-2.2,412,251,382,463,347
1920,-0.19,-0.96,0.2,0.0,-2.93,-4.03,411,246,385,460,349
1921,-0.19,-0.96,0.2,1.4,-3.23,-2.26,413,252,382,464,338
1922,-0.19,-0.96,0.18,0.92,-3.11,-2.26,411,250,382,463,349
1923,-0.2,-0.96,0.18,0.12,-2.87,-1.71,411,249,385,463,349
1924,-0.2,-0.96,0.18,0.06,-3.05,-1.65,412,251,388,467,341
1925,-0.19,-0.96,0.17,1.89,-4.21,-3.36,412,254,384,470,347
1926,-0.19,-0.96,0.17,-1.89,-2.62,-3.66,408,250,386,465,350
1927,-0.19,-0.96,0.2,-2.62,-0.24,-4.27,411,252,388,458,344
1928,-0.19,-0.96,0.22,-0.85,-2.44,-4.15,411,252,385,464,348
1929,-0.19,-0.96,0.17,0.79,-2.87,-2.69,413,254,389,466,348
1930,-0.19,-0.96,0.18,-1.89,-2.87,-3.11,414,253,389,462,348
1931,-0.18,-0.96,0.16,0.31,-2.44,-4.03,412,251,384,459,346
1932,-0.18,-0.96,0.18,0.67,-2.75,-2.38,418,251,384,462,350
1933,-0.18,-0.97,0.17,-0.06,-2.62,-2.2,410,253,387,458,351
1934,-0.19,-0.96,0.18,-1.16,-2.01,-2.81,414,254,388,464,350
1935,-0.19,-0.96,0.16,2.75,-5.07,-2.2,412,256,385,463,351
1936,-0.19,-0.96,0.16,0.49,-3.3,-2.38,412,250,396,464,351
1937,-0.19,-0.96,0.18,2.44,-3.3,-3.36,409,252,386,463,348
1938,-0.18,-0.96,0.18,4.03,-3.42,-2.38,413,254,385,459,347
1939,-0.18,-0.96,0.17,3.91,-3.85,-4.03,411,255,380,467,348
1940,-0.17,-0.96,0.2,-4.7,-1.65,-1.22,409,252,385,464,348
1941,-0.19,-0.96,0.16,0.37,-1.83,-3.36,418,252,384,466,349
1942,-0.17,-0.96,0.16,-0.24,-2.56,-3.11,414,254,387,474,350
1943,-0.19,-0.97,0.16,0.43,-3.11,-2.32,413,249,385,461,352
1944,-0.19,-0.96,0.16,0.12,-2.69,-3.23,412,254,381,463,350
1945,-0.18,-0.97,0.16,0.12,-3.42,-2.5,411,251,385,467,350
1946,-0.2,-0.96,0.16,0.12,-2.56,-2.5,411,259,385,462,348
1947,-0.18,-0.96,0.16,0.79,-3.78,-2.26,411,256,384,463,349
1948,-0.19,-0.96,0.16,-0.37,-3.3,-2.2,412,253,385,463,349
1949,-0.19,-0.96,0.16,-0.18,-2.56,-2.69,412,255,384,466,347
1950,-0.19,-0.96,0.17,1.22,-3.72,-3.17,411,252,381,466,348
1951,-0.18,-0.97,0.19,-1.53,-1.89,-3.23,413,254,385,462,349
1952,-0.2,-0.97,0.14,-2.32,-1.83,-2.87,412,255,383,464,348
1953,-0.18,-0.97,0.16,-0.43,-1.95,-3.42,413,255,384,463,351
1954,-0.19,-0.96,0.17,-0.92,-2.26,-2.26,412,255,387,467,349
1955,-0.19,-0.97,0.15,0.24,-3.17,-1.71,439,252,389,458,346
1956,-0.18,-0.96,0.16,0.37,-3.11,-2.69,409,252,386,464,350
1957,-0.19,-0.96,0.16,2.26,-3.66,-3.54,410,250,382,464,345
1958,-0.18,-0.96,0.17,1.77,-2.26,-3.05,413,252,387,465,347
1959,-0.19,-0.96,0.16,0.06,-3.11,-2.26,412,256,382,466,346
1960,-0.19,-0.96,0.16,1.1,-2.56,-2.93,411,251,383,464,347
1961,-0.18,-0.97,0.14,1.53,-4.15,-2.44,409,252,387,461,347
1962,-0.17,-0.97,0.21,-0.92,-3.6,-1.83,414,249,383,463,348
1963,-0.21,-0.97,0.15,0.43,-3.97,-0.98,412,254,390,462,348
1964,-0.18,-0.97,0.16,-0.61,-1.95,-1.71,412,252,386,468,349
1965,-0.19,-0.96,0.16,0.0,-3.05,-2.14,409,257,384,462,346
1966,-0.19,-0.97,0.16,-0.37,-2.5,-2.75,411,255,381,462,349
1967,-0.19,-0.96,0.16,0.06,-2.69,-3.36,411,255,385,467,345
1968,-0.2,-0.97,0.18,0.85,-3.17,-2.69,412,252,387,464,350
1969,-0.2,-0.96,0.18,0.18,-2.62,-1.95,412,252,387,462,348
1970,-0.18,-0.97,0.2,3.05,-3.23,-1.28,414,255,387,461,352
1971,-0.19,-0.96,0.16,1.71,-2.99,-3.05,413,258,384,465,347
1972,-0.2,-0.97,0.17,1.83,-3.3,-1.46,412,252,380,466,347
1973,-0.19,-0.97,0.16,1.1,-2.75,-3.23,410,253,384,462,348
1974,-0.2,-0.97,0.18,2.26,-3.11,-2.32,412,252,385,466,348
1975,-0.2,-0.96,0.16,0.18,-2.87,-2.62,413,255,385,465,349
1976,-0.2,-0.96,0.16,0.73,-3.05,-1.89,411,254,383,463,350
1977,-0.19,-0.95,0.11,-2.69,-3.3,-3.66,414,252,388,463,346
1978,-0.18,-0.96,0.14,-2.87,-1.59,-2.14,436,251,386,467,349
1979,-0.2,-0.96,0.15,0.24,-2.2,-3.05,412,250,382,467,349
1980,-0.19,-0.96,0.14,-1.89,-2.26,-1.89,410,251,388,458,346
1981,-0.2,-0.96,0.14,1.95,-2.81,-2.62,412,252,383,465,349
1982,-0.2,-0.96,0.13,0.43,-3.48,-2.5,411,253,386,464,348
1983,-0.21,-0.97,0.16,0.43,-2.69,-2.93,406,249,382,463,351
1984,-0.2,-0.97,0.15,0.24,-2.81,-3.72,413,255,387,463,350
1985,-0.2,-0.97,0.17,0.92,-1.83,-2.14,412,252,384,463,348
1986,-0.21,-0.97,0.15,-1.22,-2.38,-2.69,412,254,384,467,348
1987,-0.2,-0.97,0.14,-1.65,-2.08,-2.5,412,253,384,467,346
1988,-0.19,-0.97,0.15,-1.28,-2.56,-2.75,410,255,384,458,351
1989,-0.2,-0.97,0.15,0.43,-2.87,-2.81,412,255,373,459,349
1990,-0.19,-0.96,0.14,-0.49,-2.26,-2.44,411,253,387,465,350
1991,-0.19,-0.97,0.15,0.61,-2.14,-2.81,410,255,385,463,349
1992,-0.2,-0.97,0.14,-0.67,-2.87,-2.62,408,256,384,465,349
1993,-0.2,-0.96,0.14,-0.06,-3.11,-2.44,410,253,384,468,345
1994,-0.19,-0.97,0.15,0.37,-3.23,-2.62,406,253,384,462,347
1995,-0.21,-0.97,0.16,0.0,-2.81,-3.3,412,254,383,459,349
1996,-0.21,-0.98,0.17,3.3,-3.36,-2.32,411,253,381,466,349
1997,-0.19,-0.96,0.1,-1.95,-0.79,-6.04,410,254,384,465,349
1998,-0.17,-0.98,0.14,4.46,-1.71,-2.75,449,254,383,469,346
1999,-0.16,-0.97,0.12,-2.44,-2.99,-1.71,412,256,385,463,350
2000,-0.17,-0.97,0.11,0.73,-2.93,-3.05,412,257,381,468,350
2001,-0.17,-0.97,0.12,-0.06,-2.01,-2.38,412,254,384,462,346
2002,-0.18,-0.96,0.12,-0.49,-2.75,-3.05,411,258,380,460,347
2003,-0.18,-0.98,0.12,0.0,-3.05,-3.05,410,252,382,464,348
2004,-0.18,-0.97,0.13,0.31,-2.93,-3.6,408,256,390,469,346
2005,-0.17,-0.96,0.14,-0.43,-2.87,-2.87,413,255,387,462,350
2006,-0.17,-0.98,0.14,-0.92,-1.89,-2.69,410,253,386,463,351
2007,-0.18,-0.97,0.13,0.12,-2.32,-2.38,407,257,384,463,351
