,aX,aY,aZ,gX,gY,gZ,little,ring,middle,index,thumb
0,0.88,-0.47,-0.04,1.04,-2.32,-1.59,193,276,193,442,323
1,0.87,-0.49,-0.03,0.18,-2.75,-1.77,202,286,194,452,322
2,0.88,-0.46,-0.03,-0.61,-3.05,-0.24,200,274,195,441,326
3,0.89,-0.46,-0.02,1.59,-2.99,-1.89,207,276,187,442,325
4,0.87,-0.47,-0.02,1.22,-2.14,-4.46,204,275,177,444,328
5,0.9,-0.46,-0.02,-0.06,-2.56,-3.91,206,278,189,436,328
6,0.89,-0.46,-0.03,1.59,-2.5,-3.11,203,277,196,448,325
7,0.87,-0.47,-0.0,-0.18,-1.4,-1.95,208,277,192,448,328
8,0.9,-0.46,-0.02,1.77,2.08,-3.54,201,278,190,446,326
9,0.88,-0.47,-0.01,-0.18,-4.21,-1.89,203,279,185,448,326
10,0.86,-0.49,0.02,0.55,-7.2,-3.66,197,275,191,443,326
11,0.87,-0.49,-0.02,0.12,-2.44,3.97,210,278,188,446,326
12,0.88,-0.47,0.0,-0.43,-4.46,-0.67,203,286,195,447,325
13,0.88,-0.47,-0.02,-0.24,-2.93,-2.32,203,276,194,443,326
14,0.89,-0.46,0.01,1.28,-3.05,-1.59,204,278,192,438,329
15,0.88,-0.47,-0.01,0.0,-2.2,-1.77,206,278,194,443,332
16,0.89,-0.48,-0.01,0.12,-2.56,-3.23,204,277,192,443,331
17,0.88,-0.49,-0.01,-0.43,-2.62,-3.66,207,278,194,442,329
18,0.88,-0.48,-0.02,0.37,-2.93,-2.44,206,279,188,449,330
19,0.88,-0.48,-0.01,1.34,-3.6,-2.14,203,281,191,438,330
20,0.88,-0.47,-0.02,1.22,-3.48,-3.42,206,281,192,448,330
21,0.89,-0.47,-0.01,-0.12,-2.56,-1.4,208,278,204,446,328
22,0.88,-0.48,-0.0,-2.08,-2.62,-1.22,209,275,194,445,325
23,0.88,-0.47,0.01,-2.93,-0.85,-3.54,209,281,198,447,327
24,0.89,-0.48,0.0,0.24,-3.23,-2.14,203,280,195,448,332
25,0.87,-0.48,-0.02,0.98,-3.85,-2.81,209,276,194,442,328
26,0.89,-0.48,-0.01,1.59,-4.33,0.92,199,279,199,450,329
27,0.87,-0.49,-0.01,0.12,-2.99,-2.62,205,276,198,446,332
28,0.87,-0.49,-0.02,-0.49,-3.97,-3.23,209,281,211,439,326
29,0.87,-0.48,-0.02,1.53,-4.52,-1.89,207,280,194,449,331
30,0.86,-0.49,-0.01,-2.01,-1.95,-3.05,207,277,199,449,329
31,0.88,-0.48,-0.01,-0.12,-3.05,-2.81,206,282,198,446,331
32,0.88,-0.48,-0.01,-0.24,-3.05,-3.78,207,282,187,444,327
33,0.88,-0.48,0.0,1.89,-3.17,-2.5,207,280,203,447,331
34,0.88,-0.47,0.0,2.2,-2.26,-3.72,204,282,200,447,327
35,0.91,-0.46,0.0,6.29,-4.64,-6.23,206,277,195,443,329
36,0.87,-0.48,-0.01,1.65,-1.1,-5.19,211,290,197,444,328
37,0.88,-0.47,0.01,0.73,-2.44,-5.07,208,274,201,439,328
38,0.9,-0.46,0.0,-3.66,-2.93,-1.1,204,281,198,446,330
39,0.88,-0.47,-0.0,-0.06,-3.91,-0.98,203,280,200,439,329
40,0.88,-0.47,-0.02,0.49,-2.87,-3.6,209,281,200,444,330
41,0.89,-0.47,-0.0,1.53,-2.44,-0.92,208,282,197,448,329
42,0.88,-0.47,-0.01,0.12,-3.17,-2.38,206,284,195,448,331
43,0.89,-0.47,-0.01,3.6,-3.54,-3.36,204,282,197,448,328
44,0.89,-0.47,-0.0,0.61,-2.99,-3.48,208,279,188,447,327
45,0.89,-0.47,-0.01,2.38,-2.5,-2.99,207,279,198,444,332
46,0.88,-0.47,-0.01,2.2,-3.11,-1.89,209,281,197,449,332
47,0.88,-0.47,0.01,0.0,-2.01,-2.62,208,282,198,444,329
48,0.88,-0.49,-0.01,0.61,-2.26,-2.81,210,277,188,449,329
49,0.88,-0.48,-0.01,0.49,-3.05,-2.38,207,282,198,449,324
50,0.89,-0.47,-0.0,0.79,-2.93,-2.32,208,280,197,447,330
51,0.88,-0.48,-0.01,-0.06,-3.17,-2.5,206,280,203,446,329
52,0.87,-0.48,-0.01,0.85,-2.2,-2.87,209,273,201,442,322
53,0.88,-0.47,0.0,0.67,-2.75,-3.23,212,279,200,456,328
54,0.89,-0.47,0.0,1.04,-3.23,-2.2,203,284,198,444,330
55,0.88,-0.48,0.0,1.04,-2.56,-2.87,211,282,199,452,332
56,0.88,-0.48,-0.0,0.24,-2.32,-3.54,210,280,196,441,329
57,0.88,-0.47,-0.0,-0.43,-2.81,-1.83,206,281,205,449,330
58,0.86,-0.46,-0.01,1.1,-3.72,-2.5,209,281,199,451,325
59,0.87,-0.48,-0.01,0.0,-2.38,-3.11,205,283,199,441,325
60,0.87,-0.47,-0.01,0.61,-2.2,-2.93,206,285,195,450,329
61,0.88,-0.47,-0.01,0.06,-2.75,-3.05,206,277,201,451,328
62,0.89,-0.46,-0.0,0.06,-2.75,-3.3,206,278,207,446,331
63,0.89,-0.47,-0.0,-0.12,-2.99,-2.87,209,281,206,448,328
64,0.89,-0.46,-0.01,-0.37,-2.56,-2.62,210,281,199,444,328
65,0.89,-0.46,-0.0,-0.67,-2.87,-2.75,207,280,189,451,323
66,0.89,-0.47,-0.0,1.53,-3.78,-1.83,209,282,199,447,339
67,0.88,-0.47,-0.01,0.98,-3.17,-1.46,208,283,198,448,328
68,0.87,-0.48,-0.01,0.18,-3.11,-1.77,234,280,200,445,327
69,0.88,-0.48,-0.01,-0.18,-2.32,-2.93,207,281,201,450,331
70,0.88,-0.48,-0.02,0.18,-2.38,-3.36,213,283,201,443,329
71,0.87,-0.47,-0.0,0.18,-2.69,-3.05,210,283,199,447,330
72,0.87,-0.46,-0.0,0.61,-2.75,-2.5,207,283,199,443,330
73,0.88,-0.47,-0.01,1.46,-2.99,-2.93,212,277,205,450,328
74,0.89,-0.46,-0.0,0.49,-2.62,-2.62,206,279,201,448,325
75,0.88,-0.47,-0.01,0.55,-3.3,-1.77,210,283,199,445,333
76,0.88,-0.47,-0.0,-0.12,-3.05,-1.77,208,279,198,452,331
77,0.88,-0.48,-0.0,1.4,-3.66,-1.71,209,280,198,444,332
78,0.87,-0.48,-0.02,-0.18,-2.14,-2.93,206,278,195,440,330
79,0.87,-0.48,-0.02,0.24,-2.62,-2.81,206,281,201,448,328
80,0.88,-0.47,0.0,-0.98,-3.05,-2.69,203,281,200,446,328
81,0.9,-0.47,-0.0,-0.61,-2.69,-2.38,206,280,201,448,326
82,0.88,-0.47,-0.01,0.43,-3.11,-2.5,207,279,202,441,328
83,0.89,-0.47,-0.01,1.28,-3.11,-3.72,209,283,199,440,334
84,0.89,-0.48,-0.02,2.14,-3.66,-2.81,207,274,203,446,330
85,0.89,-0.48,-0.0,0.79,-2.99,-1.59,211,282,201,450,324
86,0.89,-0.48,-0.02,-0.37,-2.87,-1.71,206,281,203,442,326
87,0.87,-0.49,-0.0,0.12,-2.32,-3.17,207,283,197,452,331
88,0.87,-0.48,0.0,-0.37,-2.44,-2.81,208,282,200,448,326
89,0.88,-0.48,0.0,-0.37,-2.93,-2.93,208,281,203,447,325
90,0.88,-0.47,-0.0,-0.73,-2.38,-2.44,210,279,201,448,331
91,0.89,-0.48,-0.01,0.43,-2.56,-2.56,207,280,202,447,329
92,0.88,-0.48,0.0,0.06,-2.93,-2.08,207,282,207,448,333
93,0.88,-0.47,-0.0,0.12,-3.54,-1.4,208,281,205,450,331
94,0.87,-0.48,-0.01,0.55,-3.72,-1.77,207,281,196,451,327
95,0.88,-0.48,-0.01,0.24,-3.05,-2.32,210,280,202,450,329
96,0.87,-0.49,-0.01,-1.04,-2.99,-1.71,203,284,203,448,326
97,0.87,-0.49,-0.01,-0.12,-2.26,-2.56,208,280,203,448,332
98,0.89,-0.48,-0.0,0.67,-2.62,-2.87,211,284,204,448,329
99,0.88,-0.48,-0.0,-0.06,-1.95,-2.99,209,283,194,448,331
100,0.88,-0.47,-0.01,0.06,-3.23,-3.11,208,287,203,446,324
101,0.88,-0.48,-0.0,1.4,-2.87,-3.66,212,278,204,453,330
102,0.89,-0.48,-0.01,1.34,-3.05,-3.48,210,282,201,448,329
103,0.86,-0.47,-0.0,-0.49,-3.42,-1.59,208,277,203,447,326
104,0.88,-0.48,-0.01,1.16,-3.48,-2.38,210,284,203,446,333
105,0.88,-0.47,-0.01,-0.43,-2.75,-1.28,215,283,202,444,330
106,0.88,-0.48,-0.0,1.04,-2.5,-2.38,209,287,205,446,330
107,0.89,-0.49,-0.01,-0.06,-2.56,-3.3,208,282,202,445,328
108,0.87,-0.47,-0.01,0.24,-2.14,-2.26,208,282,199,451,328
109,0.89,-0.48,0.0,1.46,-2.87,-2.75,205,282,207,443,331
110,0.88,-0.46,0.0,0.73,-3.11,-1.89,207,284,202,445,329
111,0.89,-0.48,-0.01,0.24,-3.3,-3.11,207,281,199,451,331
112,0.88,-0.48,0.0,0.61,-2.93,-3.05,212,281,202,450,330
113,0.89,-0.48,0.01,0.98,-2.32,-3.23,208,284,202,439,327
114,0.88,-0.5,0.0,-0.61,-1.89,-1.89,208,284,202,442,332
115,0.87,-0.49,0.01,-0.61,-1.53,-2.44,209,286,208,454,331
116,0.88,-0.49,0.01,0.92,-2.81,-3.48,210,281,201,447,325
117,0.87,-0.48,-0.0,1.04,-2.32,-2.75,214,284,195,448,332
118,0.88,-0.48,0.01,-0.06,-3.91,-2.08,211,283,201,449,329
119,0.88,-0.49,0.0,0.43,-3.48,-1.22,210,283,202,446,326
120,0.88,-0.48,-0.0,-0.49,-2.99,-1.95,201,285,204,447,332
121,0.88,-0.49,0.0,0.67,-3.6,-2.75,211,280,206,442,332
122,0.87,-0.48,0.0,0.06,-2.69,-2.32,205,286,204,450,331
123,0.88,-0.48,0.01,1.04,-3.48,-3.05,211,285,202,455,327
124,0.87,-0.48,0.0,0.06,-2.56,-2.99,211,288,204,446,328
125,0.87,-0.48,0.0,0.92,-2.56,-2.81,211,285,202,452,329
126,0.88,-0.47,0.0,0.0,-3.05,-2.32,209,281,201,445,323
127,0.88,-0.48,0.01,0.61,-2.81,-2.62,211,284,205,452,330
128,0.9,-0.48,0.01,0.18,-3.3,-2.26,213,282,210,449,331
129,0.87,-0.49,0.01,-0.49,-2.87,-1.77,210,285,208,441,328
130,0.87,-0.49,-0.0,0.12,-3.17,-2.56,211,290,207,455,328
131,0.88,-0.48,0.0,-0.24,-2.75,-2.26,208,276,205,448,329
132,0.87,-0.48,-0.0,-0.24,-2.69,-2.5,212,279,208,451,329
133,0.88,-0.48,0.0,0.0,-2.56,-3.3,211,283,209,450,324
134,0.89,-0.48,0.01,-0.12,-3.17,-3.11,210,283,198,448,330
135,0.88,-0.47,0.01,0.79,-2.87,-2.08,216,288,205,450,329
136,0.87,-0.48,0.02,0.24,-2.69,-2.32,210,292,204,450,328
137,0.88,-0.47,-0.0,2.26,-3.6,-2.87,214,290,203,448,330
138,0.87,-0.47,-0.0,0.49,-4.33,-2.62,214,285,193,448,330
139,0.88,-0.47,0.01,1.22,-2.44,-2.08,208,285,207,446,326
140,0.88,-0.48,0.0,0.49,-2.87,-2.38,210,280,200,437,328
141,0.88,-0.47,0.0,-0.61,-2.99,-3.3,214,287,202,446,328
142,0.89,-0.46,0.01,1.65,-2.69,-4.58,208,283,205,450,330
143,0.88,-0.48,0.02,0.31,-2.75,-3.72,214,277,202,445,332
144,0.89,-0.46,0.01,0.12,-3.6,-2.08,212,285,200,447,331
145,0.88,-0.46,0.02,-1.95,-3.3,0.06,209,288,210,442,329
146,0.89,-0.47,0.01,-1.83,-3.54,-2.01,210,283,206,445,329
147,0.88,-0.47,0.01,-1.16,-2.44,-3.05,215,282,205,451,330
148,0.87,-0.48,0.01,-3.6,-0.85,-3.72,211,281,208,445,329
149,0.89,-0.46,0.03,-4.03,-1.77,-2.56,206,286,209,449,331
150,0.9,-0.46,-0.0,0.49,-4.21,-3.85,209,285,204,449,333
151,0.89,-0.44,-0.0,-1.28,-3.97,-1.71,206,286,202,442,330
152,0.87,-0.48,0.01,2.01,-6.53,1.28,208,284,208,448,332
153,0.89,-0.47,0.0,1.53,-5.19,-0.49,205,283,207,453,330
154,0.88,-0.49,-0.02,-0.67,-2.87,-1.4,211,281,205,443,328
155,0.87,-0.49,-0.01,0.49,-3.42,-2.69,212,282,205,445,325
156,0.87,-0.49,-0.02,-0.55,-3.48,-2.26,209,287,205,445,332
157,0.88,-0.48,-0.01,-0.24,-2.56,-2.32,212,293,208,446,329
158,0.91,-0.47,0.0,0.0,-1.83,-2.69,209,286,211,446,330
159,0.86,-0.5,0.0,-1.77,-4.76,-0.24,207,282,204,448,330
160,0.9,-0.45,-0.0,4.7,-1.77,-1.71,211,286,207,444,330
161,0.91,-0.44,-0.01,5.37,-4.39,-3.23,207,283,204,448,328
162,0.88,-0.47,0.01,-0.24,-2.2,-1.34,208,284,205,451,326
163,0.89,-0.47,-0.01,-2.69,-2.5,0.24,210,283,199,453,329
164,0.89,-0.47,-0.01,-1.77,-2.81,0.31,209,278,201,449,326
165,0.85,-0.49,-0.01,0.61,-1.95,-3.23,210,285,203,451,328
166,0.87,-0.49,-0.04,-1.16,-0.55,-7.57,214,285,213,445,327
167,0.93,-0.42,0.02,1.34,-0.85,-3.48,211,283,204,450,331
168,0.91,-0.43,0.03,3.23,-2.44,-2.75,209,284,204,447,331
169,0.9,-0.44,-0.0,-0.61,-3.36,-3.54,216,279,209,448,334
170,0.9,-0.44,0.01,3.3,-1.53,-1.89,207,284,206,439,332
171,0.9,-0.45,0.02,-0.85,-4.33,-4.7,210,291,209,448,329
172,0.9,-0.44,0.02,1.22,-3.97,-2.56,211,284,207,445,330
173,0.9,-0.44,0.01,1.46,-3.42,-2.5,208,285,205,447,329
174,0.89,-0.45,0.01,-0.49,-2.01,-2.01,210,285,207,451,333
175,0.89,-0.44,0.02,0.37,-3.05,-2.81,211,284,209,448,325
176,0.9,-0.44,0.01,0.61,-2.62,-2.38,211,285,208,450,331
177,0.9,-0.43,0.02,0.67,-2.08,-2.99,214,280,207,443,332
178,0.9,-0.43,0.03,0.98,-2.99,-2.81,210,278,202,450,328
179,0.91,-0.45,0.03,0.73,-2.44,-4.27,217,283,206,453,330
180,0.89,-0.44,0.02,0.61,-1.77,-3.11,211,283,209,451,329
181,0.9,-0.44,0.02,0.18,-3.23,-2.62,211,286,203,448,332
182,0.9,-0.45,0.02,0.67,-3.11,-2.69,211,285,207,450,328
183,0.91,-0.44,0.02,0.67,-3.17,-2.56,211,299,204,450,330
184,0.9,-0.44,0.03,1.34,-2.69,-2.75,211,279,209,444,329
185,0.89,-0.44,0.01,0.12,-2.87,-3.36,211,279,207,451,331
186,0.91,-0.43,0.01,1.22,-3.17,-2.56,210,286,206,446,331
187,0.89,-0.45,0.02,0.43,-2.75,-1.89,210,285,214,452,328
188,0.89,-0.45,0.02,-0.24,-3.17,-4.94,212,283,208,448,329
189,0.9,-0.44,0.03,-0.18,-1.95,-2.38,215,285,209,450,333
190,0.89,-0.45,0.03,0.06,-2.93,-3.54,209,287,209,453,328
191,0.89,-0.44,0.03,1.77,-3.36,-2.93,212,284,205,452,331
192,0.89,-0.44,0.04,0.06,-2.62,-3.6,210,287,205,452,328
193,0.91,-0.43,0.03,1.34,-3.17,-2.44,210,281,208,444,330
194,0.91,-0.44,0.02,-0.61,-2.32,-2.62,213,288,208,446,327
195,0.9,-0.43,0.02,1.65,-3.11,-3.05,210,284,206,457,331
196,0.9,-0.43,0.03,0.49,-2.62,-2.99,215,289,205,448,330
197,0.9,-0.43,0.03,0.67,-2.93,-2.69,214,284,211,443,330
198,0.9,-0.43,0.03,0.67,-2.38,-2.99,211,284,208,448,333
199,0.91,-0.43,0.03,-1.28,-3.42,-1.95,216,284,210,452,328
200,0.91,-0.43,0.03,0.49,-2.81,-2.38,208,294,198,444,334
201,0.9,-0.43,0.03,0.43,-2.99,-2.69,211,285,206,451,330
202,0.9,-0.43,0.03,0.85,-3.48,-2.56,211,284,208,443,331
203,0.91,-0.44,0.03,0.49,-2.38,-2.75,210,287,222,454,329
204,0.91,-0.44,0.02,0.61,-2.44,-3.36,210,282,205,446,332
205,0.9,-0.43,0.02,0.12,-2.81,-2.93,211,284,202,451,328
206,0.91,-0.43,0.03,0.24,-3.11,-2.81,213,282,208,449,332
207,0.91,-0.43,0.03,0.73,-2.81,-2.75,213,287,211,450,332
208,0.91,-0.44,0.03,0.24,-3.17,-2.93,214,285,212,455,331
209,0.91,-0.43,0.03,-0.43,-2.56,-2.38,211,281,207,450,332
210,0.9,-0.44,0.03,-0.12,-3.05,-2.93,210,286,208,455,331
211,0.9,-0.43,0.03,0.0,-3.36,-2.08,215,281,210,450,329
212,0.9,-0.43,0.03,1.04,-2.32,-2.26,211,285,211,455,331
213,0.9,-0.44,0.03,0.73,-3.36,-2.81,212,286,199,448,327
214,0.9,-0.43,0.02,-0.67,-2.56,-2.99,211,285,207,449,332
215,0.9,-0.43,0.02,0.31,-3.23,-2.26,214,283,204,453,330
216,0.9,-0.43,0.03,-0.06,-2.2,-2.44,220,287,206,451,332
217,0.9,-0.43,0.03,0.18,-2.99,-2.56,211,287,213,456,329
218,0.9,-0.43,0.03,0.31,-2.62,-2.69,212,286,210,450,331
219,0.9,-0.43,0.03,0.85,-3.54,-2.44,213,286,213,452,335
220,0.9,-0.44,0.03,0.98,-3.17,-2.75,210,278,208,451,331
221,0.9,-0.43,0.03,0.0,-3.3,-2.01,216,285,211,452,330
222,0.9,-0.43,0.02,-0.55,-2.38,-2.69,212,286,207,453,330
223,0.91,-0.43,0.02,0.85,-3.05,-3.11,211,287,214,446,329
224,0.9,-0.44,0.02,-0.43,-2.62,-1.83,207,289,212,450,332
225,0.9,-0.43,0.03,-0.18,-2.44,-2.2,214,287,209,454,330
226,0.9,-0.43,0.03,-0.24,-2.69,-2.62,212,286,209,451,331
227,0.9,-0.43,0.03,-0.43,-2.69,-2.08,212,288,209,447,328
228,0.9,-0.43,0.02,0.61,-3.36,-2.44,213,285,201,456,329
229,0.9,-0.44,0.02,0.43,-3.42,-2.5,215,280,208,450,331
230,0.89,-0.43,0.03,-0.06,-2.2,-1.71,213,285,212,451,333
231,0.9,-0.43,0.03,0.18,-2.99,-2.62,217,286,209,449,330
232,0.9,-0.43,0.03,0.12,-2.56,-3.23,212,289,211,452,330
233,0.9,-0.43,0.03,-0.06,-2.69,-2.56,206,284,209,455,326
234,0.91,-0.43,0.03,0.79,-2.62,-2.81,213,288,207,450,333
235,0.9,-0.44,0.03,-0.49,-2.99,-2.26,209,285,209,452,330
236,0.89,-0.43,0.02,0.12,-2.62,-2.44,211,288,202,455,331
237,0.9,-0.43,0.03,0.85,-3.36,-2.01,214,288,210,454,324
238,0.91,-0.43,0.03,0.79,-3.11,-1.77,211,285,207,455,327
239,0.9,-0.43,0.03,1.04,-2.87,-3.6,209,283,208,450,332
240,0.91,-0.43,0.03,1.04,-2.99,-3.66,213,284,212,445,332
241,0.9,-0.43,0.02,1.65,-2.87,-3.54,215,289,215,455,334
242,0.9,-0.43,0.02,2.2,-3.6,-4.09,215,285,209,451,330
243,0.92,-0.42,0.03,0.55,-3.05,-2.26,210,282,209,451,331
244,0.92,-0.42,0.04,1.65,-2.75,-4.76,209,288,207,452,332
245,0.89,-0.44,0.01,-0.61,-3.3,-1.46,213,285,204,448,333
246,0.9,-0.43,0.03,-0.18,-3.23,-1.22,212,289,209,446,331
247,0.91,-0.43,0.03,0.12,-2.14,-3.48,212,290,210,452,332
248,0.91,-0.44,0.02,0.55,-3.54,-2.32,212,286,211,447,333
249,0.91,-0.43,0.02,1.83,-3.36,-2.44,214,285,216,455,327
250,0.91,-0.43,0.03,1.1,-2.69,-2.81,211,283,208,450,331
251,0.9,-0.43,0.02,1.59,-3.78,-2.32,211,288,208,452,331
252,0.9,-0.42,0.03,-0.49,-3.05,-2.62,213,287,205,456,332
253,0.9,-0.43,0.02,1.22,-3.3,-2.87,212,289,214,450,336
254,0.9,-0.44,0.02,0.92,-4.09,-2.99,206,283,211,455,331
255,0.9,-0.43,0.02,-0.24,-2.56,-2.08,216,289,211,452,331
256,0.9,-0.44,0.02,-0.24,-2.56,-2.56,214,285,209,453,331
257,0.89,-0.43,0.02,0.12,-2.62,-2.44,209,289,213,451,330
258,0.9,-0.44,0.02,1.22,-2.81,-2.93,213,287,213,446,327
259,0.9,-0.44,0.02,0.06,-2.75,-3.48,207,287,213,454,330
260,0.91,-0.43,0.02,-0.18,-2.38,-2.14,205,288,211,456,331
261,0.9,-0.44,0.04,1.28,-2.75,-3.78,212,285,210,460,331
262,0.9,-0.43,0.02,1.53,-3.05,-2.5,211,291,215,449,331
263,0.91,-0.42,0.03,1.71,-3.3,-3.3,208,287,209,454,331
264,0.92,-0.41,0.02,1.4,-2.87,-2.5,209,284,209,448,332
265,0.9,-0.44,0.02,0.18,-3.17,-3.3,211,285,211,454,334
266,0.92,-0.43,0.02,0.79,-2.99,-3.05,213,285,205,450,328
267,0.9,-0.43,0.03,-0.55,-2.5,-1.77,212,288,211,447,333
268,0.9,-0.43,0.03,-0.18,-2.81,-2.44,210,283,208,447,331
269,0.9,-0.42,0.03,0.31,-3.05,-2.5,205,288,209,453,328
270,0.9,-0.43,0.02,-0.06,-3.23,-2.32,210,285,202,453,331
271,0.91,-0.43,0.03,1.04,-3.11,-2.56,207,283,208,448,332
272,0.91,-0.42,0.03,1.34,-2.87,-2.75,205,287,212,454,330
273,0.9,-0.43,0.03,-0.73,-3.42,-2.44,207,287,211,453,331
274,0.92,-0.43,0.03,2.2,-2.38,-3.72,208,290,212,450,332
275,0.9,-0.44,0.03,0.06,-2.99,-2.99,213,286,215,455,333
276,0.89,-0.44,0.03,-0.12,-3.85,-2.38,214,284,208,454,331
277,0.9,-0.44,0.03,0.0,-2.62,-1.89,220,287,205,453,331
278,0.91,-0.44,0.02,1.53,-2.56,-3.85,208,284,211,453,331
279,0.91,-0.43,0.03,1.04,-2.99,-3.23,214,288,208,455,331
280,0.91,-0.43,0.03,0.73,-3.11,-1.77,217,290,203,452,332
281,0.9,-0.44,0.03,-0.18,-2.14,-2.38,211,278,207,450,335
282,0.9,-0.43,0.03,0.0,-3.3,-1.1,215,290,212,456,334
283,0.9,-0.43,0.03,-0.24,-2.2,-3.17,210,283,209,454,328
284,0.91,-0.42,0.02,0.06,-2.38,-2.56,210,288,209,445,332
285,0.9,-0.42,0.03,0.24,-3.05,-2.32,213,287,207,456,332
286,0.89,-0.44,0.02,0.31,-3.91,-2.26,211,283,212,451,330
287,0.91,-0.42,0.03,0.73,-2.81,-2.08,216,285,211,451,332
288,0.9,-0.43,0.04,-3.66,-0.06,-0.73,212,289,208,464,332
289,0.92,-0.41,0.02,-0.18,-1.77,-2.99,218,291,212,452,330
290,0.91,-0.42,0.02,2.56,-3.72,-2.81,212,286,212,452,329
291,0.9,-0.43,0.01,0.0,-3.3,-2.56,214,286,206,454,333
292,0.91,-0.42,0.0,0.85,-2.93,-2.56,209,285,210,463,331
293,0.89,-0.42,0.0,2.56,-4.94,-2.81,216,287,209,451,329
294,0.91,-0.42,0.02,0.49,-2.87,-2.5,215,289,208,455,334
295,0.92,-0.42,0.03,1.77,-3.05,-3.05,213,294,208,454,335
296,0.91,-0.42,0.03,1.4,-2.87,-2.32,211,290,207,453,331
297,0.91,-0.43,0.01,0.37,-3.11,-1.71,213,288,214,457,331
298,0.91,-0.44,0.01,0.49,-3.6,-3.78,213,285,209,451,333
299,0.91,-0.42,0.01,0.24,-2.69,-2.87,214,288,218,454,331
300,0.91,-0.45,0.02,-1.46,-2.5,-3.85,213,286,210,453,330
301,0.9,-0.42,0.02,0.67,-3.11,-1.83,214,295,217,451,330
302,0.91,-0.43,0.02,-0.06,-3.23,-2.26,214,291,213,456,329
303,0.9,-0.43,0.02,0.37,-2.93,-1.59,212,286,211,451,330
304,0.91,-0.42,0.01,0.55,-3.3,-3.05,213,286,205,451,333
305,0.9,-0.42,0.02,1.04,-3.23,-2.08,214,287,209,451,331
306,0.9,-0.46,0.01,-0.06,-1.95,-2.93,215,286,209,452,328
307,0.87,-0.46,0.0,0.49,-1.46,-3.78,215,291,212,452,333
308,0.93,-0.4,0.03,2.56,-3.05,-1.1,212,283,211,453,334
309,0.88,-0.47,-0.03,-5.37,-4.46,1.77,212,286,211,457,329
310,0.84,-0.49,0.01,1.46,-3.54,-6.1,241,286,212,452,335
311,0.88,-0.46,-0.01,-0.61,-2.14,-3.97,212,286,212,453,331
312,0.85,-0.48,0.03,-4.52,-3.85,-0.67,213,289,205,451,332
313,0.89,-0.47,0.03,-0.12,-3.91,-1.46,212,288,211,452,331
314,0.9,-0.44,-0.0,-0.98,-2.08,-1.53,212,283,206,456,330
315,0.9,-0.45,0.04,2.56,-2.62,-2.56,214,288,211,450,333
316,0.9,-0.44,0.01,1.22,-3.3,-3.3,213,286,212,449,330
317,0.9,-0.45,0.01,0.43,-3.85,-2.14,214,289,211,456,332
318,0.89,-0.45,0.01,1.1,-2.87,-1.83,214,286,208,445,332
319,0.9,-0.44,0.03,0.67,-3.23,-2.62,211,299,217,451,334
320,0.9,-0.45,0.02,1.46,-3.3,-1.71,209,288,214,452,333
321,0.89,-0.45,0.01,2.01,-4.58,-1.53,215,280,210,449,335
322,0.89,-0.46,0.01,1.77,-3.11,-2.75,214,290,213,452,329
323,0.89,-0.46,0.01,0.79,-3.11,-2.5,215,285,215,451,334
324,0.89,-0.46,0.01,-1.4,-2.87,-2.38,212,286,209,453,330
325,0.88,-0.44,0.02,0.31,-2.99,-2.44,211,287,209,454,330
326,0.89,-0.46,0.01,-0.67,-3.48,-2.62,213,289,211,453,331
327,0.9,-0.45,0.02,0.61,-3.17,-2.38,211,293,213,454,329
328,0.9,-0.46,0.01,1.83,-3.42,-2.87,206,289,213,449,328
329,0.88,-0.45,0.02,1.46,-3.42,-2.56,213,288,209,453,332
330,0.89,-0.47,0.01,1.28,-3.17,-2.32,213,286,212,452,332
331,0.89,-0.46,0.03,-0.06,-2.01,-1.59,215,287,213,448,330
332,0.87,-0.48,0.0,0.12,-2.5,-3.78,211,285,211,450,336
333,0.9,-0.45,0.03,-0.73,-2.38,-5.07,213,289,210,456,335
334,0.9,-0.45,0.03,0.0,-2.44,-2.69,210,285,209,451,333
335,0.9,-0.45,0.03,0.61,-3.05,-1.65,211,286,203,455,333
336,0.89,-0.48,0.03,0.92,-2.69,-3.42,214,290,203,453,334
337,0.89,-0.45,0.02,0.24,-3.42,-2.99,215,285,211,454,331
338,0.88,-0.46,0.02,0.73,-4.03,-2.2,212,286,199,451,333
339,0.87,-0.48,0.01,0.43,-3.6,-2.87,212,286,215,461,335
340,0.89,-0.46,0.03,-0.67,-3.23,-2.26,211,289,212,447,337
341,0.9,-0.45,0.03,1.71,-2.32,-1.95,215,288,207,455,331
342,0.9,-0.45,0.03,0.06,-2.69,-1.53,208,286,208,456,334
343,0.9,-0.45,0.01,-0.61,-2.14,-2.14,209,286,216,452,327
344,0.91,-0.44,0.02,0.85,-2.44,-1.65,209,285,200,452,333
345,0.9,-0.45,0.01,0.31,-2.93,-0.61,213,286,210,455,332
346,0.89,-0.46,0.01,0.92,-2.14,-4.52,209,286,212,445,332
347,0.89,-0.45,0.02,0.61,-2.93,-4.88,213,288,209,446,333
348,0.9,-0.43,0.02,-0.49,-2.08,-2.38,221,286,209,448,331
349,0.91,-0.44,0.03,-2.01,-2.99,-1.34,210,287,214,450,330
350,0.91,-0.43,0.03,0.24,-2.75,-3.05,212,287,214,451,328
351,0.9,-0.44,0.02,-0.49,-2.62,-2.2,213,285,210,453,329
352,0.89,-0.44,0.04,0.0,-1.95,-2.62,210,281,213,449,332
353,0.89,-0.44,0.03,0.61,-3.23,-2.75,214,286,208,456,333
354,0.89,-0.45,0.01,1.1,-3.11,-1.95,211,287,204,447,330
355,0.9,-0.44,0.01,0.92,-3.42,-1.59,214,287,206,455,333
356,0.91,-0.45,0.02,0.92,-2.69,-3.17,215,290,213,455,333
357,0.89,-0.45,0.01,0.61,-2.44,-3.17,212,288,210,454,330
358,0.89,-0.44,0.02,0.0,-2.56,-1.65,211,287,211,447,334
359,0.9,-0.45,0.02,0.24,-2.69,-2.32,212,289,211,465,333
360,0.89,-0.45,0.02,-0.12,-2.87,-2.56,211,291,213,452,328
361,0.89,-0.45,0.02,-0.24,-2.81,-2.2,209,288,207,455,332
362,0.89,-0.45,0.03,0.37,-2.38,-2.75,214,287,209,448,325
363,0.89,-0.45,0.02,-0.49,-2.2,-4.09,211,288,215,456,330
364,0.91,-0.42,0.01,1.83,-2.44,-1.77,214,288,201,449,332
365,0.91,-0.44,0.02,1.16,-2.69,-2.01,211,287,215,457,327
366,0.89,-0.44,0.02,0.79,-3.11,-2.62,211,289,213,449,330
367,0.9,-0.44,0.02,0.43,-3.23,-2.5,213,289,213,453,328
368,0.89,-0.45,0.02,-0.61,-2.56,-2.81,215,286,214,454,332
369,0.9,-0.45,0.03,0.37,-1.28,-3.42,213,293,212,456,331
370,0.91,-0.43,0.02,1.16,-0.85,-2.69,210,288,212,451,333
371,0.9,-0.44,0.03,0.31,-2.5,-2.56,215,285,213,457,327
372,0.9,-0.44,0.04,-0.79,-3.23,-1.53,211,288,212,454,331
373,0.9,-0.44,0.03,0.49,-3.85,-1.34,210,289,213,452,329
374,0.89,-0.45,0.03,1.95,-3.05,-2.5,213,282,216,454,332
375,0.9,-0.44,0.04,-0.92,-3.72,-1.4,216,286,215,456,327
376,0.9,-0.45,0.02,-0.06,-2.93,-1.04,212,286,212,453,329
377,0.9,-0.45,0.03,0.79,-2.93,-1.22,218,286,218,448,333
378,0.89,-0.46,0.02,0.79,-3.05,-1.77,215,287,217,448,331
379,0.89,-0.47,0.01,0.55,-3.11,-2.38,212,286,213,459,330
380,0.89,-0.46,0.02,0.37,-2.2,-3.36,211,287,208,453,333
381,0.89,-0.45,0.02,0.55,-3.3,-5.74,212,288,210,455,331
382,0.88,-0.45,-0.0,4.03,-2.38,-10.56,214,287,202,457,333
383,0.92,-0.41,0.03,-2.32,-1.89,-0.79,212,286,211,451,332
384,0.89,-0.43,0.01,2.2,-4.09,-3.3,215,285,212,446,334
385,0.89,-0.43,0.03,-2.38,-1.59,-3.3,211,280,213,453,333
386,0.92,-0.39,0.06,0.37,-2.62,-2.69,212,292,213,456,332
387,0.9,-0.41,0.03,-1.71,-2.32,-1.53,215,289,211,451,332
388,0.91,-0.4,0.02,-1.77,-2.93,-0.92,214,288,214,455,332
389,0.91,-0.41,0.03,-0.73,-0.67,-2.62,209,288,212,454,331
390,0.87,-0.47,0.04,-2.26,-3.23,-6.41,213,288,217,455,329
391,0.92,-0.41,0.05,0.31,-2.56,-2.14,212,291,217,455,330
392,0.91,-0.41,0.05,-0.24,-2.93,-0.55,216,286,210,452,331
393,0.91,-0.44,0.05,-0.31,-3.11,-1.59,212,285,214,452,334
394,0.89,-0.43,0.04,-0.79,-3.97,-1.4,217,289,212,453,327
395,0.9,-0.42,0.05,0.73,-3.36,-0.85,214,283,204,454,332
396,0.89,-0.43,0.04,-0.85,-3.72,-1.77,212,284,214,453,334
397,0.91,-0.42,0.03,1.04,-3.54,-4.33,215,289,203,457,326
398,0.9,-0.44,0.03,-1.46,-3.97,-1.77,212,289,209,449,341
399,0.9,-0.45,0.03,5.31,-3.66,-2.08,212,290,207,453,332
400,0.9,-0.45,0.02,2.01,-4.09,-1.28,213,283,216,454,332
401,0.91,-0.44,0.02,-0.49,-2.81,-0.79,209,290,208,456,333
402,0.87,-0.48,0.02,-0.12,-1.04,-2.44,213,287,210,452,331
403,0.88,-0.47,0.02,2.01,-2.5,-2.32,212,289,215,453,332
404,0.88,-0.48,0.03,-0.73,-1.16,-2.99,213,287,216,453,334
405,0.87,-0.48,0.03,-0.73,-2.32,-1.28,212,286,213,454,330
406,0.88,-0.48,0.03,-0.24,-2.75,-0.98,212,289,210,451,328
407,0.89,-0.47,0.03,-0.24,-2.87,-2.38,212,288,215,457,331
408,0.89,-0.47,0.02,2.5,-3.48,-3.78,214,285,209,454,332
409,0.89,-0.49,0.03,0.37,-2.75,-4.76,212,282,211,451,331
410,0.88,-0.47,0.02,0.18,-3.17,-2.87,217,290,209,452,329
411,0.88,-0.48,0.02,0.37,-2.81,-2.69,213,292,210,456,332
412,0.87,-0.47,0.03,-1.1,-1.53,-2.93,213,287,219,455,330
413,0.89,-0.46,0.03,-0.18,-2.26,-3.17,215,287,212,453,335
414,0.9,-0.46,0.04,-0.37,-3.05,-2.2,213,283,211,452,329
415,0.88,-0.46,0.03,0.43,-3.05,-2.08,213,288,216,444,333
416,0.88,-0.48,0.02,1.1,-2.93,-3.11,214,290,213,455,334
417,0.88,-0.47,0.02,-0.37,-2.99,-2.14,211,289,215,457,332
418,0.89,-0.46,0.02,-0.24,-3.85,-1.77,211,292,208,454,327
419,0.9,-0.46,0.03,0.55,-2.81,-3.23,212,290,212,455,330
420,0.87,-0.48,0.01,0.98,-4.21,-3.3,213,288,215,453,331
421,0.89,-0.46,0.04,0.85,-2.38,-1.34,224,285,209,461,331
422,0.89,-0.47,0.03,-0.06,-3.97,-1.59,218,288,211,452,333
423,0.89,-0.47,0.01,-0.24,-3.48,-3.36,214,287,213,454,331
424,0.89,-0.46,0.03,0.67,-2.69,-3.48,217,286,216,452,330
425,0.9,-0.45,0.01,0.37,-3.42,-3.23,244,285,215,456,332
426,0.89,-0.46,0.04,0.43,-3.23,-3.42,216,284,211,452,332
427,0.9,-0.45,0.02,2.14,-2.81,-2.14,212,298,214,455,328
428,0.89,-0.45,0.02,-0.85,-2.81,-2.38,243,290,219,456,330
429,0.9,-0.46,-0.0,0.85,-3.05,-6.59,222,292,216,448,332
430,0.9,-0.44,0.02,0.85,-2.69,-3.05,213,287,209,453,335
431,0.9,-0.44,0.02,0.31,-2.99,-2.75,218,286,217,453,330
432,0.9,-0.45,0.03,2.01,-3.97,-4.58,210,284,209,457,331
433,0.91,-0.43,0.02,1.95,-2.01,-2.38,211,289,210,450,332
434,0.89,-0.46,0.01,1.4,-2.81,-3.42,211,286,215,450,333
435,0.91,-0.44,0.03,1.04,-1.59,-1.16,208,285,209,457,333
436,0.89,-0.46,0.02,0.31,-2.93,-3.6,209,288,210,453,333
437,0.88,-0.46,0.02,0.24,-2.81,-2.69,210,289,212,453,333
438,0.89,-0.46,0.03,0.24,-2.32,-2.81,207,283,214,452,330
439,0.89,-0.46,0.03,0.37,-2.62,-2.81,212,287,213,451,333
440,0.89,-0.46,0.02,0.06,-2.81,-2.99,213,285,209,454,332
441,0.9,-0.45,0.02,1.34,-2.93,-2.26,214,289,214,457,330
442,0.89,-0.46,0.01,-0.92,-2.87,-2.14,212,282,216,452,333
443,0.89,-0.45,0.02,0.43,-3.3,-2.44,212,283,212,453,335
444,0.88,-0.47,0.02,-0.61,-2.56,-1.89,212,288,213,448,332
445,0.89,-0.46,0.02,-1.22,-2.26,-2.5,212,292,217,458,332
446,0.89,-0.46,0.02,-0.18,-3.36,-3.36,217,288,210,454,332
447,0.9,-0.45,0.02,0.18,-2.44,-2.5,215,291,212,457,331
448,0.9,-0.45,0.02,0.73,-3.17,-3.05,214,286,208,449,333
449,0.9,-0.46,0.02,-0.31,-3.11,-2.26,212,288,212,460,331
450,0.89,-0.46,0.02,0.67,-3.6,-2.69,215,287,213,452,332
451,0.88,-0.46,0.03,2.99,-4.7,-2.01,210,290,215,456,329
452,0.88,-0.46,0.01,0.61,-2.99,-2.14,216,286,213,456,331
453,0.89,-0.46,0.03,-0.67,-2.2,-3.23,213,286,213,452,333
454,0.9,-0.45,0.02,-0.37,-2.44,-2.87,213,294,213,453,339
455,0.89,-0.45,0.02,0.12,-2.81,-2.62,213,289,211,453,331
456,0.9,-0.44,0.02,0.85,-3.05,-2.32,213,288,212,451,331
457,0.9,-0.44,0.02,0.79,-3.3,-2.08,213,282,213,458,330
458,0.9,-0.44,0.02,-0.12,-2.08,-2.87,215,289,213,454,332
459,0.9,-0.45,0.03,1.28,-4.33,-2.75,215,297,212,449,334
460,0.89,-0.45,0.02,0.37,-2.93,-2.75,217,288,213,457,332
461,0.91,-0.48,0.01,-0.61,-1.34,-2.87,210,288,213,456,332
462,0.89,-0.46,0.02,-1.28,-2.44,-1.77,211,289,211,455,335
463,0.89,-0.45,0.02,-0.61,-2.99,-2.14,213,283,216,458,333
464,0.89,-0.44,0.03,0.12,-2.62,-2.5,213,292,214,456,332
465,0.9,-0.45,0.03,0.73,-2.38,-2.99,210,284,210,452,332
466,0.89,-0.45,0.02,-0.06,-3.72,-2.5,212,286,214,456,329
467,0.89,-0.45,0.02,1.04,-3.17,-3.3,213,286,214,457,338
468,0.89,-0.46,0.02,1.28,-2.75,-2.87,210,284,212,455,333
469,0.89,-0.46,0.02,1.22,-3.97,-2.2,210,288,214,455,327
470,0.9,-0.42,0.03,1.65,-2.93,-1.89,211,287,226,449,330
471,0.88,-0.46,0.04,-1.71,-3.66,-2.62,214,293,212,447,335
472,0.93,-0.43,0.02,4.39,-3.11,-4.88,210,293,212,458,332
473,0.89,-0.46,0.02,0.0,-3.66,-3.85,212,287,216,453,332
474,0.85,-0.48,0.04,-2.5,-3.85,-3.17,210,287,217,452,329
475,0.88,-0.45,0.04,0.67,-1.53,-3.91,213,285,211,457,331
476,0.91,-0.43,0.02,1.77,-3.66,-3.3,210,286,216,460,332
477,0.89,-0.44,0.04,0.73,-0.43,-3.23,214,289,215,454,326
478,0.91,-0.45,0.03,-0.79,-0.61,-5.74,215,291,216,451,327
479,0.92,-0.43,0.02,-0.31,-4.76,-2.75,214,287,212,454,332
480,0.89,-0.43,0.03,1.65,-2.08,-2.93,215,289,211,454,333
481,0.93,-0.42,0.04,3.36,-5.0,-3.36,215,290,217,456,329
482,0.9,-0.44,0.02,-2.2,-2.69,0.55,212,289,214,449,330
483,0.9,-0.44,-0.0,0.31,-3.72,-2.87,220,288,214,457,332
484,0.89,-0.46,0.0,-1.53,-2.87,-1.95,214,287,212,454,329
485,0.85,-0.48,0.0,-3.6,-3.05,-0.12,212,283,214,457,329
486,0.89,-0.46,0.0,-0.31,-2.08,-2.2,214,287,212,453,329
487,0.89,-0.43,-0.02,2.99,-4.88,-0.49,214,286,216,450,326
488,0.88,-0.44,0.03,1.1,-2.32,-2.69,215,286,208,457,328
489,0.9,-0.46,0.02,-0.49,-2.01,-3.23,212,286,212,457,330
490,0.89,-0.46,-0.0,-1.34,-2.87,-2.14,215,287,211,454,331
491,0.88,-0.47,0.0,0.18,-3.17,-2.56,210,286,216,453,330
492,0.9,-0.45,0.0,2.2,-3.72,-0.67,215,290,212,456,326
493,0.89,-0.47,0.01,0.43,-2.62,-2.08,211,285,215,454,333
494,0.9,-0.45,0.0,1.65,-4.21,-4.88,211,286,209,459,330
495,0.89,-0.47,-0.0,0.37,-3.42,-1.22,215,290,215,457,328
496,0.88,-0.47,-0.01,1.04,-1.95,-4.09,214,286,206,456,328
497,0.89,-0.47,-0.0,0.79,-2.32,-3.05,215,291,213,461,341
498,0.88,-0.47,0.01,-0.92,-2.32,-1.59,215,287,213,454,331
499,0.89,-0.47,-0.0,-0.12,-2.93,-2.38,213,290,211,456,332
500,0.89,-0.47,0.01,-2.93,-1.83,-1.95,213,290,213,456,327
501,0.88,-0.47,0.01,-0.73,-2.75,-2.75,210,287,215,455,330
502,0.88,-0.48,-0.0,0.06,-2.93,-2.99,218,286,218,451,332
503,0.88,-0.48,0.0,0.31,-2.99,-2.75,214,287,213,454,332
504,0.89,-0.47,-0.0,0.31,-2.62,-3.05,212,283,215,458,329
505,0.9,-0.46,0.01,-0.24,-3.05,-1.28,214,286,214,455,329
506,0.88,-0.47,-0.04,1.04,-2.32,-1.59,193,276,193,442,323
507,0.87,-0.49,-0.03,0.18,-2.75,-1.77,202,286,194,452,322
508,0.88,-0.46,-0.03,-0.61,-3.05,-0.24,200,274,195,441,326
509,0.89,-0.46,-0.02,1.59,-2.99,-1.89,207,276,187,442,325
510,0.87,-0.47,-0.02,1.22,-2.14,-4.46,204,275,177,444,328
511,0.9,-0.46,-0.02,-0.06,-2.56,-3.91,206,278,189,436,328
512,0.89,-0.46,-0.03,1.59,-2.5,-3.11,203,277,196,448,325
513,0.87,-0.47,-0.0,-0.18,-1.4,-1.95,208,277,192,448,328
514,0.9,-0.46,-0.02,1.77,2.08,-3.54,201,278,190,446,326
515,0.88,-0.47,-0.01,-0.18,-4.21,-1.89,203,279,185,448,326
516,0.86,-0.49,0.02,0.55,-7.2,-3.66,197,275,191,443,326
517,0.87,-0.49,-0.02,0.12,-2.44,3.97,210,278,188,446,326
518,0.88,-0.47,0.0,-0.43,-4.46,-0.67,203,286,195,447,325
519,0.88,-0.47,-0.02,-0.24,-2.93,-2.32,203,276,194,443,326
520,0.89,-0.46,0.01,1.28,-3.05,-1.59,204,278,192,438,329
521,0.88,-0.47,-0.01,0.0,-2.2,-1.77,206,278,194,443,332
522,0.89,-0.48,-0.01,0.12,-2.56,-3.23,204,277,192,443,331
523,0.88,-0.49,-0.01,-0.43,-2.62,-3.66,207,278,194,442,329
524,0.88,-0.48,-0.02,0.37,-2.93,-2.44,206,279,188,449,330
525,0.88,-0.48,-0.01,1.34,-3.6,-2.14,203,281,191,438,330
526,0.88,-0.47,-0.02,1.22,-3.48,-3.42,206,281,192,448,330
527,0.89,-0.47,-0.01,-0.12,-2.56,-1.4,208,278,204,446,328
528,0.88,-0.48,-0.0,-2.08,-2.62,-1.22,209,275,194,445,325
529,0.88,-0.47,0.01,-2.93,-0.85,-3.54,209,281,198,447,327
530,0.89,-0.48,0.0,0.24,-3.23,-2.14,203,280,195,448,332
531,0.87,-0.48,-0.02,0.98,-3.85,-2.81,209,276,194,442,328
532,0.89,-0.48,-0.01,1.59,-4.33,0.92,199,279,199,450,329
533,0.87,-0.49,-0.01,0.12,-2.99,-2.62,205,276,198,446,332
534,0.87,-0.49,-0.02,-0.49,-3.97,-3.23,209,281,211,439,326
535,0.87,-0.48,-0.02,1.53,-4.52,-1.89,207,280,194,449,331
536,0.86,-0.49,-0.01,-2.01,-1.95,-3.05,207,277,199,449,329
537,0.88,-0.48,-0.01,-0.12,-3.05,-2.81,206,282,198,446,331
538,0.88,-0.48,-0.01,-0.24,-3.05,-3.78,207,282,187,444,327
539,0.88,-0.48,0.0,1.89,-3.17,-2.5,207,280,203,447,331
540,0.88,-0.47,0.0,2.2,-2.26,-3.72,204,282,200,447,327
541,0.91,-0.46,0.0,6.29,-4.64,-6.23,206,277,195,443,329
542,0.87,-0.48,-0.01,1.65,-1.1,-5.19,211,290,197,444,328
543,0.88,-0.47,0.01,0.73,-2.44,-5.07,208,274,201,439,328
544,0.9,-0.46,0.0,-3.66,-2.93,-1.1,204,281,198,446,330
545,0.88,-0.47,-0.0,-0.06,-3.91,-0.98,203,280,200,439,329
546,0.88,-0.47,-0.02,0.49,-2.87,-3.6,209,281,200,444,330
547,0.89,-0.47,-0.0,1.53,-2.44,-0.92,208,282,197,448,329
548,0.88,-0.47,-0.01,0.12,-3.17,-2.38,206,284,195,448,331
549,0.89,-0.47,-0.01,3.6,-3.54,-3.36,204,282,197,448,328
550,0.89,-0.47,-0.0,0.61,-2.99,-3.48,208,279,188,447,327
551,0.89,-0.47,-0.01,2.38,-2.5,-2.99,207,279,198,444,332
552,0.88,-0.47,-0.01,2.2,-3.11,-1.89,209,281,197,449,332
553,0.88,-0.47,0.01,0.0,-2.01,-2.62,208,282,198,444,329
554,0.88,-0.49,-0.01,0.61,-2.26,-2.81,210,277,188,449,329
555,0.88,-0.48,-0.01,0.49,-3.05,-2.38,207,282,198,449,324
556,0.89,-0.47,-0.0,0.79,-2.93,-2.32,208,280,197,447,330
557,0.88,-0.48,-0.01,-0.06,-3.17,-2.5,206,280,203,446,329
558,0.87,-0.48,-0.01,0.85,-2.2,-2.87,209,273,201,442,322
559,0.88,-0.47,0.0,0.67,-2.75,-3.23,212,279,200,456,328
560,0.89,-0.47,0.0,1.04,-3.23,-2.2,203,284,198,444,330
561,0.88,-0.48,0.0,1.04,-2.56,-2.87,211,282,199,452,332
562,0.88,-0.48,-0.0,0.24,-2.32,-3.54,210,280,196,441,329
563,0.88,-0.47,-0.0,-0.43,-2.81,-1.83,206,281,205,449,330
564,0.86,-0.46,-0.01,1.1,-3.72,-2.5,209,281,199,451,325
565,0.87,-0.48,-0.01,0.0,-2.38,-3.11,205,283,199,441,325
566,0.87,-0.47,-0.01,0.61,-2.2,-2.93,206,285,195,450,329
567,0.88,-0.47,-0.01,0.06,-2.75,-3.05,206,277,201,451,328
568,0.89,-0.46,-0.0,0.06,-2.75,-3.3,206,278,207,446,331
569,0.89,-0.47,-0.0,-0.12,-2.99,-2.87,209,281,206,448,328
570,0.89,-0.46,-0.01,-0.37,-2.56,-2.62,210,281,199,444,328
571,0.89,-0.46,-0.0,-0.67,-2.87,-2.75,207,280,189,451,323
572,0.89,-0.47,-0.0,1.53,-3.78,-1.83,209,282,199,447,339
573,0.88,-0.47,-0.01,0.98,-3.17,-1.46,208,283,198,448,328
574,0.87,-0.48,-0.01,0.18,-3.11,-1.77,234,280,200,445,327
575,0.88,-0.48,-0.01,-0.18,-2.32,-2.93,207,281,201,450,331
576,0.88,-0.48,-0.02,0.18,-2.38,-3.36,213,283,201,443,329
577,0.87,-0.47,-0.0,0.18,-2.69,-3.05,210,283,199,447,330
578,0.87,-0.46,-0.0,0.61,-2.75,-2.5,207,283,199,443,330
579,0.88,-0.47,-0.01,1.46,-2.99,-2.93,212,277,205,450,328
580,0.89,-0.46,-0.0,0.49,-2.62,-2.62,206,279,201,448,325
581,0.88,-0.47,-0.01,0.55,-3.3,-1.77,210,283,199,445,333
582,0.88,-0.47,-0.0,-0.12,-3.05,-1.77,208,279,198,452,331
583,0.88,-0.48,-0.0,1.4,-3.66,-1.71,209,280,198,444,332
584,0.87,-0.48,-0.02,-0.18,-2.14,-2.93,206,278,195,440,330
585,0.87,-0.48,-0.02,0.24,-2.62,-2.81,206,281,201,448,328
586,0.88,-0.47,0.0,-0.98,-3.05,-2.69,203,281,200,446,328
587,0.9,-0.47,-0.0,-0.61,-2.69,-2.38,206,280,201,448,326
588,0.88,-0.47,-0.01,0.43,-3.11,-2.5,207,279,202,441,328
589,0.89,-0.47,-0.01,1.28,-3.11,-3.72,209,283,199,440,334
590,0.89,-0.48,-0.02,2.14,-3.66,-2.81,207,274,203,446,330
591,0.89,-0.48,-0.0,0.79,-2.99,-1.59,211,282,201,450,324
592,0.89,-0.48,-0.02,-0.37,-2.87,-1.71,206,281,203,442,326
593,0.87,-0.49,-0.0,0.12,-2.32,-3.17,207,283,197,452,331
594,0.87,-0.48,0.0,-0.37,-2.44,-2.81,208,282,200,448,326
595,0.88,-0.48,0.0,-0.37,-2.93,-2.93,208,281,203,447,325
596,0.88,-0.47,-0.0,-0.73,-2.38,-2.44,210,279,201,448,331
597,0.89,-0.48,-0.01,0.43,-2.56,-2.56,207,280,202,447,329
598,0.88,-0.48,0.0,0.06,-2.93,-2.08,207,282,207,448,333
599,0.88,-0.47,-0.0,0.12,-3.54,-1.4,208,281,205,450,331
600,0.87,-0.48,-0.01,0.55,-3.72,-1.77,207,281,196,451,327
601,0.88,-0.48,-0.01,0.24,-3.05,-2.32,210,280,202,450,329
602,0.87,-0.49,-0.01,-1.04,-2.99,-1.71,203,284,203,448,326
603,0.87,-0.49,-0.01,-0.12,-2.26,-2.56,208,280,203,448,332
604,0.89,-0.48,-0.0,0.67,-2.62,-2.87,211,284,204,448,329
605,0.88,-0.48,-0.0,-0.06,-1.95,-2.99,209,283,194,448,331
606,0.88,-0.47,-0.01,0.06,-3.23,-3.11,208,287,203,446,324
607,0.88,-0.48,-0.0,1.4,-2.87,-3.66,212,278,204,453,330
608,0.89,-0.48,-0.01,1.34,-3.05,-3.48,210,282,201,448,329
609,0.86,-0.47,-0.0,-0.49,-3.42,-1.59,208,277,203,447,326
610,0.88,-0.48,-0.01,1.16,-3.48,-2.38,210,284,203,446,333
611,0.88,-0.47,-0.01,-0.43,-2.75,-1.28,215,283,202,444,330
612,0.88,-0.48,-0.0,1.04,-2.5,-2.38,209,287,205,446,330
613,0.89,-0.49,-0.01,-0.06,-2.56,-3.3,208,282,202,445,328
614,0.87,-0.47,-0.01,0.24,-2.14,-2.26,208,282,199,451,328
615,0.89,-0.48,0.0,1.46,-2.87,-2.75,205,282,207,443,331
616,0.88,-0.46,0.0,0.73,-3.11,-1.89,207,284,202,445,329
617,0.89,-0.48,-0.01,0.24,-3.3,-3.11,207,281,199,451,331
618,0.88,-0.48,0.0,0.61,-2.93,-3.05,212,281,202,450,330
619,0.89,-0.48,0.01,0.98,-2.32,-3.23,208,284,202,439,327
620,0.88,-0.5,0.0,-0.61,-1.89,-1.89,208,284,202,442,332
621,0.87,-0.49,0.01,-0.61,-1.53,-2.44,209,286,208,454,331
622,0.88,-0.49,0.01,0.92,-2.81,-3.48,210,281,201,447,325
623,0.87,-0.48,-0.0,1.04,-2.32,-2.75,214,284,195,448,332
624,0.88,-0.48,0.01,-0.06,-3.91,-2.08,211,283,201,449,329
625,0.88,-0.49,0.0,0.43,-3.48,-1.22,210,283,202,446,326
626,0.88,-0.48,-0.0,-0.49,-2.99,-1.95,201,285,204,447,332
627,0.88,-0.49,0.0,0.67,-3.6,-2.75,211,280,206,442,332
628,0.87,-0.48,0.0,0.06,-2.69,-2.32,205,286,204,450,331
629,0.88,-0.48,0.01,1.04,-3.48,-3.05,211,285,202,455,327
630,0.87,-0.48,0.0,0.06,-2.56,-2.99,211,288,204,446,328
631,0.87,-0.48,0.0,0.92,-2.56,-2.81,211,285,202,452,329
632,0.88,-0.47,0.0,0.0,-3.05,-2.32,209,281,201,445,323
633,0.88,-0.48,0.01,0.61,-2.81,-2.62,211,284,205,452,330
634,0.9,-0.48,0.01,0.18,-3.3,-2.26,213,282,210,449,331
635,0.87,-0.49,0.01,-0.49,-2.87,-1.77,210,285,208,441,328
636,0.87,-0.49,-0.0,0.12,-3.17,-2.56,211,290,207,455,328
637,0.88,-0.48,0.0,-0.24,-2.75,-2.26,208,276,205,448,329
638,0.87,-0.48,-0.0,-0.24,-2.69,-2.5,212,279,208,451,329
639,0.88,-0.48,0.0,0.0,-2.56,-3.3,211,283,209,450,324
640,0.89,-0.48,0.01,-0.12,-3.17,-3.11,210,283,198,448,330
641,0.88,-0.47,0.01,0.79,-2.87,-2.08,216,288,205,450,329
642,0.87,-0.48,0.02,0.24,-2.69,-2.32,210,292,204,450,328
643,0.88,-0.47,-0.0,2.26,-3.6,-2.87,214,290,203,448,330
644,0.87,-0.47,-0.0,0.49,-4.33,-2.62,214,285,193,448,330
645,0.88,-0.47,0.01,1.22,-2.44,-2.08,208,285,207,446,326
646,0.88,-0.48,0.0,0.49,-2.87,-2.38,210,280,200,437,328
647,0.88,-0.47,0.0,-0.61,-2.99,-3.3,214,287,202,446,328
648,0.89,-0.46,0.01,1.65,-2.69,-4.58,208,283,205,450,330
649,0.88,-0.48,0.02,0.31,-2.75,-3.72,214,277,202,445,332
650,0.89,-0.46,0.01,0.12,-3.6,-2.08,212,285,200,447,331
651,0.88,-0.46,0.02,-1.95,-3.3,0.06,209,288,210,442,329
652,0.89,-0.47,0.01,-1.83,-3.54,-2.01,210,283,206,445,329
653,0.88,-0.47,0.01,-1.16,-2.44,-3.05,215,282,205,451,330
654,0.87,-0.48,0.01,-3.6,-0.85,-3.72,211,281,208,445,329
655,0.89,-0.46,0.03,-4.03,-1.77,-2.56,206,286,209,449,331
656,0.9,-0.46,-0.0,0.49,-4.21,-3.85,209,285,204,449,333
657,0.89,-0.44,-0.0,-1.28,-3.97,-1.71,206,286,202,442,330
658,0.87,-0.48,0.01,2.01,-6.53,1.28,208,284,208,448,332
659,0.89,-0.47,0.0,1.53,-5.19,-0.49,205,283,207,453,330
660,0.88,-0.49,-0.02,-0.67,-2.87,-1.4,211,281,205,443,328
661,0.87,-0.49,-0.01,0.49,-3.42,-2.69,212,282,205,445,325
662,0.87,-0.49,-0.02,-0.55,-3.48,-2.26,209,287,205,445,332
663,0.88,-0.48,-0.01,-0.24,-2.56,-2.32,212,293,208,446,329
664,0.91,-0.47,0.0,0.0,-1.83,-2.69,209,286,211,446,330
665,0.86,-0.5,0.0,-1.77,-4.76,-0.24,207,282,204,448,330
666,0.9,-0.45,-0.0,4.7,-1.77,-1.71,211,286,207,444,330
667,0.91,-0.44,-0.01,5.37,-4.39,-3.23,207,283,204,448,328
668,0.88,-0.47,0.01,-0.24,-2.2,-1.34,208,284,205,451,326
669,0.89,-0.47,-0.01,-2.69,-2.5,0.24,210,283,199,453,329
670,0.89,-0.47,-0.01,-1.77,-2.81,0.31,209,278,201,449,326
671,0.85,-0.49,-0.01,0.61,-1.95,-3.23,210,285,203,451,328
672,0.87,-0.49,-0.04,-1.16,-0.55,-7.57,214,285,213,445,327
673,0.93,-0.42,0.02,1.34,-0.85,-3.48,211,283,204,450,331
674,0.91,-0.43,0.03,3.23,-2.44,-2.75,209,284,204,447,331
675,0.9,-0.44,-0.0,-0.61,-3.36,-3.54,216,279,209,448,334
676,0.9,-0.44,0.01,3.3,-1.53,-1.89,207,284,206,439,332
677,0.9,-0.45,0.02,-0.85,-4.33,-4.7,210,291,209,448,329
678,0.9,-0.44,0.02,1.22,-3.97,-2.56,211,284,207,445,330
679,0.9,-0.44,0.01,1.46,-3.42,-2.5,208,285,205,447,329
680,0.89,-0.45,0.01,-0.49,-2.01,-2.01,210,285,207,451,333
681,0.89,-0.44,0.02,0.37,-3.05,-2.81,211,284,209,448,325
682,0.9,-0.44,0.01,0.61,-2.62,-2.38,211,285,208,450,331
683,0.9,-0.43,0.02,0.67,-2.08,-2.99,214,280,207,443,332
684,0.9,-0.43,0.03,0.98,-2.99,-2.81,210,278,202,450,328
685,0.91,-0.45,0.03,0.73,-2.44,-4.27,217,283,206,453,330
686,0.89,-0.44,0.02,0.61,-1.77,-3.11,211,283,209,451,329
687,0.9,-0.44,0.02,0.18,-3.23,-2.62,211,286,203,448,332
688,0.9,-0.45,0.02,0.67,-3.11,-2.69,211,285,207,450,328
689,0.91,-0.44,0.02,0.67,-3.17,-2.56,211,299,204,450,330
690,0.9,-0.44,0.03,1.34,-2.69,-2.75,211,279,209,444,329
691,0.89,-0.44,0.01,0.12,-2.87,-3.36,211,279,207,451,331
692,0.91,-0.43,0.01,1.22,-3.17,-2.56,210,286,206,446,331
693,0.89,-0.45,0.02,0.43,-2.75,-1.89,210,285,214,452,328
694,0.89,-0.45,0.02,-0.24,-3.17,-4.94,212,283,208,448,329
695,0.9,-0.44,0.03,-0.18,-1.95,-2.38,215,285,209,450,333
696,0.89,-0.45,0.03,0.06,-2.93,-3.54,209,287,209,453,328
697,0.89,-0.44,0.03,1.77,-3.36,-2.93,212,284,205,452,331
698,0.89,-0.44,0.04,0.06,-2.62,-3.6,210,287,205,452,328
699,0.91,-0.43,0.03,1.34,-3.17,-2.44,210,281,208,444,330
700,0.91,-0.44,0.02,-0.61,-2.32,-2.62,213,288,208,446,327
701,0.9,-0.43,0.02,1.65,-3.11,-3.05,210,284,206,457,331
702,0.9,-0.43,0.03,0.49,-2.62,-2.99,215,289,205,448,330
703,0.9,-0.43,0.03,0.67,-2.93,-2.69,214,284,211,443,330
704,0.9,-0.43,0.03,0.67,-2.38,-2.99,211,284,208,448,333
705,0.91,-0.43,0.03,-1.28,-3.42,-1.95,216,284,210,452,328
706,0.91,-0.43,0.03,0.49,-2.81,-2.38,208,294,198,444,334
707,0.9,-0.43,0.03,0.43,-2.99,-2.69,211,285,206,451,330
708,0.9,-0.43,0.03,0.85,-3.48,-2.56,211,284,208,443,331
709,0.91,-0.44,0.03,0.49,-2.38,-2.75,210,287,222,454,329
710,0.91,-0.44,0.02,0.61,-2.44,-3.36,210,282,205,446,332
711,0.9,-0.43,0.02,0.12,-2.81,-2.93,211,284,202,451,328
712,0.91,-0.43,0.03,0.24,-3.11,-2.81,213,282,208,449,332
713,0.91,-0.43,0.03,0.73,-2.81,-2.75,213,287,211,450,332
714,0.91,-0.44,0.03,0.24,-3.17,-2.93,214,285,212,455,331
715,0.91,-0.43,0.03,-0.43,-2.56,-2.38,211,281,207,450,332
716,0.9,-0.44,0.03,-0.12,-3.05,-2.93,210,286,208,455,331
717,0.9,-0.43,0.03,0.0,-3.36,-2.08,215,281,210,450,329
718,0.9,-0.43,0.03,1.04,-2.32,-2.26,211,285,211,455,331
719,0.9,-0.44,0.03,0.73,-3.36,-2.81,212,286,199,448,327
720,0.9,-0.43,0.02,-0.67,-2.56,-2.99,211,285,207,449,332
721,0.9,-0.43,0.02,0.31,-3.23,-2.26,214,283,204,453,330
722,0.9,-0.43,0.03,-0.06,-2.2,-2.44,220,287,206,451,332
723,0.9,-0.43,0.03,0.18,-2.99,-2.56,211,287,213,456,329
724,0.9,-0.43,0.03,0.31,-2.62,-2.69,212,286,210,450,331
725,0.9,-0.43,0.03,0.85,-3.54,-2.44,213,286,213,452,335
726,0.9,-0.44,0.03,0.98,-3.17,-2.75,210,278,208,451,331
727,0.9,-0.43,0.03,0.0,-3.3,-2.01,216,285,211,452,330
728,0.9,-0.43,0.02,-0.55,-2.38,-2.69,212,286,207,453,330
729,0.91,-0.43,0.02,0.85,-3.05,-3.11,211,287,214,446,329
730,0.9,-0.44,0.02,-0.43,-2.62,-1.83,207,289,212,450,332
731,0.9,-0.43,0.03,-0.18,-2.44,-2.2,214,287,209,454,330
732,0.9,-0.43,0.03,-0.24,-2.69,-2.62,212,286,209,451,331
733,0.9,-0.43,0.03,-0.43,-2.69,-2.08,212,288,209,447,328
734,0.9,-0.43,0.02,0.61,-3.36,-2.44,213,285,201,456,329
735,0.9,-0.44,0.02,0.43,-3.42,-2.5,215,280,208,450,331
736,0.89,-0.43,0.03,-0.06,-2.2,-1.71,213,285,212,451,333
737,0.9,-0.43,0.03,0.18,-2.99,-2.62,217,286,209,449,330
738,0.9,-0.43,0.03,0.12,-2.56,-3.23,212,289,211,452,330
739,0.9,-0.43,0.03,-0.06,-2.69,-2.56,206,284,209,455,326
740,0.91,-0.43,0.03,0.79,-2.62,-2.81,213,288,207,450,333
741,0.9,-0.44,0.03,-0.49,-2.99,-2.26,209,285,209,452,330
742,0.89,-0.43,0.02,0.12,-2.62,-2.44,211,288,202,455,331
743,0.9,-0.43,0.03,0.85,-3.36,-2.01,214,288,210,454,324
744,0.91,-0.43,0.03,0.79,-3.11,-1.77,211,285,207,455,327
745,0.9,-0.43,0.03,1.04,-2.87,-3.6,209,283,208,450,332
746,0.91,-0.43,0.03,1.04,-2.99,-3.66,213,284,212,445,332
747,0.9,-0.43,0.02,1.65,-2.87,-3.54,215,289,215,455,334
748,0.9,-0.43,0.02,2.2,-3.6,-4.09,215,285,209,451,330
749,0.92,-0.42,0.03,0.55,-3.05,-2.26,210,282,209,451,331
750,0.92,-0.42,0.04,1.65,-2.75,-4.76,209,288,207,452,332
751,0.89,-0.44,0.01,-0.61,-3.3,-1.46,213,285,204,448,333
752,0.9,-0.43,0.03,-0.18,-3.23,-1.22,212,289,209,446,331
753,0.91,-0.43,0.03,0.12,-2.14,-3.48,212,290,210,452,332
754,0.91,-0.44,0.02,0.55,-3.54,-2.32,212,286,211,447,333
755,0.91,-0.43,0.02,1.83,-3.36,-2.44,214,285,216,455,327
756,0.91,-0.43,0.03,1.1,-2.69,-2.81,211,283,208,450,331
757,0.9,-0.43,0.02,1.59,-3.78,-2.32,211,288,208,452,331
758,0.9,-0.42,0.03,-0.49,-3.05,-2.62,213,287,205,456,332
759,0.9,-0.43,0.02,1.22,-3.3,-2.87,212,289,214,450,336
760,0.9,-0.44,0.02,0.92,-4.09,-2.99,206,283,211,455,331
761,0.9,-0.43,0.02,-0.24,-2.56,-2.08,216,289,211,452,331
762,0.9,-0.44,0.02,-0.24,-2.56,-2.56,214,285,209,453,331
763,0.89,-0.43,0.02,0.12,-2.62,-2.44,209,289,213,451,330
764,0.9,-0.44,0.02,1.22,-2.81,-2.93,213,287,213,446,327
765,0.9,-0.44,0.02,0.06,-2.75,-3.48,207,287,213,454,330
766,0.91,-0.43,0.02,-0.18,-2.38,-2.14,205,288,211,456,331
767,0.9,-0.44,0.04,1.28,-2.75,-3.78,212,285,210,460,331
768,0.9,-0.43,0.02,1.53,-3.05,-2.5,211,291,215,449,331
769,0.91,-0.42,0.03,1.71,-3.3,-3.3,208,287,209,454,331
770,0.92,-0.41,0.02,1.4,-2.87,-2.5,209,284,209,448,332
771,0.9,-0.44,0.02,0.18,-3.17,-3.3,211,285,211,454,334
772,0.92,-0.43,0.02,0.79,-2.99,-3.05,213,285,205,450,328
773,0.9,-0.43,0.03,-0.55,-2.5,-1.77,212,288,211,447,333
774,0.9,-0.43,0.03,-0.18,-2.81,-2.44,210,283,208,447,331
775,0.9,-0.42,0.03,0.31,-3.05,-2.5,205,288,209,453,328
776,0.9,-0.43,0.02,-0.06,-3.23,-2.32,210,285,202,453,331
777,0.91,-0.43,0.03,1.04,-3.11,-2.56,207,283,208,448,332
778,0.91,-0.42,0.03,1.34,-2.87,-2.75,205,287,212,454,330
779,0.9,-0.43,0.03,-0.73,-3.42,-2.44,207,287,211,453,331
780,0.92,-0.43,0.03,2.2,-2.38,-3.72,208,290,212,450,332
781,0.9,-0.44,0.03,0.06,-2.99,-2.99,213,286,215,455,333
782,0.89,-0.44,0.03,-0.12,-3.85,-2.38,214,284,208,454,331
783,0.9,-0.44,0.03,0.0,-2.62,-1.89,220,287,205,453,331
784,0.91,-0.44,0.02,1.53,-2.56,-3.85,208,284,211,453,331
785,0.91,-0.43,0.03,1.04,-2.99,-3.23,214,288,208,455,331
786,0.91,-0.43,0.03,0.73,-3.11,-1.77,217,290,203,452,332
787,0.9,-0.44,0.03,-0.18,-2.14,-2.38,211,278,207,450,335
788,0.9,-0.43,0.03,0.0,-3.3,-1.1,215,290,212,456,334
789,0.9,-0.43,0.03,-0.24,-2.2,-3.17,210,283,209,454,328
790,0.91,-0.42,0.02,0.06,-2.38,-2.56,210,288,209,445,332
791,0.9,-0.42,0.03,0.24,-3.05,-2.32,213,287,207,456,332
792,0.89,-0.44,0.02,0.31,-3.91,-2.26,211,283,212,451,330
793,0.91,-0.42,0.03,0.73,-2.81,-2.08,216,285,211,451,332
794,0.9,-0.43,0.04,-3.66,-0.06,-0.73,212,289,208,464,332
795,0.92,-0.41,0.02,-0.18,-1.77,-2.99,218,291,212,452,330
796,0.91,-0.42,0.02,2.56,-3.72,-2.81,212,286,212,452,329
797,0.9,-0.43,0.01,0.0,-3.3,-2.56,214,286,206,454,333
798,0.91,-0.42,0.0,0.85,-2.93,-2.56,209,285,210,463,331
799,0.89,-0.42,0.0,2.56,-4.94,-2.81,216,287,209,451,329
800,0.91,-0.42,0.02,0.49,-2.87,-2.5,215,289,208,455,334
801,0.92,-0.42,0.03,1.77,-3.05,-3.05,213,294,208,454,335
802,0.91,-0.42,0.03,1.4,-2.87,-2.32,211,290,207,453,331
803,0.91,-0.43,0.01,0.37,-3.11,-1.71,213,288,214,457,331
804,0.91,-0.44,0.01,0.49,-3.6,-3.78,213,285,209,451,333
805,0.91,-0.42,0.01,0.24,-2.69,-2.87,214,288,218,454,331
806,0.91,-0.45,0.02,-1.46,-2.5,-3.85,213,286,210,453,330
807,0.9,-0.42,0.02,0.67,-3.11,-1.83,214,295,217,451,330
808,0.91,-0.43,0.02,-0.06,-3.23,-2.26,214,291,213,456,329
809,0.9,-0.43,0.02,0.37,-2.93,-1.59,212,286,211,451,330
810,0.91,-0.42,0.01,0.55,-3.3,-3.05,213,286,205,451,333
811,0.9,-0.42,0.02,1.04,-3.23,-2.08,214,287,209,451,331
812,0.9,-0.46,0.01,-0.06,-1.95,-2.93,215,286,209,452,328
813,0.87,-0.46,0.0,0.49,-1.46,-3.78,215,291,212,452,333
814,0.93,-0.4,0.03,2.56,-3.05,-1.1,212,283,211,453,334
815,0.88,-0.47,-0.03,-5.37,-4.46,1.77,212,286,211,457,329
816,0.84,-0.49,0.01,1.46,-3.54,-6.1,241,286,212,452,335
817,0.88,-0.46,-0.01,-0.61,-2.14,-3.97,212,286,212,453,331
818,0.85,-0.48,0.03,-4.52,-3.85,-0.67,213,289,205,451,332
819,0.89,-0.47,0.03,-0.12,-3.91,-1.46,212,288,211,452,331
820,0.9,-0.44,-0.0,-0.98,-2.08,-1.53,212,283,206,456,330
821,0.9,-0.45,0.04,2.56,-2.62,-2.56,214,288,211,450,333
822,0.9,-0.44,0.01,1.22,-3.3,-3.3,213,286,212,449,330
823,0.9,-0.45,0.01,0.43,-3.85,-2.14,214,289,211,456,332
824,0.89,-0.45,0.01,1.1,-2.87,-1.83,214,286,208,445,332
825,0.9,-0.44,0.03,0.67,-3.23,-2.62,211,299,217,451,334
826,0.9,-0.45,0.02,1.46,-3.3,-1.71,209,288,214,452,333
827,0.89,-0.45,0.01,2.01,-4.58,-1.53,215,280,210,449,335
828,0.89,-0.46,0.01,1.77,-3.11,-2.75,214,290,213,452,329
829,0.89,-0.46,0.01,0.79,-3.11,-2.5,215,285,215,451,334
830,0.89,-0.46,0.01,-1.4,-2.87,-2.38,212,286,209,453,330
831,0.88,-0.44,0.02,0.31,-2.99,-2.44,211,287,209,454,330
832,0.89,-0.46,0.01,-0.67,-3.48,-2.62,213,289,211,453,331
833,0.9,-0.45,0.02,0.61,-3.17,-2.38,211,293,213,454,329
834,0.9,-0.46,0.01,1.83,-3.42,-2.87,206,289,213,449,328
835,0.88,-0.45,0.02,1.46,-3.42,-2.56,213,288,209,453,332
836,0.89,-0.47,0.01,1.28,-3.17,-2.32,213,286,212,452,332
837,0.89,-0.46,0.03,-0.06,-2.01,-1.59,215,287,213,448,330
838,0.87,-0.48,0.0,0.12,-2.5,-3.78,211,285,211,450,336
839,0.9,-0.45,0.03,-0.73,-2.38,-5.07,213,289,210,456,335
840,0.9,-0.45,0.03,0.0,-2.44,-2.69,210,285,209,451,333
841,0.9,-0.45,0.03,0.61,-3.05,-1.65,211,286,203,455,333
842,0.89,-0.48,0.03,0.92,-2.69,-3.42,214,290,203,453,334
843,0.89,-0.45,0.02,0.24,-3.42,-2.99,215,285,211,454,331
844,0.88,-0.46,0.02,0.73,-4.03,-2.2,212,286,199,451,333
845,0.87,-0.48,0.01,0.43,-3.6,-2.87,212,286,215,461,335
846,0.89,-0.46,0.03,-0.67,-3.23,-2.26,211,289,212,447,337
847,0.9,-0.45,0.03,1.71,-2.32,-1.95,215,288,207,455,331
848,0.9,-0.45,0.03,0.06,-2.69,-1.53,208,286,208,456,334
849,0.9,-0.45,0.01,-0.61,-2.14,-2.14,209,286,216,452,327
850,0.91,-0.44,0.02,0.85,-2.44,-1.65,209,285,200,452,333
851,0.9,-0.45,0.01,0.31,-2.93,-0.61,213,286,210,455,332
852,0.89,-0.46,0.01,0.92,-2.14,-4.52,209,286,212,445,332
853,0.89,-0.45,0.02,0.61,-2.93,-4.88,213,288,209,446,333
854,0.9,-0.43,0.02,-0.49,-2.08,-2.38,221,286,209,448,331
855,0.91,-0.44,0.03,-2.01,-2.99,-1.34,210,287,214,450,330
856,0.91,-0.43,0.03,0.24,-2.75,-3.05,212,287,214,451,328
857,0.9,-0.44,0.02,-0.49,-2.62,-2.2,213,285,210,453,329
858,0.89,-0.44,0.04,0.0,-1.95,-2.62,210,281,213,449,332
859,0.89,-0.44,0.03,0.61,-3.23,-2.75,214,286,208,456,333
860,0.89,-0.45,0.01,1.1,-3.11,-1.95,211,287,204,447,330
861,0.9,-0.44,0.01,0.92,-3.42,-1.59,214,287,206,455,333
862,0.91,-0.45,0.02,0.92,-2.69,-3.17,215,290,213,455,333
863,0.89,-0.45,0.01,0.61,-2.44,-3.17,212,288,210,454,330
864,0.89,-0.44,0.02,0.0,-2.56,-1.65,211,287,211,447,334
865,0.9,-0.45,0.02,0.24,-2.69,-2.32,212,289,211,465,333
866,0.89,-0.45,0.02,-0.12,-2.87,-2.56,211,291,213,452,328
867,0.89,-0.45,0.02,-0.24,-2.81,-2.2,209,288,207,455,332
868,0.89,-0.45,0.03,0.37,-2.38,-2.75,214,287,209,448,325
869,0.89,-0.45,0.02,-0.49,-2.2,-4.09,211,288,215,456,330
870,0.91,-0.42,0.01,1.83,-2.44,-1.77,214,288,201,449,332
871,0.91,-0.44,0.02,1.16,-2.69,-2.01,211,287,215,457,327
872,0.89,-0.44,0.02,0.79,-3.11,-2.62,211,289,213,449,330
873,0.9,-0.44,0.02,0.43,-3.23,-2.5,213,289,213,453,328
874,0.89,-0.45,0.02,-0.61,-2.56,-2.81,215,286,214,454,332
875,0.9,-0.45,0.03,0.37,-1.28,-3.42,213,293,212,456,331
876,0.91,-0.43,0.02,1.16,-0.85,-2.69,210,288,212,451,333
877,0.9,-0.44,0.03,0.31,-2.5,-2.56,215,285,213,457,327
878,0.9,-0.44,0.04,-0.79,-3.23,-1.53,211,288,212,454,331
879,0.9,-0.44,0.03,0.49,-3.85,-1.34,210,289,213,452,329
880,0.89,-0.45,0.03,1.95,-3.05,-2.5,213,282,216,454,332
881,0.9,-0.44,0.04,-0.92,-3.72,-1.4,216,286,215,456,327
882,0.9,-0.45,0.02,-0.06,-2.93,-1.04,212,286,212,453,329
883,0.9,-0.45,0.03,0.79,-2.93,-1.22,218,286,218,448,333
884,0.89,-0.46,0.02,0.79,-3.05,-1.77,215,287,217,448,331
885,0.89,-0.47,0.01,0.55,-3.11,-2.38,212,286,213,459,330
886,0.89,-0.46,0.02,0.37,-2.2,-3.36,211,287,208,453,333
887,0.89,-0.45,0.02,0.55,-3.3,-5.74,212,288,210,455,331
888,0.88,-0.45,-0.0,4.03,-2.38,-10.56,214,287,202,457,333
889,0.92,-0.41,0.03,-2.32,-1.89,-0.79,212,286,211,451,332
890,0.89,-0.43,0.01,2.2,-4.09,-3.3,215,285,212,446,334
891,0.89,-0.43,0.03,-2.38,-1.59,-3.3,211,280,213,453,333
892,0.92,-0.39,0.06,0.37,-2.62,-2.69,212,292,213,456,332
893,0.9,-0.41,0.03,-1.71,-2.32,-1.53,215,289,211,451,332
894,0.91,-0.4,0.02,-1.77,-2.93,-0.92,214,288,214,455,332
895,0.91,-0.41,0.03,-0.73,-0.67,-2.62,209,288,212,454,331
896,0.87,-0.47,0.04,-2.26,-3.23,-6.41,213,288,217,455,329
897,0.92,-0.41,0.05,0.31,-2.56,-2.14,212,291,217,455,330
898,0.91,-0.41,0.05,-0.24,-2.93,-0.55,216,286,210,452,331
899,0.91,-0.44,0.05,-0.31,-3.11,-1.59,212,285,214,452,334
900,0.89,-0.43,0.04,-0.79,-3.97,-1.4,217,289,212,453,327
901,0.9,-0.42,0.05,0.73,-3.36,-0.85,214,283,204,454,332
902,0.89,-0.43,0.04,-0.85,-3.72,-1.77,212,284,214,453,334
903,0.91,-0.42,0.03,1.04,-3.54,-4.33,215,289,203,457,326
904,0.9,-0.44,0.03,-1.46,-3.97,-1.77,212,289,209,449,341
905,0.9,-0.45,0.03,5.31,-3.66,-2.08,212,290,207,453,332
906,0.9,-0.45,0.02,2.01,-4.09,-1.28,213,283,216,454,332
907,0.91,-0.44,0.02,-0.49,-2.81,-0.79,209,290,208,456,333
908,0.87,-0.48,0.02,-0.12,-1.04,-2.44,213,287,210,452,331
909,0.88,-0.47,0.02,2.01,-2.5,-2.32,212,289,215,453,332
910,0.88,-0.48,0.03,-0.73,-1.16,-2.99,213,287,216,453,334
911,0.87,-0.48,0.03,-0.73,-2.32,-1.28,212,286,213,454,330
912,0.88,-0.48,0.03,-0.24,-2.75,-0.98,212,289,210,451,328
913,0.89,-0.47,0.03,-0.24,-2.87,-2.38,212,288,215,457,331
914,0.89,-0.47,0.02,2.5,-3.48,-3.78,214,285,209,454,332
915,0.89,-0.49,0.03,0.37,-2.75,-4.76,212,282,211,451,331
916,0.88,-0.47,0.02,0.18,-3.17,-2.87,217,290,209,452,329
917,0.88,-0.48,0.02,0.37,-2.81,-2.69,213,292,210,456,332
918,0.87,-0.47,0.03,-1.1,-1.53,-2.93,213,287,219,455,330
919,0.89,-0.46,0.03,-0.18,-2.26,-3.17,215,287,212,453,335
920,0.9,-0.46,0.04,-0.37,-3.05,-2.2,213,283,211,452,329
921,0.88,-0.46,0.03,0.43,-3.05,-2.08,213,288,216,444,333
922,0.88,-0.48,0.02,1.1,-2.93,-3.11,214,290,213,455,334
923,0.88,-0.47,0.02,-0.37,-2.99,-2.14,211,289,215,457,332
924,0.89,-0.46,0.02,-0.24,-3.85,-1.77,211,292,208,454,327
925,0.9,-0.46,0.03,0.55,-2.81,-3.23,212,290,212,455,330
926,0.87,-0.48,0.01,0.98,-4.21,-3.3,213,288,215,453,331
927,0.89,-0.46,0.04,0.85,-2.38,-1.34,224,285,209,461,331
928,0.89,-0.47,0.03,-0.06,-3.97,-1.59,218,288,211,452,333
929,0.89,-0.47,0.01,-0.24,-3.48,-3.36,214,287,213,454,331
930,0.89,-0.46,0.03,0.67,-2.69,-3.48,217,286,216,452,330
931,0.9,-0.45,0.01,0.37,-3.42,-3.23,244,285,215,456,332
932,0.89,-0.46,0.04,0.43,-3.23,-3.42,216,284,211,452,332
933,0.9,-0.45,0.02,2.14,-2.81,-2.14,212,298,214,455,328
934,0.89,-0.45,0.02,-0.85,-2.81,-2.38,243,290,219,456,330
935,0.9,-0.46,-0.0,0.85,-3.05,-6.59,222,292,216,448,332
936,0.9,-0.44,0.02,0.85,-2.69,-3.05,213,287,209,453,335
937,0.9,-0.44,0.02,0.31,-2.99,-2.75,218,286,217,453,330
938,0.9,-0.45,0.03,2.01,-3.97,-4.58,210,284,209,457,331
939,0.91,-0.43,0.02,1.95,-2.01,-2.38,211,289,210,450,332
940,0.89,-0.46,0.01,1.4,-2.81,-3.42,211,286,215,450,333
941,0.91,-0.44,0.03,1.04,-1.59,-1.16,208,285,209,457,333
942,0.89,-0.46,0.02,0.31,-2.93,-3.6,209,288,210,453,333
943,0.88,-0.46,0.02,0.24,-2.81,-2.69,210,289,212,453,333
944,0.89,-0.46,0.03,0.24,-2.32,-2.81,207,283,214,452,330
945,0.89,-0.46,0.03,0.37,-2.62,-2.81,212,287,213,451,333
946,0.89,-0.46,0.02,0.06,-2.81,-2.99,213,285,209,454,332
947,0.9,-0.45,0.02,1.34,-2.93,-2.26,214,289,214,457,330
948,0.89,-0.46,0.01,-0.92,-2.87,-2.14,212,282,216,452,333
949,0.89,-0.45,0.02,0.43,-3.3,-2.44,212,283,212,453,335
950,0.88,-0.47,0.02,-0.61,-2.56,-1.89,212,288,213,448,332
951,0.89,-0.46,0.02,-1.22,-2.26,-2.5,212,292,217,458,332
952,0.89,-0.46,0.02,-0.18,-3.36,-3.36,217,288,210,454,332
953,0.9,-0.45,0.02,0.18,-2.44,-2.5,215,291,212,457,331
954,0.9,-0.45,0.02,0.73,-3.17,-3.05,214,286,208,449,333
955,0.9,-0.46,0.02,-0.31,-3.11,-2.26,212,288,212,460,331
956,0.89,-0.46,0.02,0.67,-3.6,-2.69,215,287,213,452,332
957,0.88,-0.46,0.03,2.99,-4.7,-2.01,210,290,215,456,329
958,0.88,-0.46,0.01,0.61,-2.99,-2.14,216,286,213,456,331
959,0.89,-0.46,0.03,-0.67,-2.2,-3.23,213,286,213,452,333
960,0.9,-0.45,0.02,-0.37,-2.44,-2.87,213,294,213,453,339
961,0.89,-0.45,0.02,0.12,-2.81,-2.62,213,289,211,453,331
962,0.9,-0.44,0.02,0.85,-3.05,-2.32,213,288,212,451,331
963,0.9,-0.44,0.02,0.79,-3.3,-2.08,213,282,213,458,330
964,0.9,-0.44,0.02,-0.12,-2.08,-2.87,215,289,213,454,332
965,0.9,-0.45,0.03,1.28,-4.33,-2.75,215,297,212,449,334
966,0.89,-0.45,0.02,0.37,-2.93,-2.75,217,288,213,457,332
967,0.91,-0.48,0.01,-0.61,-1.34,-2.87,210,288,213,456,332
968,0.89,-0.46,0.02,-1.28,-2.44,-1.77,211,289,211,455,335
969,0.89,-0.45,0.02,-0.61,-2.99,-2.14,213,283,216,458,333
970,0.89,-0.44,0.03,0.12,-2.62,-2.5,213,292,214,456,332
971,0.9,-0.45,0.03,0.73,-2.38,-2.99,210,284,210,452,332
972,0.89,-0.45,0.02,-0.06,-3.72,-2.5,212,286,214,456,329
973,0.89,-0.45,0.02,1.04,-3.17,-3.3,213,286,214,457,338
974,0.89,-0.46,0.02,1.28,-2.75,-2.87,210,284,212,455,333
975,0.89,-0.46,0.02,1.22,-3.97,-2.2,210,288,214,455,327
976,0.9,-0.42,0.03,1.65,-2.93,-1.89,211,287,226,449,330
977,0.88,-0.46,0.04,-1.71,-3.66,-2.62,214,293,212,447,335
978,0.93,-0.43,0.02,4.39,-3.11,-4.88,210,293,212,458,332
979,0.89,-0.46,0.02,0.0,-3.66,-3.85,212,287,216,453,332
980,0.85,-0.48,0.04,-2.5,-3.85,-3.17,210,287,217,452,329
981,0.88,-0.45,0.04,0.67,-1.53,-3.91,213,285,211,457,331
982,0.91,-0.43,0.02,1.77,-3.66,-3.3,210,286,216,460,332
983,0.89,-0.44,0.04,0.73,-0.43,-3.23,214,289,215,454,326
984,0.91,-0.45,0.03,-0.79,-0.61,-5.74,215,291,216,451,327
985,0.92,-0.43,0.02,-0.31,-4.76,-2.75,214,287,212,454,332
986,0.89,-0.43,0.03,1.65,-2.08,-2.93,215,289,211,454,333
987,0.93,-0.42,0.04,3.36,-5.0,-3.36,215,290,217,456,329
988,0.9,-0.44,0.02,-2.2,-2.69,0.55,212,289,214,449,330
989,0.9,-0.44,-0.0,0.31,-3.72,-2.87,220,288,214,457,332
990,0.89,-0.46,0.0,-1.53,-2.87,-1.95,214,287,212,454,329
991,0.85,-0.48,0.0,-3.6,-3.05,-0.12,212,283,214,457,329
992,0.89,-0.46,0.0,-0.31,-2.08,-2.2,214,287,212,453,329
993,0.89,-0.43,-0.02,2.99,-4.88,-0.49,214,286,216,450,326
994,0.88,-0.44,0.03,1.1,-2.32,-2.69,215,286,208,457,328
995,0.9,-0.46,0.02,-0.49,-2.01,-3.23,212,286,212,457,330
996,0.89,-0.46,-0.0,-1.34,-2.87,-2.14,215,287,211,454,331
997,0.88,-0.47,0.0,0.18,-3.17,-2.56,210,286,216,453,330
998,0.9,-0.45,0.0,2.2,-3.72,-0.67,215,290,212,456,326
999,0.89,-0.47,0.01,0.43,-2.62,-2.08,211,285,215,454,333
1000,0.9,-0.45,0.0,1.65,-4.21,-4.88,211,286,209,459,330
1001,0.89,-0.47,-0.0,0.37,-3.42,-1.22,215,290,215,457,328
1002,0.88,-0.47,-0.01,1.04,-1.95,-4.09,214,286,206,456,328
1003,0.89,-0.47,-0.0,0.79,-2.32,-3.05,215,291,213,461,341
1004,0.88,-0.47,0.01,-0.92,-2.32,-1.59,215,287,213,454,331
1005,0.89,-0.47,-0.0,-0.12,-2.93,-2.38,213,290,211,456,332
1006,0.89,-0.47,0.01,-2.93,-1.83,-1.95,213,290,213,456,327
1007,0.88,-0.47,0.01,-0.73,-2.75,-2.75,210,287,215,455,330
1008,0.88,-0.48,-0.0,0.06,-2.93,-2.99,218,286,218,451,332
1009,0.88,-0.48,0.0,0.31,-2.99,-2.75,214,287,213,454,332
1010,0.89,-0.47,-0.0,0.31,-2.62,-3.05,212,283,215,458,329
1011,0.9,-0.46,0.01,-0.24,-3.05,-1.28,214,286,214,455,329
1012,0.88,-0.47,-0.04,1.04,-2.32,-1.59,193,276,193,442,323
1013,0.87,-0.49,-0.03,0.18,-2.75,-1.77,202,286,194,452,322
1014,0.88,-0.46,-0.03,-0.61,-3.05,-0.24,200,274,195,441,326
1015,0.89,-0.46,-0.02,1.59,-2.99,-1.89,207,276,187,442,325
1016,0.87,-0.47,-0.02,1.22,-2.14,-4.46,204,275,177,444,328
1017,0.9,-0.46,-0.02,-0.06,-2.56,-3.91,206,278,189,436,328
1018,0.89,-0.46,-0.03,1.59,-2.5,-3.11,203,277,196,448,325
1019,0.87,-0.47,-0.0,-0.18,-1.4,-1.95,208,277,192,448,328
1020,0.9,-0.46,-0.02,1.77,2.08,-3.54,201,278,190,446,326
1021,0.88,-0.47,-0.01,-0.18,-4.21,-1.89,203,279,185,448,326
1022,0.86,-0.49,0.02,0.55,-7.2,-3.66,197,275,191,443,326
1023,0.87,-0.49,-0.02,0.12,-2.44,3.97,210,278,188,446,326
1024,0.88,-0.47,0.0,-0.43,-4.46,-0.67,203,286,195,447,325
1025,0.88,-0.47,-0.02,-0.24,-2.93,-2.32,203,276,194,443,326
1026,0.89,-0.46,0.01,1.28,-3.05,-1.59,204,278,192,438,329
1027,0.88,-0.47,-0.01,0.0,-2.2,-1.77,206,278,194,443,332
1028,0.89,-0.48,-0.01,0.12,-2.56,-3.23,204,277,192,443,331
1029,0.88,-0.49,-0.01,-0.43,-2.62,-3.66,207,278,194,442,329
1030,0.88,-0.48,-0.02,0.37,-2.93,-2.44,206,279,188,449,330
1031,0.88,-0.48,-0.01,1.34,-3.6,-2.14,203,281,191,438,330
1032,0.88,-0.47,-0.02,1.22,-3.48,-3.42,206,281,192,448,330
1033,0.89,-0.47,-0.01,-0.12,-2.56,-1.4,208,278,204,446,328
1034,0.88,-0.48,-0.0,-2.08,-2.62,-1.22,209,275,194,445,325
1035,0.88,-0.47,0.01,-2.93,-0.85,-3.54,209,281,198,447,327
1036,0.89,-0.48,0.0,0.24,-3.23,-2.14,203,280,195,448,332
1037,0.87,-0.48,-0.02,0.98,-3.85,-2.81,209,276,194,442,328
1038,0.89,-0.48,-0.01,1.59,-4.33,0.92,199,279,199,450,329
1039,0.87,-0.49,-0.01,0.12,-2.99,-2.62,205,276,198,446,332
1040,0.87,-0.49,-0.02,-0.49,-3.97,-3.23,209,281,211,439,326
1041,0.87,-0.48,-0.02,1.53,-4.52,-1.89,207,280,194,449,331
1042,0.86,-0.49,-0.01,-2.01,-1.95,-3.05,207,277,199,449,329
1043,0.88,-0.48,-0.01,-0.12,-3.05,-2.81,206,282,198,446,331
1044,0.88,-0.48,-0.01,-0.24,-3.05,-3.78,207,282,187,444,327
1045,0.88,-0.48,0.0,1.89,-3.17,-2.5,207,280,203,447,331
1046,0.88,-0.47,0.0,2.2,-2.26,-3.72,204,282,200,447,327
1047,0.91,-0.46,0.0,6.29,-4.64,-6.23,206,277,195,443,329
1048,0.87,-0.48,-0.01,1.65,-1.1,-5.19,211,290,197,444,328
1049,0.88,-0.47,0.01,0.73,-2.44,-5.07,208,274,201,439,328
1050,0.9,-0.46,0.0,-3.66,-2.93,-1.1,204,281,198,446,330
1051,0.88,-0.47,-0.0,-0.06,-3.91,-0.98,203,280,200,439,329
1052,0.88,-0.47,-0.02,0.49,-2.87,-3.6,209,281,200,444,330
1053,0.89,-0.47,-0.0,1.53,-2.44,-0.92,208,282,197,448,329
1054,0.88,-0.47,-0.01,0.12,-3.17,-2.38,206,284,195,448,331
1055,0.89,-0.47,-0.01,3.6,-3.54,-3.36,204,282,197,448,328
1056,0.89,-0.47,-0.0,0.61,-2.99,-3.48,208,279,188,447,327
1057,0.89,-0.47,-0.01,2.38,-2.5,-2.99,207,279,198,444,332
1058,0.88,-0.47,-0.01,2.2,-3.11,-1.89,209,281,197,449,332
1059,0.88,-0.47,0.01,0.0,-2.01,-2.62,208,282,198,444,329
1060,0.88,-0.49,-0.01,0.61,-2.26,-2.81,210,277,188,449,329
1061,0.88,-0.48,-0.01,0.49,-3.05,-2.38,207,282,198,449,324
1062,0.89,-0.47,-0.0,0.79,-2.93,-2.32,208,280,197,447,330
1063,0.88,-0.48,-0.01,-0.06,-3.17,-2.5,206,280,203,446,329
1064,0.87,-0.48,-0.01,0.85,-2.2,-2.87,209,273,201,442,322
1065,0.88,-0.47,0.0,0.67,-2.75,-3.23,212,279,200,456,328
1066,0.89,-0.47,0.0,1.04,-3.23,-2.2,203,284,198,444,330
1067,0.88,-0.48,0.0,1.04,-2.56,-2.87,211,282,199,452,332
1068,0.88,-0.48,-0.0,0.24,-2.32,-3.54,210,280,196,441,329
1069,0.88,-0.47,-0.0,-0.43,-2.81,-1.83,206,281,205,449,330
1070,0.86,-0.46,-0.01,1.1,-3.72,-2.5,209,281,199,451,325
1071,0.87,-0.48,-0.01,0.0,-2.38,-3.11,205,283,199,441,325
1072,0.87,-0.47,-0.01,0.61,-2.2,-2.93,206,285,195,450,329
1073,0.88,-0.47,-0.01,0.06,-2.75,-3.05,206,277,201,451,328
1074,0.89,-0.46,-0.0,0.06,-2.75,-3.3,206,278,207,446,331
1075,0.89,-0.47,-0.0,-0.12,-2.99,-2.87,209,281,206,448,328
1076,0.89,-0.46,-0.01,-0.37,-2.56,-2.62,210,281,199,444,328
1077,0.89,-0.46,-0.0,-0.67,-2.87,-2.75,207,280,189,451,323
1078,0.89,-0.47,-0.0,1.53,-3.78,-1.83,209,282,199,447,339
1079,0.88,-0.47,-0.01,0.98,-3.17,-1.46,208,283,198,448,328
1080,0.87,-0.48,-0.01,0.18,-3.11,-1.77,234,280,200,445,327
1081,0.88,-0.48,-0.01,-0.18,-2.32,-2.93,207,281,201,450,331
1082,0.88,-0.48,-0.02,0.18,-2.38,-3.36,213,283,201,443,329
1083,0.87,-0.47,-0.0,0.18,-2.69,-3.05,210,283,199,447,330
1084,0.87,-0.46,-0.0,0.61,-2.75,-2.5,207,283,199,443,330
1085,0.88,-0.47,-0.01,1.46,-2.99,-2.93,212,277,205,450,328
1086,0.89,-0.46,-0.0,0.49,-2.62,-2.62,206,279,201,448,325
1087,0.88,-0.47,-0.01,0.55,-3.3,-1.77,210,283,199,445,333
1088,0.88,-0.47,-0.0,-0.12,-3.05,-1.77,208,279,198,452,331
1089,0.88,-0.48,-0.0,1.4,-3.66,-1.71,209,280,198,444,332
1090,0.87,-0.48,-0.02,-0.18,-2.14,-2.93,206,278,195,440,330
1091,0.87,-0.48,-0.02,0.24,-2.62,-2.81,206,281,201,448,328
1092,0.88,-0.47,0.0,-0.98,-3.05,-2.69,203,281,200,446,328
1093,0.9,-0.47,-0.0,-0.61,-2.69,-2.38,206,280,201,448,326
1094,0.88,-0.47,-0.01,0.43,-3.11,-2.5,207,279,202,441,328
1095,0.89,-0.47,-0.01,1.28,-3.11,-3.72,209,283,199,440,334
1096,0.89,-0.48,-0.02,2.14,-3.66,-2.81,207,274,203,446,330
1097,0.89,-0.48,-0.0,0.79,-2.99,-1.59,211,282,201,450,324
1098,0.89,-0.48,-0.02,-0.37,-2.87,-1.71,206,281,203,442,326
1099,0.87,-0.49,-0.0,0.12,-2.32,-3.17,207,283,197,452,331
1100,0.87,-0.48,0.0,-0.37,-2.44,-2.81,208,282,200,448,326
1101,0.88,-0.48,0.0,-0.37,-2.93,-2.93,208,281,203,447,325
1102,0.88,-0.47,-0.0,-0.73,-2.38,-2.44,210,279,201,448,331
1103,0.89,-0.48,-0.01,0.43,-2.56,-2.56,207,280,202,447,329
1104,0.88,-0.48,0.0,0.06,-2.93,-2.08,207,282,207,448,333
1105,0.88,-0.47,-0.0,0.12,-3.54,-1.4,208,281,205,450,331
1106,0.87,-0.48,-0.01,0.55,-3.72,-1.77,207,281,196,451,327
1107,0.88,-0.48,-0.01,0.24,-3.05,-2.32,210,280,202,450,329
1108,0.87,-0.49,-0.01,-1.04,-2.99,-1.71,203,284,203,448,326
1109,0.87,-0.49,-0.01,-0.12,-2.26,-2.56,208,280,203,448,332
1110,0.89,-0.48,-0.0,0.67,-2.62,-2.87,211,284,204,448,329
1111,0.88,-0.48,-0.0,-0.06,-1.95,-2.99,209,283,194,448,331
1112,0.88,-0.47,-0.01,0.06,-3.23,-3.11,208,287,203,446,324
1113,0.88,-0.48,-0.0,1.4,-2.87,-3.66,212,278,204,453,330
1114,0.89,-0.48,-0.01,1.34,-3.05,-3.48,210,282,201,448,329
1115,0.86,-0.47,-0.0,-0.49,-3.42,-1.59,208,277,203,447,326
1116,0.88,-0.48,-0.01,1.16,-3.48,-2.38,210,284,203,446,333
1117,0.88,-0.47,-0.01,-0.43,-2.75,-1.28,215,283,202,444,330
1118,0.88,-0.48,-0.0,1.04,-2.5,-2.38,209,287,205,446,330
1119,0.89,-0.49,-0.01,-0.06,-2.56,-3.3,208,282,202,445,328
1120,0.87,-0.47,-0.01,0.24,-2.14,-2.26,208,282,199,451,328
1121,0.89,-0.48,0.0,1.46,-2.87,-2.75,205,282,207,443,331
1122,0.88,-0.46,0.0,0.73,-3.11,-1.89,207,284,202,445,329
1123,0.89,-0.48,-0.01,0.24,-3.3,-3.11,207,281,199,451,331
1124,0.88,-0.48,0.0,0.61,-2.93,-3.05,212,281,202,450,330
1125,0.89,-0.48,0.01,0.98,-2.32,-3.23,208,284,202,439,327
1126,0.88,-0.5,0.0,-0.61,-1.89,-1.89,208,284,202,442,332
1127,0.87,-0.49,0.01,-0.61,-1.53,-2.44,209,286,208,454,331
1128,0.88,-0.49,0.01,0.92,-2.81,-3.48,210,281,201,447,325
1129,0.87,-0.48,-0.0,1.04,-2.32,-2.75,214,284,195,448,332
1130,0.88,-0.48,0.01,-0.06,-3.91,-2.08,211,283,201,449,329
1131,0.88,-0.49,0.0,0.43,-3.48,-1.22,210,283,202,446,326
1132,0.88,-0.48,-0.0,-0.49,-2.99,-1.95,201,285,204,447,332
1133,0.88,-0.49,0.0,0.67,-3.6,-2.75,211,280,206,442,332
1134,0.87,-0.48,0.0,0.06,-2.69,-2.32,205,286,204,450,331
1135,0.88,-0.48,0.01,1.04,-3.48,-3.05,211,285,202,455,327
1136,0.87,-0.48,0.0,0.06,-2.56,-2.99,211,288,204,446,328
1137,0.87,-0.48,0.0,0.92,-2.56,-2.81,211,285,202,452,329
1138,0.88,-0.47,0.0,0.0,-3.05,-2.32,209,281,201,445,323
1139,0.88,-0.48,0.01,0.61,-2.81,-2.62,211,284,205,452,330
1140,0.9,-0.48,0.01,0.18,-3.3,-2.26,213,282,210,449,331
1141,0.87,-0.49,0.01,-0.49,-2.87,-1.77,210,285,208,441,328
1142,0.87,-0.49,-0.0,0.12,-3.17,-2.56,211,290,207,455,328
1143,0.88,-0.48,0.0,-0.24,-2.75,-2.26,208,276,205,448,329
1144,0.87,-0.48,-0.0,-0.24,-2.69,-2.5,212,279,208,451,329
1145,0.88,-0.48,0.0,0.0,-2.56,-3.3,211,283,209,450,324
1146,0.89,-0.48,0.01,-0.12,-3.17,-3.11,210,283,198,448,330
1147,0.88,-0.47,0.01,0.79,-2.87,-2.08,216,288,205,450,329
1148,0.87,-0.48,0.02,0.24,-2.69,-2.32,210,292,204,450,328
1149,0.88,-0.47,-0.0,2.26,-3.6,-2.87,214,290,203,448,330
1150,0.87,-0.47,-0.0,0.49,-4.33,-2.62,214,285,193,448,330
1151,0.88,-0.47,0.01,1.22,-2.44,-2.08,208,285,207,446,326
1152,0.88,-0.48,0.0,0.49,-2.87,-2.38,210,280,200,437,328
1153,0.88,-0.47,0.0,-0.61,-2.99,-3.3,214,287,202,446,328
1154,0.89,-0.46,0.01,1.65,-2.69,-4.58,208,283,205,450,330
1155,0.88,-0.48,0.02,0.31,-2.75,-3.72,214,277,202,445,332
1156,0.89,-0.46,0.01,0.12,-3.6,-2.08,212,285,200,447,331
1157,0.88,-0.46,0.02,-1.95,-3.3,0.06,209,288,210,442,329
1158,0.89,-0.47,0.01,-1.83,-3.54,-2.01,210,283,206,445,329
1159,0.88,-0.47,0.01,-1.16,-2.44,-3.05,215,282,205,451,330
1160,0.87,-0.48,0.01,-3.6,-0.85,-3.72,211,281,208,445,329
1161,0.89,-0.46,0.03,-4.03,-1.77,-2.56,206,286,209,449,331
1162,0.9,-0.46,-0.0,0.49,-4.21,-3.85,209,285,204,449,333
1163,0.89,-0.44,-0.0,-1.28,-3.97,-1.71,206,286,202,442,330
1164,0.87,-0.48,0.01,2.01,-6.53,1.28,208,284,208,448,332
1165,0.89,-0.47,0.0,1.53,-5.19,-0.49,205,283,207,453,330
1166,0.88,-0.49,-0.02,-0.67,-2.87,-1.4,211,281,205,443,328
1167,0.87,-0.49,-0.01,0.49,-3.42,-2.69,212,282,205,445,325
1168,0.87,-0.49,-0.02,-0.55,-3.48,-2.26,209,287,205,445,332
1169,0.88,-0.48,-0.01,-0.24,-2.56,-2.32,212,293,208,446,329
1170,0.91,-0.47,0.0,0.0,-1.83,-2.69,209,286,211,446,330
1171,0.86,-0.5,0.0,-1.77,-4.76,-0.24,207,282,204,448,330
1172,0.9,-0.45,-0.0,4.7,-1.77,-1.71,211,286,207,444,330
1173,0.91,-0.44,-0.01,5.37,-4.39,-3.23,207,283,204,448,328
1174,0.88,-0.47,0.01,-0.24,-2.2,-1.34,208,284,205,451,326
1175,0.89,-0.47,-0.01,-2.69,-2.5,0.24,210,283,199,453,329
1176,0.89,-0.47,-0.01,-1.77,-2.81,0.31,209,278,201,449,326
1177,0.85,-0.49,-0.01,0.61,-1.95,-3.23,210,285,203,451,328
1178,0.87,-0.49,-0.04,-1.16,-0.55,-7.57,214,285,213,445,327
1179,0.93,-0.42,0.02,1.34,-0.85,-3.48,211,283,204,450,331
1180,0.91,-0.43,0.03,3.23,-2.44,-2.75,209,284,204,447,331
1181,0.9,-0.44,-0.0,-0.61,-3.36,-3.54,216,279,209,448,334
1182,0.9,-0.44,0.01,3.3,-1.53,-1.89,207,284,206,439,332
1183,0.9,-0.45,0.02,-0.85,-4.33,-4.7,210,291,209,448,329
1184,0.9,-0.44,0.02,1.22,-3.97,-2.56,211,284,207,445,330
1185,0.9,-0.44,0.01,1.46,-3.42,-2.5,208,285,205,447,329
1186,0.89,-0.45,0.01,-0.49,-2.01,-2.01,210,285,207,451,333
1187,0.89,-0.44,0.02,0.37,-3.05,-2.81,211,284,209,448,325
1188,0.9,-0.44,0.01,0.61,-2.62,-2.38,211,285,208,450,331
1189,0.9,-0.43,0.02,0.67,-2.08,-2.99,214,280,207,443,332
1190,0.9,-0.43,0.03,0.98,-2.99,-2.81,210,278,202,450,328
1191,0.91,-0.45,0.03,0.73,-2.44,-4.27,217,283,206,453,330
1192,0.89,-0.44,0.02,0.61,-1.77,-3.11,211,283,209,451,329
1193,0.9,-0.44,0.02,0.18,-3.23,-2.62,211,286,203,448,332
1194,0.9,-0.45,0.02,0.67,-3.11,-2.69,211,285,207,450,328
1195,0.91,-0.44,0.02,0.67,-3.17,-2.56,211,299,204,450,330
1196,0.9,-0.44,0.03,1.34,-2.69,-2.75,211,279,209,444,329
1197,0.89,-0.44,0.01,0.12,-2.87,-3.36,211,279,207,451,331
1198,0.91,-0.43,0.01,1.22,-3.17,-2.56,210,286,206,446,331
1199,0.89,-0.45,0.02,0.43,-2.75,-1.89,210,285,214,452,328
1200,0.89,-0.45,0.02,-0.24,-3.17,-4.94,212,283,208,448,329
1201,0.9,-0.44,0.03,-0.18,-1.95,-2.38,215,285,209,450,333
1202,0.89,-0.45,0.03,0.06,-2.93,-3.54,209,287,209,453,328
1203,0.89,-0.44,0.03,1.77,-3.36,-2.93,212,284,205,452,331
1204,0.89,-0.44,0.04,0.06,-2.62,-3.6,210,287,205,452,328
1205,0.91,-0.43,0.03,1.34,-3.17,-2.44,210,281,208,444,330
1206,0.91,-0.44,0.02,-0.61,-2.32,-2.62,213,288,208,446,327
1207,0.9,-0.43,0.02,1.65,-3.11,-3.05,210,284,206,457,331
1208,0.9,-0.43,0.03,0.49,-2.62,-2.99,215,289,205,448,330
1209,0.9,-0.43,0.03,0.67,-2.93,-2.69,214,284,211,443,330
1210,0.9,-0.43,0.03,0.67,-2.38,-2.99,211,284,208,448,333
1211,0.91,-0.43,0.03,-1.28,-3.42,-1.95,216,284,210,452,328
1212,0.91,-0.43,0.03,0.49,-2.81,-2.38,208,294,198,444,334
1213,0.9,-0.43,0.03,0.43,-2.99,-2.69,211,285,206,451,330
1214,0.9,-0.43,0.03,0.85,-3.48,-2.56,211,284,208,443,331
1215,0.91,-0.44,0.03,0.49,-2.38,-2.75,210,287,222,454,329
1216,0.91,-0.44,0.02,0.61,-2.44,-3.36,210,282,205,446,332
1217,0.9,-0.43,0.02,0.12,-2.81,-2.93,211,284,202,451,328
1218,0.91,-0.43,0.03,0.24,-3.11,-2.81,213,282,208,449,332
1219,0.91,-0.43,0.03,0.73,-2.81,-2.75,213,287,211,450,332
1220,0.91,-0.44,0.03,0.24,-3.17,-2.93,214,285,212,455,331
1221,0.91,-0.43,0.03,-0.43,-2.56,-2.38,211,281,207,450,332
1222,0.9,-0.44,0.03,-0.12,-3.05,-2.93,210,286,208,455,331
1223,0.9,-0.43,0.03,0.0,-3.36,-2.08,215,281,210,450,329
1224,0.9,-0.43,0.03,1.04,-2.32,-2.26,211,285,211,455,331
1225,0.9,-0.44,0.03,0.73,-3.36,-2.81,212,286,199,448,327
1226,0.9,-0.43,0.02,-0.67,-2.56,-2.99,211,285,207,449,332
1227,0.9,-0.43,0.02,0.31,-3.23,-2.26,214,283,204,453,330
1228,0.9,-0.43,0.03,-0.06,-2.2,-2.44,220,287,206,451,332
1229,0.9,-0.43,0.03,0.18,-2.99,-2.56,211,287,213,456,329
1230,0.9,-0.43,0.03,0.31,-2.62,-2.69,212,286,210,450,331
1231,0.9,-0.43,0.03,0.85,-3.54,-2.44,213,286,213,452,335
1232,0.9,-0.44,0.03,0.98,-3.17,-2.75,210,278,208,451,331
1233,0.9,-0.43,0.03,0.0,-3.3,-2.01,216,285,211,452,330
1234,0.9,-0.43,0.02,-0.55,-2.38,-2.69,212,286,207,453,330
1235,0.91,-0.43,0.02,0.85,-3.05,-3.11,211,287,214,446,329
1236,0.9,-0.44,0.02,-0.43,-2.62,-1.83,207,289,212,450,332
1237,0.9,-0.43,0.03,-0.18,-2.44,-2.2,214,287,209,454,330
1238,0.9,-0.43,0.03,-0.24,-2.69,-2.62,212,286,209,451,331
1239,0.9,-0.43,0.03,-0.43,-2.69,-2.08,212,288,209,447,328
1240,0.9,-0.43,0.02,0.61,-3.36,-2.44,213,285,201,456,329
1241,0.9,-0.44,0.02,0.43,-3.42,-2.5,215,280,208,450,331
1242,0.89,-0.43,0.03,-0.06,-2.2,-1.71,213,285,212,451,333
1243,0.9,-0.43,0.03,0.18,-2.99,-2.62,217,286,209,449,330
1244,0.9,-0.43,0.03,0.12,-2.56,-3.23,212,289,211,452,330
1245,0.9,-0.43,0.03,-0.06,-2.69,-2.56,206,284,209,455,326
1246,0.91,-0.43,0.03,0.79,-2.62,-2.81,213,288,207,450,333
1247,0.9,-0.44,0.03,-0.49,-2.99,-2.26,209,285,209,452,330
1248,0.89,-0.43,0.02,0.12,-2.62,-2.44,211,288,202,455,331
1249,0.9,-0.43,0.03,0.85,-3.36,-2.01,214,288,210,454,324
1250,0.91,-0.43,0.03,0.79,-3.11,-1.77,211,285,207,455,327
1251,0.9,-0.43,0.03,1.04,-2.87,-3.6,209,283,208,450,332
1252,0.91,-0.43,0.03,1.04,-2.99,-3.66,213,284,212,445,332
1253,0.9,-0.43,0.02,1.65,-2.87,-3.54,215,289,215,455,334
1254,0.9,-0.43,0.02,2.2,-3.6,-4.09,215,285,209,451,330
1255,0.92,-0.42,0.03,0.55,-3.05,-2.26,210,282,209,451,331
1256,0.92,-0.42,0.04,1.65,-2.75,-4.76,209,288,207,452,332
1257,0.89,-0.44,0.01,-0.61,-3.3,-1.46,213,285,204,448,333
1258,0.9,-0.43,0.03,-0.18,-3.23,-1.22,212,289,209,446,331
1259,0.91,-0.43,0.03,0.12,-2.14,-3.48,212,290,210,452,332
1260,0.91,-0.44,0.02,0.55,-3.54,-2.32,212,286,211,447,333
1261,0.91,-0.43,0.02,1.83,-3.36,-2.44,214,285,216,455,327
1262,0.91,-0.43,0.03,1.1,-2.69,-2.81,211,283,208,450,331
1263,0.9,-0.43,0.02,1.59,-3.78,-2.32,211,288,208,452,331
1264,0.9,-0.42,0.03,-0.49,-3.05,-2.62,213,287,205,456,332
1265,0.9,-0.43,0.02,1.22,-3.3,-2.87,212,289,214,450,336
1266,0.9,-0.44,0.02,0.92,-4.09,-2.99,206,283,211,455,331
1267,0.9,-0.43,0.02,-0.24,-2.56,-2.08,216,289,211,452,331
1268,0.9,-0.44,0.02,-0.24,-2.56,-2.56,214,285,209,453,331
1269,0.89,-0.43,0.02,0.12,-2.62,-2.44,209,289,213,451,330
1270,0.9,-0.44,0.02,1.22,-2.81,-2.93,213,287,213,446,327
1271,0.9,-0.44,0.02,0.06,-2.75,-3.48,207,287,213,454,330
1272,0.91,-0.43,0.02,-0.18,-2.38,-2.14,205,288,211,456,331
1273,0.9,-0.44,0.04,1.28,-2.75,-3.78,212,285,210,460,331
1274,0.9,-0.43,0.02,1.53,-3.05,-2.5,211,291,215,449,331
1275,0.91,-0.42,0.03,1.71,-3.3,-3.3,208,287,209,454,331
1276,0.92,-0.41,0.02,1.4,-2.87,-2.5,209,284,209,448,332
1277,0.9,-0.44,0.02,0.18,-3.17,-3.3,211,285,211,454,334
1278,0.92,-0.43,0.02,0.79,-2.99,-3.05,213,285,205,450,328
1279,0.9,-0.43,0.03,-0.55,-2.5,-1.77,212,288,211,447,333
1280,0.9,-0.43,0.03,-0.18,-2.81,-2.44,210,283,208,447,331
1281,0.9,-0.42,0.03,0.31,-3.05,-2.5,205,288,209,453,328
1282,0.9,-0.43,0.02,-0.06,-3.23,-2.32,210,285,202,453,331
1283,0.91,-0.43,0.03,1.04,-3.11,-2.56,207,283,208,448,332
1284,0.91,-0.42,0.03,1.34,-2.87,-2.75,205,287,212,454,330
1285,0.9,-0.43,0.03,-0.73,-3.42,-2.44,207,287,211,453,331
1286,0.92,-0.43,0.03,2.2,-2.38,-3.72,208,290,212,450,332
1287,0.9,-0.44,0.03,0.06,-2.99,-2.99,213,286,215,455,333
1288,0.89,-0.44,0.03,-0.12,-3.85,-2.38,214,284,208,454,331
1289,0.9,-0.44,0.03,0.0,-2.62,-1.89,220,287,205,453,331
1290,0.91,-0.44,0.02,1.53,-2.56,-3.85,208,284,211,453,331
1291,0.91,-0.43,0.03,1.04,-2.99,-3.23,214,288,208,455,331
1292,0.91,-0.43,0.03,0.73,-3.11,-1.77,217,290,203,452,332
1293,0.9,-0.44,0.03,-0.18,-2.14,-2.38,211,278,207,450,335
1294,0.9,-0.43,0.03,0.0,-3.3,-1.1,215,290,212,456,334
1295,0.9,-0.43,0.03,-0.24,-2.2,-3.17,210,283,209,454,328
1296,0.91,-0.42,0.02,0.06,-2.38,-2.56,210,288,209,445,332
1297,0.9,-0.42,0.03,0.24,-3.05,-2.32,213,287,207,456,332
1298,0.89,-0.44,0.02,0.31,-3.91,-2.26,211,283,212,451,330
1299,0.91,-0.42,0.03,0.73,-2.81,-2.08,216,285,211,451,332
1300,0.9,-0.43,0.04,-3.66,-0.06,-0.73,212,289,208,464,332
1301,0.92,-0.41,0.02,-0.18,-1.77,-2.99,218,291,212,452,330
1302,0.91,-0.42,0.02,2.56,-3.72,-2.81,212,286,212,452,329
1303,0.9,-0.43,0.01,0.0,-3.3,-2.56,214,286,206,454,333
1304,0.91,-0.42,0.0,0.85,-2.93,-2.56,209,285,210,463,331
1305,0.89,-0.42,0.0,2.56,-4.94,-2.81,216,287,209,451,329
1306,0.91,-0.42,0.02,0.49,-2.87,-2.5,215,289,208,455,334
1307,0.92,-0.42,0.03,1.77,-3.05,-3.05,213,294,208,454,335
1308,0.91,-0.42,0.03,1.4,-2.87,-2.32,211,290,207,453,331
1309,0.91,-0.43,0.01,0.37,-3.11,-1.71,213,288,214,457,331
1310,0.91,-0.44,0.01,0.49,-3.6,-3.78,213,285,209,451,333
1311,0.91,-0.42,0.01,0.24,-2.69,-2.87,214,288,218,454,331
1312,0.91,-0.45,0.02,-1.46,-2.5,-3.85,213,286,210,453,330
1313,0.9,-0.42,0.02,0.67,-3.11,-1.83,214,295,217,451,330
1314,0.91,-0.43,0.02,-0.06,-3.23,-2.26,214,291,213,456,329
1315,0.9,-0.43,0.02,0.37,-2.93,-1.59,212,286,211,451,330
1316,0.91,-0.42,0.01,0.55,-3.3,-3.05,213,286,205,451,333
1317,0.9,-0.42,0.02,1.04,-3.23,-2.08,214,287,209,451,331
1318,0.9,-0.46,0.01,-0.06,-1.95,-2.93,215,286,209,452,328
1319,0.87,-0.46,0.0,0.49,-1.46,-3.78,215,291,212,452,333
1320,0.93,-0.4,0.03,2.56,-3.05,-1.1,212,283,211,453,334
1321,0.88,-0.47,-0.03,-5.37,-4.46,1.77,212,286,211,457,329
1322,0.84,-0.49,0.01,1.46,-3.54,-6.1,241,286,212,452,335
1323,0.88,-0.46,-0.01,-0.61,-2.14,-3.97,212,286,212,453,331
1324,0.85,-0.48,0.03,-4.52,-3.85,-0.67,213,289,205,451,332
1325,0.89,-0.47,0.03,-0.12,-3.91,-1.46,212,288,211,452,331
1326,0.9,-0.44,-0.0,-0.98,-2.08,-1.53,212,283,206,456,330
1327,0.9,-0.45,0.04,2.56,-2.62,-2.56,214,288,211,450,333
1328,0.9,-0.44,0.01,1.22,-3.3,-3.3,213,286,212,449,330
1329,0.9,-0.45,0.01,0.43,-3.85,-2.14,214,289,211,456,332
1330,0.89,-0.45,0.01,1.1,-2.87,-1.83,214,286,208,445,332
1331,0.9,-0.44,0.03,0.67,-3.23,-2.62,211,299,217,451,334
1332,0.9,-0.45,0.02,1.46,-3.3,-1.71,209,288,214,452,333
1333,0.89,-0.45,0.01,2.01,-4.58,-1.53,215,280,210,449,335
1334,0.89,-0.46,0.01,1.77,-3.11,-2.75,214,290,213,452,329
1335,0.89,-0.46,0.01,0.79,-3.11,-2.5,215,285,215,451,334
1336,0.89,-0.46,0.01,-1.4,-2.87,-2.38,212,286,209,453,330
1337,0.88,-0.44,0.02,0.31,-2.99,-2.44,211,287,209,454,330
1338,0.89,-0.46,0.01,-0.67,-3.48,-2.62,213,289,211,453,331
1339,0.9,-0.45,0.02,0.61,-3.17,-2.38,211,293,213,454,329
1340,0.9,-0.46,0.01,1.83,-3.42,-2.87,206,289,213,449,328
1341,0.88,-0.45,0.02,1.46,-3.42,-2.56,213,288,209,453,332
1342,0.89,-0.47,0.01,1.28,-3.17,-2.32,213,286,212,452,332
1343,0.89,-0.46,0.03,-0.06,-2.01,-1.59,215,287,213,448,330
1344,0.87,-0.48,0.0,0.12,-2.5,-3.78,211,285,211,450,336
1345,0.9,-0.45,0.03,-0.73,-2.38,-5.07,213,289,210,456,335
1346,0.9,-0.45,0.03,0.0,-2.44,-2.69,210,285,209,451,333
1347,0.9,-0.45,0.03,0.61,-3.05,-1.65,211,286,203,455,333
1348,0.89,-0.48,0.03,0.92,-2.69,-3.42,214,290,203,453,334
1349,0.89,-0.45,0.02,0.24,-3.42,-2.99,215,285,211,454,331
1350,0.88,-0.46,0.02,0.73,-4.03,-2.2,212,286,199,451,333
1351,0.87,-0.48,0.01,0.43,-3.6,-2.87,212,286,215,461,335
1352,0.89,-0.46,0.03,-0.67,-3.23,-2.26,211,289,212,447,337
1353,0.9,-0.45,0.03,1.71,-2.32,-1.95,215,288,207,455,331
1354,0.9,-0.45,0.03,0.06,-2.69,-1.53,208,286,208,456,334
1355,0.9,-0.45,0.01,-0.61,-2.14,-2.14,209,286,216,452,327
1356,0.91,-0.44,0.02,0.85,-2.44,-1.65,209,285,200,452,333
1357,0.9,-0.45,0.01,0.31,-2.93,-0.61,213,286,210,455,332
1358,0.89,-0.46,0.01,0.92,-2.14,-4.52,209,286,212,445,332
1359,0.89,-0.45,0.02,0.61,-2.93,-4.88,213,288,209,446,333
1360,0.9,-0.43,0.02,-0.49,-2.08,-2.38,221,286,209,448,331
1361,0.91,-0.44,0.03,-2.01,-2.99,-1.34,210,287,214,450,330
1362,0.91,-0.43,0.03,0.24,-2.75,-3.05,212,287,214,451,328
1363,0.9,-0.44,0.02,-0.49,-2.62,-2.2,213,285,210,453,329
1364,0.89,-0.44,0.04,0.0,-1.95,-2.62,210,281,213,449,332
1365,0.89,-0.44,0.03,0.61,-3.23,-2.75,214,286,208,456,333
1366,0.89,-0.45,0.01,1.1,-3.11,-1.95,211,287,204,447,330
1367,0.9,-0.44,0.01,0.92,-3.42,-1.59,214,287,206,455,333
1368,0.91,-0.45,0.02,0.92,-2.69,-3.17,215,290,213,455,333
1369,0.89,-0.45,0.01,0.61,-2.44,-3.17,212,288,210,454,330
1370,0.89,-0.44,0.02,0.0,-2.56,-1.65,211,287,211,447,334
1371,0.9,-0.45,0.02,0.24,-2.69,-2.32,212,289,211,465,333
1372,0.89,-0.45,0.02,-0.12,-2.87,-2.56,211,291,213,452,328
1373,0.89,-0.45,0.02,-0.24,-2.81,-2.2,209,288,207,455,332
1374,0.89,-0.45,0.03,0.37,-2.38,-2.75,214,287,209,448,325
1375,0.89,-0.45,0.02,-0.49,-2.2,-4.09,211,288,215,456,330
1376,0.91,-0.42,0.01,1.83,-2.44,-1.77,214,288,201,449,332
1377,0.91,-0.44,0.02,1.16,-2.69,-2.01,211,287,215,457,327
1378,0.89,-0.44,0.02,0.79,-3.11,-2.62,211,289,213,449,330
1379,0.9,-0.44,0.02,0.43,-3.23,-2.5,213,289,213,453,328
1380,0.89,-0.45,0.02,-0.61,-2.56,-2.81,215,286,214,454,332
1381,0.9,-0.45,0.03,0.37,-1.28,-3.42,213,293,212,456,331
1382,0.91,-0.43,0.02,1.16,-0.85,-2.69,210,288,212,451,333
1383,0.9,-0.44,0.03,0.31,-2.5,-2.56,215,285,213,457,327
1384,0.9,-0.44,0.04,-0.79,-3.23,-1.53,211,288,212,454,331
1385,0.9,-0.44,0.03,0.49,-3.85,-1.34,210,289,213,452,329
1386,0.89,-0.45,0.03,1.95,-3.05,-2.5,213,282,216,454,332
1387,0.9,-0.44,0.04,-0.92,-3.72,-1.4,216,286,215,456,327
1388,0.9,-0.45,0.02,-0.06,-2.93,-1.04,212,286,212,453,329
1389,0.9,-0.45,0.03,0.79,-2.93,-1.22,218,286,218,448,333
1390,0.89,-0.46,0.02,0.79,-3.05,-1.77,215,287,217,448,331
1391,0.89,-0.47,0.01,0.55,-3.11,-2.38,212,286,213,459,330
1392,0.89,-0.46,0.02,0.37,-2.2,-3.36,211,287,208,453,333
1393,0.89,-0.45,0.02,0.55,-3.3,-5.74,212,288,210,455,331
1394,0.88,-0.45,-0.0,4.03,-2.38,-10.56,214,287,202,457,333
1395,0.92,-0.41,0.03,-2.32,-1.89,-0.79,212,286,211,451,332
1396,0.89,-0.43,0.01,2.2,-4.09,-3.3,215,285,212,446,334
1397,0.89,-0.43,0.03,-2.38,-1.59,-3.3,211,280,213,453,333
1398,0.92,-0.39,0.06,0.37,-2.62,-2.69,212,292,213,456,332
1399,0.9,-0.41,0.03,-1.71,-2.32,-1.53,215,289,211,451,332
1400,0.91,-0.4,0.02,-1.77,-2.93,-0.92,214,288,214,455,332
1401,0.91,-0.41,0.03,-0.73,-0.67,-2.62,209,288,212,454,331
1402,0.87,-0.47,0.04,-2.26,-3.23,-6.41,213,288,217,455,329
1403,0.92,-0.41,0.05,0.31,-2.56,-2.14,212,291,217,455,330
1404,0.91,-0.41,0.05,-0.24,-2.93,-0.55,216,286,210,452,331
1405,0.91,-0.44,0.05,-0.31,-3.11,-1.59,212,285,214,452,334
1406,0.89,-0.43,0.04,-0.79,-3.97,-1.4,217,289,212,453,327
1407,0.9,-0.42,0.05,0.73,-3.36,-0.85,214,283,204,454,332
1408,0.89,-0.43,0.04,-0.85,-3.72,-1.77,212,284,214,453,334
1409,0.91,-0.42,0.03,1.04,-3.54,-4.33,215,289,203,457,326
1410,0.9,-0.44,0.03,-1.46,-3.97,-1.77,212,289,209,449,341
1411,0.9,-0.45,0.03,5.31,-3.66,-2.08,212,290,207,453,332
1412,0.9,-0.45,0.02,2.01,-4.09,-1.28,213,283,216,454,332
1413,0.91,-0.44,0.02,-0.49,-2.81,-0.79,209,290,208,456,333
1414,0.87,-0.48,0.02,-0.12,-1.04,-2.44,213,287,210,452,331
1415,0.88,-0.47,0.02,2.01,-2.5,-2.32,212,289,215,453,332
1416,0.88,-0.48,0.03,-0.73,-1.16,-2.99,213,287,216,453,334
1417,0.87,-0.48,0.03,-0.73,-2.32,-1.28,212,286,213,454,330
1418,0.88,-0.48,0.03,-0.24,-2.75,-0.98,212,289,210,451,328
1419,0.89,-0.47,0.03,-0.24,-2.87,-2.38,212,288,215,457,331
1420,0.89,-0.47,0.02,2.5,-3.48,-3.78,214,285,209,454,332
1421,0.89,-0.49,0.03,0.37,-2.75,-4.76,212,282,211,451,331
1422,0.88,-0.47,0.02,0.18,-3.17,-2.87,217,290,209,452,329
1423,0.88,-0.48,0.02,0.37,-2.81,-2.69,213,292,210,456,332
1424,0.87,-0.47,0.03,-1.1,-1.53,-2.93,213,287,219,455,330
1425,0.89,-0.46,0.03,-0.18,-2.26,-3.17,215,287,212,453,335
1426,0.9,-0.46,0.04,-0.37,-3.05,-2.2,213,283,211,452,329
1427,0.88,-0.46,0.03,0.43,-3.05,-2.08,213,288,216,444,333
1428,0.88,-0.48,0.02,1.1,-2.93,-3.11,214,290,213,455,334
1429,0.88,-0.47,0.02,-0.37,-2.99,-2.14,211,289,215,457,332
1430,0.89,-0.46,0.02,-0.24,-3.85,-1.77,211,292,208,454,327
1431,0.9,-0.46,0.03,0.55,-2.81,-3.23,212,290,212,455,330
1432,0.87,-0.48,0.01,0.98,-4.21,-3.3,213,288,215,453,331
1433,0.89,-0.46,0.04,0.85,-2.38,-1.34,224,285,209,461,331
1434,0.89,-0.47,0.03,-0.06,-3.97,-1.59,218,288,211,452,333
1435,0.89,-0.47,0.01,-0.24,-3.48,-3.36,214,287,213,454,331
1436,0.89,-0.46,0.03,0.67,-2.69,-3.48,217,286,216,452,330
1437,0.9,-0.45,0.01,0.37,-3.42,-3.23,244,285,215,456,332
1438,0.89,-0.46,0.04,0.43,-3.23,-3.42,216,284,211,452,332
1439,0.9,-0.45,0.02,2.14,-2.81,-2.14,212,298,214,455,328
1440,0.89,-0.45,0.02,-0.85,-2.81,-2.38,243,290,219,456,330
1441,0.9,-0.46,-0.0,0.85,-3.05,-6.59,222,292,216,448,332
1442,0.9,-0.44,0.02,0.85,-2.69,-3.05,213,287,209,453,335
1443,0.9,-0.44,0.02,0.31,-2.99,-2.75,218,286,217,453,330
1444,0.9,-0.45,0.03,2.01,-3.97,-4.58,210,284,209,457,331
1445,0.91,-0.43,0.02,1.95,-2.01,-2.38,211,289,210,450,332
1446,0.89,-0.46,0.01,1.4,-2.81,-3.42,211,286,215,450,333
1447,0.91,-0.44,0.03,1.04,-1.59,-1.16,208,285,209,457,333
1448,0.89,-0.46,0.02,0.31,-2.93,-3.6,209,288,210,453,333
1449,0.88,-0.46,0.02,0.24,-2.81,-2.69,210,289,212,453,333
1450,0.89,-0.46,0.03,0.24,-2.32,-2.81,207,283,214,452,330
1451,0.89,-0.46,0.03,0.37,-2.62,-2.81,212,287,213,451,333
1452,0.89,-0.46,0.02,0.06,-2.81,-2.99,213,285,209,454,332
1453,0.9,-0.45,0.02,1.34,-2.93,-2.26,214,289,214,457,330
1454,0.89,-0.46,0.01,-0.92,-2.87,-2.14,212,282,216,452,333
1455,0.89,-0.45,0.02,0.43,-3.3,-2.44,212,283,212,453,335
1456,0.88,-0.47,0.02,-0.61,-2.56,-1.89,212,288,213,448,332
1457,0.89,-0.46,0.02,-1.22,-2.26,-2.5,212,292,217,458,332
1458,0.89,-0.46,0.02,-0.18,-3.36,-3.36,217,288,210,454,332
1459,0.9,-0.45,0.02,0.18,-2.44,-2.5,215,291,212,457,331
1460,0.9,-0.45,0.02,0.73,-3.17,-3.05,214,286,208,449,333
1461,0.9,-0.46,0.02,-0.31,-3.11,-2.26,212,288,212,460,331
1462,0.89,-0.46,0.02,0.67,-3.6,-2.69,215,287,213,452,332
1463,0.88,-0.46,0.03,2.99,-4.7,-2.01,210,290,215,456,329
1464,0.88,-0.46,0.01,0.61,-2.99,-2.14,216,286,213,456,331
1465,0.89,-0.46,0.03,-0.67,-2.2,-3.23,213,286,213,452,333
1466,0.9,-0.45,0.02,-0.37,-2.44,-2.87,213,294,213,453,339
1467,0.89,-0.45,0.02,0.12,-2.81,-2.62,213,289,211,453,331
1468,0.9,-0.44,0.02,0.85,-3.05,-2.32,213,288,212,451,331
1469,0.9,-0.44,0.02,0.79,-3.3,-2.08,213,282,213,458,330
1470,0.9,-0.44,0.02,-0.12,-2.08,-2.87,215,289,213,454,332
1471,0.9,-0.45,0.03,1.28,-4.33,-2.75,215,297,212,449,334
1472,0.89,-0.45,0.02,0.37,-2.93,-2.75,217,288,213,457,332
1473,0.91,-0.48,0.01,-0.61,-1.34,-2.87,210,288,213,456,332
1474,0.89,-0.46,0.02,-1.28,-2.44,-1.77,211,289,211,455,335
1475,0.89,-0.45,0.02,-0.61,-2.99,-2.14,213,283,216,458,333
1476,0.89,-0.44,0.03,0.12,-2.62,-2.5,213,292,214,456,332
1477,0.9,-0.45,0.03,0.73,-2.38,-2.99,210,284,210,452,332
1478,0.89,-0.45,0.02,-0.06,-3.72,-2.5,212,286,214,456,329
1479,0.89,-0.45,0.02,1.04,-3.17,-3.3,213,286,214,457,338
1480,0.89,-0.46,0.02,1.28,-2.75,-2.87,210,284,212,455,333
1481,0.89,-0.46,0.02,1.22,-3.97,-2.2,210,288,214,455,327
1482,0.9,-0.42,0.03,1.65,-2.93,-1.89,211,287,226,449,330
1483,0.88,-0.46,0.04,-1.71,-3.66,-2.62,214,293,212,447,335
1484,0.93,-0.43,0.02,4.39,-3.11,-4.88,210,293,212,458,332
1485,0.89,-0.46,0.02,0.0,-3.66,-3.85,212,287,216,453,332
1486,0.85,-0.48,0.04,-2.5,-3.85,-3.17,210,287,217,452,329
1487,0.88,-0.45,0.04,0.67,-1.53,-3.91,213,285,211,457,331
1488,0.91,-0.43,0.02,1.77,-3.66,-3.3,210,286,216,460,332
1489,0.89,-0.44,0.04,0.73,-0.43,-3.23,214,289,215,454,326
1490,0.91,-0.45,0.03,-0.79,-0.61,-5.74,215,291,216,451,327
1491,0.92,-0.43,0.02,-0.31,-4.76,-2.75,214,287,212,454,332
1492,0.89,-0.43,0.03,1.65,-2.08,-2.93,215,289,211,454,333
1493,0.93,-0.42,0.04,3.36,-5.0,-3.36,215,290,217,456,329
1494,0.9,-0.44,0.02,-2.2,-2.69,0.55,212,289,214,449,330
1495,0.9,-0.44,-0.0,0.31,-3.72,-2.87,220,288,214,457,332
1496,0.89,-0.46,0.0,-1.53,-2.87,-1.95,214,287,212,454,329
1497,0.85,-0.48,0.0,-3.6,-3.05,-0.12,212,283,214,457,329
1498,0.89,-0.46,0.0,-0.31,-2.08,-2.2,214,287,212,453,329
1499,0.89,-0.43,-0.02,2.99,-4.88,-0.49,214,286,216,450,326
1500,0.88,-0.44,0.03,1.1,-2.32,-2.69,215,286,208,457,328
1501,0.9,-0.46,0.02,-0.49,-2.01,-3.23,212,286,212,457,330
1502,0.89,-0.46,-0.0,-1.34,-2.87,-2.14,215,287,211,454,331
1503,0.88,-0.47,0.0,0.18,-3.17,-2.56,210,286,216,453,330
1504,0.9,-0.45,0.0,2.2,-3.72,-0.67,215,290,212,456,326
1505,0.89,-0.47,0.01,0.43,-2.62,-2.08,211,285,215,454,333
1506,0.9,-0.45,0.0,1.65,-4.21,-4.88,211,286,209,459,330
1507,0.89,-0.47,-0.0,0.37,-3.42,-1.22,215,290,215,457,328
1508,0.88,-0.47,-0.01,1.04,-1.95,-4.09,214,286,206,456,328
1509,0.89,-0.47,-0.0,0.79,-2.32,-3.05,215,291,213,461,341
1510,0.88,-0.47,0.01,-0.92,-2.32,-1.59,215,287,213,454,331
1511,0.89,-0.47,-0.0,-0.12,-2.93,-2.38,213,290,211,456,332
1512,0.89,-0.47,0.01,-2.93,-1.83,-1.95,213,290,213,456,327
1513,0.88,-0.47,0.01,-0.73,-2.75,-2.75,210,287,215,455,330
1514,0.88,-0.48,-0.0,0.06,-2.93,-2.99,218,286,218,451,332
1515,0.88,-0.48,0.0,0.31,-2.99,-2.75,214,287,213,454,332
1516,0.89,-0.47,-0.0,0.31,-2.62,-3.05,212,283,215,458,329
1517,0.9,-0.46,0.01,-0.24,-3.05,-1.28,214,286,214,455,329
1518,0.88,-0.47,-0.04,1.04,-2.32,-1.59,193,276,193,442,323
1519,0.87,-0.49,-0.03,0.18,-2.75,-1.77,202,286,194,452,322
1520,0.88,-0.46,-0.03,-0.61,-3.05,-0.24,200,274,195,441,326
1521,0.89,-0.46,-0.02,1.59,-2.99,-1.89,207,276,187,442,325
1522,0.87,-0.47,-0.02,1.22,-2.14,-4.46,204,275,177,444,328
1523,0.9,-0.46,-0.02,-0.06,-2.56,-3.91,206,278,189,436,328
1524,0.89,-0.46,-0.03,1.59,-2.5,-3.11,203,277,196,448,325
1525,0.87,-0.47,-0.0,-0.18,-1.4,-1.95,208,277,192,448,328
1526,0.9,-0.46,-0.02,1.77,2.08,-3.54,201,278,190,446,326
1527,0.88,-0.47,-0.01,-0.18,-4.21,-1.89,203,279,185,448,326
1528,0.86,-0.49,0.02,0.55,-7.2,-3.66,197,275,191,443,326
1529,0.87,-0.49,-0.02,0.12,-2.44,3.97,210,278,188,446,326
1530,0.88,-0.47,0.0,-0.43,-4.46,-0.67,203,286,195,447,325
1531,0.88,-0.47,-0.02,-0.24,-2.93,-2.32,203,276,194,443,326
1532,0.89,-0.46,0.01,1.28,-3.05,-1.59,204,278,192,438,329
1533,0.88,-0.47,-0.01,0.0,-2.2,-1.77,206,278,194,443,332
1534,0.89,-0.48,-0.01,0.12,-2.56,-3.23,204,277,192,443,331
1535,0.88,-0.49,-0.01,-0.43,-2.62,-3.66,207,278,194,442,329
1536,0.88,-0.48,-0.02,0.37,-2.93,-2.44,206,279,188,449,330
1537,0.88,-0.48,-0.01,1.34,-3.6,-2.14,203,281,191,438,330
1538,0.88,-0.47,-0.02,1.22,-3.48,-3.42,206,281,192,448,330
1539,0.89,-0.47,-0.01,-0.12,-2.56,-1.4,208,278,204,446,328
1540,0.88,-0.48,-0.0,-2.08,-2.62,-1.22,209,275,194,445,325
1541,0.88,-0.47,0.01,-2.93,-0.85,-3.54,209,281,198,447,327
1542,0.89,-0.48,0.0,0.24,-3.23,-2.14,203,280,195,448,332
1543,0.87,-0.48,-0.02,0.98,-3.85,-2.81,209,276,194,442,328
1544,0.89,-0.48,-0.01,1.59,-4.33,0.92,199,279,199,450,329
1545,0.87,-0.49,-0.01,0.12,-2.99,-2.62,205,276,198,446,332
1546,0.87,-0.49,-0.02,-0.49,-3.97,-3.23,209,281,211,439,326
1547,0.87,-0.48,-0.02,1.53,-4.52,-1.89,207,280,194,449,331
1548,0.86,-0.49,-0.01,-2.01,-1.95,-3.05,207,277,199,449,329
1549,0.88,-0.48,-0.01,-0.12,-3.05,-2.81,206,282,198,446,331
1550,0.88,-0.48,-0.01,-0.24,-3.05,-3.78,207,282,187,444,327
1551,0.88,-0.48,0.0,1.89,-3.17,-2.5,207,280,203,447,331
1552,0.88,-0.47,0.0,2.2,-2.26,-3.72,204,282,200,447,327
1553,0.91,-0.46,0.0,6.29,-4.64,-6.23,206,277,195,443,329
1554,0.87,-0.48,-0.01,1.65,-1.1,-5.19,211,290,197,444,328
1555,0.88,-0.47,0.01,0.73,-2.44,-5.07,208,274,201,439,328
1556,0.9,-0.46,0.0,-3.66,-2.93,-1.1,204,281,198,446,330
1557,0.88,-0.47,-0.0,-0.06,-3.91,-0.98,203,280,200,439,329
1558,0.88,-0.47,-0.02,0.49,-2.87,-3.6,209,281,200,444,330
1559,0.89,-0.47,-0.0,1.53,-2.44,-0.92,208,282,197,448,329
1560,0.88,-0.47,-0.01,0.12,-3.17,-2.38,206,284,195,448,331
1561,0.89,-0.47,-0.01,3.6,-3.54,-3.36,204,282,197,448,328
1562,0.89,-0.47,-0.0,0.61,-2.99,-3.48,208,279,188,447,327
1563,0.89,-0.47,-0.01,2.38,-2.5,-2.99,207,279,198,444,332
1564,0.88,-0.47,-0.01,2.2,-3.11,-1.89,209,281,197,449,332
1565,0.88,-0.47,0.01,0.0,-2.01,-2.62,208,282,198,444,329
1566,0.88,-0.49,-0.01,0.61,-2.26,-2.81,210,277,188,449,329
1567,0.88,-0.48,-0.01,0.49,-3.05,-2.38,207,282,198,449,324
1568,0.89,-0.47,-0.0,0.79,-2.93,-2.32,208,280,197,447,330
1569,0.88,-0.48,-0.01,-0.06,-3.17,-2.5,206,280,203,446,329
1570,0.87,-0.48,-0.01,0.85,-2.2,-2.87,209,273,201,442,322
1571,0.88,-0.47,0.0,0.67,-2.75,-3.23,212,279,200,456,328
1572,0.89,-0.47,0.0,1.04,-3.23,-2.2,203,284,198,444,330
1573,0.88,-0.48,0.0,1.04,-2.56,-2.87,211,282,199,452,332
1574,0.88,-0.48,-0.0,0.24,-2.32,-3.54,210,280,196,441,329
1575,0.88,-0.47,-0.0,-0.43,-2.81,-1.83,206,281,205,449,330
1576,0.86,-0.46,-0.01,1.1,-3.72,-2.5,209,281,199,451,325
1577,0.87,-0.48,-0.01,0.0,-2.38,-3.11,205,283,199,441,325
1578,0.87,-0.47,-0.01,0.61,-2.2,-2.93,206,285,195,450,329
1579,0.88,-0.47,-0.01,0.06,-2.75,-3.05,206,277,201,451,328
1580,0.89,-0.46,-0.0,0.06,-2.75,-3.3,206,278,207,446,331
1581,0.89,-0.47,-0.0,-0.12,-2.99,-2.87,209,281,206,448,328
1582,0.89,-0.46,-0.01,-0.37,-2.56,-2.62,210,281,199,444,328
1583,0.89,-0.46,-0.0,-0.67,-2.87,-2.75,207,280,189,451,323
1584,0.89,-0.47,-0.0,1.53,-3.78,-1.83,209,282,199,447,339
1585,0.88,-0.47,-0.01,0.98,-3.17,-1.46,208,283,198,448,328
1586,0.87,-0.48,-0.01,0.18,-3.11,-1.77,234,280,200,445,327
1587,0.88,-0.48,-0.01,-0.18,-2.32,-2.93,207,281,201,450,331
1588,0.88,-0.48,-0.02,0.18,-2.38,-3.36,213,283,201,443,329
1589,0.87,-0.47,-0.0,0.18,-2.69,-3.05,210,283,199,447,330
1590,0.87,-0.46,-0.0,0.61,-2.75,-2.5,207,283,199,443,330
1591,0.88,-0.47,-0.01,1.46,-2.99,-2.93,212,277,205,450,328
1592,0.89,-0.46,-0.0,0.49,-2.62,-2.62,206,279,201,448,325
1593,0.88,-0.47,-0.01,0.55,-3.3,-1.77,210,283,199,445,333
1594,0.88,-0.47,-0.0,-0.12,-3.05,-1.77,208,279,198,452,331
1595,0.88,-0.48,-0.0,1.4,-3.66,-1.71,209,280,198,444,332
1596,0.87,-0.48,-0.02,-0.18,-2.14,-2.93,206,278,195,440,330
1597,0.87,-0.48,-0.02,0.24,-2.62,-2.81,206,281,201,448,328
1598,0.88,-0.47,0.0,-0.98,-3.05,-2.69,203,281,200,446,328
1599,0.9,-0.47,-0.0,-0.61,-2.69,-2.38,206,280,201,448,326
1600,0.88,-0.47,-0.01,0.43,-3.11,-2.5,207,279,202,441,328
1601,0.89,-0.47,-0.01,1.28,-3.11,-3.72,209,283,199,440,334
1602,0.89,-0.48,-0.02,2.14,-3.66,-2.81,207,274,203,446,330
1603,0.89,-0.48,-0.0,0.79,-2.99,-1.59,211,282,201,450,324
1604,0.89,-0.48,-0.02,-0.37,-2.87,-1.71,206,281,203,442,326
1605,0.87,-0.49,-0.0,0.12,-2.32,-3.17,207,283,197,452,331
1606,0.87,-0.48,0.0,-0.37,-2.44,-2.81,208,282,200,448,326
1607,0.88,-0.48,0.0,-0.37,-2.93,-2.93,208,281,203,447,325
1608,0.88,-0.47,-0.0,-0.73,-2.38,-2.44,210,279,201,448,331
1609,0.89,-0.48,-0.01,0.43,-2.56,-2.56,207,280,202,447,329
1610,0.88,-0.48,0.0,0.06,-2.93,-2.08,207,282,207,448,333
1611,0.88,-0.47,-0.0,0.12,-3.54,-1.4,208,281,205,450,331
1612,0.87,-0.48,-0.01,0.55,-3.72,-1.77,207,281,196,451,327
1613,0.88,-0.48,-0.01,0.24,-3.05,-2.32,210,280,202,450,329
1614,0.87,-0.49,-0.01,-1.04,-2.99,-1.71,203,284,203,448,326
1615,0.87,-0.49,-0.01,-0.12,-2.26,-2.56,208,280,203,448,332
1616,0.89,-0.48,-0.0,0.67,-2.62,-2.87,211,284,204,448,329
1617,0.88,-0.48,-0.0,-0.06,-1.95,-2.99,209,283,194,448,331
1618,0.88,-0.47,-0.01,0.06,-3.23,-3.11,208,287,203,446,324
1619,0.88,-0.48,-0.0,1.4,-2.87,-3.66,212,278,204,453,330
1620,0.89,-0.48,-0.01,1.34,-3.05,-3.48,210,282,201,448,329
1621,0.86,-0.47,-0.0,-0.49,-3.42,-1.59,208,277,203,447,326
1622,0.88,-0.48,-0.01,1.16,-3.48,-2.38,210,284,203,446,333
1623,0.88,-0.47,-0.01,-0.43,-2.75,-1.28,215,283,202,444,330
1624,0.88,-0.48,-0.0,1.04,-2.5,-2.38,209,287,205,446,330
1625,0.89,-0.49,-0.01,-0.06,-2.56,-3.3,208,282,202,445,328
1626,0.87,-0.47,-0.01,0.24,-2.14,-2.26,208,282,199,451,328
1627,0.89,-0.48,0.0,1.46,-2.87,-2.75,205,282,207,443,331
1628,0.88,-0.46,0.0,0.73,-3.11,-1.89,207,284,202,445,329
1629,0.89,-0.48,-0.01,0.24,-3.3,-3.11,207,281,199,451,331
1630,0.88,-0.48,0.0,0.61,-2.93,-3.05,212,281,202,450,330
1631,0.89,-0.48,0.01,0.98,-2.32,-3.23,208,284,202,439,327
1632,0.88,-0.5,0.0,-0.61,-1.89,-1.89,208,284,202,442,332
1633,0.87,-0.49,0.01,-0.61,-1.53,-2.44,209,286,208,454,331
1634,0.88,-0.49,0.01,0.92,-2.81,-3.48,210,281,201,447,325
1635,0.87,-0.48,-0.0,1.04,-2.32,-2.75,214,284,195,448,332
1636,0.88,-0.48,0.01,-0.06,-3.91,-2.08,211,283,201,449,329
1637,0.88,-0.49,0.0,0.43,-3.48,-1.22,210,283,202,446,326
1638,0.88,-0.48,-0.0,-0.49,-2.99,-1.95,201,285,204,447,332
1639,0.88,-0.49,0.0,0.67,-3.6,-2.75,211,280,206,442,332
1640,0.87,-0.48,0.0,0.06,-2.69,-2.32,205,286,204,450,331
1641,0.88,-0.48,0.01,1.04,-3.48,-3.05,211,285,202,455,327
1642,0.87,-0.48,0.0,0.06,-2.56,-2.99,211,288,204,446,328
1643,0.87,-0.48,0.0,0.92,-2.56,-2.81,211,285,202,452,329
1644,0.88,-0.47,0.0,0.0,-3.05,-2.32,209,281,201,445,323
1645,0.88,-0.48,0.01,0.61,-2.81,-2.62,211,284,205,452,330
1646,0.9,-0.48,0.01,0.18,-3.3,-2.26,213,282,210,449,331
1647,0.87,-0.49,0.01,-0.49,-2.87,-1.77,210,285,208,441,328
1648,0.87,-0.49,-0.0,0.12,-3.17,-2.56,211,290,207,455,328
1649,0.88,-0.48,0.0,-0.24,-2.75,-2.26,208,276,205,448,329
1650,0.87,-0.48,-0.0,-0.24,-2.69,-2.5,212,279,208,451,329
1651,0.88,-0.48,0.0,0.0,-2.56,-3.3,211,283,209,450,324
1652,0.89,-0.48,0.01,-0.12,-3.17,-3.11,210,283,198,448,330
1653,0.88,-0.47,0.01,0.79,-2.87,-2.08,216,288,205,450,329
1654,0.87,-0.48,0.02,0.24,-2.69,-2.32,210,292,204,450,328
1655,0.88,-0.47,-0.0,2.26,-3.6,-2.87,214,290,203,448,330
1656,0.87,-0.47,-0.0,0.49,-4.33,-2.62,214,285,193,448,330
1657,0.88,-0.47,0.01,1.22,-2.44,-2.08,208,285,207,446,326
1658,0.88,-0.48,0.0,0.49,-2.87,-2.38,210,280,200,437,328
1659,0.88,-0.47,0.0,-0.61,-2.99,-3.3,214,287,202,446,328
1660,0.89,-0.46,0.01,1.65,-2.69,-4.58,208,283,205,450,330
1661,0.88,-0.48,0.02,0.31,-2.75,-3.72,214,277,202,445,332
1662,0.89,-0.46,0.01,0.12,-3.6,-2.08,212,285,200,447,331
1663,0.88,-0.46,0.02,-1.95,-3.3,0.06,209,288,210,442,329
1664,0.89,-0.47,0.01,-1.83,-3.54,-2.01,210,283,206,445,329
1665,0.88,-0.47,0.01,-1.16,-2.44,-3.05,215,282,205,451,330
1666,0.87,-0.48,0.01,-3.6,-0.85,-3.72,211,281,208,445,329
1667,0.89,-0.46,0.03,-4.03,-1.77,-2.56,206,286,209,449,331
1668,0.9,-0.46,-0.0,0.49,-4.21,-3.85,209,285,204,449,333
1669,0.89,-0.44,-0.0,-1.28,-3.97,-1.71,206,286,202,442,330
1670,0.87,-0.48,0.01,2.01,-6.53,1.28,208,284,208,448,332
1671,0.89,-0.47,0.0,1.53,-5.19,-0.49,205,283,207,453,330
1672,0.88,-0.49,-0.02,-0.67,-2.87,-1.4,211,281,205,443,328
1673,0.87,-0.49,-0.01,0.49,-3.42,-2.69,212,282,205,445,325
1674,0.87,-0.49,-0.02,-0.55,-3.48,-2.26,209,287,205,445,332
1675,0.88,-0.48,-0.01,-0.24,-2.56,-2.32,212,293,208,446,329
1676,0.91,-0.47,0.0,0.0,-1.83,-2.69,209,286,211,446,330
1677,0.86,-0.5,0.0,-1.77,-4.76,-0.24,207,282,204,448,330
1678,0.9,-0.45,-0.0,4.7,-1.77,-1.71,211,286,207,444,330
1679,0.91,-0.44,-0.01,5.37,-4.39,-3.23,207,283,204,448,328
1680,0.88,-0.47,0.01,-0.24,-2.2,-1.34,208,284,205,451,326
1681,0.89,-0.47,-0.01,-2.69,-2.5,0.24,210,283,199,453,329
1682,0.89,-0.47,-0.01,-1.77,-2.81,0.31,209,278,201,449,326
1683,0.85,-0.49,-0.01,0.61,-1.95,-3.23,210,285,203,451,328
1684,0.87,-0.49,-0.04,-1.16,-0.55,-7.57,214,285,213,445,327
1685,0.93,-0.42,0.02,1.34,-0.85,-3.48,211,283,204,450,331
1686,0.91,-0.43,0.03,3.23,-2.44,-2.75,209,284,204,447,331
1687,0.9,-0.44,-0.0,-0.61,-3.36,-3.54,216,279,209,448,334
1688,0.9,-0.44,0.01,3.3,-1.53,-1.89,207,284,206,439,332
1689,0.9,-0.45,0.02,-0.85,-4.33,-4.7,210,291,209,448,329
1690,0.9,-0.44,0.02,1.22,-3.97,-2.56,211,284,207,445,330
1691,0.9,-0.44,0.01,1.46,-3.42,-2.5,208,285,205,447,329
1692,0.89,-0.45,0.01,-0.49,-2.01,-2.01,210,285,207,451,333
1693,0.89,-0.44,0.02,0.37,-3.05,-2.81,211,284,209,448,325
1694,0.9,-0.44,0.01,0.61,-2.62,-2.38,211,285,208,450,331
1695,0.9,-0.43,0.02,0.67,-2.08,-2.99,214,280,207,443,332
1696,0.9,-0.43,0.03,0.98,-2.99,-2.81,210,278,202,450,328
1697,0.91,-0.45,0.03,0.73,-2.44,-4.27,217,283,206,453,330
1698,0.89,-0.44,0.02,0.61,-1.77,-3.11,211,283,209,451,329
1699,0.9,-0.44,0.02,0.18,-3.23,-2.62,211,286,203,448,332
1700,0.9,-0.45,0.02,0.67,-3.11,-2.69,211,285,207,450,328
1701,0.91,-0.44,0.02,0.67,-3.17,-2.56,211,299,204,450,330
1702,0.9,-0.44,0.03,1.34,-2.69,-2.75,211,279,209,444,329
1703,0.89,-0.44,0.01,0.12,-2.87,-3.36,211,279,207,451,331
1704,0.91,-0.43,0.01,1.22,-3.17,-2.56,210,286,206,446,331
1705,0.89,-0.45,0.02,0.43,-2.75,-1.89,210,285,214,452,328
1706,0.89,-0.45,0.02,-0.24,-3.17,-4.94,212,283,208,448,329
1707,0.9,-0.44,0.03,-0.18,-1.95,-2.38,215,285,209,450,333
1708,0.89,-0.45,0.03,0.06,-2.93,-3.54,209,287,209,453,328
1709,0.89,-0.44,0.03,1.77,-3.36,-2.93,212,284,205,452,331
1710,0.89,-0.44,0.04,0.06,-2.62,-3.6,210,287,205,452,328
1711,0.91,-0.43,0.03,1.34,-3.17,-2.44,210,281,208,444,330
1712,0.91,-0.44,0.02,-0.61,-2.32,-2.62,213,288,208,446,327
1713,0.9,-0.43,0.02,1.65,-3.11,-3.05,210,284,206,457,331
1714,0.9,-0.43,0.03,0.49,-2.62,-2.99,215,289,205,448,330
1715,0.9,-0.43,0.03,0.67,-2.93,-2.69,214,284,211,443,330
1716,0.9,-0.43,0.03,0.67,-2.38,-2.99,211,284,208,448,333
1717,0.91,-0.43,0.03,-1.28,-3.42,-1.95,216,284,210,452,328
1718,0.91,-0.43,0.03,0.49,-2.81,-2.38,208,294,198,444,334
1719,0.9,-0.43,0.03,0.43,-2.99,-2.69,211,285,206,451,330
1720,0.9,-0.43,0.03,0.85,-3.48,-2.56,211,284,208,443,331
1721,0.91,-0.44,0.03,0.49,-2.38,-2.75,210,287,222,454,329
1722,0.91,-0.44,0.02,0.61,-2.44,-3.36,210,282,205,446,332
1723,0.9,-0.43,0.02,0.12,-2.81,-2.93,211,284,202,451,328
1724,0.91,-0.43,0.03,0.24,-3.11,-2.81,213,282,208,449,332
1725,0.91,-0.43,0.03,0.73,-2.81,-2.75,213,287,211,450,332
1726,0.91,-0.44,0.03,0.24,-3.17,-2.93,214,285,212,455,331
1727,0.91,-0.43,0.03,-0.43,-2.56,-2.38,211,281,207,450,332
1728,0.9,-0.44,0.03,-0.12,-3.05,-2.93,210,286,208,455,331
1729,0.9,-0.43,0.03,0.0,-3.36,-2.08,215,281,210,450,329
1730,0.9,-0.43,0.03,1.04,-2.32,-2.26,211,285,211,455,331
1731,0.9,-0.44,0.03,0.73,-3.36,-2.81,212,286,199,448,327
1732,0.9,-0.43,0.02,-0.67,-2.56,-2.99,211,285,207,449,332
1733,0.9,-0.43,0.02,0.31,-3.23,-2.26,214,283,204,453,330
1734,0.9,-0.43,0.03,-0.06,-2.2,-2.44,220,287,206,451,332
1735,0.9,-0.43,0.03,0.18,-2.99,-2.56,211,287,213,456,329
1736,0.9,-0.43,0.03,0.31,-2.62,-2.69,212,286,210,450,331
1737,0.9,-0.43,0.03,0.85,-3.54,-2.44,213,286,213,452,335
1738,0.9,-0.44,0.03,0.98,-3.17,-2.75,210,278,208,451,331
1739,0.9,-0.43,0.03,0.0,-3.3,-2.01,216,285,211,452,330
1740,0.9,-0.43,0.02,-0.55,-2.38,-2.69,212,286,207,453,330
1741,0.91,-0.43,0.02,0.85,-3.05,-3.11,211,287,214,446,329
1742,0.9,-0.44,0.02,-0.43,-2.62,-1.83,207,289,212,450,332
1743,0.9,-0.43,0.03,-0.18,-2.44,-2.2,214,287,209,454,330
1744,0.9,-0.43,0.03,-0.24,-2.69,-2.62,212,286,209,451,331
1745,0.9,-0.43,0.03,-0.43,-2.69,-2.08,212,288,209,447,328
1746,0.9,-0.43,0.02,0.61,-3.36,-2.44,213,285,201,456,329
1747,0.9,-0.44,0.02,0.43,-3.42,-2.5,215,280,208,450,331
1748,0.89,-0.43,0.03,-0.06,-2.2,-1.71,213,285,212,451,333
1749,0.9,-0.43,0.03,0.18,-2.99,-2.62,217,286,209,449,330
1750,0.9,-0.43,0.03,0.12,-2.56,-3.23,212,289,211,452,330
1751,0.9,-0.43,0.03,-0.06,-2.69,-2.56,206,284,209,455,326
1752,0.91,-0.43,0.03,0.79,-2.62,-2.81,213,288,207,450,333
1753,0.9,-0.44,0.03,-0.49,-2.99,-2.26,209,285,209,452,330
1754,0.89,-0.43,0.02,0.12,-2.62,-2.44,211,288,202,455,331
1755,0.9,-0.43,0.03,0.85,-3.36,-2.01,214,288,210,454,324
1756,0.91,-0.43,0.03,0.79,-3.11,-1.77,211,285,207,455,327
1757,0.9,-0.43,0.03,1.04,-2.87,-3.6,209,283,208,450,332
1758,0.91,-0.43,0.03,1.04,-2.99,-3.66,213,284,212,445,332
1759,0.9,-0.43,0.02,1.65,-2.87,-3.54,215,289,215,455,334
1760,0.9,-0.43,0.02,2.2,-3.6,-4.09,215,285,209,451,330
1761,0.92,-0.42,0.03,0.55,-3.05,-2.26,210,282,209,451,331
1762,0.92,-0.42,0.04,1.65,-2.75,-4.76,209,288,207,452,332
1763,0.89,-0.44,0.01,-0.61,-3.3,-1.46,213,285,204,448,333
1764,0.9,-0.43,0.03,-0.18,-3.23,-1.22,212,289,209,446,331
1765,0.91,-0.43,0.03,0.12,-2.14,-3.48,212,290,210,452,332
1766,0.91,-0.44,0.02,0.55,-3.54,-2.32,212,286,211,447,333
1767,0.91,-0.43,0.02,1.83,-3.36,-2.44,214,285,216,455,327
1768,0.91,-0.43,0.03,1.1,-2.69,-2.81,211,283,208,450,331
1769,0.9,-0.43,0.02,1.59,-3.78,-2.32,211,288,208,452,331
1770,0.9,-0.42,0.03,-0.49,-3.05,-2.62,213,287,205,456,332
1771,0.9,-0.43,0.02,1.22,-3.3,-2.87,212,289,214,450,336
1772,0.9,-0.44,0.02,0.92,-4.09,-2.99,206,283,211,455,331
1773,0.9,-0.43,0.02,-0.24,-2.56,-2.08,216,289,211,452,331
1774,0.9,-0.44,0.02,-0.24,-2.56,-2.56,214,285,209,453,331
1775,0.89,-0.43,0.02,0.12,-2.62,-2.44,209,289,213,451,330
1776,0.9,-0.44,0.02,1.22,-2.81,-2.93,213,287,213,446,327
1777,0.9,-0.44,0.02,0.06,-2.75,-3.48,207,287,213,454,330
1778,0.91,-0.43,0.02,-0.18,-2.38,-2.14,205,288,211,456,331
1779,0.9,-0.44,0.04,1.28,-2.75,-3.78,212,285,210,460,331
1780,0.9,-0.43,0.02,1.53,-3.05,-2.5,211,291,215,449,331
1781,0.91,-0.42,0.03,1.71,-3.3,-3.3,208,287,209,454,331
1782,0.92,-0.41,0.02,1.4,-2.87,-2.5,209,284,209,448,332
1783,0.9,-0.44,0.02,0.18,-3.17,-3.3,211,285,211,454,334
1784,0.92,-0.43,0.02,0.79,-2.99,-3.05,213,285,205,450,328
1785,0.9,-0.43,0.03,-0.55,-2.5,-1.77,212,288,211,447,333
1786,0.9,-0.43,0.03,-0.18,-2.81,-2.44,210,283,208,447,331
1787,0.9,-0.42,0.03,0.31,-3.05,-2.5,205,288,209,453,328
1788,0.9,-0.43,0.02,-0.06,-3.23,-2.32,210,285,202,453,331
1789,0.91,-0.43,0.03,1.04,-3.11,-2.56,207,283,208,448,332
1790,0.91,-0.42,0.03,1.34,-2.87,-2.75,205,287,212,454,330
1791,0.9,-0.43,0.03,-0.73,-3.42,-2.44,207,287,211,453,331
1792,0.92,-0.43,0.03,2.2,-2.38,-3.72,208,290,212,450,332
1793,0.9,-0.44,0.03,0.06,-2.99,-2.99,213,286,215,455,333
1794,0.89,-0.44,0.03,-0.12,-3.85,-2.38,214,284,208,454,331
1795,0.9,-0.44,0.03,0.0,-2.62,-1.89,220,287,205,453,331
1796,0.91,-0.44,0.02,1.53,-2.56,-3.85,208,284,211,453,331
1797,0.91,-0.43,0.03,1.04,-2.99,-3.23,214,288,208,455,331
1798,0.91,-0.43,0.03,0.73,-3.11,-1.77,217,290,203,452,332
1799,0.9,-0.44,0.03,-0.18,-2.14,-2.38,211,278,207,450,335
1800,0.9,-0.43,0.03,0.0,-3.3,-1.1,215,290,212,456,334
1801,0.9,-0.43,0.03,-0.24,-2.2,-3.17,210,283,209,454,328
1802,0.91,-0.42,0.02,0.06,-2.38,-2.56,210,288,209,445,332
1803,0.9,-0.42,0.03,0.24,-3.05,-2.32,213,287,207,456,332
1804,0.89,-0.44,0.02,0.31,-3.91,-2.26,211,283,212,451,330
1805,0.91,-0.42,0.03,0.73,-2.81,-2.08,216,285,211,451,332
1806,0.9,-0.43,0.04,-3.66,-0.06,-0.73,212,289,208,464,332
1807,0.92,-0.41,0.02,-0.18,-1.77,-2.99,218,291,212,452,330
1808,0.91,-0.42,0.02,2.56,-3.72,-2.81,212,286,212,452,329
1809,0.9,-0.43,0.01,0.0,-3.3,-2.56,214,286,206,454,333
1810,0.91,-0.42,0.0,0.85,-2.93,-2.56,209,285,210,463,331
1811,0.89,-0.42,0.0,2.56,-4.94,-2.81,216,287,209,451,329
1812,0.91,-0.42,0.02,0.49,-2.87,-2.5,215,289,208,455,334
1813,0.92,-0.42,0.03,1.77,-3.05,-3.05,213,294,208,454,335
1814,0.91,-0.42,0.03,1.4,-2.87,-2.32,211,290,207,453,331
1815,0.91,-0.43,0.01,0.37,-3.11,-1.71,213,288,214,457,331
1816,0.91,-0.44,0.01,0.49,-3.6,-3.78,213,285,209,451,333
1817,0.91,-0.42,0.01,0.24,-2.69,-2.87,214,288,218,454,331
1818,0.91,-0.45,0.02,-1.46,-2.5,-3.85,213,286,210,453,330
1819,0.9,-0.42,0.02,0.67,-3.11,-1.83,214,295,217,451,330
1820,0.91,-0.43,0.02,-0.06,-3.23,-2.26,214,291,213,456,329
1821,0.9,-0.43,0.02,0.37,-2.93,-1.59,212,286,211,451,330
1822,0.91,-0.42,0.01,0.55,-3.3,-3.05,213,286,205,451,333
1823,0.9,-0.42,0.02,1.04,-3.23,-2.08,214,287,209,451,331
1824,0.9,-0.46,0.01,-0.06,-1.95,-2.93,215,286,209,452,328
1825,0.87,-0.46,0.0,0.49,-1.46,-3.78,215,291,212,452,333
1826,0.93,-0.4,0.03,2.56,-3.05,-1.1,212,283,211,453,334
1827,0.88,-0.47,-0.03,-5.37,-4.46,1.77,212,286,211,457,329
1828,0.84,-0.49,0.01,1.46,-3.54,-6.1,241,286,212,452,335
1829,0.88,-0.46,-0.01,-0.61,-2.14,-3.97,212,286,212,453,331
1830,0.85,-0.48,0.03,-4.52,-3.85,-0.67,213,289,205,451,332
1831,0.89,-0.47,0.03,-0.12,-3.91,-1.46,212,288,211,452,331
1832,0.9,-0.44,-0.0,-0.98,-2.08,-1.53,212,283,206,456,330
1833,0.9,-0.45,0.04,2.56,-2.62,-2.56,214,288,211,450,333
1834,0.9,-0.44,0.01,1.22,-3.3,-3.3,213,286,212,449,330
1835,0.9,-0.45,0.01,0.43,-3.85,-2.14,214,289,211,456,332
1836,0.89,-0.45,0.01,1.1,-2.87,-1.83,214,286,208,445,332
1837,0.9,-0.44,0.03,0.67,-3.23,-2.62,211,299,217,451,334
1838,0.9,-0.45,0.02,1.46,-3.3,-1.71,209,288,214,452,333
1839,0.89,-0.45,0.01,2.01,-4.58,-1.53,215,280,210,449,335
1840,0.89,-0.46,0.01,1.77,-3.11,-2.75,214,290,213,452,329
1841,0.89,-0.46,0.01,0.79,-3.11,-2.5,215,285,215,451,334
1842,0.89,-0.46,0.01,-1.4,-2.87,-2.38,212,286,209,453,330
1843,0.88,-0.44,0.02,0.31,-2.99,-2.44,211,287,209,454,330
1844,0.89,-0.46,0.01,-0.67,-3.48,-2.62,213,289,211,453,331
1845,0.9,-0.45,0.02,0.61,-3.17,-2.38,211,293,213,454,329
1846,0.9,-0.46,0.01,1.83,-3.42,-2.87,206,289,213,449,328
1847,0.88,-0.45,0.02,1.46,-3.42,-2.56,213,288,209,453,332
1848,0.89,-0.47,0.01,1.28,-3.17,-2.32,213,286,212,452,332
1849,0.89,-0.46,0.03,-0.06,-2.01,-1.59,215,287,213,448,330
1850,0.87,-0.48,0.0,0.12,-2.5,-3.78,211,285,211,450,336
1851,0.9,-0.45,0.03,-0.73,-2.38,-5.07,213,289,210,456,335
1852,0.9,-0.45,0.03,0.0,-2.44,-2.69,210,285,209,451,333
1853,0.9,-0.45,0.03,0.61,-3.05,-1.65,211,286,203,455,333
1854,0.89,-0.48,0.03,0.92,-2.69,-3.42,214,290,203,453,334
1855,0.89,-0.45,0.02,0.24,-3.42,-2.99,215,285,211,454,331
1856,0.88,-0.46,0.02,0.73,-4.03,-2.2,212,286,199,451,333
1857,0.87,-0.48,0.01,0.43,-3.6,-2.87,212,286,215,461,335
1858,0.89,-0.46,0.03,-0.67,-3.23,-2.26,211,289,212,447,337
1859,0.9,-0.45,0.03,1.71,-2.32,-1.95,215,288,207,455,331
1860,0.9,-0.45,0.03,0.06,-2.69,-1.53,208,286,208,456,334
1861,0.9,-0.45,0.01,-0.61,-2.14,-2.14,209,286,216,452,327
1862,0.91,-0.44,0.02,0.85,-2.44,-1.65,209,285,200,452,333
1863,0.9,-0.45,0.01,0.31,-2.93,-0.61,213,286,210,455,332
1864,0.89,-0.46,0.01,0.92,-2.14,-4.52,209,286,212,445,332
1865,0.89,-0.45,0.02,0.61,-2.93,-4.88,213,288,209,446,333
1866,0.9,-0.43,0.02,-0.49,-2.08,-2.38,221,286,209,448,331
1867,0.91,-0.44,0.03,-2.01,-2.99,-1.34,210,287,214,450,330
1868,0.91,-0.43,0.03,0.24,-2.75,-3.05,212,287,214,451,328
1869,0.9,-0.44,0.02,-0.49,-2.62,-2.2,213,285,210,453,329
1870,0.89,-0.44,0.04,0.0,-1.95,-2.62,210,281,213,449,332
1871,0.89,-0.44,0.03,0.61,-3.23,-2.75,214,286,208,456,333
1872,0.89,-0.45,0.01,1.1,-3.11,-1.95,211,287,204,447,330
1873,0.9,-0.44,0.01,0.92,-3.42,-1.59,214,287,206,455,333
1874,0.91,-0.45,0.02,0.92,-2.69,-3.17,215,290,213,455,333
1875,0.89,-0.45,0.01,0.61,-2.44,-3.17,212,288,210,454,330
1876,0.89,-0.44,0.02,0.0,-2.56,-1.65,211,287,211,447,334
1877,0.9,-0.45,0.02,0.24,-2.69,-2.32,212,289,211,465,333
1878,0.89,-0.45,0.02,-0.12,-2.87,-2.56,211,291,213,452,328
1879,0.89,-0.45,0.02,-0.24,-2.81,-2.2,209,288,207,455,332
1880,0.89,-0.45,0.03,0.37,-2.38,-2.75,214,287,209,448,325
1881,0.89,-0.45,0.02,-0.49,-2.2,-4.09,211,288,215,456,330
1882,0.91,-0.42,0.01,1.83,-2.44,-1.77,214,288,201,449,332
1883,0.91,-0.44,0.02,1.16,-2.69,-2.01,211,287,215,457,327
1884,0.89,-0.44,0.02,0.79,-3.11,-2.62,211,289,213,449,330
1885,0.9,-0.44,0.02,0.43,-3.23,-2.5,213,289,213,453,328
1886,0.89,-0.45,0.02,-0.61,-2.56,-2.81,215,286,214,454,332
1887,0.9,-0.45,0.03,0.37,-1.28,-3.42,213,293,212,456,331
1888,0.91,-0.43,0.02,1.16,-0.85,-2.69,210,288,212,451,333
1889,0.9,-0.44,0.03,0.31,-2.5,-2.56,215,285,213,457,327
1890,0.9,-0.44,0.04,-0.79,-3.23,-1.53,211,288,212,454,331
1891,0.9,-0.44,0.03,0.49,-3.85,-1.34,210,289,213,452,329
1892,0.89,-0.45,0.03,1.95,-3.05,-2.5,213,282,216,454,332
1893,0.9,-0.44,0.04,-0.92,-3.72,-1.4,216,286,215,456,327
1894,0.9,-0.45,0.02,-0.06,-2.93,-1.04,212,286,212,453,329
1895,0.9,-0.45,0.03,0.79,-2.93,-1.22,218,286,218,448,333
1896,0.89,-0.46,0.02,0.79,-3.05,-1.77,215,287,217,448,331
1897,0.89,-0.47,0.01,0.55,-3.11,-2.38,212,286,213,459,330
1898,0.89,-0.46,0.02,0.37,-2.2,-3.36,211,287,208,453,333
1899,0.89,-0.45,0.02,0.55,-3.3,-5.74,212,288,210,455,331
1900,0.88,-0.45,-0.0,4.03,-2.38,-10.56,214,287,202,457,333
1901,0.92,-0.41,0.03,-2.32,-1.89,-0.79,212,286,211,451,332
1902,0.89,-0.43,0.01,2.2,-4.09,-3.3,215,285,212,446,334
1903,0.89,-0.43,0.03,-2.38,-1.59,-3.3,211,280,213,453,333
1904,0.92,-0.39,0.06,0.37,-2.62,-2.69,212,292,213,456,332
1905,0.9,-0.41,0.03,-1.71,-2.32,-1.53,215,289,211,451,332
1906,0.91,-0.4,0.02,-1.77,-2.93,-0.92,214,288,214,455,332
1907,0.91,-0.41,0.03,-0.73,-0.67,-2.62,209,288,212,454,331
1908,0.87,-0.47,0.04,-2.26,-3.23,-6.41,213,288,217,455,329
1909,0.92,-0.41,0.05,0.31,-2.56,-2.14,212,291,217,455,330
1910,0.91,-0.41,0.05,-0.24,-2.93,-0.55,216,286,210,452,331
1911,0.91,-0.44,0.05,-0.31,-3.11,-1.59,212,285,214,452,334
1912,0.89,-0.43,0.04,-0.79,-3.97,-1.4,217,289,212,453,327
1913,0.9,-0.42,0.05,0.73,-3.36,-0.85,214,283,204,454,332
1914,0.89,-0.43,0.04,-0.85,-3.72,-1.77,212,284,214,453,334
1915,0.91,-0.42,0.03,1.04,-3.54,-4.33,215,289,203,457,326
1916,0.9,-0.44,0.03,-1.46,-3.97,-1.77,212,289,209,449,341
1917,0.9,-0.45,0.03,5.31,-3.66,-2.08,212,290,207,453,332
1918,0.9,-0.45,0.02,2.01,-4.09,-1.28,213,283,216,454,332
1919,0.91,-0.44,0.02,-0.49,-2.81,-0.79,209,290,208,456,333
1920,0.87,-0.48,0.02,-0.12,-1.04,-2.44,213,287,210,452,331
1921,0.88,-0.47,0.02,2.01,-2.5,-2.32,212,289,215,453,332
1922,0.88,-0.48,0.03,-0.73,-1.16,-2.99,213,287,216,453,334
1923,0.87,-0.48,0.03,-0.73,-2.32,-1.28,212,286,213,454,330
1924,0.88,-0.48,0.03,-0.24,-2.75,-0.98,212,289,210,451,328
1925,0.89,-0.47,0.03,-0.24,-2.87,-2.38,212,288,215,457,331
1926,0.89,-0.47,0.02,2.5,-3.48,-3.78,214,285,209,454,332
1927,0.89,-0.49,0.03,0.37,-2.75,-4.76,212,282,211,451,331
1928,0.88,-0.47,0.02,0.18,-3.17,-2.87,217,290,209,452,329
1929,0.88,-0.48,0.02,0.37,-2.81,-2.69,213,292,210,456,332
1930,0.87,-0.47,0.03,-1.1,-1.53,-2.93,213,287,219,455,330
1931,0.89,-0.46,0.03,-0.18,-2.26,-3.17,215,287,212,453,335
1932,0.9,-0.46,0.04,-0.37,-3.05,-2.2,213,283,211,452,329
1933,0.88,-0.46,0.03,0.43,-3.05,-2.08,213,288,216,444,333
1934,0.88,-0.48,0.02,1.1,-2.93,-3.11,214,290,213,455,334
1935,0.88,-0.47,0.02,-0.37,-2.99,-2.14,211,289,215,457,332
1936,0.89,-0.46,0.02,-0.24,-3.85,-1.77,211,292,208,454,327
1937,0.9,-0.46,0.03,0.55,-2.81,-3.23,212,290,212,455,330
1938,0.87,-0.48,0.01,0.98,-4.21,-3.3,213,288,215,453,331
1939,0.89,-0.46,0.04,0.85,-2.38,-1.34,224,285,209,461,331
1940,0.89,-0.47,0.03,-0.06,-3.97,-1.59,218,288,211,452,333
1941,0.89,-0.47,0.01,-0.24,-3.48,-3.36,214,287,213,454,331
1942,0.89,-0.46,0.03,0.67,-2.69,-3.48,217,286,216,452,330
1943,0.9,-0.45,0.01,0.37,-3.42,-3.23,244,285,215,456,332
1944,0.89,-0.46,0.04,0.43,-3.23,-3.42,216,284,211,452,332
1945,0.9,-0.45,0.02,2.14,-2.81,-2.14,212,298,214,455,328
1946,0.89,-0.45,0.02,-0.85,-2.81,-2.38,243,290,219,456,330
1947,0.9,-0.46,-0.0,0.85,-3.05,-6.59,222,292,216,448,332
1948,0.9,-0.44,0.02,0.85,-2.69,-3.05,213,287,209,453,335
1949,0.9,-0.44,0.02,0.31,-2.99,-2.75,218,286,217,453,330
1950,0.9,-0.45,0.03,2.01,-3.97,-4.58,210,284,209,457,331
1951,0.91,-0.43,0.02,1.95,-2.01,-2.38,211,289,210,450,332
1952,0.89,-0.46,0.01,1.4,-2.81,-3.42,211,286,215,450,333
1953,0.91,-0.44,0.03,1.04,-1.59,-1.16,208,285,209,457,333
1954,0.89,-0.46,0.02,0.31,-2.93,-3.6,209,288,210,453,333
1955,0.88,-0.46,0.02,0.24,-2.81,-2.69,210,289,212,453,333
1956,0.89,-0.46,0.03,0.24,-2.32,-2.81,207,283,214,452,330
1957,0.89,-0.46,0.03,0.37,-2.62,-2.81,212,287,213,451,333
1958,0.89,-0.46,0.02,0.06,-2.81,-2.99,213,285,209,454,332
1959,0.9,-0.45,0.02,1.34,-2.93,-2.26,214,289,214,457,330
1960,0.89,-0.46,0.01,-0.92,-2.87,-2.14,212,282,216,452,333
1961,0.89,-0.45,0.02,0.43,-3.3,-2.44,212,283,212,453,335
1962,0.88,-0.47,0.02,-0.61,-2.56,-1.89,212,288,213,448,332
1963,0.89,-0.46,0.02,-1.22,-2.26,-2.5,212,292,217,458,332
1964,0.89,-0.46,0.02,-0.18,-3.36,-3.36,217,288,210,454,332
1965,0.9,-0.45,0.02,0.18,-2.44,-2.5,215,291,212,457,331
1966,0.9,-0.45,0.02,0.73,-3.17,-3.05,214,286,208,449,333
1967,0.9,-0.46,0.02,-0.31,-3.11,-2.26,212,288,212,460,331
1968,0.89,-0.46,0.02,0.67,-3.6,-2.69,215,287,213,452,332
1969,0.88,-0.46,0.03,2.99,-4.7,-2.01,210,290,215,456,329
1970,0.88,-0.46,0.01,0.61,-2.99,-2.14,216,286,213,456,331
1971,0.89,-0.46,0.03,-0.67,-2.2,-3.23,213,286,213,452,333
1972,0.9,-0.45,0.02,-0.37,-2.44,-2.87,213,294,213,453,339
1973,0.89,-0.45,0.02,0.12,-2.81,-2.62,213,289,211,453,331
1974,0.9,-0.44,0.02,0.85,-3.05,-2.32,213,288,212,451,331
1975,0.9,-0.44,0.02,0.79,-3.3,-2.08,213,282,213,458,330
1976,0.9,-0.44,0.02,-0.12,-2.08,-2.87,215,289,213,454,332
1977,0.9,-0.45,0.03,1.28,-4.33,-2.75,215,297,212,449,334
1978,0.89,-0.45,0.02,0.37,-2.93,-2.75,217,288,213,457,332
1979,0.91,-0.48,0.01,-0.61,-1.34,-2.87,210,288,213,456,332
1980,0.89,-0.46,0.02,-1.28,-2.44,-1.77,211,289,211,455,335
1981,0.89,-0.45,0.02,-0.61,-2.99,-2.14,213,283,216,458,333
1982,0.89,-0.44,0.03,0.12,-2.62,-2.5,213,292,214,456,332
1983,0.9,-0.45,0.03,0.73,-2.38,-2.99,210,284,210,452,332
1984,0.89,-0.45,0.02,-0.06,-3.72,-2.5,212,286,214,456,329
1985,0.89,-0.45,0.02,1.04,-3.17,-3.3,213,286,214,457,338
1986,0.89,-0.46,0.02,1.28,-2.75,-2.87,210,284,212,455,333
1987,0.89,-0.46,0.02,1.22,-3.97,-2.2,210,288,214,455,327
1988,0.9,-0.42,0.03,1.65,-2.93,-1.89,211,287,226,449,330
1989,0.88,-0.46,0.04,-1.71,-3.66,-2.62,214,293,212,447,335
1990,0.93,-0.43,0.02,4.39,-3.11,-4.88,210,293,212,458,332
1991,0.89,-0.46,0.02,0.0,-3.66,-3.85,212,287,216,453,332
1992,0.85,-0.48,0.04,-2.5,-3.85,-3.17,210,287,217,452,329
1993,0.88,-0.45,0.04,0.67,-1.53,-3.91,213,285,211,457,331
1994,0.91,-0.43,0.02,1.77,-3.66,-3.3,210,286,216,460,332
1995,0.89,-0.44,0.04,0.73,-0.43,-3.23,214,289,215,454,326
1996,0.91,-0.45,0.03,-0.79,-0.61,-5.74,215,291,216,451,327
1997,0.92,-0.43,0.02,-0.31,-4.76,-2.75,214,287,212,454,332
1998,0.89,-0.43,0.03,1.65,-2.08,-2.93,215,289,211,454,333
1999,0.93,-0.42,0.04,3.36,-5.0,-3.36,215,290,217,456,329
2000,0.9,-0.44,0.02,-2.2,-2.69,0.55,212,289,214,449,330
2001,0.9,-0.44,-0.0,0.31,-3.72,-2.87,220,288,214,457,332
2002,0.89,-0.46,0.0,-1.53,-2.87,-1.95,214,287,212,454,329
2003,0.85,-0.48,0.0,-3.6,-3.05,-0.12,212,283,214,457,329
2004,0.89,-0.46,0.0,-0.31,-2.08,-2.2,214,287,212,453,329
2005,0.89,-0.43,-0.02,2.99,-4.88,-0.49,214,286,216,450,326
2006,0.88,-0.44,0.03,1.1,-2.32,-2.69,215,286,208,457,328
2007,0.9,-0.46,0.02,-0.49,-2.01,-3.23,212,286,212,457,330
2008,0.89,-0.46,-0.0,-1.34,-2.87,-2.14,215,287,211,454,331
2009,0.88,-0.47,0.0,0.18,-3.17,-2.56,210,286,216,453,330
2010,0.9,-0.45,0.0,2.2,-3.72,-0.67,215,290,212,456,326
2011,0.89,-0.47,0.01,0.43,-2.62,-2.08,211,285,215,454,333
2012,0.9,-0.45,0.0,1.65,-4.21,-4.88,211,286,209,459,330
2013,0.89,-0.47,-0.0,0.37,-3.42,-1.22,215,290,215,457,328
2014,0.88,-0.47,-0.01,1.04,-1.95,-4.09,214,286,206,456,328
2015,0.89,-0.47,-0.0,0.79,-2.32,-3.05,215,291,213,461,341
2016,0.88,-0.47,0.01,-0.92,-2.32,-1.59,215,287,213,454,331
2017,0.89,-0.47,-0.0,-0.12,-2.93,-2.38,213,290,211,456,332
2018,0.89,-0.47,0.01,-2.93,-1.83,-1.95,213,290,213,456,327
2019,0.88,-0.47,0.01,-0.73,-2.75,-2.75,210,287,215,455,330
2020,0.88,-0.48,-0.0,0.06,-2.93,-2.99,218,286,218,451,332
2021,0.88,-0.48,0.0,0.31,-2.99,-2.75,214,287,213,454,332
2022,0.89,-0.47,-0.0,0.31,-2.62,-3.05,212,283,215,458,329
2023,0.9,-0.46,0.01,-0.24,-3.05,-1.28,214,286,214,455,329
