,aX,aY,aZ,gX,gY,gZ,little,ring,middle,index,thumb
0,0.8,-0.56,-0.18,-5.68,5.31,-3.11,366,243,335,453,360
1,0.83,-0.52,-0.19,5.31,-3.23,-4.64,402,223,432,435,354
2,0.82,-0.54,-0.2,2.75,-4.58,-2.62,403,228,435,444,358
3,0.83,-0.54,-0.22,-2.62,-2.62,-4.33,402,236,434,451,360
4,0.81,-0.55,-0.19,-0.79,-2.75,-1.16,404,236,434,446,359
5,0.84,-0.52,-0.19,-3.36,-3.97,4.21,405,253,434,442,360
6,0.76,-0.61,-0.24,-6.84,-1.22,1.28,405,237,436,450,356
7,0.78,-0.57,-0.22,-1.77,-2.75,-3.85,404,236,430,444,355
8,0.78,-0.57,-0.23,-0.49,-1.59,-2.26,406,239,433,450,358
9,0.78,-0.57,-0.25,3.17,-3.6,-7.75,408,240,432,451,359
10,0.81,-0.55,-0.23,0.0,-3.17,-1.71,405,240,432,451,355
11,0.8,-0.56,-0.22,0.37,-2.62,-2.08,406,240,432,446,358
12,0.8,-0.56,-0.22,0.06,-3.42,-3.05,403,235,431,457,359
13,0.79,-0.55,-0.23,1.4,-3.36,-2.2,405,241,432,455,357
14,0.78,-0.56,-0.22,-1.77,-3.91,-2.14,406,239,431,450,357
15,0.81,-0.58,-0.2,-0.24,-4.46,-0.98,402,243,429,451,356
16,0.81,-0.54,-0.27,-2.32,-2.14,-4.46,405,237,425,452,357
17,0.8,-0.55,-0.23,2.08,0.85,1.1,403,243,425,458,357
18,0.81,-0.54,-0.21,3.42,-1.95,-3.11,401,240,429,453,354
19,0.79,-0.56,-0.23,-2.01,-2.38,-0.79,403,243,428,449,357
20,0.81,-0.55,-0.22,1.04,-2.44,-3.85,409,244,427,453,355
21,0.82,-0.55,-0.21,1.83,-5.07,0.49,403,241,426,457,356
22,0.77,-0.58,-0.24,0.43,-4.15,0.31,400,238,430,452,355
23,0.78,-0.56,-0.23,-0.06,-2.93,-1.4,401,239,426,456,356
24,0.79,-0.56,-0.22,4.76,-3.54,-3.72,402,242,425,451,357
25,0.74,-0.62,-0.24,2.56,-5.19,-5.98,412,245,425,452,357
26,0.81,-0.54,-0.23,2.38,-1.53,-3.05,401,241,427,450,362
27,0.78,-0.57,-0.22,2.01,-3.6,-3.42,401,242,425,454,360
28,0.81,-0.55,-0.23,-0.31,-4.21,-4.58,401,242,428,453,356
29,0.8,-0.55,-0.23,0.37,-1.77,-2.32,401,238,427,453,357
30,0.8,-0.56,-0.23,0.43,-2.62,-3.66,402,239,422,449,360
31,0.8,-0.55,-0.23,1.04,-2.87,-1.95,401,245,427,454,358
32,0.8,-0.55,-0.22,-0.43,-2.32,-2.14,390,247,419,456,362
33,0.8,-0.56,-0.22,-0.49,-2.69,-2.38,401,241,424,455,353
34,0.8,-0.55,-0.21,0.18,-2.26,-1.65,403,245,427,454,363
35,0.8,-0.55,-0.21,-0.67,-2.81,-2.5,399,246,425,455,360
36,0.8,-0.55,-0.22,-1.28,-2.62,-2.56,399,246,422,459,360
37,0.8,-0.55,-0.23,1.22,-4.09,-3.23,398,244,424,456,360
38,0.82,-0.54,-0.22,0.43,-2.81,-3.6,400,243,424,451,363
39,0.82,-0.54,-0.23,0.79,-3.11,-2.75,400,246,432,454,360
40,0.81,-0.54,-0.22,0.18,-2.62,-4.82,399,244,420,460,362
41,0.81,-0.54,-0.23,0.73,-1.53,-1.77,400,244,420,456,361
42,0.81,-0.54,-0.23,1.4,-2.99,-1.59,404,244,422,455,361
43,0.79,-0.56,-0.23,-0.79,-2.75,-2.62,400,248,417,468,360
44,0.8,-0.55,-0.22,-0.49,-2.26,-2.62,401,242,422,459,359
45,0.8,-0.55,-0.21,0.73,-3.11,-2.87,402,246,419,455,361
46,0.79,-0.57,-0.23,-1.28,-5.25,-2.44,397,245,419,450,360
47,0.8,-0.54,-0.21,1.4,1.95,1.46,402,242,418,454,360
48,0.8,-0.54,-0.18,2.2,-2.99,-1.16,400,247,419,460,350
49,0.82,-0.52,-0.24,3.36,-3.42,-3.42,398,242,422,458,358
50,0.78,-0.5,-0.21,0.49,-4.94,-3.11,398,246,417,457,361
51,0.8,-0.55,-0.25,-0.43,-4.94,-5.43,394,248,417,460,362
52,0.79,-0.55,-0.23,0.0,-4.7,-3.72,392,247,417,453,361
53,0.8,-0.55,-0.24,3.05,-3.36,-2.01,389,243,419,460,362
54,0.77,-0.57,-0.26,-2.08,-3.54,-0.06,390,245,418,459,359
55,0.76,-0.59,-0.24,0.18,-1.59,-0.49,385,246,419,461,361
56,0.78,-0.57,-0.24,1.22,-3.11,-2.32,391,248,415,457,360
57,0.76,-0.58,-0.24,4.15,-2.81,-2.08,389,246,416,456,361
58,0.79,-0.56,-0.26,-1.53,-5.68,-8.61,390,247,416,457,360
59,0.79,-0.56,-0.25,3.42,-7.81,-8.06,389,246,416,461,362
60,0.77,-0.58,-0.25,1.1,-3.78,-2.87,392,246,416,454,360
61,0.77,-0.59,-0.24,-2.93,1.65,-0.31,391,244,417,457,360
62,0.76,-0.59,-0.25,-0.73,-2.5,0.0,392,247,413,452,362
63,0.75,-0.6,-0.23,-0.98,-2.44,-3.6,388,249,413,460,359
64,0.76,-0.58,-0.23,-0.12,-1.59,-3.42,392,249,416,456,359
65,0.76,-0.57,-0.2,-1.89,9.64,0.37,390,245,418,461,358
66,0.81,-0.6,-0.07,-1.1,5.62,-7.26,396,248,418,453,354
67,0.83,-0.55,-0.09,2.81,-6.41,-2.56,391,244,417,461,362
68,0.83,-0.57,-0.08,6.23,-6.35,-0.06,381,248,418,457,361
69,0.8,-0.59,-0.04,2.14,-4.46,-0.37,413,246,414,460,362
70,0.78,-0.62,-0.06,-1.34,-3.3,-2.5,380,249,418,458,362
71,0.81,-0.59,-0.07,0.0,-2.01,-3.72,382,246,415,458,361
72,0.84,-0.59,-0.07,-0.67,-4.64,-5.07,378,246,414,457,363
73,0.79,-0.6,-0.06,10.07,-20.02,-3.91,380,249,411,457,358
74,0.85,-0.55,-0.09,2.56,-4.64,-5.31,380,248,412,452,357
75,0.81,-0.59,-0.11,-0.18,-1.83,-5.31,376,251,416,457,362
76,0.8,-0.59,-0.12,-0.73,-3.05,-3.42,373,250,412,462,363
77,0.78,-0.6,-0.1,-2.01,0.37,-2.01,380,248,414,459,363
78,0.81,-0.58,-0.06,-2.93,-1.16,2.44,377,250,408,456,362
79,0.83,-0.57,-0.13,3.42,-5.86,-5.37,378,246,413,454,361
80,0.81,-0.57,-0.1,5.0,-4.76,-8.97,375,250,411,454,363
81,0.85,-0.56,-0.13,4.88,-4.39,-4.03,374,248,407,454,357
82,0.8,-0.59,-0.08,4.94,-3.3,-0.67,376,247,411,459,362
83,0.78,-0.6,-0.09,3.85,-5.19,-2.32,371,249,412,452,361
84,0.79,-0.59,-0.07,-0.92,1.89,-2.26,376,246,409,458,361
85,0.82,-0.57,-0.1,2.26,-2.62,-4.33,385,250,410,459,363
86,0.82,-0.57,-0.09,1.46,-2.87,-4.03,389,248,411,456,361
87,0.82,-0.57,-0.1,1.16,-2.81,-4.33,390,251,407,454,359
88,0.82,-0.56,-0.08,1.16,-3.23,-3.91,392,247,410,453,365
89,0.82,-0.58,-0.1,-1.95,-3.66,-1.53,392,246,408,459,357
90,0.8,-0.59,-0.09,-1.34,-2.81,-1.22,392,248,407,457,360
91,0.8,-0.58,-0.09,-0.61,-3.11,-3.23,389,250,409,450,362
92,0.8,-0.58,-0.1,0.37,-2.99,-2.26,390,250,407,455,362
93,0.8,-0.56,-0.08,-1.53,-3.3,-0.43,387,247,405,454,363
94,0.81,-0.57,-0.07,-1.34,-0.98,-3.11,382,249,409,450,364
95,0.82,-0.57,-0.08,1.28,-1.71,-2.81,386,249,406,454,362
96,0.83,-0.56,-0.11,1.89,-3.78,-2.38,387,247,407,450,359
97,0.82,-0.56,-0.09,0.67,-2.87,-2.38,389,249,408,457,358
98,0.82,-0.57,-0.08,0.67,-3.42,-2.93,388,248,413,453,363
99,0.83,-0.56,-0.08,0.43,-3.17,-3.85,390,249,402,449,355
100,0.82,-0.56,-0.08,0.67,-3.05,-2.5,389,250,409,455,357
101,0.82,-0.55,-0.08,2.01,-1.4,-2.44,390,251,406,455,357
102,0.83,-0.56,-0.09,0.37,-2.38,-2.56,389,251,410,456,356
103,0.82,-0.55,-0.07,0.0,-2.93,-1.22,390,252,409,454,357
104,0.82,-0.57,-0.08,1.53,-2.26,-2.81,388,249,406,454,353
105,0.8,-0.58,-0.08,-2.75,-3.36,-3.66,390,250,402,452,359
106,0.82,-0.56,-0.07,-2.32,-2.14,-5.07,388,245,406,452,357
107,0.83,-0.54,-0.07,-2.81,-2.56,-3.97,388,251,407,454,357
108,0.84,-0.54,-0.11,1.4,-3.23,-2.81,388,250,406,459,357
109,0.81,-0.56,-0.09,0.0,-3.3,-3.91,382,251,406,454,357
110,0.87,-0.51,-0.1,0.79,-1.71,-2.56,383,247,407,459,355
111,0.82,-0.55,-0.1,1.04,-5.62,-2.2,385,249,402,457,362
112,0.87,-0.49,-0.1,0.18,-1.83,-5.86,395,248,406,455,358
113,0.9,-0.46,-0.1,4.94,-2.56,-2.75,393,250,402,455,356
114,0.9,-0.46,-0.13,0.18,-3.6,-0.79,395,252,409,458,358
115,0.86,-0.52,-0.09,0.31,-2.99,0.31,396,249,407,457,360
116,0.85,-0.52,-0.09,6.1,-1.22,-1.22,395,248,407,459,360
117,0.86,-0.5,-0.1,3.78,-3.05,-3.91,393,252,404,456,358
118,0.85,-0.52,-0.08,0.31,-3.78,-2.99,396,253,403,455,357
119,0.85,-0.52,-0.09,1.04,-3.66,-2.44,388,260,404,458,353
120,0.85,-0.51,-0.08,0.67,-3.3,-3.17,391,253,402,455,360
121,0.86,-0.51,-0.08,-0.18,-3.23,-2.87,390,250,405,452,360
122,0.86,-0.51,-0.09,1.77,-4.15,-3.36,381,253,406,450,360
123,0.85,-0.51,-0.09,0.49,-3.72,-2.93,393,253,404,454,361
124,0.86,-0.51,-0.1,0.18,-3.6,-3.97,393,264,405,454,357
125,0.85,-0.51,-0.09,-0.24,-2.14,-2.26,393,251,405,454,361
126,0.86,-0.52,-0.09,0.43,-3.05,-2.75,394,250,406,453,360
127,0.86,-0.52,-0.08,0.67,-3.23,-2.81,390,251,403,455,359
128,0.87,-0.51,-0.09,1.04,-3.05,-2.38,392,253,405,459,362
129,0.85,-0.51,-0.08,0.92,-2.62,-2.32,394,249,403,459,359
130,0.86,-0.51,-0.08,-0.49,-2.32,-2.2,393,253,401,459,360
131,0.85,-0.52,-0.07,0.06,-3.48,-2.08,397,249,405,459,360
132,0.85,-0.5,-0.08,1.22,-3.3,-2.99,392,253,404,466,361
133,0.86,-0.51,-0.09,0.37,-2.81,-3.78,394,254,403,455,362
134,0.86,-0.51,-0.09,-0.31,-2.2,-1.83,395,253,402,456,359
135,0.85,-0.51,-0.09,1.16,-2.26,-2.56,395,250,405,454,360
136,0.86,-0.5,-0.09,0.92,-2.75,-2.26,393,252,405,459,360
137,0.86,-0.51,-0.08,0.43,-2.81,-2.62,392,253,404,455,364
138,0.86,-0.51,-0.09,0.06,-3.11,-2.93,392,253,399,458,362
139,0.85,-0.52,-0.07,0.79,-3.05,-2.32,390,253,404,455,358
140,0.85,-0.51,-0.08,0.24,-3.48,-2.69,393,251,402,455,360
141,0.86,-0.52,-0.08,0.73,-3.36,-2.87,394,254,405,452,367
142,0.86,-0.5,-0.08,-0.43,-2.99,-2.44,395,252,404,453,359
143,0.86,-0.5,-0.08,-0.06,-2.75,-2.5,396,248,402,471,361
144,0.86,-0.5,-0.09,-0.49,-2.5,-2.01,394,255,401,454,361
145,0.86,-0.51,-0.09,0.43,-2.08,-1.53,394,251,403,455,361
146,0.87,-0.5,-0.09,0.49,-2.87,-2.44,395,253,402,455,360
147,0.86,-0.51,-0.09,0.24,-2.62,-2.81,383,250,402,454,363
148,0.86,-0.51,-0.08,0.18,-2.56,-2.93,392,253,401,463,361
149,0.85,-0.5,-0.08,1.04,-2.62,-2.08,389,252,404,450,363
150,0.86,-0.51,-0.07,1.04,-2.93,-3.72,394,249,401,456,361
151,0.87,-0.51,-0.08,0.18,-2.99,-2.44,389,254,401,451,362
152,0.85,-0.52,-0.08,0.06,-2.93,-2.62,393,254,400,449,363
153,0.86,-0.51,-0.08,-0.24,-2.69,-2.81,392,252,401,456,362
154,0.86,-0.5,-0.09,0.0,-2.99,-2.75,391,259,401,455,364
155,0.86,-0.5,-0.09,-0.12,-2.93,-3.11,391,250,398,458,357
156,0.86,-0.5,-0.09,0.06,-2.2,-2.26,391,259,404,454,360
157,0.86,-0.5,-0.08,0.79,-3.05,-2.87,406,253,402,454,363
158,0.86,-0.51,-0.07,0.24,-2.56,-2.5,392,254,398,449,362
159,0.85,-0.51,-0.07,0.55,-2.93,-2.69,394,250,400,454,361
160,0.86,-0.51,-0.08,0.85,-2.69,-2.38,391,249,400,455,360
161,0.86,-0.51,-0.08,0.79,-2.99,-3.11,394,251,401,455,362
162,0.86,-0.5,-0.07,-0.31,-1.83,-2.32,387,248,401,454,361
163,0.87,-0.51,-0.08,-0.18,-2.99,-1.89,394,249,399,454,361
164,0.86,-0.51,-0.08,0.37,-2.62,-2.38,393,251,399,450,363
165,0.86,-0.51,-0.08,-0.24,-3.6,-2.81,394,254,396,450,361
166,0.86,-0.5,-0.08,0.43,-3.66,-3.3,390,251,399,452,361
167,0.86,-0.5,-0.08,-0.31,-2.08,-1.4,391,254,399,454,363
168,0.86,-0.51,-0.09,1.46,-3.23,-2.2,391,252,400,457,361
169,0.86,-0.5,-0.08,0.67,-2.08,-2.81,393,257,402,454,359
170,0.86,-0.5,-0.08,0.73,-2.44,-2.14,392,255,402,450,359
171,0.86,-0.51,-0.07,-0.31,-2.01,-1.71,394,252,399,455,362
172,0.86,-0.51,-0.07,0.49,-3.85,-2.69,391,252,399,451,362
173,0.86,-0.5,-0.08,0.31,-3.05,-3.23,391,256,399,449,362
174,0.86,-0.5,-0.08,0.0,-2.99,-2.56,389,249,400,455,360
175,0.86,-0.51,-0.08,0.49,-2.69,-2.44,393,249,400,458,363
176,0.86,-0.51,-0.07,0.79,-2.87,-2.2,397,254,400,456,360
177,0.86,-0.51,-0.07,0.55,-2.93,-2.56,392,251,399,454,361
178,0.86,-0.51,-0.08,0.24,-2.5,-2.26,394,252,396,450,358
179,0.85,-0.51,-0.07,-0.18,-2.93,-1.95,392,251,399,454,360
180,0.86,-0.5,-0.07,0.67,-4.09,-3.48,387,255,399,454,359
181,0.87,-0.5,-0.08,-0.06,-4.09,-4.03,395,254,398,454,361
182,0.87,-0.5,-0.07,1.16,-0.61,3.3,392,256,399,459,361
183,0.87,-0.49,-0.07,-0.61,-0.92,0.61,392,255,397,454,361
184,0.86,-0.51,-0.07,2.5,-2.93,-0.79,389,250,401,458,364
185,0.85,-0.52,-0.1,0.37,-4.15,-4.58,396,254,399,453,363
186,0.86,-0.5,-0.1,3.36,-3.6,-5.25,385,253,397,453,360
187,0.87,-0.5,-0.09,0.85,-2.26,-2.44,392,251,396,454,364
188,0.86,-0.52,-0.07,0.79,-2.08,-2.5,396,254,401,453,357
189,0.84,-0.52,-0.07,-0.92,-3.85,-3.17,393,255,398,449,362
190,0.83,-0.53,-0.07,0.73,-2.93,-0.31,393,253,400,452,361
191,0.85,-0.5,-0.07,-0.79,-1.28,-1.71,389,250,398,450,360
192,0.86,-0.52,-0.07,-0.61,-1.22,-0.24,392,250,395,453,358
193,0.86,-0.5,-0.07,-0.73,-2.44,-1.46,393,253,397,448,362
194,0.86,-0.51,-0.07,0.43,-2.75,-2.32,391,252,397,454,362
195,0.85,-0.51,-0.07,0.55,-3.17,-2.5,392,254,399,455,362
196,0.87,-0.51,-0.08,-0.06,-2.99,-3.05,392,254,398,454,360
197,0.87,-0.5,-0.07,0.31,-3.11,-2.99,394,252,401,451,358
198,0.86,-0.5,-0.07,0.18,-2.81,-2.08,392,253,399,450,360
199,0.86,-0.51,-0.07,0.79,-2.32,-2.56,388,251,400,453,359
200,0.86,-0.5,-0.07,2.14,-2.81,-3.3,394,252,400,454,359
201,0.86,-0.5,-0.07,0.92,-2.44,-2.75,393,252,398,454,357
202,0.86,-0.5,-0.06,1.22,-3.23,-2.2,392,255,396,457,360
203,0.86,-0.5,-0.07,0.49,-2.44,-2.62,392,253,395,452,360
204,0.85,-0.5,-0.07,-0.43,-2.99,-2.5,384,254,397,451,358
205,0.85,-0.5,-0.07,0.61,-4.09,-1.28,394,253,398,455,357
206,0.87,-0.5,-0.07,-2.2,-2.99,-2.44,379,252,393,451,363
207,0.86,-0.5,-0.08,0.24,-3.05,-2.2,392,252,395,460,363
208,0.86,-0.5,-0.07,0.85,-2.87,-2.14,405,251,399,457,362
209,0.86,-0.5,-0.07,-0.61,-2.32,-2.62,387,251,394,459,361
210,0.88,-0.49,-0.09,1.34,0.67,-6.16,390,248,400,459,359
211,0.87,-0.49,-0.06,1.77,-3.85,-1.46,388,251,401,456,362
212,0.84,-0.51,-0.05,-0.12,-2.87,-2.56,389,256,397,452,359
213,0.83,-0.53,-0.05,-0.79,-2.01,1.83,390,254,398,461,360
214,0.88,-0.48,-0.06,1.22,-2.44,-5.98,390,253,398,456,363
215,0.87,-0.49,-0.04,0.98,-2.56,-2.56,390,254,400,455,360
216,0.86,-0.5,-0.04,0.12,-2.69,-1.28,390,254,396,459,361
217,0.87,-0.5,-0.04,-0.12,-3.17,-1.71,390,252,399,457,361
218,0.87,-0.49,-0.04,-1.89,-2.62,-0.92,387,255,400,454,361
219,0.86,-0.5,-0.04,0.73,-3.97,-2.32,388,254,396,457,361
220,0.87,-0.5,-0.05,0.79,-2.5,-2.14,388,251,397,456,362
221,0.87,-0.51,-0.05,0.79,-2.56,-3.17,385,252,394,454,361
222,0.86,-0.51,-0.05,1.71,-2.93,-2.44,388,254,394,456,358
223,0.86,-0.52,-0.05,0.73,-2.87,-2.75,388,254,397,457,357
224,0.86,-0.51,-0.05,2.01,-2.5,-2.14,389,252,399,460,365
225,0.86,-0.51,-0.05,-0.06,-2.81,-2.01,390,253,400,463,361
226,0.87,-0.5,-0.05,2.14,-3.17,-4.27,386,252,397,455,360
227,0.86,-0.5,-0.04,1.34,-3.17,-3.05,391,248,397,454,364
228,0.86,-0.51,-0.04,0.61,-2.75,-2.93,386,255,396,455,362
229,0.86,-0.51,-0.03,0.79,-4.27,-2.81,387,249,398,452,362
230,0.86,-0.5,-0.05,-0.12,-3.3,-2.01,401,251,398,454,365
231,0.87,-0.5,-0.05,0.55,-4.15,-3.97,388,253,396,461,358
232,0.86,-0.5,-0.05,1.65,-2.81,-2.38,388,253,393,456,364
233,0.87,-0.51,-0.05,0.98,-2.93,-2.62,388,253,393,457,362
234,0.85,-0.51,-0.05,0.73,-2.26,-2.99,391,254,397,452,361
235,0.87,-0.5,-0.04,0.85,-2.08,-2.38,387,252,401,460,359
236,0.86,-0.5,-0.04,-0.67,-1.77,-1.77,390,253,408,460,360
237,0.86,-0.5,-0.04,0.67,-2.62,-2.08,389,252,394,461,361
238,0.87,-0.5,-0.04,0.31,-2.32,-2.01,388,256,398,459,359
239,0.86,-0.51,-0.04,-0.98,-3.17,-2.87,387,255,396,458,358
240,0.87,-0.5,-0.05,0.49,-3.11,-2.2,384,256,393,457,359
241,0.86,-0.51,-0.05,0.98,-2.99,-2.75,384,255,397,456,361
242,0.86,-0.5,-0.05,0.0,-2.2,-2.44,391,252,393,460,368
243,0.86,-0.51,-0.05,0.79,-2.56,-2.38,388,256,397,456,363
244,0.86,-0.51,-0.04,0.43,-1.77,-2.14,386,251,395,456,361
245,0.86,-0.51,-0.04,0.49,-2.75,-1.95,389,251,397,461,361
246,0.86,-0.51,-0.04,0.73,-2.5,-2.01,390,254,399,453,362
247,0.86,-0.51,-0.04,-0.18,-3.23,-2.75,392,257,394,466,361
248,0.86,-0.51,-0.04,1.46,-3.72,-2.93,389,250,397,461,361
249,0.86,-0.51,-0.05,0.31,-2.75,-2.87,390,256,396,461,359
250,0.86,-0.51,-0.05,-0.06,-2.32,-2.08,391,253,393,456,362
251,0.86,-0.51,-0.05,1.1,-2.56,-2.5,389,254,395,464,359
252,0.86,-0.51,-0.04,0.24,-2.26,-2.75,378,253,393,459,357
253,0.86,-0.51,-0.04,-0.12,-3.3,-2.75,391,251,401,460,359
254,0.86,-0.51,-0.04,0.61,-2.93,-2.69,388,253,395,460,361
255,0.86,-0.52,-0.04,-0.18,-2.38,-2.38,389,254,395,457,364
256,0.86,-0.51,-0.05,0.49,-3.42,-2.87,388,255,393,454,363
257,0.86,-0.51,-0.04,0.0,-3.11,-2.44,402,257,396,456,359
258,0.86,-0.51,-0.05,0.61,-3.17,-3.23,385,253,394,456,361
259,0.86,-0.51,-0.05,0.37,-2.75,-2.87,389,256,396,458,361
260,0.86,-0.51,-0.05,0.31,-2.01,-2.14,386,255,398,456,361
261,0.86,-0.52,-0.04,0.49,-2.26,-2.14,391,255,395,458,361
262,0.86,-0.5,-0.05,-0.12,-2.01,-2.75,390,256,396,460,363
263,0.86,-0.51,-0.04,0.73,-2.99,-2.38,390,254,395,461,363
264,0.86,-0.52,-0.04,1.22,-3.11,-3.78,387,250,396,459,363
265,0.86,-0.5,-0.04,-0.31,-3.11,-2.2,387,252,397,456,360
266,0.86,-0.5,-0.05,0.31,-2.99,-2.99,390,253,391,456,361
267,0.86,-0.51,-0.05,-0.55,-2.87,-2.75,388,251,395,451,362
268,0.87,-0.5,-0.06,-0.18,-1.95,-1.59,417,253,393,461,361
269,0.86,-0.51,-0.04,0.43,-1.95,-2.38,388,254,397,457,362
270,0.87,-0.5,-0.04,0.92,-2.75,-2.69,388,253,395,456,360
271,0.87,-0.5,-0.04,0.85,-2.87,-3.05,389,253,396,457,360
272,0.86,-0.51,-0.04,0.67,-3.6,-2.69,391,256,396,453,363
273,0.86,-0.5,-0.04,0.24,-3.42,-2.87,388,250,394,455,361
274,0.87,-0.49,-0.06,-0.24,-3.05,-2.44,388,252,395,456,361
275,0.86,-0.5,-0.05,0.92,-2.38,-1.46,385,254,398,460,361
276,0.86,-0.5,-0.05,-0.24,-1.53,-2.08,389,254,397,457,361
277,0.87,-0.5,-0.04,0.18,-2.62,-2.62,389,255,398,460,361
278,0.87,-0.5,-0.04,0.61,-2.5,-2.56,391,256,392,456,358
279,0.86,-0.51,-0.04,0.37,-2.26,-2.26,388,253,402,458,361
280,0.87,-0.5,-0.05,-0.55,-2.93,-2.99,389,256,394,453,361
281,0.87,-0.5,-0.04,0.31,-3.66,-2.75,387,254,392,456,362
282,0.87,-0.5,-0.06,0.55,-2.69,-1.89,387,257,394,452,361
283,0.87,-0.49,-0.05,1.28,-2.44,-1.4,389,254,395,452,364
284,0.87,-0.5,-0.04,1.1,-2.93,-2.69,391,255,396,456,360
285,0.86,-0.5,-0.04,0.49,-2.32,-2.01,392,255,398,454,363
286,0.87,-0.5,-0.05,-0.61,-1.83,-1.4,387,256,399,459,360
287,0.86,-0.51,-0.04,0.37,-2.99,-2.08,388,252,395,456,361
288,0.87,-0.5,-0.04,-0.73,-2.93,-2.87,390,254,396,460,363
289,0.87,-0.5,-0.04,0.06,-3.85,-2.75,382,266,394,457,361
290,0.87,-0.49,-0.05,0.61,-2.93,-2.2,388,254,397,456,359
291,0.87,-0.5,-0.04,0.85,-2.2,-2.69,382,254,391,460,361
292,0.86,-0.5,-0.06,1.22,-2.81,-2.75,381,255,394,461,362
293,0.87,-0.5,-0.05,-0.06,-2.44,-2.44,384,258,397,455,364
294,0.86,-0.5,-0.04,0.0,-2.38,-2.01,388,254,396,457,360
295,0.87,-0.5,-0.04,0.92,-3.66,-2.69,386,252,394,455,358
296,0.87,-0.49,-0.05,-0.06,-3.36,-2.69,415,257,394,457,362
297,0.87,-0.5,-0.05,0.12,-3.05,-2.75,413,255,394,457,360
298,0.87,-0.49,-0.05,0.37,-2.32,-2.08,393,255,396,459,363
299,0.87,-0.49,-0.05,0.98,-2.56,-2.75,388,257,396,458,358
300,0.87,-0.49,-0.05,1.34,-2.75,-2.69,385,256,396,463,363
301,0.87,-0.5,-0.04,-0.06,-2.87,-2.38,385,255,393,459,360
302,0.87,-0.49,-0.04,0.55,-2.93,-2.56,393,253,394,459,359
303,0.88,-0.5,-0.05,0.92,-3.66,-3.54,389,254,397,461,361
304,0.88,-0.49,-0.05,0.06,-3.97,-2.81,389,252,394,457,360
305,0.87,-0.5,-0.06,0.12,-3.17,-2.69,390,253,393,460,360
306,0.87,-0.49,-0.05,0.31,-2.44,-1.83,388,255,387,455,361
307,0.87,-0.5,-0.04,0.0,-2.81,-2.44,386,254,394,453,357
308,0.87,-0.49,-0.04,0.18,-2.56,-2.56,387,257,397,457,359
309,0.87,-0.5,-0.04,0.98,-2.99,-2.69,384,251,390,459,361
310,0.87,-0.49,-0.04,0.67,-2.93,-2.99,387,253,395,456,358
311,0.87,-0.48,-0.05,0.06,-3.17,-2.5,384,257,395,451,362
312,0.87,-0.5,-0.05,0.24,-3.05,-2.81,387,253,390,453,362
313,0.87,-0.49,-0.05,-0.24,-2.62,-2.14,386,254,396,456,363
314,0.85,-0.5,-0.04,0.73,-2.99,-2.2,386,256,396,452,360
315,0.87,-0.49,-0.04,-0.43,-2.2,-2.32,388,256,391,459,361
316,0.87,-0.48,-0.04,-0.06,-2.62,-2.26,385,253,390,460,361
317,0.87,-0.5,-0.04,0.49,-2.93,-2.69,375,253,394,457,360
318,0.86,-0.49,-0.05,0.18,-3.36,-2.99,388,260,392,458,361
319,0.88,-0.49,-0.05,0.49,-3.85,-3.36,403,254,394,457,362
320,0.88,-0.5,-0.06,0.85,-2.87,-2.81,389,252,389,455,360
321,0.87,-0.49,-0.05,-0.12,-2.44,-2.5,387,256,389,455,361
322,0.87,-0.5,-0.05,0.85,-2.44,-2.75,387,255,397,461,359
323,0.87,-0.5,-0.04,0.18,-2.5,-2.44,383,258,395,458,362
324,0.87,-0.49,-0.05,-0.24,-2.2,-2.01,388,255,394,462,363
325,0.86,-0.49,-0.04,0.92,-3.23,-2.26,384,255,393,457,361
326,0.87,-0.49,-0.05,0.79,-3.91,-2.56,386,252,394,457,362
327,0.87,-0.49,-0.05,-0.43,-2.93,-2.62,384,257,394,460,362
328,0.87,-0.49,-0.05,0.18,-2.26,-1.95,383,250,392,461,360
329,0.87,-0.49,-0.05,0.18,-2.44,-1.89,383,253,393,452,361
330,0.87,-0.49,-0.05,0.0,-1.83,-2.32,387,255,395,457,358
331,0.87,-0.49,-0.04,0.24,-2.87,-2.69,389,255,391,456,366
332,0.86,-0.5,-0.04,0.24,-2.69,-2.38,386,257,393,452,363
333,0.87,-0.5,-0.04,0.0,-3.42,-3.3,383,254,391,461,361
334,0.88,-0.5,-0.04,0.06,-3.91,-3.91,383,253,392,460,364
335,0.88,-0.49,-0.05,0.12,-3.66,-4.03,387,258,392,460,360
336,0.88,-0.5,-0.05,1.04,-2.62,-2.2,388,254,395,459,363
337,0.87,-0.49,-0.04,1.46,-2.75,-3.3,388,257,398,452,359
338,0.87,-0.49,-0.05,0.61,-2.08,-2.14,389,258,394,459,361
339,0.88,-0.5,-0.04,0.85,-2.87,-3.48,389,254,394,460,359
340,0.87,-0.51,-0.04,0.31,-3.23,-3.17,392,257,394,460,361
341,0.87,-0.49,-0.05,0.55,-3.3,-3.11,388,258,394,456,361
342,0.87,-0.5,-0.05,-0.55,-2.87,-2.62,389,258,392,456,361
343,0.87,-0.49,-0.05,-0.49,-2.44,-1.83,387,256,391,452,361
344,0.87,-0.49,-0.06,0.37,-2.38,-2.38,387,255,391,460,360
345,0.86,-0.49,-0.04,-0.06,-1.83,-1.83,387,252,392,455,359
346,0.87,-0.5,-0.05,0.24,-2.08,-1.65,390,255,394,459,360
347,0.86,-0.49,-0.04,0.92,-2.62,-1.22,388,257,393,460,357
348,0.86,-0.48,-0.05,0.37,-2.93,-1.65,389,258,389,459,363
349,0.87,-0.5,-0.05,-0.24,-3.17,-3.3,389,259,390,456,371
350,0.86,-0.48,-0.04,-0.24,-4.03,-2.99,388,257,388,464,361
351,0.87,-0.48,-0.05,1.1,-2.14,-2.87,387,255,391,469,359
352,0.89,-0.49,-0.04,4.76,-4.09,-3.72,387,256,392,455,355
353,0.88,-0.47,-0.03,1.1,-3.3,-4.03,385,258,391,455,363
354,0.87,-0.5,-0.06,1.04,-4.15,-6.84,387,252,391,449,360
355,0.88,-0.48,-0.06,2.01,-3.23,-2.81,391,258,390,450,364
356,0.88,-0.49,-0.05,1.46,-3.91,-3.36,389,255,391,451,363
357,0.88,-0.48,-0.06,-0.61,-2.93,-2.5,389,256,394,459,363
358,0.88,-0.48,-0.06,0.85,-3.36,-3.11,387,255,390,455,361
359,0.88,-0.47,-0.06,-0.31,-2.44,-2.69,383,257,391,454,354
360,0.87,-0.48,-0.06,0.37,-2.81,-2.5,386,255,394,456,361
361,0.87,-0.48,-0.06,-2.5,-1.77,-1.04,390,262,391,452,360
362,0.89,-0.47,-0.06,-2.69,-1.83,-1.65,385,255,391,456,364
363,0.87,-0.48,-0.06,-0.43,-2.99,-2.69,384,256,391,459,358
364,0.87,-0.48,-0.07,0.12,-3.36,-3.23,385,259,388,456,361
365,0.87,-0.48,-0.06,0.12,-3.11,-2.44,399,255,388,459,355
366,0.88,-0.48,-0.06,-2.38,-1.95,-2.44,387,252,391,455,352
367,0.88,-0.47,-0.07,1.1,-3.05,-2.75,394,255,394,457,351
368,0.86,-0.49,-0.06,0.31,-3.23,-3.78,387,254,391,456,351
369,0.87,-0.46,-0.07,2.81,-7.14,-8.48,388,253,394,471,352
370,0.88,-0.45,-0.05,-2.14,-2.32,-1.89,387,257,391,456,351
371,0.89,-0.45,-0.08,-1.04,-3.3,-0.98,387,256,394,455,348
372,0.9,-0.44,-0.08,2.32,0.55,3.85,389,254,388,456,354
373,0.87,-0.48,-0.03,-0.31,-0.73,-0.31,388,255,390,450,354
374,0.89,-0.47,-0.05,1.16,-1.83,-2.32,384,257,394,457,350
375,0.89,-0.46,-0.04,0.85,-2.62,-3.17,387,253,392,451,354
376,0.88,-0.47,-0.04,-1.16,-3.72,-1.71,388,257,395,456,350
377,0.89,-0.46,-0.06,0.24,-4.64,-3.66,390,257,387,455,339
378,0.86,-0.48,-0.04,1.16,-1.95,-0.49,383,253,393,459,348
379,0.89,-0.47,-0.06,0.12,-2.69,-2.56,383,258,387,455,353
380,0.88,-0.47,-0.05,0.18,-2.75,-2.2,387,259,393,451,350
381,0.87,-0.48,-0.06,-1.22,-2.38,-2.01,391,253,391,459,351
382,0.89,-0.47,-0.04,1.4,-3.66,-2.99,384,257,391,452,352
383,0.88,-0.47,-0.06,-1.16,-2.44,-2.08,385,257,387,450,354
384,0.88,-0.47,-0.05,1.28,-2.5,-1.53,385,256,388,458,348
385,0.89,-0.47,-0.05,-0.12,-3.3,-2.14,394,256,391,459,351
386,0.88,-0.47,-0.05,0.49,-3.72,-3.05,386,253,390,451,353
387,0.88,-0.47,-0.04,0.18,-2.87,-2.75,385,257,390,460,351
388,0.89,-0.46,-0.06,0.43,-2.62,-2.81,385,256,390,456,355
389,0.88,-0.47,-0.05,-0.31,-2.5,-2.44,384,254,391,455,355
390,0.88,-0.47,-0.06,0.79,-2.93,-3.3,384,255,392,460,354
391,0.88,-0.47,-0.05,0.37,-2.62,-2.62,385,257,393,456,346
392,0.88,-0.47,-0.05,0.31,-2.38,-2.32,385,257,391,455,355
393,0.86,-0.49,-0.07,-2.08,-2.87,-2.69,382,256,387,458,353
394,0.89,-0.47,-0.08,-3.05,-2.81,-1.22,385,255,392,459,350
395,0.87,-0.49,-0.05,1.04,-2.87,-3.3,387,256,389,454,354
396,0.88,-0.47,-0.04,-0.31,-4.09,-3.17,385,258,392,458,351
397,0.88,-0.48,-0.05,-0.73,-3.66,-2.87,379,254,389,460,352
398,0.89,-0.46,-0.05,0.37,-2.62,-3.3,383,256,392,452,355
399,0.89,-0.46,-0.05,-0.24,-1.77,-1.59,386,254,390,455,355
400,0.89,-0.46,-0.04,0.98,-2.81,-2.5,383,257,387,455,354
401,0.89,-0.46,-0.04,0.37,-2.62,-2.26,383,256,393,454,353
402,0.89,-0.46,-0.04,1.46,-3.54,-3.23,383,256,387,458,354
403,0.89,-0.46,-0.04,1.1,-4.03,-3.11,383,256,390,458,354
404,0.89,-0.46,-0.05,0.55,-2.56,-2.62,384,256,389,456,353
405,0.88,-0.47,-0.05,2.26,-2.81,-2.99,384,264,392,458,351
406,0.89,-0.46,-0.04,-0.24,-2.56,-2.26,384,256,390,456,356
407,0.87,-0.48,-0.06,-1.59,-3.05,-1.53,381,255,392,466,356
408,0.87,-0.48,-0.06,0.18,-2.69,-2.5,386,257,391,455,359
409,0.87,-0.49,-0.05,1.16,-2.93,-4.33,387,259,392,455,353
410,0.88,-0.46,-0.04,0.92,-2.81,-3.42,385,257,390,456,354
411,0.89,-0.45,-0.04,0.61,-3.6,-2.93,383,256,391,456,350
412,0.9,-0.46,-0.05,0.85,-3.78,-2.87,383,259,390,454,353
413,0.89,-0.45,-0.05,0.31,-2.38,-1.22,384,258,391,460,353
414,0.86,-0.48,-0.05,-0.67,-3.54,-3.97,382,257,389,459,353
415,0.89,-0.45,-0.05,0.43,-1.46,-0.43,380,256,393,456,356
416,0.89,-0.44,-0.06,0.0,-1.83,-3.54,379,257,390,458,354
417,0.92,-0.43,-0.05,2.01,-2.87,-2.44,381,256,387,456,355
418,0.91,-0.44,-0.03,0.31,-2.32,-0.73,382,259,392,458,355
419,0.89,-0.45,-0.05,-1.04,-3.05,-1.83,382,259,392,455,350
420,0.89,-0.45,-0.05,0.61,-3.3,-2.62,382,257,387,455,354
421,0.89,-0.45,-0.04,0.49,-2.32,-2.26,382,259,393,456,350
422,0.89,-0.46,-0.05,0.79,-2.69,-2.81,384,256,385,458,354
423,0.89,-0.46,-0.03,0.85,-2.01,-1.1,380,254,390,456,355
424,0.9,-0.46,-0.05,0.31,-2.14,-1.83,382,259,391,455,354
425,0.9,-0.45,-0.05,0.18,-4.03,-2.32,384,258,393,454,350
426,0.89,-0.46,-0.04,-2.2,-4.58,-3.05,382,260,391,458,355
427,0.87,-0.48,-0.06,-0.73,-4.94,-4.33,380,257,393,454,352
428,0.89,-0.46,-0.06,1.4,-2.26,-2.32,380,254,389,459,353
429,0.88,-0.47,-0.05,-0.31,-2.5,-2.75,395,257,387,459,355
430,0.89,-0.46,-0.05,0.18,-2.81,-2.5,384,258,390,449,354
431,0.88,-0.46,-0.05,1.28,-2.81,-2.69,381,260,392,456,352
432,0.88,-0.47,-0.03,-0.73,-2.44,-1.95,376,257,392,458,355
433,0.87,-0.47,-0.05,-0.49,-3.23,-0.79,379,258,392,454,348
434,0.89,-0.46,-0.04,0.85,-3.11,-2.56,382,259,385,453,355
435,0.88,-0.46,-0.04,-0.98,-2.81,-1.77,382,258,392,455,355
436,0.89,-0.47,-0.04,0.85,-3.05,-2.01,383,257,388,450,355
437,0.89,-0.46,-0.04,0.06,-3.05,-1.83,383,256,391,455,355
438,0.88,-0.47,-0.04,0.61,-2.87,-2.62,383,258,392,450,354
439,0.89,-0.47,-0.03,0.18,-3.05,-3.05,378,257,388,458,355
440,0.86,-0.47,-0.03,-1.71,-3.11,-2.69,384,259,389,452,356
441,0.89,-0.47,-0.05,-0.61,-2.81,-3.97,381,257,390,454,358
442,0.9,-0.43,-0.07,0.43,-5.49,-4.21,378,258,390,456,353
443,0.91,-0.43,-0.06,2.01,-3.72,-3.42,381,259,389,455,357
444,0.89,-0.45,-0.07,-1.83,-0.24,-0.31,381,256,389,454,356
445,0.91,-0.43,-0.04,1.28,-1.04,2.69,382,257,389,455,353
446,0.9,-0.45,-0.07,1.1,-3.17,-4.09,382,258,388,455,357
447,0.89,-0.46,-0.03,2.32,-3.91,-6.04,382,262,392,459,357
448,0.93,-0.41,-0.07,2.81,-3.42,-5.13,380,258,393,454,354
449,0.88,-0.46,-0.05,0.85,-3.11,-2.81,381,270,391,459,353
450,0.9,-0.44,-0.04,0.85,-2.87,-2.81,382,256,388,455,354
451,0.92,-0.43,-0.07,-0.31,-4.21,-5.13,382,258,389,453,356
452,0.93,-0.41,-0.07,1.1,-4.7,-4.46,383,259,389,454,354
453,0.91,-0.43,-0.05,0.73,-0.49,-0.61,384,256,387,458,351
454,0.88,-0.44,-0.03,5.62,-7.02,-2.5,384,261,385,458,352
455,0.98,-0.39,-0.1,-6.23,7.39,7.57,381,256,389,456,352
456,0.89,-0.44,-0.13,-1.71,-8.0,-0.37,384,257,388,452,345
457,0.88,-0.45,-0.08,-5.0,-6.1,-2.2,382,260,391,454,351
458,0.87,-0.44,-0.08,-2.32,-2.75,-4.76,379,257,389,456,352
459,0.92,-0.42,-0.09,1.65,-2.44,-8.3,379,257,389,454,355
460,0.93,-0.38,-0.09,5.0,-4.03,-3.11,384,258,389,454,356
461,0.91,-0.4,-0.04,6.65,-0.73,-1.53,381,260,390,458,355
462,0.9,-0.4,-0.09,0.37,-4.39,-5.74,382,256,390,454,352
463,0.9,-0.41,-0.05,-0.24,-2.81,-3.97,381,257,388,455,355
464,0.9,-0.41,-0.06,-1.46,-1.4,-1.59,381,255,386,454,355
465,0.92,-0.39,-0.07,0.06,-2.38,-2.56,379,256,387,453,356
466,0.92,-0.39,-0.06,1.89,-2.87,-2.32,381,259,387,453,355
467,0.92,-0.4,-0.07,0.79,-4.39,-3.23,383,256,388,454,355
468,0.91,-0.39,-0.06,1.1,-2.44,-2.26,380,257,391,448,357
469,0.92,-0.39,-0.07,0.79,-2.81,-3.3,381,257,386,457,356
470,0.92,-0.39,-0.06,1.4,-2.87,-1.59,381,257,383,455,354
471,0.92,-0.39,-0.07,0.85,-2.44,-2.14,384,259,387,454,355
472,0.96,-0.35,-0.08,10.93,-14.1,-16.11,394,260,387,453,356
473,0.87,-0.38,-0.1,-3.42,0.18,-4.7,381,254,385,452,354
474,0.93,-0.38,-0.08,1.28,-1.95,-2.69,383,259,387,456,358
475,0.91,-0.38,-0.07,1.16,-1.28,-0.73,380,260,387,451,354
476,0.92,-0.36,-0.08,0.31,-2.75,-2.56,382,257,384,455,356
477,0.93,-0.37,-0.08,0.49,-2.99,-1.95,381,257,389,451,357
478,0.93,-0.37,-0.08,-0.06,-3.05,-2.5,376,255,387,450,355
479,0.92,-0.37,-0.08,0.37,-3.36,-2.62,382,259,386,455,355
480,0.93,-0.36,-0.09,1.1,-3.05,-3.11,381,258,402,453,351
481,0.93,-0.36,-0.07,-0.06,-2.69,-2.44,385,258,389,453,354
482,0.93,-0.36,-0.08,-0.61,-2.87,-2.32,383,254,389,455,354
483,0.93,-0.36,-0.07,1.46,-3.11,-2.93,378,259,387,452,357
484,0.93,-0.36,-0.08,0.85,-3.42,-2.93,381,261,387,455,352
485,0.92,-0.37,-0.07,0.18,-2.26,-2.01,384,257,387,453,353
486,0.94,-0.35,-0.07,1.71,-3.23,-2.26,375,257,390,455,354
487,0.92,-0.36,-0.07,0.18,-3.6,-4.82,378,256,386,453,356
488,0.98,-0.32,-0.08,-3.6,0.61,-1.83,384,260,389,452,352
489,0.93,-0.37,-0.07,-0.73,-2.62,-2.56,379,257,387,449,355
490,0.94,-0.37,-0.08,2.14,-2.44,-7.93,380,260,387,451,352
491,0.94,-0.35,-0.07,0.79,-4.7,-7.2,379,258,384,455,354
492,0.95,-0.33,-0.14,11.66,-22.77,-6.41,380,258,388,448,352
493,0.95,-0.33,-0.12,1.71,-3.3,-2.62,385,254,389,453,355
494,0.93,-0.31,-0.11,1.22,-2.5,-1.65,383,256,386,453,352
495,0.94,-0.32,-0.11,1.4,-2.38,-3.05,385,257,384,458,354
496,0.96,-0.34,-0.1,-1.16,-1.83,-3.05,384,256,386,454,352
497,0.96,-0.34,-0.11,-1.4,-2.38,-2.2,383,259,388,456,355
498,0.95,-0.33,-0.1,-3.17,-1.77,-0.49,383,252,390,449,357
499,0.95,-0.39,-0.09,-7.81,-0.92,2.08,384,260,388,453,355
500,0.9,-0.38,-0.11,0.92,-2.5,1.22,385,257,401,457,356
501,0.91,-0.4,-0.11,2.26,-3.05,-4.64,385,257,386,454,352
502,0.92,-0.38,-0.12,-0.55,-3.78,-1.71,385,260,387,458,354
503,0.92,-0.39,-0.1,-0.18,-2.5,-2.81,375,260,388,455,355
504,0.91,-0.4,-0.1,0.06,-2.93,-2.75,382,255,391,454,356
505,0.92,-0.39,-0.1,0.06,-2.87,-1.71,384,258,389,454,356
506,0.92,-0.39,-0.1,0.67,-2.14,-2.93,384,260,392,454,356
507,0.92,-0.4,-0.09,0.73,-1.71,-2.69,384,258,388,455,355
508,0.8,-0.56,-0.18,-5.68,5.31,-3.11,366,243,335,453,360
509,0.83,-0.52,-0.19,5.31,-3.23,-4.64,402,223,432,435,354
510,0.82,-0.54,-0.2,2.75,-4.58,-2.62,403,228,435,444,358
511,0.83,-0.54,-0.22,-2.62,-2.62,-4.33,402,236,434,451,360
512,0.81,-0.55,-0.19,-0.79,-2.75,-1.16,404,236,434,446,359
513,0.84,-0.52,-0.19,-3.36,-3.97,4.21,405,253,434,442,360
514,0.76,-0.61,-0.24,-6.84,-1.22,1.28,405,237,436,450,356
515,0.78,-0.57,-0.22,-1.77,-2.75,-3.85,404,236,430,444,355
516,0.78,-0.57,-0.23,-0.49,-1.59,-2.26,406,239,433,450,358
517,0.78,-0.57,-0.25,3.17,-3.6,-7.75,408,240,432,451,359
518,0.81,-0.55,-0.23,0.0,-3.17,-1.71,405,240,432,451,355
519,0.8,-0.56,-0.22,0.37,-2.62,-2.08,406,240,432,446,358
520,0.8,-0.56,-0.22,0.06,-3.42,-3.05,403,235,431,457,359
521,0.79,-0.55,-0.23,1.4,-3.36,-2.2,405,241,432,455,357
522,0.78,-0.56,-0.22,-1.77,-3.91,-2.14,406,239,431,450,357
523,0.81,-0.58,-0.2,-0.24,-4.46,-0.98,402,243,429,451,356
524,0.81,-0.54,-0.27,-2.32,-2.14,-4.46,405,237,425,452,357
525,0.8,-0.55,-0.23,2.08,0.85,1.1,403,243,425,458,357
526,0.81,-0.54,-0.21,3.42,-1.95,-3.11,401,240,429,453,354
527,0.79,-0.56,-0.23,-2.01,-2.38,-0.79,403,243,428,449,357
528,0.81,-0.55,-0.22,1.04,-2.44,-3.85,409,244,427,453,355
529,0.82,-0.55,-0.21,1.83,-5.07,0.49,403,241,426,457,356
530,0.77,-0.58,-0.24,0.43,-4.15,0.31,400,238,430,452,355
531,0.78,-0.56,-0.23,-0.06,-2.93,-1.4,401,239,426,456,356
532,0.79,-0.56,-0.22,4.76,-3.54,-3.72,402,242,425,451,357
533,0.74,-0.62,-0.24,2.56,-5.19,-5.98,412,245,425,452,357
534,0.81,-0.54,-0.23,2.38,-1.53,-3.05,401,241,427,450,362
535,0.78,-0.57,-0.22,2.01,-3.6,-3.42,401,242,425,454,360
536,0.81,-0.55,-0.23,-0.31,-4.21,-4.58,401,242,428,453,356
537,0.8,-0.55,-0.23,0.37,-1.77,-2.32,401,238,427,453,357
538,0.8,-0.56,-0.23,0.43,-2.62,-3.66,402,239,422,449,360
539,0.8,-0.55,-0.23,1.04,-2.87,-1.95,401,245,427,454,358
540,0.8,-0.55,-0.22,-0.43,-2.32,-2.14,390,247,419,456,362
541,0.8,-0.56,-0.22,-0.49,-2.69,-2.38,401,241,424,455,353
542,0.8,-0.55,-0.21,0.18,-2.26,-1.65,403,245,427,454,363
543,0.8,-0.55,-0.21,-0.67,-2.81,-2.5,399,246,425,455,360
544,0.8,-0.55,-0.22,-1.28,-2.62,-2.56,399,246,422,459,360
545,0.8,-0.55,-0.23,1.22,-4.09,-3.23,398,244,424,456,360
546,0.82,-0.54,-0.22,0.43,-2.81,-3.6,400,243,424,451,363
547,0.82,-0.54,-0.23,0.79,-3.11,-2.75,400,246,432,454,360
548,0.81,-0.54,-0.22,0.18,-2.62,-4.82,399,244,420,460,362
549,0.81,-0.54,-0.23,0.73,-1.53,-1.77,400,244,420,456,361
550,0.81,-0.54,-0.23,1.4,-2.99,-1.59,404,244,422,455,361
551,0.79,-0.56,-0.23,-0.79,-2.75,-2.62,400,248,417,468,360
552,0.8,-0.55,-0.22,-0.49,-2.26,-2.62,401,242,422,459,359
553,0.8,-0.55,-0.21,0.73,-3.11,-2.87,402,246,419,455,361
554,0.79,-0.57,-0.23,-1.28,-5.25,-2.44,397,245,419,450,360
555,0.8,-0.54,-0.21,1.4,1.95,1.46,402,242,418,454,360
556,0.8,-0.54,-0.18,2.2,-2.99,-1.16,400,247,419,460,350
557,0.82,-0.52,-0.24,3.36,-3.42,-3.42,398,242,422,458,358
558,0.78,-0.5,-0.21,0.49,-4.94,-3.11,398,246,417,457,361
559,0.8,-0.55,-0.25,-0.43,-4.94,-5.43,394,248,417,460,362
560,0.79,-0.55,-0.23,0.0,-4.7,-3.72,392,247,417,453,361
561,0.8,-0.55,-0.24,3.05,-3.36,-2.01,389,243,419,460,362
562,0.77,-0.57,-0.26,-2.08,-3.54,-0.06,390,245,418,459,359
563,0.76,-0.59,-0.24,0.18,-1.59,-0.49,385,246,419,461,361
564,0.78,-0.57,-0.24,1.22,-3.11,-2.32,391,248,415,457,360
565,0.76,-0.58,-0.24,4.15,-2.81,-2.08,389,246,416,456,361
566,0.79,-0.56,-0.26,-1.53,-5.68,-8.61,390,247,416,457,360
567,0.79,-0.56,-0.25,3.42,-7.81,-8.06,389,246,416,461,362
568,0.77,-0.58,-0.25,1.1,-3.78,-2.87,392,246,416,454,360
569,0.77,-0.59,-0.24,-2.93,1.65,-0.31,391,244,417,457,360
570,0.76,-0.59,-0.25,-0.73,-2.5,0.0,392,247,413,452,362
571,0.75,-0.6,-0.23,-0.98,-2.44,-3.6,388,249,413,460,359
572,0.76,-0.58,-0.23,-0.12,-1.59,-3.42,392,249,416,456,359
573,0.76,-0.57,-0.2,-1.89,9.64,0.37,390,245,418,461,358
574,0.81,-0.6,-0.07,-1.1,5.62,-7.26,396,248,418,453,354
575,0.83,-0.55,-0.09,2.81,-6.41,-2.56,391,244,417,461,362
576,0.83,-0.57,-0.08,6.23,-6.35,-0.06,381,248,418,457,361
577,0.8,-0.59,-0.04,2.14,-4.46,-0.37,413,246,414,460,362
578,0.78,-0.62,-0.06,-1.34,-3.3,-2.5,380,249,418,458,362
579,0.81,-0.59,-0.07,0.0,-2.01,-3.72,382,246,415,458,361
580,0.84,-0.59,-0.07,-0.67,-4.64,-5.07,378,246,414,457,363
581,0.79,-0.6,-0.06,10.07,-20.02,-3.91,380,249,411,457,358
582,0.85,-0.55,-0.09,2.56,-4.64,-5.31,380,248,412,452,357
583,0.81,-0.59,-0.11,-0.18,-1.83,-5.31,376,251,416,457,362
584,0.8,-0.59,-0.12,-0.73,-3.05,-3.42,373,250,412,462,363
585,0.78,-0.6,-0.1,-2.01,0.37,-2.01,380,248,414,459,363
586,0.81,-0.58,-0.06,-2.93,-1.16,2.44,377,250,408,456,362
587,0.83,-0.57,-0.13,3.42,-5.86,-5.37,378,246,413,454,361
588,0.81,-0.57,-0.1,5.0,-4.76,-8.97,375,250,411,454,363
589,0.85,-0.56,-0.13,4.88,-4.39,-4.03,374,248,407,454,357
590,0.8,-0.59,-0.08,4.94,-3.3,-0.67,376,247,411,459,362
591,0.78,-0.6,-0.09,3.85,-5.19,-2.32,371,249,412,452,361
592,0.79,-0.59,-0.07,-0.92,1.89,-2.26,376,246,409,458,361
593,0.82,-0.57,-0.1,2.26,-2.62,-4.33,385,250,410,459,363
594,0.82,-0.57,-0.09,1.46,-2.87,-4.03,389,248,411,456,361
595,0.82,-0.57,-0.1,1.16,-2.81,-4.33,390,251,407,454,359
596,0.82,-0.56,-0.08,1.16,-3.23,-3.91,392,247,410,453,365
597,0.82,-0.58,-0.1,-1.95,-3.66,-1.53,392,246,408,459,357
598,0.8,-0.59,-0.09,-1.34,-2.81,-1.22,392,248,407,457,360
599,0.8,-0.58,-0.09,-0.61,-3.11,-3.23,389,250,409,450,362
600,0.8,-0.58,-0.1,0.37,-2.99,-2.26,390,250,407,455,362
601,0.8,-0.56,-0.08,-1.53,-3.3,-0.43,387,247,405,454,363
602,0.81,-0.57,-0.07,-1.34,-0.98,-3.11,382,249,409,450,364
603,0.82,-0.57,-0.08,1.28,-1.71,-2.81,386,249,406,454,362
604,0.83,-0.56,-0.11,1.89,-3.78,-2.38,387,247,407,450,359
605,0.82,-0.56,-0.09,0.67,-2.87,-2.38,389,249,408,457,358
606,0.82,-0.57,-0.08,0.67,-3.42,-2.93,388,248,413,453,363
607,0.83,-0.56,-0.08,0.43,-3.17,-3.85,390,249,402,449,355
608,0.82,-0.56,-0.08,0.67,-3.05,-2.5,389,250,409,455,357
609,0.82,-0.55,-0.08,2.01,-1.4,-2.44,390,251,406,455,357
610,0.83,-0.56,-0.09,0.37,-2.38,-2.56,389,251,410,456,356
611,0.82,-0.55,-0.07,0.0,-2.93,-1.22,390,252,409,454,357
612,0.82,-0.57,-0.08,1.53,-2.26,-2.81,388,249,406,454,353
613,0.8,-0.58,-0.08,-2.75,-3.36,-3.66,390,250,402,452,359
614,0.82,-0.56,-0.07,-2.32,-2.14,-5.07,388,245,406,452,357
615,0.83,-0.54,-0.07,-2.81,-2.56,-3.97,388,251,407,454,357
616,0.84,-0.54,-0.11,1.4,-3.23,-2.81,388,250,406,459,357
617,0.81,-0.56,-0.09,0.0,-3.3,-3.91,382,251,406,454,357
618,0.87,-0.51,-0.1,0.79,-1.71,-2.56,383,247,407,459,355
619,0.82,-0.55,-0.1,1.04,-5.62,-2.2,385,249,402,457,362
620,0.87,-0.49,-0.1,0.18,-1.83,-5.86,395,248,406,455,358
621,0.9,-0.46,-0.1,4.94,-2.56,-2.75,393,250,402,455,356
622,0.9,-0.46,-0.13,0.18,-3.6,-0.79,395,252,409,458,358
623,0.86,-0.52,-0.09,0.31,-2.99,0.31,396,249,407,457,360
624,0.85,-0.52,-0.09,6.1,-1.22,-1.22,395,248,407,459,360
625,0.86,-0.5,-0.1,3.78,-3.05,-3.91,393,252,404,456,358
626,0.85,-0.52,-0.08,0.31,-3.78,-2.99,396,253,403,455,357
627,0.85,-0.52,-0.09,1.04,-3.66,-2.44,388,260,404,458,353
628,0.85,-0.51,-0.08,0.67,-3.3,-3.17,391,253,402,455,360
629,0.86,-0.51,-0.08,-0.18,-3.23,-2.87,390,250,405,452,360
630,0.86,-0.51,-0.09,1.77,-4.15,-3.36,381,253,406,450,360
631,0.85,-0.51,-0.09,0.49,-3.72,-2.93,393,253,404,454,361
632,0.86,-0.51,-0.1,0.18,-3.6,-3.97,393,264,405,454,357
633,0.85,-0.51,-0.09,-0.24,-2.14,-2.26,393,251,405,454,361
634,0.86,-0.52,-0.09,0.43,-3.05,-2.75,394,250,406,453,360
635,0.86,-0.52,-0.08,0.67,-3.23,-2.81,390,251,403,455,359
636,0.87,-0.51,-0.09,1.04,-3.05,-2.38,392,253,405,459,362
637,0.85,-0.51,-0.08,0.92,-2.62,-2.32,394,249,403,459,359
638,0.86,-0.51,-0.08,-0.49,-2.32,-2.2,393,253,401,459,360
639,0.85,-0.52,-0.07,0.06,-3.48,-2.08,397,249,405,459,360
640,0.85,-0.5,-0.08,1.22,-3.3,-2.99,392,253,404,466,361
641,0.86,-0.51,-0.09,0.37,-2.81,-3.78,394,254,403,455,362
642,0.86,-0.51,-0.09,-0.31,-2.2,-1.83,395,253,402,456,359
643,0.85,-0.51,-0.09,1.16,-2.26,-2.56,395,250,405,454,360
644,0.86,-0.5,-0.09,0.92,-2.75,-2.26,393,252,405,459,360
645,0.86,-0.51,-0.08,0.43,-2.81,-2.62,392,253,404,455,364
646,0.86,-0.51,-0.09,0.06,-3.11,-2.93,392,253,399,458,362
647,0.85,-0.52,-0.07,0.79,-3.05,-2.32,390,253,404,455,358
648,0.85,-0.51,-0.08,0.24,-3.48,-2.69,393,251,402,455,360
649,0.86,-0.52,-0.08,0.73,-3.36,-2.87,394,254,405,452,367
650,0.86,-0.5,-0.08,-0.43,-2.99,-2.44,395,252,404,453,359
651,0.86,-0.5,-0.08,-0.06,-2.75,-2.5,396,248,402,471,361
652,0.86,-0.5,-0.09,-0.49,-2.5,-2.01,394,255,401,454,361
653,0.86,-0.51,-0.09,0.43,-2.08,-1.53,394,251,403,455,361
654,0.87,-0.5,-0.09,0.49,-2.87,-2.44,395,253,402,455,360
655,0.86,-0.51,-0.09,0.24,-2.62,-2.81,383,250,402,454,363
656,0.86,-0.51,-0.08,0.18,-2.56,-2.93,392,253,401,463,361
657,0.85,-0.5,-0.08,1.04,-2.62,-2.08,389,252,404,450,363
658,0.86,-0.51,-0.07,1.04,-2.93,-3.72,394,249,401,456,361
659,0.87,-0.51,-0.08,0.18,-2.99,-2.44,389,254,401,451,362
660,0.85,-0.52,-0.08,0.06,-2.93,-2.62,393,254,400,449,363
661,0.86,-0.51,-0.08,-0.24,-2.69,-2.81,392,252,401,456,362
662,0.86,-0.5,-0.09,0.0,-2.99,-2.75,391,259,401,455,364
663,0.86,-0.5,-0.09,-0.12,-2.93,-3.11,391,250,398,458,357
664,0.86,-0.5,-0.09,0.06,-2.2,-2.26,391,259,404,454,360
665,0.86,-0.5,-0.08,0.79,-3.05,-2.87,406,253,402,454,363
666,0.86,-0.51,-0.07,0.24,-2.56,-2.5,392,254,398,449,362
667,0.85,-0.51,-0.07,0.55,-2.93,-2.69,394,250,400,454,361
668,0.86,-0.51,-0.08,0.85,-2.69,-2.38,391,249,400,455,360
669,0.86,-0.51,-0.08,0.79,-2.99,-3.11,394,251,401,455,362
670,0.86,-0.5,-0.07,-0.31,-1.83,-2.32,387,248,401,454,361
671,0.87,-0.51,-0.08,-0.18,-2.99,-1.89,394,249,399,454,361
672,0.86,-0.51,-0.08,0.37,-2.62,-2.38,393,251,399,450,363
673,0.86,-0.51,-0.08,-0.24,-3.6,-2.81,394,254,396,450,361
674,0.86,-0.5,-0.08,0.43,-3.66,-3.3,390,251,399,452,361
675,0.86,-0.5,-0.08,-0.31,-2.08,-1.4,391,254,399,454,363
676,0.86,-0.51,-0.09,1.46,-3.23,-2.2,391,252,400,457,361
677,0.86,-0.5,-0.08,0.67,-2.08,-2.81,393,257,402,454,359
678,0.86,-0.5,-0.08,0.73,-2.44,-2.14,392,255,402,450,359
679,0.86,-0.51,-0.07,-0.31,-2.01,-1.71,394,252,399,455,362
680,0.86,-0.51,-0.07,0.49,-3.85,-2.69,391,252,399,451,362
681,0.86,-0.5,-0.08,0.31,-3.05,-3.23,391,256,399,449,362
682,0.86,-0.5,-0.08,0.0,-2.99,-2.56,389,249,400,455,360
683,0.86,-0.51,-0.08,0.49,-2.69,-2.44,393,249,400,458,363
684,0.86,-0.51,-0.07,0.79,-2.87,-2.2,397,254,400,456,360
685,0.86,-0.51,-0.07,0.55,-2.93,-2.56,392,251,399,454,361
686,0.86,-0.51,-0.08,0.24,-2.5,-2.26,394,252,396,450,358
687,0.85,-0.51,-0.07,-0.18,-2.93,-1.95,392,251,399,454,360
688,0.86,-0.5,-0.07,0.67,-4.09,-3.48,387,255,399,454,359
689,0.87,-0.5,-0.08,-0.06,-4.09,-4.03,395,254,398,454,361
690,0.87,-0.5,-0.07,1.16,-0.61,3.3,392,256,399,459,361
691,0.87,-0.49,-0.07,-0.61,-0.92,0.61,392,255,397,454,361
692,0.86,-0.51,-0.07,2.5,-2.93,-0.79,389,250,401,458,364
693,0.85,-0.52,-0.1,0.37,-4.15,-4.58,396,254,399,453,363
694,0.86,-0.5,-0.1,3.36,-3.6,-5.25,385,253,397,453,360
695,0.87,-0.5,-0.09,0.85,-2.26,-2.44,392,251,396,454,364
696,0.86,-0.52,-0.07,0.79,-2.08,-2.5,396,254,401,453,357
697,0.84,-0.52,-0.07,-0.92,-3.85,-3.17,393,255,398,449,362
698,0.83,-0.53,-0.07,0.73,-2.93,-0.31,393,253,400,452,361
699,0.85,-0.5,-0.07,-0.79,-1.28,-1.71,389,250,398,450,360
700,0.86,-0.52,-0.07,-0.61,-1.22,-0.24,392,250,395,453,358
701,0.86,-0.5,-0.07,-0.73,-2.44,-1.46,393,253,397,448,362
702,0.86,-0.51,-0.07,0.43,-2.75,-2.32,391,252,397,454,362
703,0.85,-0.51,-0.07,0.55,-3.17,-2.5,392,254,399,455,362
704,0.87,-0.51,-0.08,-0.06,-2.99,-3.05,392,254,398,454,360
705,0.87,-0.5,-0.07,0.31,-3.11,-2.99,394,252,401,451,358
706,0.86,-0.5,-0.07,0.18,-2.81,-2.08,392,253,399,450,360
707,0.86,-0.51,-0.07,0.79,-2.32,-2.56,388,251,400,453,359
708,0.86,-0.5,-0.07,2.14,-2.81,-3.3,394,252,400,454,359
709,0.86,-0.5,-0.07,0.92,-2.44,-2.75,393,252,398,454,357
710,0.86,-0.5,-0.06,1.22,-3.23,-2.2,392,255,396,457,360
711,0.86,-0.5,-0.07,0.49,-2.44,-2.62,392,253,395,452,360
712,0.85,-0.5,-0.07,-0.43,-2.99,-2.5,384,254,397,451,358
713,0.85,-0.5,-0.07,0.61,-4.09,-1.28,394,253,398,455,357
714,0.87,-0.5,-0.07,-2.2,-2.99,-2.44,379,252,393,451,363
715,0.86,-0.5,-0.08,0.24,-3.05,-2.2,392,252,395,460,363
716,0.86,-0.5,-0.07,0.85,-2.87,-2.14,405,251,399,457,362
717,0.86,-0.5,-0.07,-0.61,-2.32,-2.62,387,251,394,459,361
718,0.88,-0.49,-0.09,1.34,0.67,-6.16,390,248,400,459,359
719,0.87,-0.49,-0.06,1.77,-3.85,-1.46,388,251,401,456,362
720,0.84,-0.51,-0.05,-0.12,-2.87,-2.56,389,256,397,452,359
721,0.83,-0.53,-0.05,-0.79,-2.01,1.83,390,254,398,461,360
722,0.88,-0.48,-0.06,1.22,-2.44,-5.98,390,253,398,456,363
723,0.87,-0.49,-0.04,0.98,-2.56,-2.56,390,254,400,455,360
724,0.86,-0.5,-0.04,0.12,-2.69,-1.28,390,254,396,459,361
725,0.87,-0.5,-0.04,-0.12,-3.17,-1.71,390,252,399,457,361
726,0.87,-0.49,-0.04,-1.89,-2.62,-0.92,387,255,400,454,361
727,0.86,-0.5,-0.04,0.73,-3.97,-2.32,388,254,396,457,361
728,0.87,-0.5,-0.05,0.79,-2.5,-2.14,388,251,397,456,362
729,0.87,-0.51,-0.05,0.79,-2.56,-3.17,385,252,394,454,361
730,0.86,-0.51,-0.05,1.71,-2.93,-2.44,388,254,394,456,358
731,0.86,-0.52,-0.05,0.73,-2.87,-2.75,388,254,397,457,357
732,0.86,-0.51,-0.05,2.01,-2.5,-2.14,389,252,399,460,365
733,0.86,-0.51,-0.05,-0.06,-2.81,-2.01,390,253,400,463,361
734,0.87,-0.5,-0.05,2.14,-3.17,-4.27,386,252,397,455,360
735,0.86,-0.5,-0.04,1.34,-3.17,-3.05,391,248,397,454,364
736,0.86,-0.51,-0.04,0.61,-2.75,-2.93,386,255,396,455,362
737,0.86,-0.51,-0.03,0.79,-4.27,-2.81,387,249,398,452,362
738,0.86,-0.5,-0.05,-0.12,-3.3,-2.01,401,251,398,454,365
739,0.87,-0.5,-0.05,0.55,-4.15,-3.97,388,253,396,461,358
740,0.86,-0.5,-0.05,1.65,-2.81,-2.38,388,253,393,456,364
741,0.87,-0.51,-0.05,0.98,-2.93,-2.62,388,253,393,457,362
742,0.85,-0.51,-0.05,0.73,-2.26,-2.99,391,254,397,452,361
743,0.87,-0.5,-0.04,0.85,-2.08,-2.38,387,252,401,460,359
744,0.86,-0.5,-0.04,-0.67,-1.77,-1.77,390,253,408,460,360
745,0.86,-0.5,-0.04,0.67,-2.62,-2.08,389,252,394,461,361
746,0.87,-0.5,-0.04,0.31,-2.32,-2.01,388,256,398,459,359
747,0.86,-0.51,-0.04,-0.98,-3.17,-2.87,387,255,396,458,358
748,0.87,-0.5,-0.05,0.49,-3.11,-2.2,384,256,393,457,359
749,0.86,-0.51,-0.05,0.98,-2.99,-2.75,384,255,397,456,361
750,0.86,-0.5,-0.05,0.0,-2.2,-2.44,391,252,393,460,368
751,0.86,-0.51,-0.05,0.79,-2.56,-2.38,388,256,397,456,363
752,0.86,-0.51,-0.04,0.43,-1.77,-2.14,386,251,395,456,361
753,0.86,-0.51,-0.04,0.49,-2.75,-1.95,389,251,397,461,361
754,0.86,-0.51,-0.04,0.73,-2.5,-2.01,390,254,399,453,362
755,0.86,-0.51,-0.04,-0.18,-3.23,-2.75,392,257,394,466,361
756,0.86,-0.51,-0.04,1.46,-3.72,-2.93,389,250,397,461,361
757,0.86,-0.51,-0.05,0.31,-2.75,-2.87,390,256,396,461,359
758,0.86,-0.51,-0.05,-0.06,-2.32,-2.08,391,253,393,456,362
759,0.86,-0.51,-0.05,1.1,-2.56,-2.5,389,254,395,464,359
760,0.86,-0.51,-0.04,0.24,-2.26,-2.75,378,253,393,459,357
761,0.86,-0.51,-0.04,-0.12,-3.3,-2.75,391,251,401,460,359
762,0.86,-0.51,-0.04,0.61,-2.93,-2.69,388,253,395,460,361
763,0.86,-0.52,-0.04,-0.18,-2.38,-2.38,389,254,395,457,364
764,0.86,-0.51,-0.05,0.49,-3.42,-2.87,388,255,393,454,363
765,0.86,-0.51,-0.04,0.0,-3.11,-2.44,402,257,396,456,359
766,0.86,-0.51,-0.05,0.61,-3.17,-3.23,385,253,394,456,361
767,0.86,-0.51,-0.05,0.37,-2.75,-2.87,389,256,396,458,361
768,0.86,-0.51,-0.05,0.31,-2.01,-2.14,386,255,398,456,361
769,0.86,-0.52,-0.04,0.49,-2.26,-2.14,391,255,395,458,361
770,0.86,-0.5,-0.05,-0.12,-2.01,-2.75,390,256,396,460,363
771,0.86,-0.51,-0.04,0.73,-2.99,-2.38,390,254,395,461,363
772,0.86,-0.52,-0.04,1.22,-3.11,-3.78,387,250,396,459,363
773,0.86,-0.5,-0.04,-0.31,-3.11,-2.2,387,252,397,456,360
774,0.86,-0.5,-0.05,0.31,-2.99,-2.99,390,253,391,456,361
775,0.86,-0.51,-0.05,-0.55,-2.87,-2.75,388,251,395,451,362
776,0.87,-0.5,-0.06,-0.18,-1.95,-1.59,417,253,393,461,361
777,0.86,-0.51,-0.04,0.43,-1.95,-2.38,388,254,397,457,362
778,0.87,-0.5,-0.04,0.92,-2.75,-2.69,388,253,395,456,360
779,0.87,-0.5,-0.04,0.85,-2.87,-3.05,389,253,396,457,360
780,0.86,-0.51,-0.04,0.67,-3.6,-2.69,391,256,396,453,363
781,0.86,-0.5,-0.04,0.24,-3.42,-2.87,388,250,394,455,361
782,0.87,-0.49,-0.06,-0.24,-3.05,-2.44,388,252,395,456,361
783,0.86,-0.5,-0.05,0.92,-2.38,-1.46,385,254,398,460,361
784,0.86,-0.5,-0.05,-0.24,-1.53,-2.08,389,254,397,457,361
785,0.87,-0.5,-0.04,0.18,-2.62,-2.62,389,255,398,460,361
786,0.87,-0.5,-0.04,0.61,-2.5,-2.56,391,256,392,456,358
787,0.86,-0.51,-0.04,0.37,-2.26,-2.26,388,253,402,458,361
788,0.87,-0.5,-0.05,-0.55,-2.93,-2.99,389,256,394,453,361
789,0.87,-0.5,-0.04,0.31,-3.66,-2.75,387,254,392,456,362
790,0.87,-0.5,-0.06,0.55,-2.69,-1.89,387,257,394,452,361
791,0.87,-0.49,-0.05,1.28,-2.44,-1.4,389,254,395,452,364
792,0.87,-0.5,-0.04,1.1,-2.93,-2.69,391,255,396,456,360
793,0.86,-0.5,-0.04,0.49,-2.32,-2.01,392,255,398,454,363
794,0.87,-0.5,-0.05,-0.61,-1.83,-1.4,387,256,399,459,360
795,0.86,-0.51,-0.04,0.37,-2.99,-2.08,388,252,395,456,361
796,0.87,-0.5,-0.04,-0.73,-2.93,-2.87,390,254,396,460,363
797,0.87,-0.5,-0.04,0.06,-3.85,-2.75,382,266,394,457,361
798,0.87,-0.49,-0.05,0.61,-2.93,-2.2,388,254,397,456,359
799,0.87,-0.5,-0.04,0.85,-2.2,-2.69,382,254,391,460,361
800,0.86,-0.5,-0.06,1.22,-2.81,-2.75,381,255,394,461,362
801,0.87,-0.5,-0.05,-0.06,-2.44,-2.44,384,258,397,455,364
802,0.86,-0.5,-0.04,0.0,-2.38,-2.01,388,254,396,457,360
803,0.87,-0.5,-0.04,0.92,-3.66,-2.69,386,252,394,455,358
804,0.87,-0.49,-0.05,-0.06,-3.36,-2.69,415,257,394,457,362
805,0.87,-0.5,-0.05,0.12,-3.05,-2.75,413,255,394,457,360
806,0.87,-0.49,-0.05,0.37,-2.32,-2.08,393,255,396,459,363
807,0.87,-0.49,-0.05,0.98,-2.56,-2.75,388,257,396,458,358
808,0.87,-0.49,-0.05,1.34,-2.75,-2.69,385,256,396,463,363
809,0.87,-0.5,-0.04,-0.06,-2.87,-2.38,385,255,393,459,360
810,0.87,-0.49,-0.04,0.55,-2.93,-2.56,393,253,394,459,359
811,0.88,-0.5,-0.05,0.92,-3.66,-3.54,389,254,397,461,361
812,0.88,-0.49,-0.05,0.06,-3.97,-2.81,389,252,394,457,360
813,0.87,-0.5,-0.06,0.12,-3.17,-2.69,390,253,393,460,360
814,0.87,-0.49,-0.05,0.31,-2.44,-1.83,388,255,387,455,361
815,0.87,-0.5,-0.04,0.0,-2.81,-2.44,386,254,394,453,357
816,0.87,-0.49,-0.04,0.18,-2.56,-2.56,387,257,397,457,359
817,0.87,-0.5,-0.04,0.98,-2.99,-2.69,384,251,390,459,361
818,0.87,-0.49,-0.04,0.67,-2.93,-2.99,387,253,395,456,358
819,0.87,-0.48,-0.05,0.06,-3.17,-2.5,384,257,395,451,362
820,0.87,-0.5,-0.05,0.24,-3.05,-2.81,387,253,390,453,362
821,0.87,-0.49,-0.05,-0.24,-2.62,-2.14,386,254,396,456,363
822,0.85,-0.5,-0.04,0.73,-2.99,-2.2,386,256,396,452,360
823,0.87,-0.49,-0.04,-0.43,-2.2,-2.32,388,256,391,459,361
824,0.87,-0.48,-0.04,-0.06,-2.62,-2.26,385,253,390,460,361
825,0.87,-0.5,-0.04,0.49,-2.93,-2.69,375,253,394,457,360
826,0.86,-0.49,-0.05,0.18,-3.36,-2.99,388,260,392,458,361
827,0.88,-0.49,-0.05,0.49,-3.85,-3.36,403,254,394,457,362
828,0.88,-0.5,-0.06,0.85,-2.87,-2.81,389,252,389,455,360
829,0.87,-0.49,-0.05,-0.12,-2.44,-2.5,387,256,389,455,361
830,0.87,-0.5,-0.05,0.85,-2.44,-2.75,387,255,397,461,359
831,0.87,-0.5,-0.04,0.18,-2.5,-2.44,383,258,395,458,362
832,0.87,-0.49,-0.05,-0.24,-2.2,-2.01,388,255,394,462,363
833,0.86,-0.49,-0.04,0.92,-3.23,-2.26,384,255,393,457,361
834,0.87,-0.49,-0.05,0.79,-3.91,-2.56,386,252,394,457,362
835,0.87,-0.49,-0.05,-0.43,-2.93,-2.62,384,257,394,460,362
836,0.87,-0.49,-0.05,0.18,-2.26,-1.95,383,250,392,461,360
837,0.87,-0.49,-0.05,0.18,-2.44,-1.89,383,253,393,452,361
838,0.87,-0.49,-0.05,0.0,-1.83,-2.32,387,255,395,457,358
839,0.87,-0.49,-0.04,0.24,-2.87,-2.69,389,255,391,456,366
840,0.86,-0.5,-0.04,0.24,-2.69,-2.38,386,257,393,452,363
841,0.87,-0.5,-0.04,0.0,-3.42,-3.3,383,254,391,461,361
842,0.88,-0.5,-0.04,0.06,-3.91,-3.91,383,253,392,460,364
843,0.88,-0.49,-0.05,0.12,-3.66,-4.03,387,258,392,460,360
844,0.88,-0.5,-0.05,1.04,-2.62,-2.2,388,254,395,459,363
845,0.87,-0.49,-0.04,1.46,-2.75,-3.3,388,257,398,452,359
846,0.87,-0.49,-0.05,0.61,-2.08,-2.14,389,258,394,459,361
847,0.88,-0.5,-0.04,0.85,-2.87,-3.48,389,254,394,460,359
848,0.87,-0.51,-0.04,0.31,-3.23,-3.17,392,257,394,460,361
849,0.87,-0.49,-0.05,0.55,-3.3,-3.11,388,258,394,456,361
850,0.87,-0.5,-0.05,-0.55,-2.87,-2.62,389,258,392,456,361
851,0.87,-0.49,-0.05,-0.49,-2.44,-1.83,387,256,391,452,361
852,0.87,-0.49,-0.06,0.37,-2.38,-2.38,387,255,391,460,360
853,0.86,-0.49,-0.04,-0.06,-1.83,-1.83,387,252,392,455,359
854,0.87,-0.5,-0.05,0.24,-2.08,-1.65,390,255,394,459,360
855,0.86,-0.49,-0.04,0.92,-2.62,-1.22,388,257,393,460,357
856,0.86,-0.48,-0.05,0.37,-2.93,-1.65,389,258,389,459,363
857,0.87,-0.5,-0.05,-0.24,-3.17,-3.3,389,259,390,456,371
858,0.86,-0.48,-0.04,-0.24,-4.03,-2.99,388,257,388,464,361
859,0.87,-0.48,-0.05,1.1,-2.14,-2.87,387,255,391,469,359
860,0.89,-0.49,-0.04,4.76,-4.09,-3.72,387,256,392,455,355
861,0.88,-0.47,-0.03,1.1,-3.3,-4.03,385,258,391,455,363
862,0.87,-0.5,-0.06,1.04,-4.15,-6.84,387,252,391,449,360
863,0.88,-0.48,-0.06,2.01,-3.23,-2.81,391,258,390,450,364
864,0.88,-0.49,-0.05,1.46,-3.91,-3.36,389,255,391,451,363
865,0.88,-0.48,-0.06,-0.61,-2.93,-2.5,389,256,394,459,363
866,0.88,-0.48,-0.06,0.85,-3.36,-3.11,387,255,390,455,361
867,0.88,-0.47,-0.06,-0.31,-2.44,-2.69,383,257,391,454,354
868,0.87,-0.48,-0.06,0.37,-2.81,-2.5,386,255,394,456,361
869,0.87,-0.48,-0.06,-2.5,-1.77,-1.04,390,262,391,452,360
870,0.89,-0.47,-0.06,-2.69,-1.83,-1.65,385,255,391,456,364
871,0.87,-0.48,-0.06,-0.43,-2.99,-2.69,384,256,391,459,358
872,0.87,-0.48,-0.07,0.12,-3.36,-3.23,385,259,388,456,361
873,0.87,-0.48,-0.06,0.12,-3.11,-2.44,399,255,388,459,355
874,0.88,-0.48,-0.06,-2.38,-1.95,-2.44,387,252,391,455,352
875,0.88,-0.47,-0.07,1.1,-3.05,-2.75,394,255,394,457,351
876,0.86,-0.49,-0.06,0.31,-3.23,-3.78,387,254,391,456,351
877,0.87,-0.46,-0.07,2.81,-7.14,-8.48,388,253,394,471,352
878,0.88,-0.45,-0.05,-2.14,-2.32,-1.89,387,257,391,456,351
879,0.89,-0.45,-0.08,-1.04,-3.3,-0.98,387,256,394,455,348
880,0.9,-0.44,-0.08,2.32,0.55,3.85,389,254,388,456,354
881,0.87,-0.48,-0.03,-0.31,-0.73,-0.31,388,255,390,450,354
882,0.89,-0.47,-0.05,1.16,-1.83,-2.32,384,257,394,457,350
883,0.89,-0.46,-0.04,0.85,-2.62,-3.17,387,253,392,451,354
884,0.88,-0.47,-0.04,-1.16,-3.72,-1.71,388,257,395,456,350
885,0.89,-0.46,-0.06,0.24,-4.64,-3.66,390,257,387,455,339
886,0.86,-0.48,-0.04,1.16,-1.95,-0.49,383,253,393,459,348
887,0.89,-0.47,-0.06,0.12,-2.69,-2.56,383,258,387,455,353
888,0.88,-0.47,-0.05,0.18,-2.75,-2.2,387,259,393,451,350
889,0.87,-0.48,-0.06,-1.22,-2.38,-2.01,391,253,391,459,351
890,0.89,-0.47,-0.04,1.4,-3.66,-2.99,384,257,391,452,352
891,0.88,-0.47,-0.06,-1.16,-2.44,-2.08,385,257,387,450,354
892,0.88,-0.47,-0.05,1.28,-2.5,-1.53,385,256,388,458,348
893,0.89,-0.47,-0.05,-0.12,-3.3,-2.14,394,256,391,459,351
894,0.88,-0.47,-0.05,0.49,-3.72,-3.05,386,253,390,451,353
895,0.88,-0.47,-0.04,0.18,-2.87,-2.75,385,257,390,460,351
896,0.89,-0.46,-0.06,0.43,-2.62,-2.81,385,256,390,456,355
897,0.88,-0.47,-0.05,-0.31,-2.5,-2.44,384,254,391,455,355
898,0.88,-0.47,-0.06,0.79,-2.93,-3.3,384,255,392,460,354
899,0.88,-0.47,-0.05,0.37,-2.62,-2.62,385,257,393,456,346
900,0.88,-0.47,-0.05,0.31,-2.38,-2.32,385,257,391,455,355
901,0.86,-0.49,-0.07,-2.08,-2.87,-2.69,382,256,387,458,353
902,0.89,-0.47,-0.08,-3.05,-2.81,-1.22,385,255,392,459,350
903,0.87,-0.49,-0.05,1.04,-2.87,-3.3,387,256,389,454,354
904,0.88,-0.47,-0.04,-0.31,-4.09,-3.17,385,258,392,458,351
905,0.88,-0.48,-0.05,-0.73,-3.66,-2.87,379,254,389,460,352
906,0.89,-0.46,-0.05,0.37,-2.62,-3.3,383,256,392,452,355
907,0.89,-0.46,-0.05,-0.24,-1.77,-1.59,386,254,390,455,355
908,0.89,-0.46,-0.04,0.98,-2.81,-2.5,383,257,387,455,354
909,0.89,-0.46,-0.04,0.37,-2.62,-2.26,383,256,393,454,353
910,0.89,-0.46,-0.04,1.46,-3.54,-3.23,383,256,387,458,354
911,0.89,-0.46,-0.04,1.1,-4.03,-3.11,383,256,390,458,354
912,0.89,-0.46,-0.05,0.55,-2.56,-2.62,384,256,389,456,353
913,0.88,-0.47,-0.05,2.26,-2.81,-2.99,384,264,392,458,351
914,0.89,-0.46,-0.04,-0.24,-2.56,-2.26,384,256,390,456,356
915,0.87,-0.48,-0.06,-1.59,-3.05,-1.53,381,255,392,466,356
916,0.87,-0.48,-0.06,0.18,-2.69,-2.5,386,257,391,455,359
917,0.87,-0.49,-0.05,1.16,-2.93,-4.33,387,259,392,455,353
918,0.88,-0.46,-0.04,0.92,-2.81,-3.42,385,257,390,456,354
919,0.89,-0.45,-0.04,0.61,-3.6,-2.93,383,256,391,456,350
920,0.9,-0.46,-0.05,0.85,-3.78,-2.87,383,259,390,454,353
921,0.89,-0.45,-0.05,0.31,-2.38,-1.22,384,258,391,460,353
922,0.86,-0.48,-0.05,-0.67,-3.54,-3.97,382,257,389,459,353
923,0.89,-0.45,-0.05,0.43,-1.46,-0.43,380,256,393,456,356
924,0.89,-0.44,-0.06,0.0,-1.83,-3.54,379,257,390,458,354
925,0.92,-0.43,-0.05,2.01,-2.87,-2.44,381,256,387,456,355
926,0.91,-0.44,-0.03,0.31,-2.32,-0.73,382,259,392,458,355
927,0.89,-0.45,-0.05,-1.04,-3.05,-1.83,382,259,392,455,350
928,0.89,-0.45,-0.05,0.61,-3.3,-2.62,382,257,387,455,354
929,0.89,-0.45,-0.04,0.49,-2.32,-2.26,382,259,393,456,350
930,0.89,-0.46,-0.05,0.79,-2.69,-2.81,384,256,385,458,354
931,0.89,-0.46,-0.03,0.85,-2.01,-1.1,380,254,390,456,355
932,0.9,-0.46,-0.05,0.31,-2.14,-1.83,382,259,391,455,354
933,0.9,-0.45,-0.05,0.18,-4.03,-2.32,384,258,393,454,350
934,0.89,-0.46,-0.04,-2.2,-4.58,-3.05,382,260,391,458,355
935,0.87,-0.48,-0.06,-0.73,-4.94,-4.33,380,257,393,454,352
936,0.89,-0.46,-0.06,1.4,-2.26,-2.32,380,254,389,459,353
937,0.88,-0.47,-0.05,-0.31,-2.5,-2.75,395,257,387,459,355
938,0.89,-0.46,-0.05,0.18,-2.81,-2.5,384,258,390,449,354
939,0.88,-0.46,-0.05,1.28,-2.81,-2.69,381,260,392,456,352
940,0.88,-0.47,-0.03,-0.73,-2.44,-1.95,376,257,392,458,355
941,0.87,-0.47,-0.05,-0.49,-3.23,-0.79,379,258,392,454,348
942,0.89,-0.46,-0.04,0.85,-3.11,-2.56,382,259,385,453,355
943,0.88,-0.46,-0.04,-0.98,-2.81,-1.77,382,258,392,455,355
944,0.89,-0.47,-0.04,0.85,-3.05,-2.01,383,257,388,450,355
945,0.89,-0.46,-0.04,0.06,-3.05,-1.83,383,256,391,455,355
946,0.88,-0.47,-0.04,0.61,-2.87,-2.62,383,258,392,450,354
947,0.89,-0.47,-0.03,0.18,-3.05,-3.05,378,257,388,458,355
948,0.86,-0.47,-0.03,-1.71,-3.11,-2.69,384,259,389,452,356
949,0.89,-0.47,-0.05,-0.61,-2.81,-3.97,381,257,390,454,358
950,0.9,-0.43,-0.07,0.43,-5.49,-4.21,378,258,390,456,353
951,0.91,-0.43,-0.06,2.01,-3.72,-3.42,381,259,389,455,357
952,0.89,-0.45,-0.07,-1.83,-0.24,-0.31,381,256,389,454,356
953,0.91,-0.43,-0.04,1.28,-1.04,2.69,382,257,389,455,353
954,0.9,-0.45,-0.07,1.1,-3.17,-4.09,382,258,388,455,357
955,0.89,-0.46,-0.03,2.32,-3.91,-6.04,382,262,392,459,357
956,0.93,-0.41,-0.07,2.81,-3.42,-5.13,380,258,393,454,354
957,0.88,-0.46,-0.05,0.85,-3.11,-2.81,381,270,391,459,353
958,0.9,-0.44,-0.04,0.85,-2.87,-2.81,382,256,388,455,354
959,0.92,-0.43,-0.07,-0.31,-4.21,-5.13,382,258,389,453,356
960,0.93,-0.41,-0.07,1.1,-4.7,-4.46,383,259,389,454,354
961,0.91,-0.43,-0.05,0.73,-0.49,-0.61,384,256,387,458,351
962,0.88,-0.44,-0.03,5.62,-7.02,-2.5,384,261,385,458,352
963,0.98,-0.39,-0.1,-6.23,7.39,7.57,381,256,389,456,352
964,0.89,-0.44,-0.13,-1.71,-8.0,-0.37,384,257,388,452,345
965,0.88,-0.45,-0.08,-5.0,-6.1,-2.2,382,260,391,454,351
966,0.87,-0.44,-0.08,-2.32,-2.75,-4.76,379,257,389,456,352
967,0.92,-0.42,-0.09,1.65,-2.44,-8.3,379,257,389,454,355
968,0.93,-0.38,-0.09,5.0,-4.03,-3.11,384,258,389,454,356
969,0.91,-0.4,-0.04,6.65,-0.73,-1.53,381,260,390,458,355
970,0.9,-0.4,-0.09,0.37,-4.39,-5.74,382,256,390,454,352
971,0.9,-0.41,-0.05,-0.24,-2.81,-3.97,381,257,388,455,355
972,0.9,-0.41,-0.06,-1.46,-1.4,-1.59,381,255,386,454,355
973,0.92,-0.39,-0.07,0.06,-2.38,-2.56,379,256,387,453,356
974,0.92,-0.39,-0.06,1.89,-2.87,-2.32,381,259,387,453,355
975,0.92,-0.4,-0.07,0.79,-4.39,-3.23,383,256,388,454,355
976,0.91,-0.39,-0.06,1.1,-2.44,-2.26,380,257,391,448,357
977,0.92,-0.39,-0.07,0.79,-2.81,-3.3,381,257,386,457,356
978,0.92,-0.39,-0.06,1.4,-2.87,-1.59,381,257,383,455,354
979,0.92,-0.39,-0.07,0.85,-2.44,-2.14,384,259,387,454,355
980,0.96,-0.35,-0.08,10.93,-14.1,-16.11,394,260,387,453,356
981,0.87,-0.38,-0.1,-3.42,0.18,-4.7,381,254,385,452,354
982,0.93,-0.38,-0.08,1.28,-1.95,-2.69,383,259,387,456,358
983,0.91,-0.38,-0.07,1.16,-1.28,-0.73,380,260,387,451,354
984,0.92,-0.36,-0.08,0.31,-2.75,-2.56,382,257,384,455,356
985,0.93,-0.37,-0.08,0.49,-2.99,-1.95,381,257,389,451,357
986,0.93,-0.37,-0.08,-0.06,-3.05,-2.5,376,255,387,450,355
987,0.92,-0.37,-0.08,0.37,-3.36,-2.62,382,259,386,455,355
988,0.93,-0.36,-0.09,1.1,-3.05,-3.11,381,258,402,453,351
989,0.93,-0.36,-0.07,-0.06,-2.69,-2.44,385,258,389,453,354
990,0.93,-0.36,-0.08,-0.61,-2.87,-2.32,383,254,389,455,354
991,0.93,-0.36,-0.07,1.46,-3.11,-2.93,378,259,387,452,357
992,0.93,-0.36,-0.08,0.85,-3.42,-2.93,381,261,387,455,352
993,0.92,-0.37,-0.07,0.18,-2.26,-2.01,384,257,387,453,353
994,0.94,-0.35,-0.07,1.71,-3.23,-2.26,375,257,390,455,354
995,0.92,-0.36,-0.07,0.18,-3.6,-4.82,378,256,386,453,356
996,0.98,-0.32,-0.08,-3.6,0.61,-1.83,384,260,389,452,352
997,0.93,-0.37,-0.07,-0.73,-2.62,-2.56,379,257,387,449,355
998,0.94,-0.37,-0.08,2.14,-2.44,-7.93,380,260,387,451,352
999,0.94,-0.35,-0.07,0.79,-4.7,-7.2,379,258,384,455,354
1000,0.95,-0.33,-0.14,11.66,-22.77,-6.41,380,258,388,448,352
1001,0.95,-0.33,-0.12,1.71,-3.3,-2.62,385,254,389,453,355
1002,0.93,-0.31,-0.11,1.22,-2.5,-1.65,383,256,386,453,352
1003,0.94,-0.32,-0.11,1.4,-2.38,-3.05,385,257,384,458,354
1004,0.96,-0.34,-0.1,-1.16,-1.83,-3.05,384,256,386,454,352
1005,0.96,-0.34,-0.11,-1.4,-2.38,-2.2,383,259,388,456,355
1006,0.95,-0.33,-0.1,-3.17,-1.77,-0.49,383,252,390,449,357
1007,0.95,-0.39,-0.09,-7.81,-0.92,2.08,384,260,388,453,355
1008,0.9,-0.38,-0.11,0.92,-2.5,1.22,385,257,401,457,356
1009,0.91,-0.4,-0.11,2.26,-3.05,-4.64,385,257,386,454,352
1010,0.92,-0.38,-0.12,-0.55,-3.78,-1.71,385,260,387,458,354
1011,0.92,-0.39,-0.1,-0.18,-2.5,-2.81,375,260,388,455,355
1012,0.91,-0.4,-0.1,0.06,-2.93,-2.75,382,255,391,454,356
1013,0.92,-0.39,-0.1,0.06,-2.87,-1.71,384,258,389,454,356
1014,0.92,-0.39,-0.1,0.67,-2.14,-2.93,384,260,392,454,356
1015,0.92,-0.4,-0.09,0.73,-1.71,-2.69,384,258,388,455,355
1016,0.8,-0.56,-0.18,-5.68,5.31,-3.11,366,243,335,453,360
1017,0.83,-0.52,-0.19,5.31,-3.23,-4.64,402,223,432,435,354
1018,0.82,-0.54,-0.2,2.75,-4.58,-2.62,403,228,435,444,358
1019,0.83,-0.54,-0.22,-2.62,-2.62,-4.33,402,236,434,451,360
1020,0.81,-0.55,-0.19,-0.79,-2.75,-1.16,404,236,434,446,359
1021,0.84,-0.52,-0.19,-3.36,-3.97,4.21,405,253,434,442,360
1022,0.76,-0.61,-0.24,-6.84,-1.22,1.28,405,237,436,450,356
1023,0.78,-0.57,-0.22,-1.77,-2.75,-3.85,404,236,430,444,355
1024,0.78,-0.57,-0.23,-0.49,-1.59,-2.26,406,239,433,450,358
1025,0.78,-0.57,-0.25,3.17,-3.6,-7.75,408,240,432,451,359
1026,0.81,-0.55,-0.23,0.0,-3.17,-1.71,405,240,432,451,355
1027,0.8,-0.56,-0.22,0.37,-2.62,-2.08,406,240,432,446,358
1028,0.8,-0.56,-0.22,0.06,-3.42,-3.05,403,235,431,457,359
1029,0.79,-0.55,-0.23,1.4,-3.36,-2.2,405,241,432,455,357
1030,0.78,-0.56,-0.22,-1.77,-3.91,-2.14,406,239,431,450,357
1031,0.81,-0.58,-0.2,-0.24,-4.46,-0.98,402,243,429,451,356
1032,0.81,-0.54,-0.27,-2.32,-2.14,-4.46,405,237,425,452,357
1033,0.8,-0.55,-0.23,2.08,0.85,1.1,403,243,425,458,357
1034,0.81,-0.54,-0.21,3.42,-1.95,-3.11,401,240,429,453,354
1035,0.79,-0.56,-0.23,-2.01,-2.38,-0.79,403,243,428,449,357
1036,0.81,-0.55,-0.22,1.04,-2.44,-3.85,409,244,427,453,355
1037,0.82,-0.55,-0.21,1.83,-5.07,0.49,403,241,426,457,356
1038,0.77,-0.58,-0.24,0.43,-4.15,0.31,400,238,430,452,355
1039,0.78,-0.56,-0.23,-0.06,-2.93,-1.4,401,239,426,456,356
1040,0.79,-0.56,-0.22,4.76,-3.54,-3.72,402,242,425,451,357
1041,0.74,-0.62,-0.24,2.56,-5.19,-5.98,412,245,425,452,357
1042,0.81,-0.54,-0.23,2.38,-1.53,-3.05,401,241,427,450,362
1043,0.78,-0.57,-0.22,2.01,-3.6,-3.42,401,242,425,454,360
1044,0.81,-0.55,-0.23,-0.31,-4.21,-4.58,401,242,428,453,356
1045,0.8,-0.55,-0.23,0.37,-1.77,-2.32,401,238,427,453,357
1046,0.8,-0.56,-0.23,0.43,-2.62,-3.66,402,239,422,449,360
1047,0.8,-0.55,-0.23,1.04,-2.87,-1.95,401,245,427,454,358
1048,0.8,-0.55,-0.22,-0.43,-2.32,-2.14,390,247,419,456,362
1049,0.8,-0.56,-0.22,-0.49,-2.69,-2.38,401,241,424,455,353
1050,0.8,-0.55,-0.21,0.18,-2.26,-1.65,403,245,427,454,363
1051,0.8,-0.55,-0.21,-0.67,-2.81,-2.5,399,246,425,455,360
1052,0.8,-0.55,-0.22,-1.28,-2.62,-2.56,399,246,422,459,360
1053,0.8,-0.55,-0.23,1.22,-4.09,-3.23,398,244,424,456,360
1054,0.82,-0.54,-0.22,0.43,-2.81,-3.6,400,243,424,451,363
1055,0.82,-0.54,-0.23,0.79,-3.11,-2.75,400,246,432,454,360
1056,0.81,-0.54,-0.22,0.18,-2.62,-4.82,399,244,420,460,362
1057,0.81,-0.54,-0.23,0.73,-1.53,-1.77,400,244,420,456,361
1058,0.81,-0.54,-0.23,1.4,-2.99,-1.59,404,244,422,455,361
1059,0.79,-0.56,-0.23,-0.79,-2.75,-2.62,400,248,417,468,360
1060,0.8,-0.55,-0.22,-0.49,-2.26,-2.62,401,242,422,459,359
1061,0.8,-0.55,-0.21,0.73,-3.11,-2.87,402,246,419,455,361
1062,0.79,-0.57,-0.23,-1.28,-5.25,-2.44,397,245,419,450,360
1063,0.8,-0.54,-0.21,1.4,1.95,1.46,402,242,418,454,360
1064,0.8,-0.54,-0.18,2.2,-2.99,-1.16,400,247,419,460,350
1065,0.82,-0.52,-0.24,3.36,-3.42,-3.42,398,242,422,458,358
1066,0.78,-0.5,-0.21,0.49,-4.94,-3.11,398,246,417,457,361
1067,0.8,-0.55,-0.25,-0.43,-4.94,-5.43,394,248,417,460,362
1068,0.79,-0.55,-0.23,0.0,-4.7,-3.72,392,247,417,453,361
1069,0.8,-0.55,-0.24,3.05,-3.36,-2.01,389,243,419,460,362
1070,0.77,-0.57,-0.26,-2.08,-3.54,-0.06,390,245,418,459,359
1071,0.76,-0.59,-0.24,0.18,-1.59,-0.49,385,246,419,461,361
1072,0.78,-0.57,-0.24,1.22,-3.11,-2.32,391,248,415,457,360
1073,0.76,-0.58,-0.24,4.15,-2.81,-2.08,389,246,416,456,361
1074,0.79,-0.56,-0.26,-1.53,-5.68,-8.61,390,247,416,457,360
1075,0.79,-0.56,-0.25,3.42,-7.81,-8.06,389,246,416,461,362
1076,0.77,-0.58,-0.25,1.1,-3.78,-2.87,392,246,416,454,360
1077,0.77,-0.59,-0.24,-2.93,1.65,-0.31,391,244,417,457,360
1078,0.76,-0.59,-0.25,-0.73,-2.5,0.0,392,247,413,452,362
1079,0.75,-0.6,-0.23,-0.98,-2.44,-3.6,388,249,413,460,359
1080,0.76,-0.58,-0.23,-0.12,-1.59,-3.42,392,249,416,456,359
1081,0.76,-0.57,-0.2,-1.89,9.64,0.37,390,245,418,461,358
1082,0.81,-0.6,-0.07,-1.1,5.62,-7.26,396,248,418,453,354
1083,0.83,-0.55,-0.09,2.81,-6.41,-2.56,391,244,417,461,362
1084,0.83,-0.57,-0.08,6.23,-6.35,-0.06,381,248,418,457,361
1085,0.8,-0.59,-0.04,2.14,-4.46,-0.37,413,246,414,460,362
1086,0.78,-0.62,-0.06,-1.34,-3.3,-2.5,380,249,418,458,362
1087,0.81,-0.59,-0.07,0.0,-2.01,-3.72,382,246,415,458,361
1088,0.84,-0.59,-0.07,-0.67,-4.64,-5.07,378,246,414,457,363
1089,0.79,-0.6,-0.06,10.07,-20.02,-3.91,380,249,411,457,358
1090,0.85,-0.55,-0.09,2.56,-4.64,-5.31,380,248,412,452,357
1091,0.81,-0.59,-0.11,-0.18,-1.83,-5.31,376,251,416,457,362
1092,0.8,-0.59,-0.12,-0.73,-3.05,-3.42,373,250,412,462,363
1093,0.78,-0.6,-0.1,-2.01,0.37,-2.01,380,248,414,459,363
1094,0.81,-0.58,-0.06,-2.93,-1.16,2.44,377,250,408,456,362
1095,0.83,-0.57,-0.13,3.42,-5.86,-5.37,378,246,413,454,361
1096,0.81,-0.57,-0.1,5.0,-4.76,-8.97,375,250,411,454,363
1097,0.85,-0.56,-0.13,4.88,-4.39,-4.03,374,248,407,454,357
1098,0.8,-0.59,-0.08,4.94,-3.3,-0.67,376,247,411,459,362
1099,0.78,-0.6,-0.09,3.85,-5.19,-2.32,371,249,412,452,361
1100,0.79,-0.59,-0.07,-0.92,1.89,-2.26,376,246,409,458,361
1101,0.82,-0.57,-0.1,2.26,-2.62,-4.33,385,250,410,459,363
1102,0.82,-0.57,-0.09,1.46,-2.87,-4.03,389,248,411,456,361
1103,0.82,-0.57,-0.1,1.16,-2.81,-4.33,390,251,407,454,359
1104,0.82,-0.56,-0.08,1.16,-3.23,-3.91,392,247,410,453,365
1105,0.82,-0.58,-0.1,-1.95,-3.66,-1.53,392,246,408,459,357
1106,0.8,-0.59,-0.09,-1.34,-2.81,-1.22,392,248,407,457,360
1107,0.8,-0.58,-0.09,-0.61,-3.11,-3.23,389,250,409,450,362
1108,0.8,-0.58,-0.1,0.37,-2.99,-2.26,390,250,407,455,362
1109,0.8,-0.56,-0.08,-1.53,-3.3,-0.43,387,247,405,454,363
1110,0.81,-0.57,-0.07,-1.34,-0.98,-3.11,382,249,409,450,364
1111,0.82,-0.57,-0.08,1.28,-1.71,-2.81,386,249,406,454,362
1112,0.83,-0.56,-0.11,1.89,-3.78,-2.38,387,247,407,450,359
1113,0.82,-0.56,-0.09,0.67,-2.87,-2.38,389,249,408,457,358
1114,0.82,-0.57,-0.08,0.67,-3.42,-2.93,388,248,413,453,363
1115,0.83,-0.56,-0.08,0.43,-3.17,-3.85,390,249,402,449,355
1116,0.82,-0.56,-0.08,0.67,-3.05,-2.5,389,250,409,455,357
1117,0.82,-0.55,-0.08,2.01,-1.4,-2.44,390,251,406,455,357
1118,0.83,-0.56,-0.09,0.37,-2.38,-2.56,389,251,410,456,356
1119,0.82,-0.55,-0.07,0.0,-2.93,-1.22,390,252,409,454,357
1120,0.82,-0.57,-0.08,1.53,-2.26,-2.81,388,249,406,454,353
1121,0.8,-0.58,-0.08,-2.75,-3.36,-3.66,390,250,402,452,359
1122,0.82,-0.56,-0.07,-2.32,-2.14,-5.07,388,245,406,452,357
1123,0.83,-0.54,-0.07,-2.81,-2.56,-3.97,388,251,407,454,357
1124,0.84,-0.54,-0.11,1.4,-3.23,-2.81,388,250,406,459,357
1125,0.81,-0.56,-0.09,0.0,-3.3,-3.91,382,251,406,454,357
1126,0.87,-0.51,-0.1,0.79,-1.71,-2.56,383,247,407,459,355
1127,0.82,-0.55,-0.1,1.04,-5.62,-2.2,385,249,402,457,362
1128,0.87,-0.49,-0.1,0.18,-1.83,-5.86,395,248,406,455,358
1129,0.9,-0.46,-0.1,4.94,-2.56,-2.75,393,250,402,455,356
1130,0.9,-0.46,-0.13,0.18,-3.6,-0.79,395,252,409,458,358
1131,0.86,-0.52,-0.09,0.31,-2.99,0.31,396,249,407,457,360
1132,0.85,-0.52,-0.09,6.1,-1.22,-1.22,395,248,407,459,360
1133,0.86,-0.5,-0.1,3.78,-3.05,-3.91,393,252,404,456,358
1134,0.85,-0.52,-0.08,0.31,-3.78,-2.99,396,253,403,455,357
1135,0.85,-0.52,-0.09,1.04,-3.66,-2.44,388,260,404,458,353
1136,0.85,-0.51,-0.08,0.67,-3.3,-3.17,391,253,402,455,360
1137,0.86,-0.51,-0.08,-0.18,-3.23,-2.87,390,250,405,452,360
1138,0.86,-0.51,-0.09,1.77,-4.15,-3.36,381,253,406,450,360
1139,0.85,-0.51,-0.09,0.49,-3.72,-2.93,393,253,404,454,361
1140,0.86,-0.51,-0.1,0.18,-3.6,-3.97,393,264,405,454,357
1141,0.85,-0.51,-0.09,-0.24,-2.14,-2.26,393,251,405,454,361
1142,0.86,-0.52,-0.09,0.43,-3.05,-2.75,394,250,406,453,360
1143,0.86,-0.52,-0.08,0.67,-3.23,-2.81,390,251,403,455,359
1144,0.87,-0.51,-0.09,1.04,-3.05,-2.38,392,253,405,459,362
1145,0.85,-0.51,-0.08,0.92,-2.62,-2.32,394,249,403,459,359
1146,0.86,-0.51,-0.08,-0.49,-2.32,-2.2,393,253,401,459,360
1147,0.85,-0.52,-0.07,0.06,-3.48,-2.08,397,249,405,459,360
1148,0.85,-0.5,-0.08,1.22,-3.3,-2.99,392,253,404,466,361
1149,0.86,-0.51,-0.09,0.37,-2.81,-3.78,394,254,403,455,362
1150,0.86,-0.51,-0.09,-0.31,-2.2,-1.83,395,253,402,456,359
1151,0.85,-0.51,-0.09,1.16,-2.26,-2.56,395,250,405,454,360
1152,0.86,-0.5,-0.09,0.92,-2.75,-2.26,393,252,405,459,360
1153,0.86,-0.51,-0.08,0.43,-2.81,-2.62,392,253,404,455,364
1154,0.86,-0.51,-0.09,0.06,-3.11,-2.93,392,253,399,458,362
1155,0.85,-0.52,-0.07,0.79,-3.05,-2.32,390,253,404,455,358
1156,0.85,-0.51,-0.08,0.24,-3.48,-2.69,393,251,402,455,360
1157,0.86,-0.52,-0.08,0.73,-3.36,-2.87,394,254,405,452,367
1158,0.86,-0.5,-0.08,-0.43,-2.99,-2.44,395,252,404,453,359
1159,0.86,-0.5,-0.08,-0.06,-2.75,-2.5,396,248,402,471,361
1160,0.86,-0.5,-0.09,-0.49,-2.5,-2.01,394,255,401,454,361
1161,0.86,-0.51,-0.09,0.43,-2.08,-1.53,394,251,403,455,361
1162,0.87,-0.5,-0.09,0.49,-2.87,-2.44,395,253,402,455,360
1163,0.86,-0.51,-0.09,0.24,-2.62,-2.81,383,250,402,454,363
1164,0.86,-0.51,-0.08,0.18,-2.56,-2.93,392,253,401,463,361
1165,0.85,-0.5,-0.08,1.04,-2.62,-2.08,389,252,404,450,363
1166,0.86,-0.51,-0.07,1.04,-2.93,-3.72,394,249,401,456,361
1167,0.87,-0.51,-0.08,0.18,-2.99,-2.44,389,254,401,451,362
1168,0.85,-0.52,-0.08,0.06,-2.93,-2.62,393,254,400,449,363
1169,0.86,-0.51,-0.08,-0.24,-2.69,-2.81,392,252,401,456,362
1170,0.86,-0.5,-0.09,0.0,-2.99,-2.75,391,259,401,455,364
1171,0.86,-0.5,-0.09,-0.12,-2.93,-3.11,391,250,398,458,357
1172,0.86,-0.5,-0.09,0.06,-2.2,-2.26,391,259,404,454,360
1173,0.86,-0.5,-0.08,0.79,-3.05,-2.87,406,253,402,454,363
1174,0.86,-0.51,-0.07,0.24,-2.56,-2.5,392,254,398,449,362
1175,0.85,-0.51,-0.07,0.55,-2.93,-2.69,394,250,400,454,361
1176,0.86,-0.51,-0.08,0.85,-2.69,-2.38,391,249,400,455,360
1177,0.86,-0.51,-0.08,0.79,-2.99,-3.11,394,251,401,455,362
1178,0.86,-0.5,-0.07,-0.31,-1.83,-2.32,387,248,401,454,361
1179,0.87,-0.51,-0.08,-0.18,-2.99,-1.89,394,249,399,454,361
1180,0.86,-0.51,-0.08,0.37,-2.62,-2.38,393,251,399,450,363
1181,0.86,-0.51,-0.08,-0.24,-3.6,-2.81,394,254,396,450,361
1182,0.86,-0.5,-0.08,0.43,-3.66,-3.3,390,251,399,452,361
1183,0.86,-0.5,-0.08,-0.31,-2.08,-1.4,391,254,399,454,363
1184,0.86,-0.51,-0.09,1.46,-3.23,-2.2,391,252,400,457,361
1185,0.86,-0.5,-0.08,0.67,-2.08,-2.81,393,257,402,454,359
1186,0.86,-0.5,-0.08,0.73,-2.44,-2.14,392,255,402,450,359
1187,0.86,-0.51,-0.07,-0.31,-2.01,-1.71,394,252,399,455,362
1188,0.86,-0.51,-0.07,0.49,-3.85,-2.69,391,252,399,451,362
1189,0.86,-0.5,-0.08,0.31,-3.05,-3.23,391,256,399,449,362
1190,0.86,-0.5,-0.08,0.0,-2.99,-2.56,389,249,400,455,360
1191,0.86,-0.51,-0.08,0.49,-2.69,-2.44,393,249,400,458,363
1192,0.86,-0.51,-0.07,0.79,-2.87,-2.2,397,254,400,456,360
1193,0.86,-0.51,-0.07,0.55,-2.93,-2.56,392,251,399,454,361
1194,0.86,-0.51,-0.08,0.24,-2.5,-2.26,394,252,396,450,358
1195,0.85,-0.51,-0.07,-0.18,-2.93,-1.95,392,251,399,454,360
1196,0.86,-0.5,-0.07,0.67,-4.09,-3.48,387,255,399,454,359
1197,0.87,-0.5,-0.08,-0.06,-4.09,-4.03,395,254,398,454,361
1198,0.87,-0.5,-0.07,1.16,-0.61,3.3,392,256,399,459,361
1199,0.87,-0.49,-0.07,-0.61,-0.92,0.61,392,255,397,454,361
1200,0.86,-0.51,-0.07,2.5,-2.93,-0.79,389,250,401,458,364
1201,0.85,-0.52,-0.1,0.37,-4.15,-4.58,396,254,399,453,363
1202,0.86,-0.5,-0.1,3.36,-3.6,-5.25,385,253,397,453,360
1203,0.87,-0.5,-0.09,0.85,-2.26,-2.44,392,251,396,454,364
1204,0.86,-0.52,-0.07,0.79,-2.08,-2.5,396,254,401,453,357
1205,0.84,-0.52,-0.07,-0.92,-3.85,-3.17,393,255,398,449,362
1206,0.83,-0.53,-0.07,0.73,-2.93,-0.31,393,253,400,452,361
1207,0.85,-0.5,-0.07,-0.79,-1.28,-1.71,389,250,398,450,360
1208,0.86,-0.52,-0.07,-0.61,-1.22,-0.24,392,250,395,453,358
1209,0.86,-0.5,-0.07,-0.73,-2.44,-1.46,393,253,397,448,362
1210,0.86,-0.51,-0.07,0.43,-2.75,-2.32,391,252,397,454,362
1211,0.85,-0.51,-0.07,0.55,-3.17,-2.5,392,254,399,455,362
1212,0.87,-0.51,-0.08,-0.06,-2.99,-3.05,392,254,398,454,360
1213,0.87,-0.5,-0.07,0.31,-3.11,-2.99,394,252,401,451,358
1214,0.86,-0.5,-0.07,0.18,-2.81,-2.08,392,253,399,450,360
1215,0.86,-0.51,-0.07,0.79,-2.32,-2.56,388,251,400,453,359
1216,0.86,-0.5,-0.07,2.14,-2.81,-3.3,394,252,400,454,359
1217,0.86,-0.5,-0.07,0.92,-2.44,-2.75,393,252,398,454,357
1218,0.86,-0.5,-0.06,1.22,-3.23,-2.2,392,255,396,457,360
1219,0.86,-0.5,-0.07,0.49,-2.44,-2.62,392,253,395,452,360
1220,0.85,-0.5,-0.07,-0.43,-2.99,-2.5,384,254,397,451,358
1221,0.85,-0.5,-0.07,0.61,-4.09,-1.28,394,253,398,455,357
1222,0.87,-0.5,-0.07,-2.2,-2.99,-2.44,379,252,393,451,363
1223,0.86,-0.5,-0.08,0.24,-3.05,-2.2,392,252,395,460,363
1224,0.86,-0.5,-0.07,0.85,-2.87,-2.14,405,251,399,457,362
1225,0.86,-0.5,-0.07,-0.61,-2.32,-2.62,387,251,394,459,361
1226,0.88,-0.49,-0.09,1.34,0.67,-6.16,390,248,400,459,359
1227,0.87,-0.49,-0.06,1.77,-3.85,-1.46,388,251,401,456,362
1228,0.84,-0.51,-0.05,-0.12,-2.87,-2.56,389,256,397,452,359
1229,0.83,-0.53,-0.05,-0.79,-2.01,1.83,390,254,398,461,360
1230,0.88,-0.48,-0.06,1.22,-2.44,-5.98,390,253,398,456,363
1231,0.87,-0.49,-0.04,0.98,-2.56,-2.56,390,254,400,455,360
1232,0.86,-0.5,-0.04,0.12,-2.69,-1.28,390,254,396,459,361
1233,0.87,-0.5,-0.04,-0.12,-3.17,-1.71,390,252,399,457,361
1234,0.87,-0.49,-0.04,-1.89,-2.62,-0.92,387,255,400,454,361
1235,0.86,-0.5,-0.04,0.73,-3.97,-2.32,388,254,396,457,361
1236,0.87,-0.5,-0.05,0.79,-2.5,-2.14,388,251,397,456,362
1237,0.87,-0.51,-0.05,0.79,-2.56,-3.17,385,252,394,454,361
1238,0.86,-0.51,-0.05,1.71,-2.93,-2.44,388,254,394,456,358
1239,0.86,-0.52,-0.05,0.73,-2.87,-2.75,388,254,397,457,357
1240,0.86,-0.51,-0.05,2.01,-2.5,-2.14,389,252,399,460,365
1241,0.86,-0.51,-0.05,-0.06,-2.81,-2.01,390,253,400,463,361
1242,0.87,-0.5,-0.05,2.14,-3.17,-4.27,386,252,397,455,360
1243,0.86,-0.5,-0.04,1.34,-3.17,-3.05,391,248,397,454,364
1244,0.86,-0.51,-0.04,0.61,-2.75,-2.93,386,255,396,455,362
1245,0.86,-0.51,-0.03,0.79,-4.27,-2.81,387,249,398,452,362
1246,0.86,-0.5,-0.05,-0.12,-3.3,-2.01,401,251,398,454,365
1247,0.87,-0.5,-0.05,0.55,-4.15,-3.97,388,253,396,461,358
1248,0.86,-0.5,-0.05,1.65,-2.81,-2.38,388,253,393,456,364
1249,0.87,-0.51,-0.05,0.98,-2.93,-2.62,388,253,393,457,362
1250,0.85,-0.51,-0.05,0.73,-2.26,-2.99,391,254,397,452,361
1251,0.87,-0.5,-0.04,0.85,-2.08,-2.38,387,252,401,460,359
1252,0.86,-0.5,-0.04,-0.67,-1.77,-1.77,390,253,408,460,360
1253,0.86,-0.5,-0.04,0.67,-2.62,-2.08,389,252,394,461,361
1254,0.87,-0.5,-0.04,0.31,-2.32,-2.01,388,256,398,459,359
1255,0.86,-0.51,-0.04,-0.98,-3.17,-2.87,387,255,396,458,358
1256,0.87,-0.5,-0.05,0.49,-3.11,-2.2,384,256,393,457,359
1257,0.86,-0.51,-0.05,0.98,-2.99,-2.75,384,255,397,456,361
1258,0.86,-0.5,-0.05,0.0,-2.2,-2.44,391,252,393,460,368
1259,0.86,-0.51,-0.05,0.79,-2.56,-2.38,388,256,397,456,363
1260,0.86,-0.51,-0.04,0.43,-1.77,-2.14,386,251,395,456,361
1261,0.86,-0.51,-0.04,0.49,-2.75,-1.95,389,251,397,461,361
1262,0.86,-0.51,-0.04,0.73,-2.5,-2.01,390,254,399,453,362
1263,0.86,-0.51,-0.04,-0.18,-3.23,-2.75,392,257,394,466,361
1264,0.86,-0.51,-0.04,1.46,-3.72,-2.93,389,250,397,461,361
1265,0.86,-0.51,-0.05,0.31,-2.75,-2.87,390,256,396,461,359
1266,0.86,-0.51,-0.05,-0.06,-2.32,-2.08,391,253,393,456,362
1267,0.86,-0.51,-0.05,1.1,-2.56,-2.5,389,254,395,464,359
1268,0.86,-0.51,-0.04,0.24,-2.26,-2.75,378,253,393,459,357
1269,0.86,-0.51,-0.04,-0.12,-3.3,-2.75,391,251,401,460,359
1270,0.86,-0.51,-0.04,0.61,-2.93,-2.69,388,253,395,460,361
1271,0.86,-0.52,-0.04,-0.18,-2.38,-2.38,389,254,395,457,364
1272,0.86,-0.51,-0.05,0.49,-3.42,-2.87,388,255,393,454,363
1273,0.86,-0.51,-0.04,0.0,-3.11,-2.44,402,257,396,456,359
1274,0.86,-0.51,-0.05,0.61,-3.17,-3.23,385,253,394,456,361
1275,0.86,-0.51,-0.05,0.37,-2.75,-2.87,389,256,396,458,361
1276,0.86,-0.51,-0.05,0.31,-2.01,-2.14,386,255,398,456,361
1277,0.86,-0.52,-0.04,0.49,-2.26,-2.14,391,255,395,458,361
1278,0.86,-0.5,-0.05,-0.12,-2.01,-2.75,390,256,396,460,363
1279,0.86,-0.51,-0.04,0.73,-2.99,-2.38,390,254,395,461,363
1280,0.86,-0.52,-0.04,1.22,-3.11,-3.78,387,250,396,459,363
1281,0.86,-0.5,-0.04,-0.31,-3.11,-2.2,387,252,397,456,360
1282,0.86,-0.5,-0.05,0.31,-2.99,-2.99,390,253,391,456,361
1283,0.86,-0.51,-0.05,-0.55,-2.87,-2.75,388,251,395,451,362
1284,0.87,-0.5,-0.06,-0.18,-1.95,-1.59,417,253,393,461,361
1285,0.86,-0.51,-0.04,0.43,-1.95,-2.38,388,254,397,457,362
1286,0.87,-0.5,-0.04,0.92,-2.75,-2.69,388,253,395,456,360
1287,0.87,-0.5,-0.04,0.85,-2.87,-3.05,389,253,396,457,360
1288,0.86,-0.51,-0.04,0.67,-3.6,-2.69,391,256,396,453,363
1289,0.86,-0.5,-0.04,0.24,-3.42,-2.87,388,250,394,455,361
1290,0.87,-0.49,-0.06,-0.24,-3.05,-2.44,388,252,395,456,361
1291,0.86,-0.5,-0.05,0.92,-2.38,-1.46,385,254,398,460,361
1292,0.86,-0.5,-0.05,-0.24,-1.53,-2.08,389,254,397,457,361
1293,0.87,-0.5,-0.04,0.18,-2.62,-2.62,389,255,398,460,361
1294,0.87,-0.5,-0.04,0.61,-2.5,-2.56,391,256,392,456,358
1295,0.86,-0.51,-0.04,0.37,-2.26,-2.26,388,253,402,458,361
1296,0.87,-0.5,-0.05,-0.55,-2.93,-2.99,389,256,394,453,361
1297,0.87,-0.5,-0.04,0.31,-3.66,-2.75,387,254,392,456,362
1298,0.87,-0.5,-0.06,0.55,-2.69,-1.89,387,257,394,452,361
1299,0.87,-0.49,-0.05,1.28,-2.44,-1.4,389,254,395,452,364
1300,0.87,-0.5,-0.04,1.1,-2.93,-2.69,391,255,396,456,360
1301,0.86,-0.5,-0.04,0.49,-2.32,-2.01,392,255,398,454,363
1302,0.87,-0.5,-0.05,-0.61,-1.83,-1.4,387,256,399,459,360
1303,0.86,-0.51,-0.04,0.37,-2.99,-2.08,388,252,395,456,361
1304,0.87,-0.5,-0.04,-0.73,-2.93,-2.87,390,254,396,460,363
1305,0.87,-0.5,-0.04,0.06,-3.85,-2.75,382,266,394,457,361
1306,0.87,-0.49,-0.05,0.61,-2.93,-2.2,388,254,397,456,359
1307,0.87,-0.5,-0.04,0.85,-2.2,-2.69,382,254,391,460,361
1308,0.86,-0.5,-0.06,1.22,-2.81,-2.75,381,255,394,461,362
1309,0.87,-0.5,-0.05,-0.06,-2.44,-2.44,384,258,397,455,364
1310,0.86,-0.5,-0.04,0.0,-2.38,-2.01,388,254,396,457,360
1311,0.87,-0.5,-0.04,0.92,-3.66,-2.69,386,252,394,455,358
1312,0.87,-0.49,-0.05,-0.06,-3.36,-2.69,415,257,394,457,362
1313,0.87,-0.5,-0.05,0.12,-3.05,-2.75,413,255,394,457,360
1314,0.87,-0.49,-0.05,0.37,-2.32,-2.08,393,255,396,459,363
1315,0.87,-0.49,-0.05,0.98,-2.56,-2.75,388,257,396,458,358
1316,0.87,-0.49,-0.05,1.34,-2.75,-2.69,385,256,396,463,363
1317,0.87,-0.5,-0.04,-0.06,-2.87,-2.38,385,255,393,459,360
1318,0.87,-0.49,-0.04,0.55,-2.93,-2.56,393,253,394,459,359
1319,0.88,-0.5,-0.05,0.92,-3.66,-3.54,389,254,397,461,361
1320,0.88,-0.49,-0.05,0.06,-3.97,-2.81,389,252,394,457,360
1321,0.87,-0.5,-0.06,0.12,-3.17,-2.69,390,253,393,460,360
1322,0.87,-0.49,-0.05,0.31,-2.44,-1.83,388,255,387,455,361
1323,0.87,-0.5,-0.04,0.0,-2.81,-2.44,386,254,394,453,357
1324,0.87,-0.49,-0.04,0.18,-2.56,-2.56,387,257,397,457,359
1325,0.87,-0.5,-0.04,0.98,-2.99,-2.69,384,251,390,459,361
1326,0.87,-0.49,-0.04,0.67,-2.93,-2.99,387,253,395,456,358
1327,0.87,-0.48,-0.05,0.06,-3.17,-2.5,384,257,395,451,362
1328,0.87,-0.5,-0.05,0.24,-3.05,-2.81,387,253,390,453,362
1329,0.87,-0.49,-0.05,-0.24,-2.62,-2.14,386,254,396,456,363
1330,0.85,-0.5,-0.04,0.73,-2.99,-2.2,386,256,396,452,360
1331,0.87,-0.49,-0.04,-0.43,-2.2,-2.32,388,256,391,459,361
1332,0.87,-0.48,-0.04,-0.06,-2.62,-2.26,385,253,390,460,361
1333,0.87,-0.5,-0.04,0.49,-2.93,-2.69,375,253,394,457,360
1334,0.86,-0.49,-0.05,0.18,-3.36,-2.99,388,260,392,458,361
1335,0.88,-0.49,-0.05,0.49,-3.85,-3.36,403,254,394,457,362
1336,0.88,-0.5,-0.06,0.85,-2.87,-2.81,389,252,389,455,360
1337,0.87,-0.49,-0.05,-0.12,-2.44,-2.5,387,256,389,455,361
1338,0.87,-0.5,-0.05,0.85,-2.44,-2.75,387,255,397,461,359
1339,0.87,-0.5,-0.04,0.18,-2.5,-2.44,383,258,395,458,362
1340,0.87,-0.49,-0.05,-0.24,-2.2,-2.01,388,255,394,462,363
1341,0.86,-0.49,-0.04,0.92,-3.23,-2.26,384,255,393,457,361
1342,0.87,-0.49,-0.05,0.79,-3.91,-2.56,386,252,394,457,362
1343,0.87,-0.49,-0.05,-0.43,-2.93,-2.62,384,257,394,460,362
1344,0.87,-0.49,-0.05,0.18,-2.26,-1.95,383,250,392,461,360
1345,0.87,-0.49,-0.05,0.18,-2.44,-1.89,383,253,393,452,361
1346,0.87,-0.49,-0.05,0.0,-1.83,-2.32,387,255,395,457,358
1347,0.87,-0.49,-0.04,0.24,-2.87,-2.69,389,255,391,456,366
1348,0.86,-0.5,-0.04,0.24,-2.69,-2.38,386,257,393,452,363
1349,0.87,-0.5,-0.04,0.0,-3.42,-3.3,383,254,391,461,361
1350,0.88,-0.5,-0.04,0.06,-3.91,-3.91,383,253,392,460,364
1351,0.88,-0.49,-0.05,0.12,-3.66,-4.03,387,258,392,460,360
1352,0.88,-0.5,-0.05,1.04,-2.62,-2.2,388,254,395,459,363
1353,0.87,-0.49,-0.04,1.46,-2.75,-3.3,388,257,398,452,359
1354,0.87,-0.49,-0.05,0.61,-2.08,-2.14,389,258,394,459,361
1355,0.88,-0.5,-0.04,0.85,-2.87,-3.48,389,254,394,460,359
1356,0.87,-0.51,-0.04,0.31,-3.23,-3.17,392,257,394,460,361
1357,0.87,-0.49,-0.05,0.55,-3.3,-3.11,388,258,394,456,361
1358,0.87,-0.5,-0.05,-0.55,-2.87,-2.62,389,258,392,456,361
1359,0.87,-0.49,-0.05,-0.49,-2.44,-1.83,387,256,391,452,361
1360,0.87,-0.49,-0.06,0.37,-2.38,-2.38,387,255,391,460,360
1361,0.86,-0.49,-0.04,-0.06,-1.83,-1.83,387,252,392,455,359
1362,0.87,-0.5,-0.05,0.24,-2.08,-1.65,390,255,394,459,360
1363,0.86,-0.49,-0.04,0.92,-2.62,-1.22,388,257,393,460,357
1364,0.86,-0.48,-0.05,0.37,-2.93,-1.65,389,258,389,459,363
1365,0.87,-0.5,-0.05,-0.24,-3.17,-3.3,389,259,390,456,371
1366,0.86,-0.48,-0.04,-0.24,-4.03,-2.99,388,257,388,464,361
1367,0.87,-0.48,-0.05,1.1,-2.14,-2.87,387,255,391,469,359
1368,0.89,-0.49,-0.04,4.76,-4.09,-3.72,387,256,392,455,355
1369,0.88,-0.47,-0.03,1.1,-3.3,-4.03,385,258,391,455,363
1370,0.87,-0.5,-0.06,1.04,-4.15,-6.84,387,252,391,449,360
1371,0.88,-0.48,-0.06,2.01,-3.23,-2.81,391,258,390,450,364
1372,0.88,-0.49,-0.05,1.46,-3.91,-3.36,389,255,391,451,363
1373,0.88,-0.48,-0.06,-0.61,-2.93,-2.5,389,256,394,459,363
1374,0.88,-0.48,-0.06,0.85,-3.36,-3.11,387,255,390,455,361
1375,0.88,-0.47,-0.06,-0.31,-2.44,-2.69,383,257,391,454,354
1376,0.87,-0.48,-0.06,0.37,-2.81,-2.5,386,255,394,456,361
1377,0.87,-0.48,-0.06,-2.5,-1.77,-1.04,390,262,391,452,360
1378,0.89,-0.47,-0.06,-2.69,-1.83,-1.65,385,255,391,456,364
1379,0.87,-0.48,-0.06,-0.43,-2.99,-2.69,384,256,391,459,358
1380,0.87,-0.48,-0.07,0.12,-3.36,-3.23,385,259,388,456,361
1381,0.87,-0.48,-0.06,0.12,-3.11,-2.44,399,255,388,459,355
1382,0.88,-0.48,-0.06,-2.38,-1.95,-2.44,387,252,391,455,352
1383,0.88,-0.47,-0.07,1.1,-3.05,-2.75,394,255,394,457,351
1384,0.86,-0.49,-0.06,0.31,-3.23,-3.78,387,254,391,456,351
1385,0.87,-0.46,-0.07,2.81,-7.14,-8.48,388,253,394,471,352
1386,0.88,-0.45,-0.05,-2.14,-2.32,-1.89,387,257,391,456,351
1387,0.89,-0.45,-0.08,-1.04,-3.3,-0.98,387,256,394,455,348
1388,0.9,-0.44,-0.08,2.32,0.55,3.85,389,254,388,456,354
1389,0.87,-0.48,-0.03,-0.31,-0.73,-0.31,388,255,390,450,354
1390,0.89,-0.47,-0.05,1.16,-1.83,-2.32,384,257,394,457,350
1391,0.89,-0.46,-0.04,0.85,-2.62,-3.17,387,253,392,451,354
1392,0.88,-0.47,-0.04,-1.16,-3.72,-1.71,388,257,395,456,350
1393,0.89,-0.46,-0.06,0.24,-4.64,-3.66,390,257,387,455,339
1394,0.86,-0.48,-0.04,1.16,-1.95,-0.49,383,253,393,459,348
1395,0.89,-0.47,-0.06,0.12,-2.69,-2.56,383,258,387,455,353
1396,0.88,-0.47,-0.05,0.18,-2.75,-2.2,387,259,393,451,350
1397,0.87,-0.48,-0.06,-1.22,-2.38,-2.01,391,253,391,459,351
1398,0.89,-0.47,-0.04,1.4,-3.66,-2.99,384,257,391,452,352
1399,0.88,-0.47,-0.06,-1.16,-2.44,-2.08,385,257,387,450,354
1400,0.88,-0.47,-0.05,1.28,-2.5,-1.53,385,256,388,458,348
1401,0.89,-0.47,-0.05,-0.12,-3.3,-2.14,394,256,391,459,351
1402,0.88,-0.47,-0.05,0.49,-3.72,-3.05,386,253,390,451,353
1403,0.88,-0.47,-0.04,0.18,-2.87,-2.75,385,257,390,460,351
1404,0.89,-0.46,-0.06,0.43,-2.62,-2.81,385,256,390,456,355
1405,0.88,-0.47,-0.05,-0.31,-2.5,-2.44,384,254,391,455,355
1406,0.88,-0.47,-0.06,0.79,-2.93,-3.3,384,255,392,460,354
1407,0.88,-0.47,-0.05,0.37,-2.62,-2.62,385,257,393,456,346
1408,0.88,-0.47,-0.05,0.31,-2.38,-2.32,385,257,391,455,355
1409,0.86,-0.49,-0.07,-2.08,-2.87,-2.69,382,256,387,458,353
1410,0.89,-0.47,-0.08,-3.05,-2.81,-1.22,385,255,392,459,350
1411,0.87,-0.49,-0.05,1.04,-2.87,-3.3,387,256,389,454,354
1412,0.88,-0.47,-0.04,-0.31,-4.09,-3.17,385,258,392,458,351
1413,0.88,-0.48,-0.05,-0.73,-3.66,-2.87,379,254,389,460,352
1414,0.89,-0.46,-0.05,0.37,-2.62,-3.3,383,256,392,452,355
1415,0.89,-0.46,-0.05,-0.24,-1.77,-1.59,386,254,390,455,355
1416,0.89,-0.46,-0.04,0.98,-2.81,-2.5,383,257,387,455,354
1417,0.89,-0.46,-0.04,0.37,-2.62,-2.26,383,256,393,454,353
1418,0.89,-0.46,-0.04,1.46,-3.54,-3.23,383,256,387,458,354
1419,0.89,-0.46,-0.04,1.1,-4.03,-3.11,383,256,390,458,354
1420,0.89,-0.46,-0.05,0.55,-2.56,-2.62,384,256,389,456,353
1421,0.88,-0.47,-0.05,2.26,-2.81,-2.99,384,264,392,458,351
1422,0.89,-0.46,-0.04,-0.24,-2.56,-2.26,384,256,390,456,356
1423,0.87,-0.48,-0.06,-1.59,-3.05,-1.53,381,255,392,466,356
1424,0.87,-0.48,-0.06,0.18,-2.69,-2.5,386,257,391,455,359
1425,0.87,-0.49,-0.05,1.16,-2.93,-4.33,387,259,392,455,353
1426,0.88,-0.46,-0.04,0.92,-2.81,-3.42,385,257,390,456,354
1427,0.89,-0.45,-0.04,0.61,-3.6,-2.93,383,256,391,456,350
1428,0.9,-0.46,-0.05,0.85,-3.78,-2.87,383,259,390,454,353
1429,0.89,-0.45,-0.05,0.31,-2.38,-1.22,384,258,391,460,353
1430,0.86,-0.48,-0.05,-0.67,-3.54,-3.97,382,257,389,459,353
1431,0.89,-0.45,-0.05,0.43,-1.46,-0.43,380,256,393,456,356
1432,0.89,-0.44,-0.06,0.0,-1.83,-3.54,379,257,390,458,354
1433,0.92,-0.43,-0.05,2.01,-2.87,-2.44,381,256,387,456,355
1434,0.91,-0.44,-0.03,0.31,-2.32,-0.73,382,259,392,458,355
1435,0.89,-0.45,-0.05,-1.04,-3.05,-1.83,382,259,392,455,350
1436,0.89,-0.45,-0.05,0.61,-3.3,-2.62,382,257,387,455,354
1437,0.89,-0.45,-0.04,0.49,-2.32,-2.26,382,259,393,456,350
1438,0.89,-0.46,-0.05,0.79,-2.69,-2.81,384,256,385,458,354
1439,0.89,-0.46,-0.03,0.85,-2.01,-1.1,380,254,390,456,355
1440,0.9,-0.46,-0.05,0.31,-2.14,-1.83,382,259,391,455,354
1441,0.9,-0.45,-0.05,0.18,-4.03,-2.32,384,258,393,454,350
1442,0.89,-0.46,-0.04,-2.2,-4.58,-3.05,382,260,391,458,355
1443,0.87,-0.48,-0.06,-0.73,-4.94,-4.33,380,257,393,454,352
1444,0.89,-0.46,-0.06,1.4,-2.26,-2.32,380,254,389,459,353
1445,0.88,-0.47,-0.05,-0.31,-2.5,-2.75,395,257,387,459,355
1446,0.89,-0.46,-0.05,0.18,-2.81,-2.5,384,258,390,449,354
1447,0.88,-0.46,-0.05,1.28,-2.81,-2.69,381,260,392,456,352
1448,0.88,-0.47,-0.03,-0.73,-2.44,-1.95,376,257,392,458,355
1449,0.87,-0.47,-0.05,-0.49,-3.23,-0.79,379,258,392,454,348
1450,0.89,-0.46,-0.04,0.85,-3.11,-2.56,382,259,385,453,355
1451,0.88,-0.46,-0.04,-0.98,-2.81,-1.77,382,258,392,455,355
1452,0.89,-0.47,-0.04,0.85,-3.05,-2.01,383,257,388,450,355
1453,0.89,-0.46,-0.04,0.06,-3.05,-1.83,383,256,391,455,355
1454,0.88,-0.47,-0.04,0.61,-2.87,-2.62,383,258,392,450,354
1455,0.89,-0.47,-0.03,0.18,-3.05,-3.05,378,257,388,458,355
1456,0.86,-0.47,-0.03,-1.71,-3.11,-2.69,384,259,389,452,356
1457,0.89,-0.47,-0.05,-0.61,-2.81,-3.97,381,257,390,454,358
1458,0.9,-0.43,-0.07,0.43,-5.49,-4.21,378,258,390,456,353
1459,0.91,-0.43,-0.06,2.01,-3.72,-3.42,381,259,389,455,357
1460,0.89,-0.45,-0.07,-1.83,-0.24,-0.31,381,256,389,454,356
1461,0.91,-0.43,-0.04,1.28,-1.04,2.69,382,257,389,455,353
1462,0.9,-0.45,-0.07,1.1,-3.17,-4.09,382,258,388,455,357
1463,0.89,-0.46,-0.03,2.32,-3.91,-6.04,382,262,392,459,357
1464,0.93,-0.41,-0.07,2.81,-3.42,-5.13,380,258,393,454,354
1465,0.88,-0.46,-0.05,0.85,-3.11,-2.81,381,270,391,459,353
1466,0.9,-0.44,-0.04,0.85,-2.87,-2.81,382,256,388,455,354
1467,0.92,-0.43,-0.07,-0.31,-4.21,-5.13,382,258,389,453,356
1468,0.93,-0.41,-0.07,1.1,-4.7,-4.46,383,259,389,454,354
1469,0.91,-0.43,-0.05,0.73,-0.49,-0.61,384,256,387,458,351
1470,0.88,-0.44,-0.03,5.62,-7.02,-2.5,384,261,385,458,352
1471,0.98,-0.39,-0.1,-6.23,7.39,7.57,381,256,389,456,352
1472,0.89,-0.44,-0.13,-1.71,-8.0,-0.37,384,257,388,452,345
1473,0.88,-0.45,-0.08,-5.0,-6.1,-2.2,382,260,391,454,351
1474,0.87,-0.44,-0.08,-2.32,-2.75,-4.76,379,257,389,456,352
1475,0.92,-0.42,-0.09,1.65,-2.44,-8.3,379,257,389,454,355
1476,0.93,-0.38,-0.09,5.0,-4.03,-3.11,384,258,389,454,356
1477,0.91,-0.4,-0.04,6.65,-0.73,-1.53,381,260,390,458,355
1478,0.9,-0.4,-0.09,0.37,-4.39,-5.74,382,256,390,454,352
1479,0.9,-0.41,-0.05,-0.24,-2.81,-3.97,381,257,388,455,355
1480,0.9,-0.41,-0.06,-1.46,-1.4,-1.59,381,255,386,454,355
1481,0.92,-0.39,-0.07,0.06,-2.38,-2.56,379,256,387,453,356
1482,0.92,-0.39,-0.06,1.89,-2.87,-2.32,381,259,387,453,355
1483,0.92,-0.4,-0.07,0.79,-4.39,-3.23,383,256,388,454,355
1484,0.91,-0.39,-0.06,1.1,-2.44,-2.26,380,257,391,448,357
1485,0.92,-0.39,-0.07,0.79,-2.81,-3.3,381,257,386,457,356
1486,0.92,-0.39,-0.06,1.4,-2.87,-1.59,381,257,383,455,354
1487,0.92,-0.39,-0.07,0.85,-2.44,-2.14,384,259,387,454,355
1488,0.96,-0.35,-0.08,10.93,-14.1,-16.11,394,260,387,453,356
1489,0.87,-0.38,-0.1,-3.42,0.18,-4.7,381,254,385,452,354
1490,0.93,-0.38,-0.08,1.28,-1.95,-2.69,383,259,387,456,358
1491,0.91,-0.38,-0.07,1.16,-1.28,-0.73,380,260,387,451,354
1492,0.92,-0.36,-0.08,0.31,-2.75,-2.56,382,257,384,455,356
1493,0.93,-0.37,-0.08,0.49,-2.99,-1.95,381,257,389,451,357
1494,0.93,-0.37,-0.08,-0.06,-3.05,-2.5,376,255,387,450,355
1495,0.92,-0.37,-0.08,0.37,-3.36,-2.62,382,259,386,455,355
1496,0.93,-0.36,-0.09,1.1,-3.05,-3.11,381,258,402,453,351
1497,0.93,-0.36,-0.07,-0.06,-2.69,-2.44,385,258,389,453,354
1498,0.93,-0.36,-0.08,-0.61,-2.87,-2.32,383,254,389,455,354
1499,0.93,-0.36,-0.07,1.46,-3.11,-2.93,378,259,387,452,357
1500,0.93,-0.36,-0.08,0.85,-3.42,-2.93,381,261,387,455,352
1501,0.92,-0.37,-0.07,0.18,-2.26,-2.01,384,257,387,453,353
1502,0.94,-0.35,-0.07,1.71,-3.23,-2.26,375,257,390,455,354
1503,0.92,-0.36,-0.07,0.18,-3.6,-4.82,378,256,386,453,356
1504,0.98,-0.32,-0.08,-3.6,0.61,-1.83,384,260,389,452,352
1505,0.93,-0.37,-0.07,-0.73,-2.62,-2.56,379,257,387,449,355
1506,0.94,-0.37,-0.08,2.14,-2.44,-7.93,380,260,387,451,352
1507,0.94,-0.35,-0.07,0.79,-4.7,-7.2,379,258,384,455,354
1508,0.95,-0.33,-0.14,11.66,-22.77,-6.41,380,258,388,448,352
1509,0.95,-0.33,-0.12,1.71,-3.3,-2.62,385,254,389,453,355
1510,0.93,-0.31,-0.11,1.22,-2.5,-1.65,383,256,386,453,352
1511,0.94,-0.32,-0.11,1.4,-2.38,-3.05,385,257,384,458,354
1512,0.96,-0.34,-0.1,-1.16,-1.83,-3.05,384,256,386,454,352
1513,0.96,-0.34,-0.11,-1.4,-2.38,-2.2,383,259,388,456,355
1514,0.95,-0.33,-0.1,-3.17,-1.77,-0.49,383,252,390,449,357
1515,0.95,-0.39,-0.09,-7.81,-0.92,2.08,384,260,388,453,355
1516,0.9,-0.38,-0.11,0.92,-2.5,1.22,385,257,401,457,356
1517,0.91,-0.4,-0.11,2.26,-3.05,-4.64,385,257,386,454,352
1518,0.92,-0.38,-0.12,-0.55,-3.78,-1.71,385,260,387,458,354
1519,0.92,-0.39,-0.1,-0.18,-2.5,-2.81,375,260,388,455,355
1520,0.91,-0.4,-0.1,0.06,-2.93,-2.75,382,255,391,454,356
1521,0.92,-0.39,-0.1,0.06,-2.87,-1.71,384,258,389,454,356
1522,0.92,-0.39,-0.1,0.67,-2.14,-2.93,384,260,392,454,356
1523,0.92,-0.4,-0.09,0.73,-1.71,-2.69,384,258,388,455,355
1524,0.8,-0.56,-0.18,-5.68,5.31,-3.11,366,243,335,453,360
1525,0.83,-0.52,-0.19,5.31,-3.23,-4.64,402,223,432,435,354
1526,0.82,-0.54,-0.2,2.75,-4.58,-2.62,403,228,435,444,358
1527,0.83,-0.54,-0.22,-2.62,-2.62,-4.33,402,236,434,451,360
1528,0.81,-0.55,-0.19,-0.79,-2.75,-1.16,404,236,434,446,359
1529,0.84,-0.52,-0.19,-3.36,-3.97,4.21,405,253,434,442,360
1530,0.76,-0.61,-0.24,-6.84,-1.22,1.28,405,237,436,450,356
1531,0.78,-0.57,-0.22,-1.77,-2.75,-3.85,404,236,430,444,355
1532,0.78,-0.57,-0.23,-0.49,-1.59,-2.26,406,239,433,450,358
1533,0.78,-0.57,-0.25,3.17,-3.6,-7.75,408,240,432,451,359
1534,0.81,-0.55,-0.23,0.0,-3.17,-1.71,405,240,432,451,355
1535,0.8,-0.56,-0.22,0.37,-2.62,-2.08,406,240,432,446,358
1536,0.8,-0.56,-0.22,0.06,-3.42,-3.05,403,235,431,457,359
1537,0.79,-0.55,-0.23,1.4,-3.36,-2.2,405,241,432,455,357
1538,0.78,-0.56,-0.22,-1.77,-3.91,-2.14,406,239,431,450,357
1539,0.81,-0.58,-0.2,-0.24,-4.46,-0.98,402,243,429,451,356
1540,0.81,-0.54,-0.27,-2.32,-2.14,-4.46,405,237,425,452,357
1541,0.8,-0.55,-0.23,2.08,0.85,1.1,403,243,425,458,357
1542,0.81,-0.54,-0.21,3.42,-1.95,-3.11,401,240,429,453,354
1543,0.79,-0.56,-0.23,-2.01,-2.38,-0.79,403,243,428,449,357
1544,0.81,-0.55,-0.22,1.04,-2.44,-3.85,409,244,427,453,355
1545,0.82,-0.55,-0.21,1.83,-5.07,0.49,403,241,426,457,356
1546,0.77,-0.58,-0.24,0.43,-4.15,0.31,400,238,430,452,355
1547,0.78,-0.56,-0.23,-0.06,-2.93,-1.4,401,239,426,456,356
1548,0.79,-0.56,-0.22,4.76,-3.54,-3.72,402,242,425,451,357
1549,0.74,-0.62,-0.24,2.56,-5.19,-5.98,412,245,425,452,357
1550,0.81,-0.54,-0.23,2.38,-1.53,-3.05,401,241,427,450,362
1551,0.78,-0.57,-0.22,2.01,-3.6,-3.42,401,242,425,454,360
1552,0.81,-0.55,-0.23,-0.31,-4.21,-4.58,401,242,428,453,356
1553,0.8,-0.55,-0.23,0.37,-1.77,-2.32,401,238,427,453,357
1554,0.8,-0.56,-0.23,0.43,-2.62,-3.66,402,239,422,449,360
1555,0.8,-0.55,-0.23,1.04,-2.87,-1.95,401,245,427,454,358
1556,0.8,-0.55,-0.22,-0.43,-2.32,-2.14,390,247,419,456,362
1557,0.8,-0.56,-0.22,-0.49,-2.69,-2.38,401,241,424,455,353
1558,0.8,-0.55,-0.21,0.18,-2.26,-1.65,403,245,427,454,363
1559,0.8,-0.55,-0.21,-0.67,-2.81,-2.5,399,246,425,455,360
1560,0.8,-0.55,-0.22,-1.28,-2.62,-2.56,399,246,422,459,360
1561,0.8,-0.55,-0.23,1.22,-4.09,-3.23,398,244,424,456,360
1562,0.82,-0.54,-0.22,0.43,-2.81,-3.6,400,243,424,451,363
1563,0.82,-0.54,-0.23,0.79,-3.11,-2.75,400,246,432,454,360
1564,0.81,-0.54,-0.22,0.18,-2.62,-4.82,399,244,420,460,362
1565,0.81,-0.54,-0.23,0.73,-1.53,-1.77,400,244,420,456,361
1566,0.81,-0.54,-0.23,1.4,-2.99,-1.59,404,244,422,455,361
1567,0.79,-0.56,-0.23,-0.79,-2.75,-2.62,400,248,417,468,360
1568,0.8,-0.55,-0.22,-0.49,-2.26,-2.62,401,242,422,459,359
1569,0.8,-0.55,-0.21,0.73,-3.11,-2.87,402,246,419,455,361
1570,0.79,-0.57,-0.23,-1.28,-5.25,-2.44,397,245,419,450,360
1571,0.8,-0.54,-0.21,1.4,1.95,1.46,402,242,418,454,360
1572,0.8,-0.54,-0.18,2.2,-2.99,-1.16,400,247,419,460,350
1573,0.82,-0.52,-0.24,3.36,-3.42,-3.42,398,242,422,458,358
1574,0.78,-0.5,-0.21,0.49,-4.94,-3.11,398,246,417,457,361
1575,0.8,-0.55,-0.25,-0.43,-4.94,-5.43,394,248,417,460,362
1576,0.79,-0.55,-0.23,0.0,-4.7,-3.72,392,247,417,453,361
1577,0.8,-0.55,-0.24,3.05,-3.36,-2.01,389,243,419,460,362
1578,0.77,-0.57,-0.26,-2.08,-3.54,-0.06,390,245,418,459,359
1579,0.76,-0.59,-0.24,0.18,-1.59,-0.49,385,246,419,461,361
1580,0.78,-0.57,-0.24,1.22,-3.11,-2.32,391,248,415,457,360
1581,0.76,-0.58,-0.24,4.15,-2.81,-2.08,389,246,416,456,361
1582,0.79,-0.56,-0.26,-1.53,-5.68,-8.61,390,247,416,457,360
1583,0.79,-0.56,-0.25,3.42,-7.81,-8.06,389,246,416,461,362
1584,0.77,-0.58,-0.25,1.1,-3.78,-2.87,392,246,416,454,360
1585,0.77,-0.59,-0.24,-2.93,1.65,-0.31,391,244,417,457,360
1586,0.76,-0.59,-0.25,-0.73,-2.5,0.0,392,247,413,452,362
1587,0.75,-0.6,-0.23,-0.98,-2.44,-3.6,388,249,413,460,359
1588,0.76,-0.58,-0.23,-0.12,-1.59,-3.42,392,249,416,456,359
1589,0.76,-0.57,-0.2,-1.89,9.64,0.37,390,245,418,461,358
1590,0.81,-0.6,-0.07,-1.1,5.62,-7.26,396,248,418,453,354
1591,0.83,-0.55,-0.09,2.81,-6.41,-2.56,391,244,417,461,362
1592,0.83,-0.57,-0.08,6.23,-6.35,-0.06,381,248,418,457,361
1593,0.8,-0.59,-0.04,2.14,-4.46,-0.37,413,246,414,460,362
1594,0.78,-0.62,-0.06,-1.34,-3.3,-2.5,380,249,418,458,362
1595,0.81,-0.59,-0.07,0.0,-2.01,-3.72,382,246,415,458,361
1596,0.84,-0.59,-0.07,-0.67,-4.64,-5.07,378,246,414,457,363
1597,0.79,-0.6,-0.06,10.07,-20.02,-3.91,380,249,411,457,358
1598,0.85,-0.55,-0.09,2.56,-4.64,-5.31,380,248,412,452,357
1599,0.81,-0.59,-0.11,-0.18,-1.83,-5.31,376,251,416,457,362
1600,0.8,-0.59,-0.12,-0.73,-3.05,-3.42,373,250,412,462,363
1601,0.78,-0.6,-0.1,-2.01,0.37,-2.01,380,248,414,459,363
1602,0.81,-0.58,-0.06,-2.93,-1.16,2.44,377,250,408,456,362
1603,0.83,-0.57,-0.13,3.42,-5.86,-5.37,378,246,413,454,361
1604,0.81,-0.57,-0.1,5.0,-4.76,-8.97,375,250,411,454,363
1605,0.85,-0.56,-0.13,4.88,-4.39,-4.03,374,248,407,454,357
1606,0.8,-0.59,-0.08,4.94,-3.3,-0.67,376,247,411,459,362
1607,0.78,-0.6,-0.09,3.85,-5.19,-2.32,371,249,412,452,361
1608,0.79,-0.59,-0.07,-0.92,1.89,-2.26,376,246,409,458,361
1609,0.82,-0.57,-0.1,2.26,-2.62,-4.33,385,250,410,459,363
1610,0.82,-0.57,-0.09,1.46,-2.87,-4.03,389,248,411,456,361
1611,0.82,-0.57,-0.1,1.16,-2.81,-4.33,390,251,407,454,359
1612,0.82,-0.56,-0.08,1.16,-3.23,-3.91,392,247,410,453,365
1613,0.82,-0.58,-0.1,-1.95,-3.66,-1.53,392,246,408,459,357
1614,0.8,-0.59,-0.09,-1.34,-2.81,-1.22,392,248,407,457,360
1615,0.8,-0.58,-0.09,-0.61,-3.11,-3.23,389,250,409,450,362
1616,0.8,-0.58,-0.1,0.37,-2.99,-2.26,390,250,407,455,362
1617,0.8,-0.56,-0.08,-1.53,-3.3,-0.43,387,247,405,454,363
1618,0.81,-0.57,-0.07,-1.34,-0.98,-3.11,382,249,409,450,364
1619,0.82,-0.57,-0.08,1.28,-1.71,-2.81,386,249,406,454,362
1620,0.83,-0.56,-0.11,1.89,-3.78,-2.38,387,247,407,450,359
1621,0.82,-0.56,-0.09,0.67,-2.87,-2.38,389,249,408,457,358
1622,0.82,-0.57,-0.08,0.67,-3.42,-2.93,388,248,413,453,363
1623,0.83,-0.56,-0.08,0.43,-3.17,-3.85,390,249,402,449,355
1624,0.82,-0.56,-0.08,0.67,-3.05,-2.5,389,250,409,455,357
1625,0.82,-0.55,-0.08,2.01,-1.4,-2.44,390,251,406,455,357
1626,0.83,-0.56,-0.09,0.37,-2.38,-2.56,389,251,410,456,356
1627,0.82,-0.55,-0.07,0.0,-2.93,-1.22,390,252,409,454,357
1628,0.82,-0.57,-0.08,1.53,-2.26,-2.81,388,249,406,454,353
1629,0.8,-0.58,-0.08,-2.75,-3.36,-3.66,390,250,402,452,359
1630,0.82,-0.56,-0.07,-2.32,-2.14,-5.07,388,245,406,452,357
1631,0.83,-0.54,-0.07,-2.81,-2.56,-3.97,388,251,407,454,357
1632,0.84,-0.54,-0.11,1.4,-3.23,-2.81,388,250,406,459,357
1633,0.81,-0.56,-0.09,0.0,-3.3,-3.91,382,251,406,454,357
1634,0.87,-0.51,-0.1,0.79,-1.71,-2.56,383,247,407,459,355
1635,0.82,-0.55,-0.1,1.04,-5.62,-2.2,385,249,402,457,362
1636,0.87,-0.49,-0.1,0.18,-1.83,-5.86,395,248,406,455,358
1637,0.9,-0.46,-0.1,4.94,-2.56,-2.75,393,250,402,455,356
1638,0.9,-0.46,-0.13,0.18,-3.6,-0.79,395,252,409,458,358
1639,0.86,-0.52,-0.09,0.31,-2.99,0.31,396,249,407,457,360
1640,0.85,-0.52,-0.09,6.1,-1.22,-1.22,395,248,407,459,360
1641,0.86,-0.5,-0.1,3.78,-3.05,-3.91,393,252,404,456,358
1642,0.85,-0.52,-0.08,0.31,-3.78,-2.99,396,253,403,455,357
1643,0.85,-0.52,-0.09,1.04,-3.66,-2.44,388,260,404,458,353
1644,0.85,-0.51,-0.08,0.67,-3.3,-3.17,391,253,402,455,360
1645,0.86,-0.51,-0.08,-0.18,-3.23,-2.87,390,250,405,452,360
1646,0.86,-0.51,-0.09,1.77,-4.15,-3.36,381,253,406,450,360
1647,0.85,-0.51,-0.09,0.49,-3.72,-2.93,393,253,404,454,361
1648,0.86,-0.51,-0.1,0.18,-3.6,-3.97,393,264,405,454,357
1649,0.85,-0.51,-0.09,-0.24,-2.14,-2.26,393,251,405,454,361
1650,0.86,-0.52,-0.09,0.43,-3.05,-2.75,394,250,406,453,360
1651,0.86,-0.52,-0.08,0.67,-3.23,-2.81,390,251,403,455,359
1652,0.87,-0.51,-0.09,1.04,-3.05,-2.38,392,253,405,459,362
1653,0.85,-0.51,-0.08,0.92,-2.62,-2.32,394,249,403,459,359
1654,0.86,-0.51,-0.08,-0.49,-2.32,-2.2,393,253,401,459,360
1655,0.85,-0.52,-0.07,0.06,-3.48,-2.08,397,249,405,459,360
1656,0.85,-0.5,-0.08,1.22,-3.3,-2.99,392,253,404,466,361
1657,0.86,-0.51,-0.09,0.37,-2.81,-3.78,394,254,403,455,362
1658,0.86,-0.51,-0.09,-0.31,-2.2,-1.83,395,253,402,456,359
1659,0.85,-0.51,-0.09,1.16,-2.26,-2.56,395,250,405,454,360
1660,0.86,-0.5,-0.09,0.92,-2.75,-2.26,393,252,405,459,360
1661,0.86,-0.51,-0.08,0.43,-2.81,-2.62,392,253,404,455,364
1662,0.86,-0.51,-0.09,0.06,-3.11,-2.93,392,253,399,458,362
1663,0.85,-0.52,-0.07,0.79,-3.05,-2.32,390,253,404,455,358
1664,0.85,-0.51,-0.08,0.24,-3.48,-2.69,393,251,402,455,360
1665,0.86,-0.52,-0.08,0.73,-3.36,-2.87,394,254,405,452,367
1666,0.86,-0.5,-0.08,-0.43,-2.99,-2.44,395,252,404,453,359
1667,0.86,-0.5,-0.08,-0.06,-2.75,-2.5,396,248,402,471,361
1668,0.86,-0.5,-0.09,-0.49,-2.5,-2.01,394,255,401,454,361
1669,0.86,-0.51,-0.09,0.43,-2.08,-1.53,394,251,403,455,361
1670,0.87,-0.5,-0.09,0.49,-2.87,-2.44,395,253,402,455,360
1671,0.86,-0.51,-0.09,0.24,-2.62,-2.81,383,250,402,454,363
1672,0.86,-0.51,-0.08,0.18,-2.56,-2.93,392,253,401,463,361
1673,0.85,-0.5,-0.08,1.04,-2.62,-2.08,389,252,404,450,363
1674,0.86,-0.51,-0.07,1.04,-2.93,-3.72,394,249,401,456,361
1675,0.87,-0.51,-0.08,0.18,-2.99,-2.44,389,254,401,451,362
1676,0.85,-0.52,-0.08,0.06,-2.93,-2.62,393,254,400,449,363
1677,0.86,-0.51,-0.08,-0.24,-2.69,-2.81,392,252,401,456,362
1678,0.86,-0.5,-0.09,0.0,-2.99,-2.75,391,259,401,455,364
1679,0.86,-0.5,-0.09,-0.12,-2.93,-3.11,391,250,398,458,357
1680,0.86,-0.5,-0.09,0.06,-2.2,-2.26,391,259,404,454,360
1681,0.86,-0.5,-0.08,0.79,-3.05,-2.87,406,253,402,454,363
1682,0.86,-0.51,-0.07,0.24,-2.56,-2.5,392,254,398,449,362
1683,0.85,-0.51,-0.07,0.55,-2.93,-2.69,394,250,400,454,361
1684,0.86,-0.51,-0.08,0.85,-2.69,-2.38,391,249,400,455,360
1685,0.86,-0.51,-0.08,0.79,-2.99,-3.11,394,251,401,455,362
1686,0.86,-0.5,-0.07,-0.31,-1.83,-2.32,387,248,401,454,361
1687,0.87,-0.51,-0.08,-0.18,-2.99,-1.89,394,249,399,454,361
1688,0.86,-0.51,-0.08,0.37,-2.62,-2.38,393,251,399,450,363
1689,0.86,-0.51,-0.08,-0.24,-3.6,-2.81,394,254,396,450,361
1690,0.86,-0.5,-0.08,0.43,-3.66,-3.3,390,251,399,452,361
1691,0.86,-0.5,-0.08,-0.31,-2.08,-1.4,391,254,399,454,363
1692,0.86,-0.51,-0.09,1.46,-3.23,-2.2,391,252,400,457,361
1693,0.86,-0.5,-0.08,0.67,-2.08,-2.81,393,257,402,454,359
1694,0.86,-0.5,-0.08,0.73,-2.44,-2.14,392,255,402,450,359
1695,0.86,-0.51,-0.07,-0.31,-2.01,-1.71,394,252,399,455,362
1696,0.86,-0.51,-0.07,0.49,-3.85,-2.69,391,252,399,451,362
1697,0.86,-0.5,-0.08,0.31,-3.05,-3.23,391,256,399,449,362
1698,0.86,-0.5,-0.08,0.0,-2.99,-2.56,389,249,400,455,360
1699,0.86,-0.51,-0.08,0.49,-2.69,-2.44,393,249,400,458,363
1700,0.86,-0.51,-0.07,0.79,-2.87,-2.2,397,254,400,456,360
1701,0.86,-0.51,-0.07,0.55,-2.93,-2.56,392,251,399,454,361
1702,0.86,-0.51,-0.08,0.24,-2.5,-2.26,394,252,396,450,358
1703,0.85,-0.51,-0.07,-0.18,-2.93,-1.95,392,251,399,454,360
1704,0.86,-0.5,-0.07,0.67,-4.09,-3.48,387,255,399,454,359
1705,0.87,-0.5,-0.08,-0.06,-4.09,-4.03,395,254,398,454,361
1706,0.87,-0.5,-0.07,1.16,-0.61,3.3,392,256,399,459,361
1707,0.87,-0.49,-0.07,-0.61,-0.92,0.61,392,255,397,454,361
1708,0.86,-0.51,-0.07,2.5,-2.93,-0.79,389,250,401,458,364
1709,0.85,-0.52,-0.1,0.37,-4.15,-4.58,396,254,399,453,363
1710,0.86,-0.5,-0.1,3.36,-3.6,-5.25,385,253,397,453,360
1711,0.87,-0.5,-0.09,0.85,-2.26,-2.44,392,251,396,454,364
1712,0.86,-0.52,-0.07,0.79,-2.08,-2.5,396,254,401,453,357
1713,0.84,-0.52,-0.07,-0.92,-3.85,-3.17,393,255,398,449,362
1714,0.83,-0.53,-0.07,0.73,-2.93,-0.31,393,253,400,452,361
1715,0.85,-0.5,-0.07,-0.79,-1.28,-1.71,389,250,398,450,360
1716,0.86,-0.52,-0.07,-0.61,-1.22,-0.24,392,250,395,453,358
1717,0.86,-0.5,-0.07,-0.73,-2.44,-1.46,393,253,397,448,362
1718,0.86,-0.51,-0.07,0.43,-2.75,-2.32,391,252,397,454,362
1719,0.85,-0.51,-0.07,0.55,-3.17,-2.5,392,254,399,455,362
1720,0.87,-0.51,-0.08,-0.06,-2.99,-3.05,392,254,398,454,360
1721,0.87,-0.5,-0.07,0.31,-3.11,-2.99,394,252,401,451,358
1722,0.86,-0.5,-0.07,0.18,-2.81,-2.08,392,253,399,450,360
1723,0.86,-0.51,-0.07,0.79,-2.32,-2.56,388,251,400,453,359
1724,0.86,-0.5,-0.07,2.14,-2.81,-3.3,394,252,400,454,359
1725,0.86,-0.5,-0.07,0.92,-2.44,-2.75,393,252,398,454,357
1726,0.86,-0.5,-0.06,1.22,-3.23,-2.2,392,255,396,457,360
1727,0.86,-0.5,-0.07,0.49,-2.44,-2.62,392,253,395,452,360
1728,0.85,-0.5,-0.07,-0.43,-2.99,-2.5,384,254,397,451,358
1729,0.85,-0.5,-0.07,0.61,-4.09,-1.28,394,253,398,455,357
1730,0.87,-0.5,-0.07,-2.2,-2.99,-2.44,379,252,393,451,363
1731,0.86,-0.5,-0.08,0.24,-3.05,-2.2,392,252,395,460,363
1732,0.86,-0.5,-0.07,0.85,-2.87,-2.14,405,251,399,457,362
1733,0.86,-0.5,-0.07,-0.61,-2.32,-2.62,387,251,394,459,361
1734,0.88,-0.49,-0.09,1.34,0.67,-6.16,390,248,400,459,359
1735,0.87,-0.49,-0.06,1.77,-3.85,-1.46,388,251,401,456,362
1736,0.84,-0.51,-0.05,-0.12,-2.87,-2.56,389,256,397,452,359
1737,0.83,-0.53,-0.05,-0.79,-2.01,1.83,390,254,398,461,360
1738,0.88,-0.48,-0.06,1.22,-2.44,-5.98,390,253,398,456,363
1739,0.87,-0.49,-0.04,0.98,-2.56,-2.56,390,254,400,455,360
1740,0.86,-0.5,-0.04,0.12,-2.69,-1.28,390,254,396,459,361
1741,0.87,-0.5,-0.04,-0.12,-3.17,-1.71,390,252,399,457,361
1742,0.87,-0.49,-0.04,-1.89,-2.62,-0.92,387,255,400,454,361
1743,0.86,-0.5,-0.04,0.73,-3.97,-2.32,388,254,396,457,361
1744,0.87,-0.5,-0.05,0.79,-2.5,-2.14,388,251,397,456,362
1745,0.87,-0.51,-0.05,0.79,-2.56,-3.17,385,252,394,454,361
1746,0.86,-0.51,-0.05,1.71,-2.93,-2.44,388,254,394,456,358
1747,0.86,-0.52,-0.05,0.73,-2.87,-2.75,388,254,397,457,357
1748,0.86,-0.51,-0.05,2.01,-2.5,-2.14,389,252,399,460,365
1749,0.86,-0.51,-0.05,-0.06,-2.81,-2.01,390,253,400,463,361
1750,0.87,-0.5,-0.05,2.14,-3.17,-4.27,386,252,397,455,360
1751,0.86,-0.5,-0.04,1.34,-3.17,-3.05,391,248,397,454,364
1752,0.86,-0.51,-0.04,0.61,-2.75,-2.93,386,255,396,455,362
1753,0.86,-0.51,-0.03,0.79,-4.27,-2.81,387,249,398,452,362
1754,0.86,-0.5,-0.05,-0.12,-3.3,-2.01,401,251,398,454,365
1755,0.87,-0.5,-0.05,0.55,-4.15,-3.97,388,253,396,461,358
1756,0.86,-0.5,-0.05,1.65,-2.81,-2.38,388,253,393,456,364
1757,0.87,-0.51,-0.05,0.98,-2.93,-2.62,388,253,393,457,362
1758,0.85,-0.51,-0.05,0.73,-2.26,-2.99,391,254,397,452,361
1759,0.87,-0.5,-0.04,0.85,-2.08,-2.38,387,252,401,460,359
1760,0.86,-0.5,-0.04,-0.67,-1.77,-1.77,390,253,408,460,360
1761,0.86,-0.5,-0.04,0.67,-2.62,-2.08,389,252,394,461,361
1762,0.87,-0.5,-0.04,0.31,-2.32,-2.01,388,256,398,459,359
1763,0.86,-0.51,-0.04,-0.98,-3.17,-2.87,387,255,396,458,358
1764,0.87,-0.5,-0.05,0.49,-3.11,-2.2,384,256,393,457,359
1765,0.86,-0.51,-0.05,0.98,-2.99,-2.75,384,255,397,456,361
1766,0.86,-0.5,-0.05,0.0,-2.2,-2.44,391,252,393,460,368
1767,0.86,-0.51,-0.05,0.79,-2.56,-2.38,388,256,397,456,363
1768,0.86,-0.51,-0.04,0.43,-1.77,-2.14,386,251,395,456,361
1769,0.86,-0.51,-0.04,0.49,-2.75,-1.95,389,251,397,461,361
1770,0.86,-0.51,-0.04,0.73,-2.5,-2.01,390,254,399,453,362
1771,0.86,-0.51,-0.04,-0.18,-3.23,-2.75,392,257,394,466,361
1772,0.86,-0.51,-0.04,1.46,-3.72,-2.93,389,250,397,461,361
1773,0.86,-0.51,-0.05,0.31,-2.75,-2.87,390,256,396,461,359
1774,0.86,-0.51,-0.05,-0.06,-2.32,-2.08,391,253,393,456,362
1775,0.86,-0.51,-0.05,1.1,-2.56,-2.5,389,254,395,464,359
1776,0.86,-0.51,-0.04,0.24,-2.26,-2.75,378,253,393,459,357
1777,0.86,-0.51,-0.04,-0.12,-3.3,-2.75,391,251,401,460,359
1778,0.86,-0.51,-0.04,0.61,-2.93,-2.69,388,253,395,460,361
1779,0.86,-0.52,-0.04,-0.18,-2.38,-2.38,389,254,395,457,364
1780,0.86,-0.51,-0.05,0.49,-3.42,-2.87,388,255,393,454,363
1781,0.86,-0.51,-0.04,0.0,-3.11,-2.44,402,257,396,456,359
1782,0.86,-0.51,-0.05,0.61,-3.17,-3.23,385,253,394,456,361
1783,0.86,-0.51,-0.05,0.37,-2.75,-2.87,389,256,396,458,361
1784,0.86,-0.51,-0.05,0.31,-2.01,-2.14,386,255,398,456,361
1785,0.86,-0.52,-0.04,0.49,-2.26,-2.14,391,255,395,458,361
1786,0.86,-0.5,-0.05,-0.12,-2.01,-2.75,390,256,396,460,363
1787,0.86,-0.51,-0.04,0.73,-2.99,-2.38,390,254,395,461,363
1788,0.86,-0.52,-0.04,1.22,-3.11,-3.78,387,250,396,459,363
1789,0.86,-0.5,-0.04,-0.31,-3.11,-2.2,387,252,397,456,360
1790,0.86,-0.5,-0.05,0.31,-2.99,-2.99,390,253,391,456,361
1791,0.86,-0.51,-0.05,-0.55,-2.87,-2.75,388,251,395,451,362
1792,0.87,-0.5,-0.06,-0.18,-1.95,-1.59,417,253,393,461,361
1793,0.86,-0.51,-0.04,0.43,-1.95,-2.38,388,254,397,457,362
1794,0.87,-0.5,-0.04,0.92,-2.75,-2.69,388,253,395,456,360
1795,0.87,-0.5,-0.04,0.85,-2.87,-3.05,389,253,396,457,360
1796,0.86,-0.51,-0.04,0.67,-3.6,-2.69,391,256,396,453,363
1797,0.86,-0.5,-0.04,0.24,-3.42,-2.87,388,250,394,455,361
1798,0.87,-0.49,-0.06,-0.24,-3.05,-2.44,388,252,395,456,361
1799,0.86,-0.5,-0.05,0.92,-2.38,-1.46,385,254,398,460,361
1800,0.86,-0.5,-0.05,-0.24,-1.53,-2.08,389,254,397,457,361
1801,0.87,-0.5,-0.04,0.18,-2.62,-2.62,389,255,398,460,361
1802,0.87,-0.5,-0.04,0.61,-2.5,-2.56,391,256,392,456,358
1803,0.86,-0.51,-0.04,0.37,-2.26,-2.26,388,253,402,458,361
1804,0.87,-0.5,-0.05,-0.55,-2.93,-2.99,389,256,394,453,361
1805,0.87,-0.5,-0.04,0.31,-3.66,-2.75,387,254,392,456,362
1806,0.87,-0.5,-0.06,0.55,-2.69,-1.89,387,257,394,452,361
1807,0.87,-0.49,-0.05,1.28,-2.44,-1.4,389,254,395,452,364
1808,0.87,-0.5,-0.04,1.1,-2.93,-2.69,391,255,396,456,360
1809,0.86,-0.5,-0.04,0.49,-2.32,-2.01,392,255,398,454,363
1810,0.87,-0.5,-0.05,-0.61,-1.83,-1.4,387,256,399,459,360
1811,0.86,-0.51,-0.04,0.37,-2.99,-2.08,388,252,395,456,361
1812,0.87,-0.5,-0.04,-0.73,-2.93,-2.87,390,254,396,460,363
1813,0.87,-0.5,-0.04,0.06,-3.85,-2.75,382,266,394,457,361
1814,0.87,-0.49,-0.05,0.61,-2.93,-2.2,388,254,397,456,359
1815,0.87,-0.5,-0.04,0.85,-2.2,-2.69,382,254,391,460,361
1816,0.86,-0.5,-0.06,1.22,-2.81,-2.75,381,255,394,461,362
1817,0.87,-0.5,-0.05,-0.06,-2.44,-2.44,384,258,397,455,364
1818,0.86,-0.5,-0.04,0.0,-2.38,-2.01,388,254,396,457,360
1819,0.87,-0.5,-0.04,0.92,-3.66,-2.69,386,252,394,455,358
1820,0.87,-0.49,-0.05,-0.06,-3.36,-2.69,415,257,394,457,362
1821,0.87,-0.5,-0.05,0.12,-3.05,-2.75,413,255,394,457,360
1822,0.87,-0.49,-0.05,0.37,-2.32,-2.08,393,255,396,459,363
1823,0.87,-0.49,-0.05,0.98,-2.56,-2.75,388,257,396,458,358
1824,0.87,-0.49,-0.05,1.34,-2.75,-2.69,385,256,396,463,363
1825,0.87,-0.5,-0.04,-0.06,-2.87,-2.38,385,255,393,459,360
1826,0.87,-0.49,-0.04,0.55,-2.93,-2.56,393,253,394,459,359
1827,0.88,-0.5,-0.05,0.92,-3.66,-3.54,389,254,397,461,361
1828,0.88,-0.49,-0.05,0.06,-3.97,-2.81,389,252,394,457,360
1829,0.87,-0.5,-0.06,0.12,-3.17,-2.69,390,253,393,460,360
1830,0.87,-0.49,-0.05,0.31,-2.44,-1.83,388,255,387,455,361
1831,0.87,-0.5,-0.04,0.0,-2.81,-2.44,386,254,394,453,357
1832,0.87,-0.49,-0.04,0.18,-2.56,-2.56,387,257,397,457,359
1833,0.87,-0.5,-0.04,0.98,-2.99,-2.69,384,251,390,459,361
1834,0.87,-0.49,-0.04,0.67,-2.93,-2.99,387,253,395,456,358
1835,0.87,-0.48,-0.05,0.06,-3.17,-2.5,384,257,395,451,362
1836,0.87,-0.5,-0.05,0.24,-3.05,-2.81,387,253,390,453,362
1837,0.87,-0.49,-0.05,-0.24,-2.62,-2.14,386,254,396,456,363
1838,0.85,-0.5,-0.04,0.73,-2.99,-2.2,386,256,396,452,360
1839,0.87,-0.49,-0.04,-0.43,-2.2,-2.32,388,256,391,459,361
1840,0.87,-0.48,-0.04,-0.06,-2.62,-2.26,385,253,390,460,361
1841,0.87,-0.5,-0.04,0.49,-2.93,-2.69,375,253,394,457,360
1842,0.86,-0.49,-0.05,0.18,-3.36,-2.99,388,260,392,458,361
1843,0.88,-0.49,-0.05,0.49,-3.85,-3.36,403,254,394,457,362
1844,0.88,-0.5,-0.06,0.85,-2.87,-2.81,389,252,389,455,360
1845,0.87,-0.49,-0.05,-0.12,-2.44,-2.5,387,256,389,455,361
1846,0.87,-0.5,-0.05,0.85,-2.44,-2.75,387,255,397,461,359
1847,0.87,-0.5,-0.04,0.18,-2.5,-2.44,383,258,395,458,362
1848,0.87,-0.49,-0.05,-0.24,-2.2,-2.01,388,255,394,462,363
1849,0.86,-0.49,-0.04,0.92,-3.23,-2.26,384,255,393,457,361
1850,0.87,-0.49,-0.05,0.79,-3.91,-2.56,386,252,394,457,362
1851,0.87,-0.49,-0.05,-0.43,-2.93,-2.62,384,257,394,460,362
1852,0.87,-0.49,-0.05,0.18,-2.26,-1.95,383,250,392,461,360
1853,0.87,-0.49,-0.05,0.18,-2.44,-1.89,383,253,393,452,361
1854,0.87,-0.49,-0.05,0.0,-1.83,-2.32,387,255,395,457,358
1855,0.87,-0.49,-0.04,0.24,-2.87,-2.69,389,255,391,456,366
1856,0.86,-0.5,-0.04,0.24,-2.69,-2.38,386,257,393,452,363
1857,0.87,-0.5,-0.04,0.0,-3.42,-3.3,383,254,391,461,361
1858,0.88,-0.5,-0.04,0.06,-3.91,-3.91,383,253,392,460,364
1859,0.88,-0.49,-0.05,0.12,-3.66,-4.03,387,258,392,460,360
1860,0.88,-0.5,-0.05,1.04,-2.62,-2.2,388,254,395,459,363
1861,0.87,-0.49,-0.04,1.46,-2.75,-3.3,388,257,398,452,359
1862,0.87,-0.49,-0.05,0.61,-2.08,-2.14,389,258,394,459,361
1863,0.88,-0.5,-0.04,0.85,-2.87,-3.48,389,254,394,460,359
1864,0.87,-0.51,-0.04,0.31,-3.23,-3.17,392,257,394,460,361
1865,0.87,-0.49,-0.05,0.55,-3.3,-3.11,388,258,394,456,361
1866,0.87,-0.5,-0.05,-0.55,-2.87,-2.62,389,258,392,456,361
1867,0.87,-0.49,-0.05,-0.49,-2.44,-1.83,387,256,391,452,361
1868,0.87,-0.49,-0.06,0.37,-2.38,-2.38,387,255,391,460,360
1869,0.86,-0.49,-0.04,-0.06,-1.83,-1.83,387,252,392,455,359
1870,0.87,-0.5,-0.05,0.24,-2.08,-1.65,390,255,394,459,360
1871,0.86,-0.49,-0.04,0.92,-2.62,-1.22,388,257,393,460,357
1872,0.86,-0.48,-0.05,0.37,-2.93,-1.65,389,258,389,459,363
1873,0.87,-0.5,-0.05,-0.24,-3.17,-3.3,389,259,390,456,371
1874,0.86,-0.48,-0.04,-0.24,-4.03,-2.99,388,257,388,464,361
1875,0.87,-0.48,-0.05,1.1,-2.14,-2.87,387,255,391,469,359
1876,0.89,-0.49,-0.04,4.76,-4.09,-3.72,387,256,392,455,355
1877,0.88,-0.47,-0.03,1.1,-3.3,-4.03,385,258,391,455,363
1878,0.87,-0.5,-0.06,1.04,-4.15,-6.84,387,252,391,449,360
1879,0.88,-0.48,-0.06,2.01,-3.23,-2.81,391,258,390,450,364
1880,0.88,-0.49,-0.05,1.46,-3.91,-3.36,389,255,391,451,363
1881,0.88,-0.48,-0.06,-0.61,-2.93,-2.5,389,256,394,459,363
1882,0.88,-0.48,-0.06,0.85,-3.36,-3.11,387,255,390,455,361
1883,0.88,-0.47,-0.06,-0.31,-2.44,-2.69,383,257,391,454,354
1884,0.87,-0.48,-0.06,0.37,-2.81,-2.5,386,255,394,456,361
1885,0.87,-0.48,-0.06,-2.5,-1.77,-1.04,390,262,391,452,360
1886,0.89,-0.47,-0.06,-2.69,-1.83,-1.65,385,255,391,456,364
1887,0.87,-0.48,-0.06,-0.43,-2.99,-2.69,384,256,391,459,358
1888,0.87,-0.48,-0.07,0.12,-3.36,-3.23,385,259,388,456,361
1889,0.87,-0.48,-0.06,0.12,-3.11,-2.44,399,255,388,459,355
1890,0.88,-0.48,-0.06,-2.38,-1.95,-2.44,387,252,391,455,352
1891,0.88,-0.47,-0.07,1.1,-3.05,-2.75,394,255,394,457,351
1892,0.86,-0.49,-0.06,0.31,-3.23,-3.78,387,254,391,456,351
1893,0.87,-0.46,-0.07,2.81,-7.14,-8.48,388,253,394,471,352
1894,0.88,-0.45,-0.05,-2.14,-2.32,-1.89,387,257,391,456,351
1895,0.89,-0.45,-0.08,-1.04,-3.3,-0.98,387,256,394,455,348
1896,0.9,-0.44,-0.08,2.32,0.55,3.85,389,254,388,456,354
1897,0.87,-0.48,-0.03,-0.31,-0.73,-0.31,388,255,390,450,354
1898,0.89,-0.47,-0.05,1.16,-1.83,-2.32,384,257,394,457,350
1899,0.89,-0.46,-0.04,0.85,-2.62,-3.17,387,253,392,451,354
1900,0.88,-0.47,-0.04,-1.16,-3.72,-1.71,388,257,395,456,350
1901,0.89,-0.46,-0.06,0.24,-4.64,-3.66,390,257,387,455,339
1902,0.86,-0.48,-0.04,1.16,-1.95,-0.49,383,253,393,459,348
1903,0.89,-0.47,-0.06,0.12,-2.69,-2.56,383,258,387,455,353
1904,0.88,-0.47,-0.05,0.18,-2.75,-2.2,387,259,393,451,350
1905,0.87,-0.48,-0.06,-1.22,-2.38,-2.01,391,253,391,459,351
1906,0.89,-0.47,-0.04,1.4,-3.66,-2.99,384,257,391,452,352
1907,0.88,-0.47,-0.06,-1.16,-2.44,-2.08,385,257,387,450,354
1908,0.88,-0.47,-0.05,1.28,-2.5,-1.53,385,256,388,458,348
1909,0.89,-0.47,-0.05,-0.12,-3.3,-2.14,394,256,391,459,351
1910,0.88,-0.47,-0.05,0.49,-3.72,-3.05,386,253,390,451,353
1911,0.88,-0.47,-0.04,0.18,-2.87,-2.75,385,257,390,460,351
1912,0.89,-0.46,-0.06,0.43,-2.62,-2.81,385,256,390,456,355
1913,0.88,-0.47,-0.05,-0.31,-2.5,-2.44,384,254,391,455,355
1914,0.88,-0.47,-0.06,0.79,-2.93,-3.3,384,255,392,460,354
1915,0.88,-0.47,-0.05,0.37,-2.62,-2.62,385,257,393,456,346
1916,0.88,-0.47,-0.05,0.31,-2.38,-2.32,385,257,391,455,355
1917,0.86,-0.49,-0.07,-2.08,-2.87,-2.69,382,256,387,458,353
1918,0.89,-0.47,-0.08,-3.05,-2.81,-1.22,385,255,392,459,350
1919,0.87,-0.49,-0.05,1.04,-2.87,-3.3,387,256,389,454,354
1920,0.88,-0.47,-0.04,-0.31,-4.09,-3.17,385,258,392,458,351
1921,0.88,-0.48,-0.05,-0.73,-3.66,-2.87,379,254,389,460,352
1922,0.89,-0.46,-0.05,0.37,-2.62,-3.3,383,256,392,452,355
1923,0.89,-0.46,-0.05,-0.24,-1.77,-1.59,386,254,390,455,355
1924,0.89,-0.46,-0.04,0.98,-2.81,-2.5,383,257,387,455,354
1925,0.89,-0.46,-0.04,0.37,-2.62,-2.26,383,256,393,454,353
1926,0.89,-0.46,-0.04,1.46,-3.54,-3.23,383,256,387,458,354
1927,0.89,-0.46,-0.04,1.1,-4.03,-3.11,383,256,390,458,354
1928,0.89,-0.46,-0.05,0.55,-2.56,-2.62,384,256,389,456,353
1929,0.88,-0.47,-0.05,2.26,-2.81,-2.99,384,264,392,458,351
1930,0.89,-0.46,-0.04,-0.24,-2.56,-2.26,384,256,390,456,356
1931,0.87,-0.48,-0.06,-1.59,-3.05,-1.53,381,255,392,466,356
1932,0.87,-0.48,-0.06,0.18,-2.69,-2.5,386,257,391,455,359
1933,0.87,-0.49,-0.05,1.16,-2.93,-4.33,387,259,392,455,353
1934,0.88,-0.46,-0.04,0.92,-2.81,-3.42,385,257,390,456,354
1935,0.89,-0.45,-0.04,0.61,-3.6,-2.93,383,256,391,456,350
1936,0.9,-0.46,-0.05,0.85,-3.78,-2.87,383,259,390,454,353
1937,0.89,-0.45,-0.05,0.31,-2.38,-1.22,384,258,391,460,353
1938,0.86,-0.48,-0.05,-0.67,-3.54,-3.97,382,257,389,459,353
1939,0.89,-0.45,-0.05,0.43,-1.46,-0.43,380,256,393,456,356
1940,0.89,-0.44,-0.06,0.0,-1.83,-3.54,379,257,390,458,354
1941,0.92,-0.43,-0.05,2.01,-2.87,-2.44,381,256,387,456,355
1942,0.91,-0.44,-0.03,0.31,-2.32,-0.73,382,259,392,458,355
1943,0.89,-0.45,-0.05,-1.04,-3.05,-1.83,382,259,392,455,350
1944,0.89,-0.45,-0.05,0.61,-3.3,-2.62,382,257,387,455,354
1945,0.89,-0.45,-0.04,0.49,-2.32,-2.26,382,259,393,456,350
1946,0.89,-0.46,-0.05,0.79,-2.69,-2.81,384,256,385,458,354
1947,0.89,-0.46,-0.03,0.85,-2.01,-1.1,380,254,390,456,355
1948,0.9,-0.46,-0.05,0.31,-2.14,-1.83,382,259,391,455,354
1949,0.9,-0.45,-0.05,0.18,-4.03,-2.32,384,258,393,454,350
1950,0.89,-0.46,-0.04,-2.2,-4.58,-3.05,382,260,391,458,355
1951,0.87,-0.48,-0.06,-0.73,-4.94,-4.33,380,257,393,454,352
1952,0.89,-0.46,-0.06,1.4,-2.26,-2.32,380,254,389,459,353
1953,0.88,-0.47,-0.05,-0.31,-2.5,-2.75,395,257,387,459,355
1954,0.89,-0.46,-0.05,0.18,-2.81,-2.5,384,258,390,449,354
1955,0.88,-0.46,-0.05,1.28,-2.81,-2.69,381,260,392,456,352
1956,0.88,-0.47,-0.03,-0.73,-2.44,-1.95,376,257,392,458,355
1957,0.87,-0.47,-0.05,-0.49,-3.23,-0.79,379,258,392,454,348
1958,0.89,-0.46,-0.04,0.85,-3.11,-2.56,382,259,385,453,355
1959,0.88,-0.46,-0.04,-0.98,-2.81,-1.77,382,258,392,455,355
1960,0.89,-0.47,-0.04,0.85,-3.05,-2.01,383,257,388,450,355
1961,0.89,-0.46,-0.04,0.06,-3.05,-1.83,383,256,391,455,355
1962,0.88,-0.47,-0.04,0.61,-2.87,-2.62,383,258,392,450,354
1963,0.89,-0.47,-0.03,0.18,-3.05,-3.05,378,257,388,458,355
1964,0.86,-0.47,-0.03,-1.71,-3.11,-2.69,384,259,389,452,356
1965,0.89,-0.47,-0.05,-0.61,-2.81,-3.97,381,257,390,454,358
1966,0.9,-0.43,-0.07,0.43,-5.49,-4.21,378,258,390,456,353
1967,0.91,-0.43,-0.06,2.01,-3.72,-3.42,381,259,389,455,357
1968,0.89,-0.45,-0.07,-1.83,-0.24,-0.31,381,256,389,454,356
1969,0.91,-0.43,-0.04,1.28,-1.04,2.69,382,257,389,455,353
1970,0.9,-0.45,-0.07,1.1,-3.17,-4.09,382,258,388,455,357
1971,0.89,-0.46,-0.03,2.32,-3.91,-6.04,382,262,392,459,357
1972,0.93,-0.41,-0.07,2.81,-3.42,-5.13,380,258,393,454,354
1973,0.88,-0.46,-0.05,0.85,-3.11,-2.81,381,270,391,459,353
1974,0.9,-0.44,-0.04,0.85,-2.87,-2.81,382,256,388,455,354
1975,0.92,-0.43,-0.07,-0.31,-4.21,-5.13,382,258,389,453,356
1976,0.93,-0.41,-0.07,1.1,-4.7,-4.46,383,259,389,454,354
1977,0.91,-0.43,-0.05,0.73,-0.49,-0.61,384,256,387,458,351
1978,0.88,-0.44,-0.03,5.62,-7.02,-2.5,384,261,385,458,352
1979,0.98,-0.39,-0.1,-6.23,7.39,7.57,381,256,389,456,352
1980,0.89,-0.44,-0.13,-1.71,-8.0,-0.37,384,257,388,452,345
1981,0.88,-0.45,-0.08,-5.0,-6.1,-2.2,382,260,391,454,351
1982,0.87,-0.44,-0.08,-2.32,-2.75,-4.76,379,257,389,456,352
1983,0.92,-0.42,-0.09,1.65,-2.44,-8.3,379,257,389,454,355
1984,0.93,-0.38,-0.09,5.0,-4.03,-3.11,384,258,389,454,356
1985,0.91,-0.4,-0.04,6.65,-0.73,-1.53,381,260,390,458,355
1986,0.9,-0.4,-0.09,0.37,-4.39,-5.74,382,256,390,454,352
1987,0.9,-0.41,-0.05,-0.24,-2.81,-3.97,381,257,388,455,355
1988,0.9,-0.41,-0.06,-1.46,-1.4,-1.59,381,255,386,454,355
1989,0.92,-0.39,-0.07,0.06,-2.38,-2.56,379,256,387,453,356
1990,0.92,-0.39,-0.06,1.89,-2.87,-2.32,381,259,387,453,355
1991,0.92,-0.4,-0.07,0.79,-4.39,-3.23,383,256,388,454,355
1992,0.91,-0.39,-0.06,1.1,-2.44,-2.26,380,257,391,448,357
1993,0.92,-0.39,-0.07,0.79,-2.81,-3.3,381,257,386,457,356
1994,0.92,-0.39,-0.06,1.4,-2.87,-1.59,381,257,383,455,354
1995,0.92,-0.39,-0.07,0.85,-2.44,-2.14,384,259,387,454,355
1996,0.96,-0.35,-0.08,10.93,-14.1,-16.11,394,260,387,453,356
1997,0.87,-0.38,-0.1,-3.42,0.18,-4.7,381,254,385,452,354
1998,0.93,-0.38,-0.08,1.28,-1.95,-2.69,383,259,387,456,358
1999,0.91,-0.38,-0.07,1.16,-1.28,-0.73,380,260,387,451,354
2000,0.92,-0.36,-0.08,0.31,-2.75,-2.56,382,257,384,455,356
2001,0.93,-0.37,-0.08,0.49,-2.99,-1.95,381,257,389,451,357
2002,0.93,-0.37,-0.08,-0.06,-3.05,-2.5,376,255,387,450,355
2003,0.92,-0.37,-0.08,0.37,-3.36,-2.62,382,259,386,455,355
2004,0.93,-0.36,-0.09,1.1,-3.05,-3.11,381,258,402,453,351
2005,0.93,-0.36,-0.07,-0.06,-2.69,-2.44,385,258,389,453,354
2006,0.93,-0.36,-0.08,-0.61,-2.87,-2.32,383,254,389,455,354
2007,0.93,-0.36,-0.07,1.46,-3.11,-2.93,378,259,387,452,357
2008,0.93,-0.36,-0.08,0.85,-3.42,-2.93,381,261,387,455,352
2009,0.92,-0.37,-0.07,0.18,-2.26,-2.01,384,257,387,453,353
2010,0.94,-0.35,-0.07,1.71,-3.23,-2.26,375,257,390,455,354
2011,0.92,-0.36,-0.07,0.18,-3.6,-4.82,378,256,386,453,356
2012,0.98,-0.32,-0.08,-3.6,0.61,-1.83,384,260,389,452,352
2013,0.93,-0.37,-0.07,-0.73,-2.62,-2.56,379,257,387,449,355
2014,0.94,-0.37,-0.08,2.14,-2.44,-7.93,380,260,387,451,352
2015,0.94,-0.35,-0.07,0.79,-4.7,-7.2,379,258,384,455,354
2016,0.95,-0.33,-0.14,11.66,-22.77,-6.41,380,258,388,448,352
2017,0.95,-0.33,-0.12,1.71,-3.3,-2.62,385,254,389,453,355
2018,0.93,-0.31,-0.11,1.22,-2.5,-1.65,383,256,386,453,352
2019,0.94,-0.32,-0.11,1.4,-2.38,-3.05,385,257,384,458,354
2020,0.96,-0.34,-0.1,-1.16,-1.83,-3.05,384,256,386,454,352
2021,0.96,-0.34,-0.11,-1.4,-2.38,-2.2,383,259,388,456,355
2022,0.95,-0.33,-0.1,-3.17,-1.77,-0.49,383,252,390,449,357
2023,0.95,-0.39,-0.09,-7.81,-0.92,2.08,384,260,388,453,355
2024,0.9,-0.38,-0.11,0.92,-2.5,1.22,385,257,401,457,356
2025,0.91,-0.4,-0.11,2.26,-3.05,-4.64,385,257,386,454,352
2026,0.92,-0.38,-0.12,-0.55,-3.78,-1.71,385,260,387,458,354
2027,0.92,-0.39,-0.1,-0.18,-2.5,-2.81,375,260,388,455,355
2028,0.91,-0.4,-0.1,0.06,-2.93,-2.75,382,255,391,454,356
2029,0.92,-0.39,-0.1,0.06,-2.87,-1.71,384,258,389,454,356
2030,0.92,-0.39,-0.1,0.67,-2.14,-2.93,384,260,392,454,356
2031,0.92,-0.4,-0.09,0.73,-1.71,-2.69,384,258,388,455,355
