,aX,aY,aZ,gX,gY,gZ,little,ring,middle,index,thumb
0,0.12,-0.99,-0.04,1.65,-2.81,-2.01,211,262,446,456,353
1,0.12,-0.99,-0.03,1.4,-2.81,-2.69,206,265,446,452,353
2,0.13,-0.99,-0.03,0.85,-3.3,-3.54,205,267,444,457,348
3,0.12,-0.99,-0.03,0.73,-2.93,-2.93,205,267,444,456,348
4,0.11,-0.99,-0.04,0.24,-2.87,-2.26,213,269,442,456,352
5,0.12,-0.99,-0.05,-1.22,-2.01,-3.11,208,264,444,455,353
6,0.12,-0.99,-0.05,1.59,-3.05,-2.56,208,275,440,458,351
7,0.12,-0.99,-0.04,0.37,-1.71,-1.77,209,267,444,455,350
8,0.12,-0.99,-0.04,1.04,-2.81,-1.83,211,266,442,452,350
9,0.13,-0.99,-0.04,0.49,-2.69,-2.75,211,268,442,460,350
10,0.12,-0.98,-0.02,-0.31,-1.28,-0.18,208,263,442,460,348
11,0.11,-1.0,-0.07,-1.65,1.46,1.28,212,271,441,451,351
12,0.1,-0.99,-0.05,1.71,-4.94,-4.76,211,268,443,462,349
13,0.11,-0.99,-0.04,-0.61,-3.48,-4.09,209,269,442,452,353
14,0.11,-0.99,-0.04,1.4,-2.56,-3.11,208,263,438,461,352
15,0.11,-0.99,-0.04,0.18,-3.48,-2.08,207,271,439,456,353
16,0.1,-0.99,-0.04,1.22,-2.93,-2.01,208,272,436,457,353
17,0.1,-0.99,-0.05,0.18,-2.5,-3.05,211,271,433,457,351
18,0.11,-0.99,-0.05,-0.37,-1.77,-4.27,207,272,439,456,353
19,0.12,-0.99,-0.05,1.16,-2.32,-2.08,208,269,439,451,353
20,0.12,-0.99,-0.03,-0.06,-2.14,-0.55,210,268,427,449,348
21,0.1,-0.99,-0.05,0.12,-3.17,-0.92,208,265,433,462,350
22,0.08,-1.0,-0.07,-3.78,-0.79,-0.92,210,271,430,460,351
23,0.08,-1.0,-0.07,-0.55,-3.17,-2.62,206,270,431,462,350
24,0.06,-0.99,-0.04,-0.18,-3.85,-2.62,208,272,434,461,350
25,0.06,-0.99,-0.02,-3.66,-3.85,0.12,209,269,436,457,355
26,0.12,-0.97,0.0,5.07,-9.34,-1.1,207,266,433,461,355
27,0.04,-0.99,-0.04,-0.98,-1.71,-1.59,218,268,435,458,356
28,0.02,-0.98,-0.0,-2.38,-6.29,-3.17,213,270,435,456,358
29,0.05,-0.98,-0.01,2.99,-2.5,-0.85,204,273,436,460,356
30,0.03,-1.01,-0.04,-1.16,1.89,-2.44,209,268,435,458,351
31,0.04,-1.01,-0.06,-0.49,-4.27,-4.33,211,261,428,455,359
32,0.05,-1.0,-0.01,5.0,-6.9,-3.66,210,265,429,462,355
33,0.05,-0.98,-0.0,-3.91,-9.64,-7.57,209,264,425,457,358
34,0.05,-0.98,0.01,1.71,0.98,3.17,210,276,431,456,353
35,0.01,-0.99,-0.0,-6.9,-4.27,-0.31,213,276,437,457,354
36,0.07,-0.98,0.02,-0.43,-1.95,-3.42,204,267,430,458,356
37,0.08,-1.0,-0.04,0.67,-2.62,-5.19,211,269,430,460,353
38,0.06,-1.01,-0.04,-0.61,1.95,1.04,210,265,428,458,356
39,0.05,-0.99,0.01,-0.18,-4.39,-5.55,211,270,427,455,357
40,0.07,-1.0,-0.01,0.43,-2.99,-3.17,208,274,432,462,353
41,0.06,-1.0,-0.03,0.67,-2.99,-4.03,211,270,430,458,356
42,0.06,-1.0,-0.01,1.89,-2.93,-0.06,212,270,430,462,356
43,0.05,-1.0,0.0,2.87,-2.26,-1.4,209,270,429,456,357
44,0.12,-1.02,-0.08,-1.83,-12.21,-1.16,210,272,426,461,356
45,0.05,-0.99,-0.01,2.08,-3.48,-1.71,207,267,427,453,356
46,0.05,-0.99,0.02,-1.28,-2.93,-1.89,210,267,430,458,355
47,0.07,-1.01,-0.02,3.48,-2.62,-0.31,209,269,425,453,353
48,0.06,-1.0,0.0,-1.77,-4.88,-6.96,218,273,427,464,356
49,0.07,-0.99,-0.03,-1.28,-4.09,-6.1,209,269,429,458,351
50,0.06,-1.0,-0.02,1.28,-2.38,-2.2,214,263,430,457,356
51,0.09,-1.0,-0.03,4.52,2.81,3.36,205,271,426,460,353
52,0.07,-0.98,0.02,-1.1,-5.31,-1.77,211,262,428,463,358
53,0.08,-0.99,-0.01,-1.22,-0.12,-0.49,208,271,426,462,353
54,0.06,-0.99,-0.04,-1.04,-5.13,0.06,213,269,426,461,356
55,0.03,-0.99,-0.02,1.34,-3.17,-2.93,212,269,426,453,350
56,0.01,-0.99,-0.0,-0.49,-0.43,-2.44,211,267,424,458,356
57,0.04,-1.0,-0.02,-0.31,-3.11,-5.31,213,268,424,458,354
58,0.06,-1.0,-0.02,0.06,-4.82,-3.23,214,270,423,462,354
59,0.06,-0.83,-0.06,-0.18,1.53,-2.75,213,260,425,454,358
60,0.14,-0.98,-0.02,-1.77,-1.83,-7.81,211,270,425,456,358
61,0.12,-0.99,-0.06,0.24,-2.14,-2.2,212,268,425,459,354
62,0.13,-0.98,-0.07,-3.48,-0.73,-1.83,212,269,425,461,355
63,0.08,-0.97,-0.06,2.32,1.1,0.31,210,270,427,460,350
64,0.06,-1.0,0.02,7.02,-8.42,-2.56,206,269,427,463,351
65,0.08,-0.96,-0.01,0.61,4.88,-3.54,212,284,422,456,355
66,0.08,-0.98,-0.08,1.16,-6.41,-4.46,208,271,425,456,354
67,0.13,-0.99,-0.03,-0.18,-3.91,-7.87,212,267,418,460,354
68,0.08,-1.0,-0.02,-0.18,-2.93,-2.75,212,273,426,458,355
69,0.1,-1.0,-0.0,1.16,-2.08,0.61,214,265,424,461,356
70,0.07,-0.98,-0.02,1.28,-2.99,-0.43,215,268,423,459,352
71,0.09,-0.99,0.01,-0.37,-5.86,-6.04,216,271,423,457,353
72,0.07,-0.99,0.01,-0.73,-0.61,-2.69,216,275,421,459,354
73,0.14,-1.0,-0.03,0.24,-4.94,-2.44,217,268,420,459,356
74,0.1,-0.99,-0.01,0.18,-0.49,2.38,214,270,430,463,353
75,0.12,-0.98,0.01,1.89,-0.79,-1.46,208,264,422,465,357
76,0.06,-0.98,-0.03,-1.83,-2.26,-2.08,206,267,422,459,357
77,0.09,-0.99,-0.01,-0.24,-4.33,-3.23,215,273,424,455,356
78,0.04,-0.97,-0.0,4.88,-3.66,2.5,207,273,424,456,357
79,0.13,-1.04,-0.13,-10.56,-3.3,-9.58,215,265,423,464,354
80,0.16,-0.98,0.02,-1.34,-6.41,-2.26,213,269,423,458,356
81,0.15,-0.99,-0.01,-1.1,-4.46,6.41,213,272,423,463,357
82,0.06,-1.0,-0.01,0.92,-7.51,8.54,215,271,421,459,355
83,-0.02,-1.0,0.01,5.86,-4.33,-0.49,213,275,424,456,364
84,0.04,-1.0,0.03,-5.8,-4.7,-7.14,213,269,424,455,351
85,0.06,-1.0,-0.01,-7.87,4.94,-17.15,209,272,422,458,355
86,0.13,-0.96,-0.07,-12.51,-1.1,-18.19,214,273,420,449,357
87,0.08,-0.99,-0.02,-2.44,-1.4,-5.86,211,270,420,458,353
88,0.17,-0.99,-0.06,-0.18,-4.58,-3.48,213,272,425,458,358
89,0.12,-0.98,-0.03,-2.14,-6.9,-5.62,212,270,423,462,357
90,0.16,-1.0,-0.08,1.71,-0.12,-1.28,212,273,422,454,356
91,0.13,-1.02,-0.05,1.65,-1.83,-3.17,214,272,419,457,353
92,0.07,-1.0,-0.01,3.72,-4.7,-3.3,214,267,422,460,354
93,0.13,-1.0,-0.04,2.01,0.06,-0.85,214,270,418,454,351
94,0.11,-1.0,-0.01,0.24,-3.11,-1.71,217,272,422,458,357
95,0.13,-0.99,-0.04,-2.32,-1.83,-4.39,214,272,420,459,357
96,0.11,-0.98,-0.03,-5.86,-10.68,-4.52,217,269,422,455,356
97,0.1,-0.95,-0.01,6.16,-0.12,-3.23,222,270,417,463,357
98,0.12,-0.98,-0.07,5.98,-0.55,-0.06,216,273,418,456,356
99,0.14,-0.97,-0.05,2.44,-0.43,-2.14,213,272,420,463,359
100,0.16,-0.98,-0.07,1.83,-2.56,-1.77,246,272,422,460,356
101,0.13,-0.99,-0.07,0.43,-3.3,-3.11,211,270,417,457,356
102,0.14,-0.98,-0.06,0.12,-3.05,-2.32,213,271,420,462,358
103,0.14,-0.99,-0.07,-0.37,-2.75,-2.26,214,268,417,464,359
104,0.12,-0.99,-0.06,-2.93,0.31,-5.07,215,269,419,458,356
105,0.12,-0.98,-0.01,-2.2,0.43,-1.16,215,270,423,467,356
106,0.1,-0.98,-0.03,-0.61,-1.34,-0.67,216,271,417,457,355
107,0.16,-0.99,-0.04,-0.85,-3.3,-4.27,215,276,416,460,353
108,0.15,-0.97,-0.07,-0.85,-2.5,-2.69,208,268,417,460,351
109,0.17,-0.98,-0.07,2.5,-3.6,-3.72,214,274,417,461,355
110,0.15,-0.98,-0.05,2.5,-5.0,-1.04,217,280,419,462,355
111,0.15,-0.98,-0.06,1.59,-2.99,-1.04,217,271,413,463,352
112,0.15,-0.98,-0.04,1.77,-3.11,-2.08,214,267,419,460,351
113,0.14,-0.98,-0.05,0.67,-2.99,-2.87,215,270,417,454,353
114,0.14,-0.98,-0.05,0.73,-2.56,-2.62,212,273,417,455,352
115,0.14,-0.99,-0.06,-0.18,-2.5,-2.81,210,274,415,456,355
116,0.14,-0.99,-0.06,-3.17,-4.64,-6.84,214,268,418,463,355
117,0.12,-1.0,-0.04,2.01,-3.78,-6.1,214,276,420,475,353
118,0.14,-0.98,-0.02,-0.31,-3.66,-2.26,217,272,417,461,358
119,0.15,-0.99,-0.05,1.1,-3.42,-0.61,220,274,417,465,350
120,0.11,-0.99,-0.0,4.82,-2.81,-2.75,212,275,418,460,358
121,0.14,-0.99,-0.03,1.34,-2.08,-3.05,210,272,413,463,357
122,0.16,-0.98,-0.04,2.87,-3.3,-1.46,215,277,416,465,358
123,0.13,-0.99,-0.04,-0.79,-1.89,-1.89,219,271,412,458,351
124,0.1,-0.99,0.0,3.66,-4.82,-0.49,216,274,415,463,356
125,0.28,-0.97,-0.04,-3.97,7.45,-4.03,217,272,417,458,355
126,0.17,-0.97,-0.04,-12.27,-9.22,-6.65,215,270,414,462,352
127,0.2,-1.03,-0.11,-4.88,-3.72,-5.07,214,271,416,461,353
128,0.14,-0.99,-0.03,-7.26,4.21,-5.98,215,270,417,464,354
129,0.17,-1.01,-0.07,-6.29,-4.58,-5.74,216,273,417,463,356
130,0.17,-0.98,-0.04,2.01,-2.75,-3.48,215,275,410,461,356
131,0.17,-0.99,-0.03,1.83,-2.56,-4.15,214,272,411,463,352
132,0.15,-0.99,-0.03,-0.43,-3.17,-1.77,216,273,416,457,355
133,0.15,-0.98,-0.04,-3.78,1.53,-0.85,215,280,427,465,353
134,0.16,-0.98,-0.03,-0.55,-1.46,-5.19,217,275,412,459,354
135,0.07,-0.99,0.0,-8.0,-0.24,-5.92,218,276,413,461,351
136,0.15,-0.98,-0.03,-6.23,-9.22,-4.46,221,270,414,460,354
137,0.16,-1.0,-0.05,0.79,-3.05,-2.38,210,271,412,463,354
138,0.18,-0.97,-0.02,1.4,-4.52,-2.56,223,272,410,461,351
139,0.14,-0.99,-0.02,2.38,-3.6,-2.87,215,277,410,462,357
140,0.15,-1.01,-0.05,-3.3,-11.78,-2.08,216,272,412,456,351
141,0.14,-1.03,-0.07,4.52,-14.47,2.32,221,273,412,471,356
142,0.3,-1.0,-0.08,-4.7,5.62,-15.32,215,271,416,465,355
143,0.13,-0.95,-0.04,-3.66,-8.42,-8.42,215,273,411,461,357
144,0.14,-0.99,-0.06,6.04,2.32,2.75,212,273,413,460,355
145,0.14,-0.98,-0.04,-2.38,-1.46,-3.11,217,274,415,460,352
146,0.23,-1.04,-0.1,-3.36,-3.23,-8.36,217,274,414,465,357
147,0.1,-0.97,-0.05,3.42,-2.75,4.33,221,272,415,459,357
148,0.13,-0.99,-0.11,-3.78,-3.3,-3.85,220,274,410,464,355
149,0.12,-0.97,-0.05,-9.03,-5.19,0.85,212,272,418,462,353
150,0.14,-0.98,-0.06,0.92,-3.36,-3.91,217,274,409,462,354
151,0.12,-0.99,-0.09,4.15,-1.46,-1.4,216,278,413,461,357
152,0.12,-1.0,-0.07,0.98,-4.27,-1.1,219,273,415,457,354
153,0.15,-0.98,-0.04,9.28,-4.09,-4.64,217,274,413,457,354
154,0.14,-0.97,-0.02,-2.01,-4.94,-3.85,217,273,414,459,355
155,0.11,-0.99,-0.07,-3.78,0.06,-3.11,216,273,414,456,354
156,0.14,-0.98,-0.04,0.49,-0.49,-3.05,216,274,408,454,353
157,0.15,-0.97,-0.01,0.85,-0.18,-1.71,215,276,413,462,356
158,0.15,-0.98,-0.02,-0.18,-1.1,-3.17,216,271,413,459,355
159,0.17,-0.97,-0.03,1.22,-2.44,-2.38,219,274,421,456,353
160,0.16,-0.98,-0.06,5.62,-1.59,-0.18,212,272,410,461,355
161,0.07,-1.0,-0.05,-0.92,-2.08,5.92,216,273,414,455,351
162,0.14,-1.01,-0.08,0.92,-2.69,-8.42,218,274,411,462,357
163,0.1,-0.95,0.01,-3.72,-2.56,-3.3,214,274,417,459,353
164,0.08,-0.98,-0.0,1.65,-1.89,-1.89,221,270,413,457,356
165,0.14,-0.98,-0.03,4.7,-2.32,-2.5,219,272,415,460,355
166,0.11,-0.97,-0.06,10.93,2.2,3.6,213,274,415,459,354
167,0.2,-0.99,-0.05,-5.13,-4.15,-5.43,216,274,413,455,354
168,0.14,-0.98,-0.06,2.26,-1.83,-2.26,217,276,413,456,354
169,0.14,-0.97,-0.03,4.76,-3.72,-1.53,220,270,412,458,355
170,0.2,-0.98,-0.07,1.1,-1.1,-1.28,218,277,412,457,353
171,0.16,-0.99,-0.07,-1.16,-1.1,-0.67,218,272,410,461,350
172,0.15,-0.99,-0.06,0.73,-2.81,-1.46,217,266,411,455,352
173,0.16,-1.0,-0.06,0.67,-2.87,-0.98,223,269,412,465,352
174,0.13,-0.99,-0.06,-0.92,-3.48,-0.55,217,275,410,460,354
175,0.09,-0.99,-0.05,0.79,-3.05,-2.99,221,268,407,459,354
176,0.12,-0.99,-0.04,-3.11,-1.71,-6.47,214,277,411,462,348
177,0.15,-1.0,-0.08,-0.49,-0.12,-4.46,216,271,411,463,354
178,0.15,-0.99,-0.08,2.93,-5.31,0.98,216,273,418,460,350
179,0.14,-0.98,-0.07,3.23,-4.88,-0.79,217,279,412,459,352
180,0.11,-0.98,-0.05,4.27,-4.27,-2.99,221,273,408,459,351
181,0.11,-0.98,-0.04,-0.37,-4.52,-3.42,220,270,411,458,346
182,0.15,-0.99,-0.05,-1.95,-3.72,-7.2,221,273,409,461,353
183,0.18,-0.98,-0.08,0.06,-2.32,-4.64,218,271,408,457,352
184,0.17,-0.98,-0.06,4.15,-4.33,3.23,219,273,410,457,355
185,0.11,-0.99,-0.04,2.26,-5.86,-0.43,217,266,409,459,355
186,0.11,-0.98,-0.03,-0.85,-2.5,-3.17,218,273,412,464,355
187,0.18,-0.98,-0.05,-1.65,0.49,-5.62,223,272,411,459,353
188,0.18,-0.98,-0.06,0.12,-2.62,-3.05,210,278,406,454,353
189,0.15,-0.98,-0.04,1.89,-1.34,2.38,214,274,408,459,350
190,0.13,-0.99,-0.05,2.26,-2.75,1.95,221,270,411,461,351
191,0.1,-0.98,-0.02,0.06,-2.93,-1.59,218,274,411,461,356
192,0.11,-0.99,-0.03,-2.75,-2.01,-7.2,219,264,412,459,354
193,0.16,-0.97,-0.03,-8.91,-1.34,-2.69,217,270,411,459,354
194,0.2,-1.05,-0.1,-15.14,0.18,6.23,220,274,409,457,353
195,-0.03,-0.98,-0.28,-27.22,-62.87,6.16,218,276,408,460,354
196,0.08,-1.0,-0.1,-2.14,-5.74,-5.13,221,276,412,455,357
197,0.16,-1.0,-0.17,-1.71,0.49,-3.17,213,273,408,466,355
198,0.16,-1.06,-0.24,0.18,-5.62,-12.02,220,278,411,462,357
199,0.12,-0.97,-0.11,1.83,0.37,-2.44,217,274,409,461,349
200,0.16,-0.97,0.04,4.52,3.11,13.92,220,276,409,460,356
201,0.12,-1.0,-0.11,-0.55,13.49,6.53,215,275,407,457,357
202,0.21,-0.98,-0.1,1.1,-4.58,-0.79,216,277,408,458,355
203,0.27,-0.95,-0.17,-18.25,-27.16,3.48,218,276,409,459,353
204,0.08,-0.96,-0.27,-6.1,-13.67,0.31,217,269,408,460,353
205,0.11,-0.95,-0.32,-2.38,0.92,-6.77,226,273,409,463,356
206,0.09,-0.98,-0.25,1.83,-2.87,-2.99,221,277,409,461,358
207,0.1,-0.97,-0.13,0.61,-10.01,-10.68,220,273,408,460,357
208,0.16,-0.96,-0.2,2.44,-7.45,-2.56,220,275,408,463,352
209,0.12,-0.97,-0.19,-1.65,-2.32,-2.08,219,274,413,464,356
210,0.15,-0.99,-0.2,-3.36,-4.39,-2.69,218,278,412,460,355
211,0.16,-0.97,-0.19,3.78,-3.48,-3.11,240,279,403,468,353
212,0.16,-0.97,-0.14,0.85,-3.42,-4.94,217,276,408,463,348
213,0.16,-0.97,-0.16,2.93,-2.62,-3.85,222,280,411,460,359
214,0.16,-0.96,-0.15,3.97,-3.23,0.37,215,274,410,465,358
215,0.11,-0.98,-0.17,1.16,-8.18,-0.18,219,276,409,463,356
216,0.11,-0.97,-0.12,-2.32,-1.95,-1.46,219,273,407,461,357
217,0.09,-0.98,-0.1,-0.73,-1.65,-0.18,216,273,408,462,355
218,0.09,-0.97,-0.14,7.45,-2.44,-3.66,221,275,407,455,355
219,0.09,-0.95,-0.16,4.46,3.66,-0.18,223,275,407,464,354
220,0.2,-0.95,-0.12,2.44,-7.63,-9.03,222,281,403,454,353
221,0.15,-0.95,-0.14,1.59,-2.32,0.92,225,276,407,460,356
222,0.17,-0.95,-0.14,2.62,-3.17,1.16,221,275,408,459,355
223,0.19,-0.97,-0.17,-0.67,-3.66,0.98,221,275,409,464,358
224,0.17,-0.98,-0.17,0.06,-2.81,-4.52,219,276,403,460,359
225,0.13,-0.97,-0.13,-0.31,-5.68,-4.09,220,273,405,459,354
226,0.15,-0.98,-0.16,3.36,-2.14,-3.72,219,275,403,457,356
227,0.17,-0.97,-0.13,3.72,-1.77,-2.87,219,276,405,460,354
228,0.15,-0.96,-0.13,-3.42,-2.01,-3.85,221,276,420,460,358
229,0.15,-0.97,-0.16,-0.67,-1.95,-3.17,218,272,408,461,355
230,0.16,-0.95,-0.15,5.55,-8.18,6.47,220,273,407,464,353
231,0.16,-0.95,-0.09,5.55,1.59,-3.78,216,275,407,461,355
232,0.23,-0.96,-0.16,5.31,-3.54,-9.22,221,273,408,463,358
233,0.19,-0.97,-0.18,1.95,0.0,-4.64,220,274,405,473,357
234,0.19,-1.0,-0.18,3.3,-1.59,11.84,219,279,406,458,358
235,0.03,-0.93,-0.1,8.85,0.06,1.34,220,272,403,460,358
236,0.23,-0.96,-0.15,-4.21,-2.81,-5.86,221,273,409,466,353
237,0.19,-0.96,-0.17,1.89,-3.48,-4.03,217,279,405,461,358
238,0.19,-0.96,-0.16,-1.59,-6.59,-5.0,221,272,406,463,355
239,0.19,-0.97,-0.15,2.62,-1.89,-2.62,220,273,406,466,355
240,0.25,-0.95,-0.15,0.85,-6.59,-6.23,219,278,406,470,350
241,0.23,-0.95,-0.14,1.22,-2.99,-0.18,215,277,408,463,360
242,0.22,-0.96,-0.14,0.31,-3.23,-1.46,221,270,406,460,356
243,0.22,-0.97,-0.14,1.16,-1.95,-0.79,217,269,405,460,356
244,0.22,-0.96,-0.13,0.79,-2.01,-1.4,221,276,409,455,356
245,0.22,-0.97,-0.13,3.97,-3.11,-2.14,230,272,405,464,355
246,0.21,-0.95,-0.12,-1.34,-2.69,-1.46,221,278,405,464,357
247,0.21,-0.96,-0.17,2.62,-2.32,-2.81,223,276,418,462,357
248,0.22,-0.97,-0.15,0.43,-3.42,-1.83,218,274,405,460,358
249,0.19,-0.95,-0.12,-0.31,-2.26,-1.16,215,277,406,457,355
250,0.23,-0.97,-0.14,2.2,-2.38,-0.49,221,269,406,456,358
251,0.2,-0.97,-0.16,-0.06,-1.65,-2.69,220,276,405,459,354
252,0.18,-0.96,-0.14,4.64,-2.32,-0.12,221,278,408,459,357
253,0.21,-0.98,-0.16,1.34,-4.88,-2.81,216,276,408,458,354
254,0.25,-0.97,-0.17,-0.49,-9.34,-2.32,221,276,404,462,357
255,0.17,-0.96,-0.12,6.16,-1.16,-1.95,222,276,405,462,357
256,0.2,-0.99,-0.17,-2.26,-0.85,-3.54,221,274,407,464,357
257,0.13,-0.98,-0.16,2.69,-1.28,-1.89,220,274,404,459,355
258,0.23,-1.0,-0.15,-9.7,-5.98,-8.48,223,275,408,460,357
259,0.16,-0.98,-0.14,-5.25,-3.48,-7.2,219,275,401,462,354
260,0.12,-0.97,-0.1,1.46,-0.73,-0.85,223,276,404,455,359
261,0.17,-0.98,-0.14,3.54,-0.55,-2.5,222,276,403,461,367
262,0.16,-0.98,-0.15,-1.89,-4.39,-4.94,221,275,405,459,357
263,0.13,-0.98,-0.12,2.26,-2.01,-3.78,218,277,403,461,355
264,0.12,-0.97,-0.11,-2.08,-0.49,-2.5,223,275,406,463,354
265,0.15,-0.99,-0.13,-0.12,-1.89,-3.36,221,272,405,463,356
266,0.15,-0.99,-0.14,0.85,-4.27,-2.38,219,273,415,461,355
267,0.13,-0.97,-0.12,-1.22,-5.37,-5.13,219,277,401,464,359
268,0.11,-0.97,-0.1,-0.31,-2.99,-3.42,222,268,405,460,356
269,0.13,-0.98,-0.13,-1.83,-2.93,-3.11,222,279,405,462,359
270,0.16,-0.98,-0.12,-0.73,-3.36,-3.85,221,275,405,457,358
271,0.15,-0.98,-0.11,2.5,-3.05,-2.87,220,276,405,456,352
272,0.17,-0.97,-0.11,5.07,-3.78,-2.14,220,279,405,458,355
273,0.16,-0.97,-0.08,4.33,-1.04,-0.73,220,274,405,464,358
274,0.15,-0.98,-0.1,-0.61,-2.81,-2.2,218,272,402,464,356
275,0.14,-0.97,-0.09,1.4,-1.46,-2.26,220,275,402,464,354
276,0.14,-0.98,-0.1,-1.34,-2.93,-2.14,221,272,400,459,357
277,0.15,-0.98,-0.09,1.59,-2.87,-1.34,217,273,403,457,356
278,0.13,-0.99,-0.1,2.44,-3.91,-1.34,228,272,401,461,359
279,0.16,-0.98,-0.08,-1.71,-6.65,-3.78,222,273,406,453,359
280,0.14,-0.98,-0.09,6.29,2.99,2.69,222,275,404,454,356
281,0.15,-1.0,-0.09,0.73,-1.59,-0.31,217,275,401,459,357
282,0.11,-0.97,-0.06,3.72,-3.85,-2.2,221,270,399,460,357
283,0.12,-0.99,-0.1,0.24,-2.5,-3.66,220,278,402,462,355
284,0.13,-1.0,-0.09,2.32,-2.99,-3.6,219,266,402,456,357
285,0.15,-1.01,-0.09,1.04,-2.5,-3.66,221,273,404,458,354
286,0.15,-1.0,-0.1,1.83,-3.48,-3.3,223,274,404,457,357
287,0.14,-0.98,-0.1,0.24,-2.69,-3.23,219,278,402,456,352
288,0.15,-0.98,-0.09,0.0,-2.99,-2.75,219,274,402,458,357
289,0.13,-0.98,-0.09,0.06,-2.87,-2.75,219,275,396,454,358
290,0.13,-0.98,-0.09,0.98,-3.3,-2.93,223,276,402,458,360
291,0.13,-0.98,-0.08,-0.06,-2.69,-3.85,233,278,401,453,354
292,0.13,-0.99,-0.08,0.37,-2.87,-4.46,228,277,398,456,353
293,0.14,-0.98,-0.08,1.16,-4.09,-3.66,218,276,404,460,358
294,0.16,-0.98,-0.1,0.43,-2.99,-3.05,219,274,404,456,359
295,0.16,-0.98,-0.09,-0.31,-2.75,-2.01,221,275,402,461,355
296,0.13,-0.99,-0.1,2.14,-1.28,-3.23,219,278,404,458,356
297,0.15,-0.99,-0.08,2.32,-3.17,-0.18,219,274,403,462,357
298,0.11,-0.97,-0.08,-0.24,-3.17,-1.4,222,277,407,454,358
299,0.12,-0.98,-0.07,1.16,-3.3,-0.79,218,278,398,456,354
300,0.12,-0.98,-0.07,0.92,-3.17,-2.2,224,274,398,457,359
301,0.13,-0.99,-0.07,0.24,-3.17,-3.85,212,274,404,457,360
302,0.12,-1.0,-0.06,0.92,-3.36,-2.62,231,271,400,456,357
303,0.12,-0.98,-0.06,0.73,-3.05,-3.36,221,275,402,459,357
304,0.13,-0.99,-0.07,-0.37,-2.62,-2.56,222,276,399,457,359
305,0.12,-0.98,-0.07,0.73,-2.99,-2.2,225,272,401,454,356
306,0.12,-0.99,-0.07,-0.73,-3.72,-2.69,216,276,398,453,357
307,0.11,-0.99,-0.07,-0.61,-3.3,-2.75,220,277,403,457,357
308,0.11,-0.99,-0.07,2.26,-2.2,-2.5,220,281,404,454,355
309,0.15,-0.99,-0.06,0.49,-3.3,-3.48,219,272,411,462,363
310,0.15,-0.99,-0.06,1.16,-5.37,-2.2,219,273,402,460,359
311,0.12,-0.98,-0.05,0.18,-2.5,-3.05,220,276,406,459,354
312,0.1,-0.99,-0.05,-0.24,-2.56,-2.62,218,277,401,452,357
313,0.12,-0.99,-0.05,0.43,-2.87,-2.08,219,275,400,460,353
314,0.12,-0.97,-0.05,-0.85,-2.93,-2.44,219,280,399,460,357
315,0.09,-0.97,-0.07,3.3,-1.89,-1.16,219,278,399,462,358
316,0.11,-0.99,-0.05,0.31,-2.69,-2.56,222,274,401,453,357
317,0.1,-0.99,-0.05,-0.24,-2.62,-3.36,258,272,400,457,357
318,0.1,-0.98,-0.04,-0.31,-2.44,-2.44,219,274,402,461,355
319,0.09,-0.98,-0.05,0.67,-2.69,-3.36,221,285,399,458,360
320,0.07,-0.99,-0.05,0.24,-2.87,-2.26,218,282,403,461,356
321,0.11,-0.99,-0.05,-0.18,-2.99,-2.56,221,276,403,463,358
322,0.12,-0.99,-0.06,-0.67,-4.03,-4.09,231,276,400,459,357
323,0.18,-1.0,-0.08,5.49,-3.23,-2.5,220,279,399,459,358
324,0.15,-0.99,-0.04,1.77,-2.75,-2.2,223,274,400,459,357
325,0.13,-0.99,-0.06,0.61,-2.87,-3.23,216,274,398,454,353
326,0.12,-0.98,-0.05,-0.37,-2.93,-2.44,220,275,392,459,356
327,0.11,-0.99,-0.05,0.49,-3.17,-2.26,224,278,401,461,357
328,0.12,-0.99,-0.05,1.59,-2.14,-1.95,219,278,399,458,357
329,0.1,-0.99,-0.04,1.59,-2.32,-1.53,220,278,401,462,358
330,0.12,-0.98,-0.05,-0.55,-3.3,-2.26,221,276,402,475,360
331,0.12,-0.99,-0.09,-0.18,-2.75,-1.22,224,275,400,458,359
332,0.12,-0.98,-0.05,2.56,-3.85,-3.48,218,272,403,457,352
333,0.1,-0.98,-0.05,-1.34,-3.6,0.73,220,276,399,457,358
334,0.11,-0.97,-0.07,8.97,-1.95,-7.39,219,271,398,461,358
335,0.09,-1.01,-0.06,1.1,-3.3,-3.48,257,280,405,462,355
336,0.1,-1.0,-0.05,-2.38,-4.33,-4.88,226,274,403,455,357
337,0.11,-1.0,-0.09,-0.73,-7.93,-2.99,230,278,403,459,353
338,0.16,-1.0,-0.12,-5.07,-9.09,-3.23,225,277,397,461,354
339,0.15,-0.96,-0.1,-5.37,-5.92,-7.93,220,277,404,461,359
340,0.16,-0.99,-0.16,-1.04,-6.65,-5.49,221,276,404,459,357
341,0.12,-0.98,-0.16,-2.01,-0.31,2.93,221,276,399,452,353
342,0.12,-1.0,-0.14,-0.31,-2.08,-2.01,224,277,405,459,357
343,0.06,-0.99,-0.12,-0.31,-5.8,-0.49,222,281,400,459,357
344,0.1,-0.99,-0.15,4.64,-7.39,-2.93,218,275,399,460,357
345,0.07,-0.98,-0.12,-1.46,-4.15,-8.85,222,270,394,461,358
346,0.1,-0.99,-0.12,-0.98,-3.78,-5.98,224,278,400,459,354
347,0.14,-0.99,-0.14,-2.32,-3.78,-2.14,223,268,400,455,358
348,0.07,-0.98,-0.07,2.08,-3.66,5.62,219,280,402,459,353
349,0.07,-1.01,-0.13,-1.83,-2.81,-3.78,223,278,402,459,357
350,0.1,-1.0,-0.11,1.34,-3.72,-3.48,220,275,399,458,357
351,0.09,-0.99,-0.07,-3.72,-2.62,-4.52,219,266,402,463,353
352,0.08,-0.98,-0.07,-1.46,-0.31,-4.03,225,276,399,462,358
353,0.06,-0.99,-0.08,1.34,-1.16,-0.98,220,275,399,462,354
354,0.09,-0.99,-0.09,-0.18,-2.69,-2.44,223,280,402,447,353
355,0.12,-0.99,-0.09,3.3,-1.34,-2.2,220,274,399,461,357
356,0.06,-1.0,-0.09,4.21,-2.08,-1.34,220,272,400,461,356
357,0.09,-0.99,-0.06,2.5,1.4,1.65,218,279,398,458,356
358,0.14,-0.98,-0.07,0.31,0.49,-0.92,219,274,401,458,356
359,0.1,-1.01,-0.14,10.93,-10.74,3.17,217,279,397,457,358
360,0.19,-1.0,-0.18,-1.89,10.44,-5.37,219,275,397,458,354
361,0.02,-0.98,-0.09,8.0,-5.13,0.61,223,275,398,459,357
362,0.04,-0.99,-0.11,2.56,0.49,4.27,218,275,399,459,355
363,0.05,-1.0,-0.1,1.04,-2.01,-2.99,220,276,402,457,354
364,0.06,-0.95,-0.03,-2.69,2.2,-10.07,221,276,402,460,355
365,0.07,-0.98,-0.06,2.08,-2.32,-4.09,232,276,398,456,347
366,0.07,-1.01,-0.08,0.73,-2.26,-2.75,223,273,401,462,354
367,0.06,-0.99,-0.08,2.01,-1.53,-3.78,221,277,401,458,350
368,0.07,-0.99,-0.09,-0.24,-1.22,-4.58,224,278,399,458,358
369,0.06,-0.99,-0.09,0.85,-2.69,-1.83,222,272,400,454,353
370,0.06,-0.99,-0.07,2.08,-2.32,-1.89,221,277,399,462,355
371,0.04,-1.0,-0.1,0.31,-0.85,-1.04,223,273,397,459,359
372,0.07,-0.99,-0.09,1.1,-3.23,-2.44,217,276,395,459,352
373,0.06,-0.99,-0.08,0.12,-2.2,-2.01,223,274,400,459,358
374,0.06,-0.99,-0.08,-1.1,-3.48,-1.95,224,274,398,454,354
375,0.04,-0.99,-0.11,-1.28,-6.35,-10.31,224,278,401,464,355
376,0.08,-0.98,-0.12,4.7,-1.53,-5.86,220,276,399,456,358
377,0.09,-0.98,-0.08,3.36,-1.22,-0.49,223,272,398,455,356
378,0.09,-0.98,-0.1,2.2,-4.76,-1.53,219,279,401,456,354
379,0.08,-0.99,-0.07,-1.16,-2.87,-3.72,219,268,401,463,358
380,0.07,-0.98,-0.09,-0.18,-3.91,-3.36,226,275,398,454,358
381,0.1,-0.99,-0.08,0.61,-2.81,-2.99,221,280,401,462,358
382,0.09,-0.99,-0.09,0.24,-2.75,-2.08,222,273,399,463,354
383,0.08,-0.99,-0.08,0.37,-3.3,-2.93,221,277,410,464,358
384,0.09,-0.99,-0.08,0.0,-3.23,-2.62,225,277,398,454,359
385,0.07,-0.98,-0.08,0.61,-2.2,-3.36,221,274,399,456,353
386,0.11,-0.99,-0.1,1.1,-2.87,-3.91,220,275,399,461,358
387,0.1,-0.99,-0.09,-0.06,-2.62,-1.28,221,274,398,457,358
388,0.07,-0.98,-0.07,0.92,-1.71,-1.95,220,275,398,459,353
389,0.09,-0.99,-0.08,2.44,-4.76,0.18,220,274,403,464,360
390,0.06,-0.99,-0.08,1.95,-2.26,-0.98,222,282,395,463,356
391,0.04,-0.97,-0.05,2.01,-4.46,-2.62,222,275,399,457,357
392,0.05,-0.98,-0.08,-0.55,-3.42,-3.66,221,274,402,458,354
393,0.07,-0.99,-0.1,1.46,-3.05,-2.44,220,277,402,460,356
394,0.05,-1.0,-0.01,2.44,-3.3,0.85,225,276,402,455,355
395,0.05,-0.98,-0.07,5.49,-5.37,-5.25,222,279,403,453,357
396,-0.0,-1.02,-0.06,2.32,-7.08,4.39,222,277,400,458,357
397,-0.06,-0.96,-0.02,-3.97,-8.73,-5.74,229,276,394,451,354
398,0.1,-0.99,-0.05,-5.37,0.55,-9.89,222,279,400,458,356
399,0.11,-0.98,-0.06,0.79,0.92,-4.39,220,271,399,461,356
400,0.14,-0.99,-0.09,3.05,-3.54,1.16,221,274,398,454,358
401,0.09,-0.98,-0.08,-1.04,-4.39,-0.85,224,275,401,462,356
402,0.07,-1.01,-0.08,-0.67,0.43,-5.8,223,277,399,456,357
403,0.1,-0.98,-0.05,0.73,-2.32,-1.71,221,274,400,459,358
404,0.1,-0.99,-0.05,-0.67,-2.87,-2.26,220,281,398,460,360
405,0.1,-0.99,-0.06,0.61,-2.14,-1.22,218,275,398,455,358
406,0.11,-0.98,-0.05,5.8,-2.87,-2.08,224,275,397,457,355
407,0.1,-0.99,-0.03,0.37,-3.6,-3.66,224,274,401,458,356
408,0.1,-1.0,-0.03,0.37,-3.78,-2.87,223,275,398,454,355
409,0.1,-0.99,-0.04,0.85,-3.3,-3.17,223,272,400,458,357
410,0.11,-0.99,-0.04,0.24,-2.32,-1.95,222,274,401,463,355
411,0.08,-0.99,-0.02,0.12,-3.11,-2.26,223,273,399,459,358
412,0.1,-0.99,-0.04,-0.61,-2.99,-2.26,221,274,400,460,356
413,0.09,-1.0,-0.03,3.36,-2.32,-2.26,219,276,402,460,356
414,0.1,-1.0,-0.03,1.16,-2.5,-2.62,218,274,396,457,356
415,0.1,-1.0,-0.03,0.0,-3.05,-2.69,218,276,399,453,357
416,0.1,-0.99,-0.02,-1.04,-4.27,-4.88,225,273,402,468,354
417,0.11,-0.99,-0.03,2.81,-0.85,-0.98,225,276,400,462,357
418,0.11,-0.98,0.01,2.93,-1.77,-2.26,223,277,399,462,358
419,0.1,-0.99,-0.02,2.81,-2.26,-1.77,222,274,399,459,359
420,0.1,-1.0,-0.04,-2.08,-3.3,-5.31,222,277,400,459,357
421,0.11,-0.99,-0.01,1.53,-2.01,-4.39,228,278,399,453,356
422,0.08,-1.0,-0.03,-0.06,-2.93,-2.08,222,275,399,460,363
423,0.09,-0.99,-0.08,2.38,-5.37,-4.39,222,273,398,454,358
424,0.08,-0.99,-0.07,-4.88,1.59,-2.75,223,274,395,458,356
425,0.07,-0.99,-0.1,-3.54,-2.56,-0.67,221,275,399,459,356
426,0.1,-0.98,-0.05,1.04,-3.91,-2.38,221,271,402,468,360
427,0.1,-1.0,-0.08,1.46,-3.11,1.71,225,274,400,462,353
428,0.11,-1.0,-0.09,0.73,-4.82,-2.44,223,278,401,455,360
429,0.09,-0.98,-0.04,1.83,-3.91,-4.52,215,273,399,455,357
430,0.11,-0.99,-0.06,-0.85,-3.42,-2.62,223,275,397,454,356
431,0.12,-0.99,-0.05,-0.49,-3.23,-3.48,217,277,398,461,356
432,0.11,-0.99,-0.04,3.78,-3.3,-2.62,220,277,401,459,356
433,0.08,-0.99,-0.04,0.31,-0.98,0.18,222,277,401,456,355
434,0.11,-1.0,-0.07,-3.3,-2.26,-2.32,220,277,397,455,358
435,0.1,-0.99,-0.06,2.32,-2.99,-0.85,221,277,396,457,353
436,0.09,-0.99,-0.06,-1.04,-2.62,-2.75,228,275,399,457,353
437,0.12,-0.99,-0.05,0.24,-1.04,-2.93,222,274,395,456,355
438,0.11,-0.99,-0.06,2.87,-3.11,-0.73,219,272,397,460,357
439,0.1,-0.99,-0.03,1.59,0.55,0.73,223,270,392,451,355
440,0.09,-1.02,-0.09,-5.62,-4.09,-6.1,220,274,397,455,346
441,0.08,-0.99,-0.03,10.01,-4.64,-0.37,225,274,399,459,354
442,0.09,-0.99,-0.02,3.36,-3.48,-4.76,217,279,394,460,359
443,0.11,-0.99,-0.05,0.0,-3.48,-4.03,224,271,397,457,357
444,0.1,-0.99,-0.02,0.85,-2.14,-3.42,219,276,391,451,352
445,0.07,-0.97,0.03,11.23,-9.58,-0.12,221,275,397,460,360
446,0.12,-1.01,-0.06,-5.86,0.31,-0.55,223,273,395,458,358
447,0.11,-1.0,-0.04,2.99,-7.93,-6.1,224,275,400,458,356
448,0.13,-0.99,-0.01,2.93,-2.56,-2.56,222,277,396,460,357
449,0.11,-0.99,-0.04,-0.37,-3.66,-5.37,217,275,392,458,356
450,0.11,-0.98,-0.02,-2.08,-3.42,-3.78,220,274,399,457,356
451,0.13,-0.99,-0.06,0.61,-5.0,-6.35,221,274,392,459,355
452,0.12,-0.99,-0.06,2.2,-4.52,-3.48,222,274,397,455,354
453,0.11,-0.98,-0.04,0.49,-2.26,-2.38,221,276,393,462,357
454,0.06,-0.82,-0.18,2.81,-2.08,-1.71,220,277,399,458,357
455,0.14,-1.02,-0.03,1.53,-2.62,-1.89,220,282,397,452,357
456,0.13,-1.0,-0.01,0.73,-2.08,0.55,225,276,397,459,353
457,0.11,-0.99,-0.03,0.31,-1.83,-1.28,222,275,392,454,356
458,0.14,-0.99,-0.03,-0.18,-2.87,-4.46,221,278,395,459,358
459,0.12,-1.0,-0.03,1.22,-3.66,-0.12,221,280,397,456,354
460,0.06,-0.99,0.01,2.56,-2.38,-0.98,221,277,397,452,357
461,0.06,-0.99,0.01,-0.12,-2.87,-3.48,217,279,397,458,354
462,0.09,-0.99,-0.01,-0.43,-1.77,-3.78,224,275,396,462,358
463,0.11,-1.0,-0.01,0.85,-2.62,-1.04,221,277,398,456,357
464,0.09,-1.0,-0.01,0.73,-1.77,-1.53,221,278,396,458,359
465,0.07,-1.0,-0.01,0.12,-2.26,-2.87,224,275,397,461,359
466,0.09,-0.99,-0.01,0.0,-2.99,-3.3,221,276,398,454,356
467,0.1,-1.0,-0.0,0.43,-2.44,-2.14,222,275,396,457,356
468,0.12,-1.0,0.0,5.55,-1.53,-0.79,222,273,397,458,356
469,0.1,-1.0,-0.01,-2.56,-4.7,-4.03,221,276,398,458,351
470,0.14,-0.96,0.04,-2.69,-0.61,-6.1,222,274,394,454,358
471,0.11,-0.98,-0.01,-0.85,-3.91,-12.51,224,280,397,458,358
472,0.19,-0.99,-0.09,1.83,-5.31,-2.32,224,275,393,458,358
473,0.08,-0.98,-0.03,3.05,-1.53,-0.85,222,277,398,458,360
474,0.14,-0.98,-0.03,1.71,-6.04,-7.63,231,275,396,452,358
475,0.13,-0.98,-0.03,-0.37,-2.08,-5.13,227,280,398,458,356
476,0.21,-0.97,-0.08,-6.71,-5.13,-10.8,224,274,398,449,356
477,0.12,-0.97,-0.09,-0.49,-9.22,-5.8,221,276,396,454,356
478,0.19,-0.98,-0.09,-1.95,-4.15,-1.83,222,273,396,458,357
479,0.15,-0.98,-0.07,-2.81,-3.23,-6.1,224,277,396,457,360
480,0.14,-0.97,-0.07,4.21,-0.43,-2.81,221,277,393,462,353
481,0.17,-0.97,-0.07,0.0,-3.42,-0.24,224,275,400,456,357
482,0.17,-0.96,-0.07,-0.49,-2.87,-2.99,221,276,398,461,358
483,0.19,-0.98,-0.11,-1.04,-2.81,-2.87,220,277,395,457,355
484,0.2,-0.98,-0.09,0.92,-2.26,-2.44,220,275,399,457,359
485,0.19,-0.98,-0.09,0.98,-2.99,-2.93,221,277,398,458,358
486,0.22,-0.97,-0.06,-7.26,-9.09,-7.51,223,271,396,458,357
487,0.13,-0.93,-0.08,3.3,-1.22,-3.6,222,281,398,464,357
488,0.35,-1.07,-0.21,-2.62,-24.72,-5.8,222,276,394,453,357
489,0.19,-0.98,-0.08,1.83,-3.17,-5.68,222,278,397,458,357
490,0.18,-0.99,-0.09,0.67,0.18,-2.32,221,273,394,448,357
491,0.16,-0.98,-0.1,-0.43,-4.27,-1.1,219,273,398,457,355
492,0.17,-1.0,-0.12,0.31,-2.62,-3.17,223,274,394,458,357
493,0.17,-0.98,-0.1,2.62,-3.17,-2.44,224,276,397,457,356
494,0.15,-0.97,-0.07,1.71,-3.54,-1.53,221,277,397,459,356
495,0.14,-0.99,-0.09,-0.49,-1.89,-2.62,219,274,394,457,360
496,0.15,-0.97,-0.09,0.79,-1.83,-2.08,223,277,396,461,360
497,0.15,-0.99,-0.08,2.14,-2.81,-1.65,221,278,397,462,356
498,0.14,-0.98,-0.06,-0.92,-1.53,0.43,225,276,395,457,358
499,0.14,-0.99,-0.08,-0.55,-2.08,-3.05,220,278,396,459,357
500,0.12,-0.98,-0.06,0.12,-1.46,-1.77,223,277,401,457,358
501,0.13,-0.99,-0.08,1.65,-2.5,-2.99,221,276,395,459,355
502,0.11,-0.97,-0.03,2.08,3.05,-0.79,223,279,397,462,354
503,0.13,-0.99,-0.07,0.37,-3.48,-0.85,223,276,397,451,358
504,0.13,-1.0,-0.05,1.34,-3.11,-2.69,225,284,401,461,358
505,0.12,-0.99,-0.05,-0.06,-2.32,0.92,224,273,397,457,358
506,0.07,-0.99,-0.04,2.44,-2.32,0.67,224,267,390,458,361
507,0.06,-0.99,-0.04,-0.79,-2.69,-4.15,225,275,394,461,358
508,0.12,-0.99,-0.04,1.65,-2.81,-2.01,211,262,446,456,353
509,0.12,-0.99,-0.03,1.4,-2.81,-2.69,206,265,446,452,353
510,0.13,-0.99,-0.03,0.85,-3.3,-3.54,205,267,444,457,348
511,0.12,-0.99,-0.03,0.73,-2.93,-2.93,205,267,444,456,348
512,0.11,-0.99,-0.04,0.24,-2.87,-2.26,213,269,442,456,352
513,0.12,-0.99,-0.05,-1.22,-2.01,-3.11,208,264,444,455,353
514,0.12,-0.99,-0.05,1.59,-3.05,-2.56,208,275,440,458,351
515,0.12,-0.99,-0.04,0.37,-1.71,-1.77,209,267,444,455,350
516,0.12,-0.99,-0.04,1.04,-2.81,-1.83,211,266,442,452,350
517,0.13,-0.99,-0.04,0.49,-2.69,-2.75,211,268,442,460,350
518,0.12,-0.98,-0.02,-0.31,-1.28,-0.18,208,263,442,460,348
519,0.11,-1.0,-0.07,-1.65,1.46,1.28,212,271,441,451,351
520,0.1,-0.99,-0.05,1.71,-4.94,-4.76,211,268,443,462,349
521,0.11,-0.99,-0.04,-0.61,-3.48,-4.09,209,269,442,452,353
522,0.11,-0.99,-0.04,1.4,-2.56,-3.11,208,263,438,461,352
523,0.11,-0.99,-0.04,0.18,-3.48,-2.08,207,271,439,456,353
524,0.1,-0.99,-0.04,1.22,-2.93,-2.01,208,272,436,457,353
525,0.1,-0.99,-0.05,0.18,-2.5,-3.05,211,271,433,457,351
526,0.11,-0.99,-0.05,-0.37,-1.77,-4.27,207,272,439,456,353
527,0.12,-0.99,-0.05,1.16,-2.32,-2.08,208,269,439,451,353
528,0.12,-0.99,-0.03,-0.06,-2.14,-0.55,210,268,427,449,348
529,0.1,-0.99,-0.05,0.12,-3.17,-0.92,208,265,433,462,350
530,0.08,-1.0,-0.07,-3.78,-0.79,-0.92,210,271,430,460,351
531,0.08,-1.0,-0.07,-0.55,-3.17,-2.62,206,270,431,462,350
532,0.06,-0.99,-0.04,-0.18,-3.85,-2.62,208,272,434,461,350
533,0.06,-0.99,-0.02,-3.66,-3.85,0.12,209,269,436,457,355
534,0.12,-0.97,0.0,5.07,-9.34,-1.1,207,266,433,461,355
535,0.04,-0.99,-0.04,-0.98,-1.71,-1.59,218,268,435,458,356
536,0.02,-0.98,-0.0,-2.38,-6.29,-3.17,213,270,435,456,358
537,0.05,-0.98,-0.01,2.99,-2.5,-0.85,204,273,436,460,356
538,0.03,-1.01,-0.04,-1.16,1.89,-2.44,209,268,435,458,351
539,0.04,-1.01,-0.06,-0.49,-4.27,-4.33,211,261,428,455,359
540,0.05,-1.0,-0.01,5.0,-6.9,-3.66,210,265,429,462,355
541,0.05,-0.98,-0.0,-3.91,-9.64,-7.57,209,264,425,457,358
542,0.05,-0.98,0.01,1.71,0.98,3.17,210,276,431,456,353
543,0.01,-0.99,-0.0,-6.9,-4.27,-0.31,213,276,437,457,354
544,0.07,-0.98,0.02,-0.43,-1.95,-3.42,204,267,430,458,356
545,0.08,-1.0,-0.04,0.67,-2.62,-5.19,211,269,430,460,353
546,0.06,-1.01,-0.04,-0.61,1.95,1.04,210,265,428,458,356
547,0.05,-0.99,0.01,-0.18,-4.39,-5.55,211,270,427,455,357
548,0.07,-1.0,-0.01,0.43,-2.99,-3.17,208,274,432,462,353
549,0.06,-1.0,-0.03,0.67,-2.99,-4.03,211,270,430,458,356
550,0.06,-1.0,-0.01,1.89,-2.93,-0.06,212,270,430,462,356
551,0.05,-1.0,0.0,2.87,-2.26,-1.4,209,270,429,456,357
552,0.12,-1.02,-0.08,-1.83,-12.21,-1.16,210,272,426,461,356
553,0.05,-0.99,-0.01,2.08,-3.48,-1.71,207,267,427,453,356
554,0.05,-0.99,0.02,-1.28,-2.93,-1.89,210,267,430,458,355
555,0.07,-1.01,-0.02,3.48,-2.62,-0.31,209,269,425,453,353
556,0.06,-1.0,0.0,-1.77,-4.88,-6.96,218,273,427,464,356
557,0.07,-0.99,-0.03,-1.28,-4.09,-6.1,209,269,429,458,351
558,0.06,-1.0,-0.02,1.28,-2.38,-2.2,214,263,430,457,356
559,0.09,-1.0,-0.03,4.52,2.81,3.36,205,271,426,460,353
560,0.07,-0.98,0.02,-1.1,-5.31,-1.77,211,262,428,463,358
561,0.08,-0.99,-0.01,-1.22,-0.12,-0.49,208,271,426,462,353
562,0.06,-0.99,-0.04,-1.04,-5.13,0.06,213,269,426,461,356
563,0.03,-0.99,-0.02,1.34,-3.17,-2.93,212,269,426,453,350
564,0.01,-0.99,-0.0,-0.49,-0.43,-2.44,211,267,424,458,356
565,0.04,-1.0,-0.02,-0.31,-3.11,-5.31,213,268,424,458,354
566,0.06,-1.0,-0.02,0.06,-4.82,-3.23,214,270,423,462,354
567,0.06,-0.83,-0.06,-0.18,1.53,-2.75,213,260,425,454,358
568,0.14,-0.98,-0.02,-1.77,-1.83,-7.81,211,270,425,456,358
569,0.12,-0.99,-0.06,0.24,-2.14,-2.2,212,268,425,459,354
570,0.13,-0.98,-0.07,-3.48,-0.73,-1.83,212,269,425,461,355
571,0.08,-0.97,-0.06,2.32,1.1,0.31,210,270,427,460,350
572,0.06,-1.0,0.02,7.02,-8.42,-2.56,206,269,427,463,351
573,0.08,-0.96,-0.01,0.61,4.88,-3.54,212,284,422,456,355
574,0.08,-0.98,-0.08,1.16,-6.41,-4.46,208,271,425,456,354
575,0.13,-0.99,-0.03,-0.18,-3.91,-7.87,212,267,418,460,354
576,0.08,-1.0,-0.02,-0.18,-2.93,-2.75,212,273,426,458,355
577,0.1,-1.0,-0.0,1.16,-2.08,0.61,214,265,424,461,356
578,0.07,-0.98,-0.02,1.28,-2.99,-0.43,215,268,423,459,352
579,0.09,-0.99,0.01,-0.37,-5.86,-6.04,216,271,423,457,353
580,0.07,-0.99,0.01,-0.73,-0.61,-2.69,216,275,421,459,354
581,0.14,-1.0,-0.03,0.24,-4.94,-2.44,217,268,420,459,356
582,0.1,-0.99,-0.01,0.18,-0.49,2.38,214,270,430,463,353
583,0.12,-0.98,0.01,1.89,-0.79,-1.46,208,264,422,465,357
584,0.06,-0.98,-0.03,-1.83,-2.26,-2.08,206,267,422,459,357
585,0.09,-0.99,-0.01,-0.24,-4.33,-3.23,215,273,424,455,356
586,0.04,-0.97,-0.0,4.88,-3.66,2.5,207,273,424,456,357
587,0.13,-1.04,-0.13,-10.56,-3.3,-9.58,215,265,423,464,354
588,0.16,-0.98,0.02,-1.34,-6.41,-2.26,213,269,423,458,356
589,0.15,-0.99,-0.01,-1.1,-4.46,6.41,213,272,423,463,357
590,0.06,-1.0,-0.01,0.92,-7.51,8.54,215,271,421,459,355
591,-0.02,-1.0,0.01,5.86,-4.33,-0.49,213,275,424,456,364
592,0.04,-1.0,0.03,-5.8,-4.7,-7.14,213,269,424,455,351
593,0.06,-1.0,-0.01,-7.87,4.94,-17.15,209,272,422,458,355
594,0.13,-0.96,-0.07,-12.51,-1.1,-18.19,214,273,420,449,357
595,0.08,-0.99,-0.02,-2.44,-1.4,-5.86,211,270,420,458,353
596,0.17,-0.99,-0.06,-0.18,-4.58,-3.48,213,272,425,458,358
597,0.12,-0.98,-0.03,-2.14,-6.9,-5.62,212,270,423,462,357
598,0.16,-1.0,-0.08,1.71,-0.12,-1.28,212,273,422,454,356
599,0.13,-1.02,-0.05,1.65,-1.83,-3.17,214,272,419,457,353
600,0.07,-1.0,-0.01,3.72,-4.7,-3.3,214,267,422,460,354
601,0.13,-1.0,-0.04,2.01,0.06,-0.85,214,270,418,454,351
602,0.11,-1.0,-0.01,0.24,-3.11,-1.71,217,272,422,458,357
603,0.13,-0.99,-0.04,-2.32,-1.83,-4.39,214,272,420,459,357
604,0.11,-0.98,-0.03,-5.86,-10.68,-4.52,217,269,422,455,356
605,0.1,-0.95,-0.01,6.16,-0.12,-3.23,222,270,417,463,357
606,0.12,-0.98,-0.07,5.98,-0.55,-0.06,216,273,418,456,356
607,0.14,-0.97,-0.05,2.44,-0.43,-2.14,213,272,420,463,359
608,0.16,-0.98,-0.07,1.83,-2.56,-1.77,246,272,422,460,356
609,0.13,-0.99,-0.07,0.43,-3.3,-3.11,211,270,417,457,356
610,0.14,-0.98,-0.06,0.12,-3.05,-2.32,213,271,420,462,358
611,0.14,-0.99,-0.07,-0.37,-2.75,-2.26,214,268,417,464,359
612,0.12,-0.99,-0.06,-2.93,0.31,-5.07,215,269,419,458,356
613,0.12,-0.98,-0.01,-2.2,0.43,-1.16,215,270,423,467,356
614,0.1,-0.98,-0.03,-0.61,-1.34,-0.67,216,271,417,457,355
615,0.16,-0.99,-0.04,-0.85,-3.3,-4.27,215,276,416,460,353
616,0.15,-0.97,-0.07,-0.85,-2.5,-2.69,208,268,417,460,351
617,0.17,-0.98,-0.07,2.5,-3.6,-3.72,214,274,417,461,355
618,0.15,-0.98,-0.05,2.5,-5.0,-1.04,217,280,419,462,355
619,0.15,-0.98,-0.06,1.59,-2.99,-1.04,217,271,413,463,352
620,0.15,-0.98,-0.04,1.77,-3.11,-2.08,214,267,419,460,351
621,0.14,-0.98,-0.05,0.67,-2.99,-2.87,215,270,417,454,353
622,0.14,-0.98,-0.05,0.73,-2.56,-2.62,212,273,417,455,352
623,0.14,-0.99,-0.06,-0.18,-2.5,-2.81,210,274,415,456,355
624,0.14,-0.99,-0.06,-3.17,-4.64,-6.84,214,268,418,463,355
625,0.12,-1.0,-0.04,2.01,-3.78,-6.1,214,276,420,475,353
626,0.14,-0.98,-0.02,-0.31,-3.66,-2.26,217,272,417,461,358
627,0.15,-0.99,-0.05,1.1,-3.42,-0.61,220,274,417,465,350
628,0.11,-0.99,-0.0,4.82,-2.81,-2.75,212,275,418,460,358
629,0.14,-0.99,-0.03,1.34,-2.08,-3.05,210,272,413,463,357
630,0.16,-0.98,-0.04,2.87,-3.3,-1.46,215,277,416,465,358
631,0.13,-0.99,-0.04,-0.79,-1.89,-1.89,219,271,412,458,351
632,0.1,-0.99,0.0,3.66,-4.82,-0.49,216,274,415,463,356
633,0.28,-0.97,-0.04,-3.97,7.45,-4.03,217,272,417,458,355
634,0.17,-0.97,-0.04,-12.27,-9.22,-6.65,215,270,414,462,352
635,0.2,-1.03,-0.11,-4.88,-3.72,-5.07,214,271,416,461,353
636,0.14,-0.99,-0.03,-7.26,4.21,-5.98,215,270,417,464,354
637,0.17,-1.01,-0.07,-6.29,-4.58,-5.74,216,273,417,463,356
638,0.17,-0.98,-0.04,2.01,-2.75,-3.48,215,275,410,461,356
639,0.17,-0.99,-0.03,1.83,-2.56,-4.15,214,272,411,463,352
640,0.15,-0.99,-0.03,-0.43,-3.17,-1.77,216,273,416,457,355
641,0.15,-0.98,-0.04,-3.78,1.53,-0.85,215,280,427,465,353
642,0.16,-0.98,-0.03,-0.55,-1.46,-5.19,217,275,412,459,354
643,0.07,-0.99,0.0,-8.0,-0.24,-5.92,218,276,413,461,351
644,0.15,-0.98,-0.03,-6.23,-9.22,-4.46,221,270,414,460,354
645,0.16,-1.0,-0.05,0.79,-3.05,-2.38,210,271,412,463,354
646,0.18,-0.97,-0.02,1.4,-4.52,-2.56,223,272,410,461,351
647,0.14,-0.99,-0.02,2.38,-3.6,-2.87,215,277,410,462,357
648,0.15,-1.01,-0.05,-3.3,-11.78,-2.08,216,272,412,456,351
649,0.14,-1.03,-0.07,4.52,-14.47,2.32,221,273,412,471,356
650,0.3,-1.0,-0.08,-4.7,5.62,-15.32,215,271,416,465,355
651,0.13,-0.95,-0.04,-3.66,-8.42,-8.42,215,273,411,461,357
652,0.14,-0.99,-0.06,6.04,2.32,2.75,212,273,413,460,355
653,0.14,-0.98,-0.04,-2.38,-1.46,-3.11,217,274,415,460,352
654,0.23,-1.04,-0.1,-3.36,-3.23,-8.36,217,274,414,465,357
655,0.1,-0.97,-0.05,3.42,-2.75,4.33,221,272,415,459,357
656,0.13,-0.99,-0.11,-3.78,-3.3,-3.85,220,274,410,464,355
657,0.12,-0.97,-0.05,-9.03,-5.19,0.85,212,272,418,462,353
658,0.14,-0.98,-0.06,0.92,-3.36,-3.91,217,274,409,462,354
659,0.12,-0.99,-0.09,4.15,-1.46,-1.4,216,278,413,461,357
660,0.12,-1.0,-0.07,0.98,-4.27,-1.1,219,273,415,457,354
661,0.15,-0.98,-0.04,9.28,-4.09,-4.64,217,274,413,457,354
662,0.14,-0.97,-0.02,-2.01,-4.94,-3.85,217,273,414,459,355
663,0.11,-0.99,-0.07,-3.78,0.06,-3.11,216,273,414,456,354
664,0.14,-0.98,-0.04,0.49,-0.49,-3.05,216,274,408,454,353
665,0.15,-0.97,-0.01,0.85,-0.18,-1.71,215,276,413,462,356
666,0.15,-0.98,-0.02,-0.18,-1.1,-3.17,216,271,413,459,355
667,0.17,-0.97,-0.03,1.22,-2.44,-2.38,219,274,421,456,353
668,0.16,-0.98,-0.06,5.62,-1.59,-0.18,212,272,410,461,355
669,0.07,-1.0,-0.05,-0.92,-2.08,5.92,216,273,414,455,351
670,0.14,-1.01,-0.08,0.92,-2.69,-8.42,218,274,411,462,357
671,0.1,-0.95,0.01,-3.72,-2.56,-3.3,214,274,417,459,353
672,0.08,-0.98,-0.0,1.65,-1.89,-1.89,221,270,413,457,356
673,0.14,-0.98,-0.03,4.7,-2.32,-2.5,219,272,415,460,355
674,0.11,-0.97,-0.06,10.93,2.2,3.6,213,274,415,459,354
675,0.2,-0.99,-0.05,-5.13,-4.15,-5.43,216,274,413,455,354
676,0.14,-0.98,-0.06,2.26,-1.83,-2.26,217,276,413,456,354
677,0.14,-0.97,-0.03,4.76,-3.72,-1.53,220,270,412,458,355
678,0.2,-0.98,-0.07,1.1,-1.1,-1.28,218,277,412,457,353
679,0.16,-0.99,-0.07,-1.16,-1.1,-0.67,218,272,410,461,350
680,0.15,-0.99,-0.06,0.73,-2.81,-1.46,217,266,411,455,352
681,0.16,-1.0,-0.06,0.67,-2.87,-0.98,223,269,412,465,352
682,0.13,-0.99,-0.06,-0.92,-3.48,-0.55,217,275,410,460,354
683,0.09,-0.99,-0.05,0.79,-3.05,-2.99,221,268,407,459,354
684,0.12,-0.99,-0.04,-3.11,-1.71,-6.47,214,277,411,462,348
685,0.15,-1.0,-0.08,-0.49,-0.12,-4.46,216,271,411,463,354
686,0.15,-0.99,-0.08,2.93,-5.31,0.98,216,273,418,460,350
687,0.14,-0.98,-0.07,3.23,-4.88,-0.79,217,279,412,459,352
688,0.11,-0.98,-0.05,4.27,-4.27,-2.99,221,273,408,459,351
689,0.11,-0.98,-0.04,-0.37,-4.52,-3.42,220,270,411,458,346
690,0.15,-0.99,-0.05,-1.95,-3.72,-7.2,221,273,409,461,353
691,0.18,-0.98,-0.08,0.06,-2.32,-4.64,218,271,408,457,352
692,0.17,-0.98,-0.06,4.15,-4.33,3.23,219,273,410,457,355
693,0.11,-0.99,-0.04,2.26,-5.86,-0.43,217,266,409,459,355
694,0.11,-0.98,-0.03,-0.85,-2.5,-3.17,218,273,412,464,355
695,0.18,-0.98,-0.05,-1.65,0.49,-5.62,223,272,411,459,353
696,0.18,-0.98,-0.06,0.12,-2.62,-3.05,210,278,406,454,353
697,0.15,-0.98,-0.04,1.89,-1.34,2.38,214,274,408,459,350
698,0.13,-0.99,-0.05,2.26,-2.75,1.95,221,270,411,461,351
699,0.1,-0.98,-0.02,0.06,-2.93,-1.59,218,274,411,461,356
700,0.11,-0.99,-0.03,-2.75,-2.01,-7.2,219,264,412,459,354
701,0.16,-0.97,-0.03,-8.91,-1.34,-2.69,217,270,411,459,354
702,0.2,-1.05,-0.1,-15.14,0.18,6.23,220,274,409,457,353
703,-0.03,-0.98,-0.28,-27.22,-62.87,6.16,218,276,408,460,354
704,0.08,-1.0,-0.1,-2.14,-5.74,-5.13,221,276,412,455,357
705,0.16,-1.0,-0.17,-1.71,0.49,-3.17,213,273,408,466,355
706,0.16,-1.06,-0.24,0.18,-5.62,-12.02,220,278,411,462,357
707,0.12,-0.97,-0.11,1.83,0.37,-2.44,217,274,409,461,349
708,0.16,-0.97,0.04,4.52,3.11,13.92,220,276,409,460,356
709,0.12,-1.0,-0.11,-0.55,13.49,6.53,215,275,407,457,357
710,0.21,-0.98,-0.1,1.1,-4.58,-0.79,216,277,408,458,355
711,0.27,-0.95,-0.17,-18.25,-27.16,3.48,218,276,409,459,353
712,0.08,-0.96,-0.27,-6.1,-13.67,0.31,217,269,408,460,353
713,0.11,-0.95,-0.32,-2.38,0.92,-6.77,226,273,409,463,356
714,0.09,-0.98,-0.25,1.83,-2.87,-2.99,221,277,409,461,358
715,0.1,-0.97,-0.13,0.61,-10.01,-10.68,220,273,408,460,357
716,0.16,-0.96,-0.2,2.44,-7.45,-2.56,220,275,408,463,352
717,0.12,-0.97,-0.19,-1.65,-2.32,-2.08,219,274,413,464,356
718,0.15,-0.99,-0.2,-3.36,-4.39,-2.69,218,278,412,460,355
719,0.16,-0.97,-0.19,3.78,-3.48,-3.11,240,279,403,468,353
720,0.16,-0.97,-0.14,0.85,-3.42,-4.94,217,276,408,463,348
721,0.16,-0.97,-0.16,2.93,-2.62,-3.85,222,280,411,460,359
722,0.16,-0.96,-0.15,3.97,-3.23,0.37,215,274,410,465,358
723,0.11,-0.98,-0.17,1.16,-8.18,-0.18,219,276,409,463,356
724,0.11,-0.97,-0.12,-2.32,-1.95,-1.46,219,273,407,461,357
725,0.09,-0.98,-0.1,-0.73,-1.65,-0.18,216,273,408,462,355
726,0.09,-0.97,-0.14,7.45,-2.44,-3.66,221,275,407,455,355
727,0.09,-0.95,-0.16,4.46,3.66,-0.18,223,275,407,464,354
728,0.2,-0.95,-0.12,2.44,-7.63,-9.03,222,281,403,454,353
729,0.15,-0.95,-0.14,1.59,-2.32,0.92,225,276,407,460,356
730,0.17,-0.95,-0.14,2.62,-3.17,1.16,221,275,408,459,355
731,0.19,-0.97,-0.17,-0.67,-3.66,0.98,221,275,409,464,358
732,0.17,-0.98,-0.17,0.06,-2.81,-4.52,219,276,403,460,359
733,0.13,-0.97,-0.13,-0.31,-5.68,-4.09,220,273,405,459,354
734,0.15,-0.98,-0.16,3.36,-2.14,-3.72,219,275,403,457,356
735,0.17,-0.97,-0.13,3.72,-1.77,-2.87,219,276,405,460,354
736,0.15,-0.96,-0.13,-3.42,-2.01,-3.85,221,276,420,460,358
737,0.15,-0.97,-0.16,-0.67,-1.95,-3.17,218,272,408,461,355
738,0.16,-0.95,-0.15,5.55,-8.18,6.47,220,273,407,464,353
739,0.16,-0.95,-0.09,5.55,1.59,-3.78,216,275,407,461,355
740,0.23,-0.96,-0.16,5.31,-3.54,-9.22,221,273,408,463,358
741,0.19,-0.97,-0.18,1.95,0.0,-4.64,220,274,405,473,357
742,0.19,-1.0,-0.18,3.3,-1.59,11.84,219,279,406,458,358
743,0.03,-0.93,-0.1,8.85,0.06,1.34,220,272,403,460,358
744,0.23,-0.96,-0.15,-4.21,-2.81,-5.86,221,273,409,466,353
745,0.19,-0.96,-0.17,1.89,-3.48,-4.03,217,279,405,461,358
746,0.19,-0.96,-0.16,-1.59,-6.59,-5.0,221,272,406,463,355
747,0.19,-0.97,-0.15,2.62,-1.89,-2.62,220,273,406,466,355
748,0.25,-0.95,-0.15,0.85,-6.59,-6.23,219,278,406,470,350
749,0.23,-0.95,-0.14,1.22,-2.99,-0.18,215,277,408,463,360
750,0.22,-0.96,-0.14,0.31,-3.23,-1.46,221,270,406,460,356
751,0.22,-0.97,-0.14,1.16,-1.95,-0.79,217,269,405,460,356
752,0.22,-0.96,-0.13,0.79,-2.01,-1.4,221,276,409,455,356
753,0.22,-0.97,-0.13,3.97,-3.11,-2.14,230,272,405,464,355
754,0.21,-0.95,-0.12,-1.34,-2.69,-1.46,221,278,405,464,357
755,0.21,-0.96,-0.17,2.62,-2.32,-2.81,223,276,418,462,357
756,0.22,-0.97,-0.15,0.43,-3.42,-1.83,218,274,405,460,358
757,0.19,-0.95,-0.12,-0.31,-2.26,-1.16,215,277,406,457,355
758,0.23,-0.97,-0.14,2.2,-2.38,-0.49,221,269,406,456,358
759,0.2,-0.97,-0.16,-0.06,-1.65,-2.69,220,276,405,459,354
760,0.18,-0.96,-0.14,4.64,-2.32,-0.12,221,278,408,459,357
761,0.21,-0.98,-0.16,1.34,-4.88,-2.81,216,276,408,458,354
762,0.25,-0.97,-0.17,-0.49,-9.34,-2.32,221,276,404,462,357
763,0.17,-0.96,-0.12,6.16,-1.16,-1.95,222,276,405,462,357
764,0.2,-0.99,-0.17,-2.26,-0.85,-3.54,221,274,407,464,357
765,0.13,-0.98,-0.16,2.69,-1.28,-1.89,220,274,404,459,355
766,0.23,-1.0,-0.15,-9.7,-5.98,-8.48,223,275,408,460,357
767,0.16,-0.98,-0.14,-5.25,-3.48,-7.2,219,275,401,462,354
768,0.12,-0.97,-0.1,1.46,-0.73,-0.85,223,276,404,455,359
769,0.17,-0.98,-0.14,3.54,-0.55,-2.5,222,276,403,461,367
770,0.16,-0.98,-0.15,-1.89,-4.39,-4.94,221,275,405,459,357
771,0.13,-0.98,-0.12,2.26,-2.01,-3.78,218,277,403,461,355
772,0.12,-0.97,-0.11,-2.08,-0.49,-2.5,223,275,406,463,354
773,0.15,-0.99,-0.13,-0.12,-1.89,-3.36,221,272,405,463,356
774,0.15,-0.99,-0.14,0.85,-4.27,-2.38,219,273,415,461,355
775,0.13,-0.97,-0.12,-1.22,-5.37,-5.13,219,277,401,464,359
776,0.11,-0.97,-0.1,-0.31,-2.99,-3.42,222,268,405,460,356
777,0.13,-0.98,-0.13,-1.83,-2.93,-3.11,222,279,405,462,359
778,0.16,-0.98,-0.12,-0.73,-3.36,-3.85,221,275,405,457,358
779,0.15,-0.98,-0.11,2.5,-3.05,-2.87,220,276,405,456,352
780,0.17,-0.97,-0.11,5.07,-3.78,-2.14,220,279,405,458,355
781,0.16,-0.97,-0.08,4.33,-1.04,-0.73,220,274,405,464,358
782,0.15,-0.98,-0.1,-0.61,-2.81,-2.2,218,272,402,464,356
783,0.14,-0.97,-0.09,1.4,-1.46,-2.26,220,275,402,464,354
784,0.14,-0.98,-0.1,-1.34,-2.93,-2.14,221,272,400,459,357
785,0.15,-0.98,-0.09,1.59,-2.87,-1.34,217,273,403,457,356
786,0.13,-0.99,-0.1,2.44,-3.91,-1.34,228,272,401,461,359
787,0.16,-0.98,-0.08,-1.71,-6.65,-3.78,222,273,406,453,359
788,0.14,-0.98,-0.09,6.29,2.99,2.69,222,275,404,454,356
789,0.15,-1.0,-0.09,0.73,-1.59,-0.31,217,275,401,459,357
790,0.11,-0.97,-0.06,3.72,-3.85,-2.2,221,270,399,460,357
791,0.12,-0.99,-0.1,0.24,-2.5,-3.66,220,278,402,462,355
792,0.13,-1.0,-0.09,2.32,-2.99,-3.6,219,266,402,456,357
793,0.15,-1.01,-0.09,1.04,-2.5,-3.66,221,273,404,458,354
794,0.15,-1.0,-0.1,1.83,-3.48,-3.3,223,274,404,457,357
795,0.14,-0.98,-0.1,0.24,-2.69,-3.23,219,278,402,456,352
796,0.15,-0.98,-0.09,0.0,-2.99,-2.75,219,274,402,458,357
797,0.13,-0.98,-0.09,0.06,-2.87,-2.75,219,275,396,454,358
798,0.13,-0.98,-0.09,0.98,-3.3,-2.93,223,276,402,458,360
799,0.13,-0.98,-0.08,-0.06,-2.69,-3.85,233,278,401,453,354
800,0.13,-0.99,-0.08,0.37,-2.87,-4.46,228,277,398,456,353
801,0.14,-0.98,-0.08,1.16,-4.09,-3.66,218,276,404,460,358
802,0.16,-0.98,-0.1,0.43,-2.99,-3.05,219,274,404,456,359
803,0.16,-0.98,-0.09,-0.31,-2.75,-2.01,221,275,402,461,355
804,0.13,-0.99,-0.1,2.14,-1.28,-3.23,219,278,404,458,356
805,0.15,-0.99,-0.08,2.32,-3.17,-0.18,219,274,403,462,357
806,0.11,-0.97,-0.08,-0.24,-3.17,-1.4,222,277,407,454,358
807,0.12,-0.98,-0.07,1.16,-3.3,-0.79,218,278,398,456,354
808,0.12,-0.98,-0.07,0.92,-3.17,-2.2,224,274,398,457,359
809,0.13,-0.99,-0.07,0.24,-3.17,-3.85,212,274,404,457,360
810,0.12,-1.0,-0.06,0.92,-3.36,-2.62,231,271,400,456,357
811,0.12,-0.98,-0.06,0.73,-3.05,-3.36,221,275,402,459,357
812,0.13,-0.99,-0.07,-0.37,-2.62,-2.56,222,276,399,457,359
813,0.12,-0.98,-0.07,0.73,-2.99,-2.2,225,272,401,454,356
814,0.12,-0.99,-0.07,-0.73,-3.72,-2.69,216,276,398,453,357
815,0.11,-0.99,-0.07,-0.61,-3.3,-2.75,220,277,403,457,357
816,0.11,-0.99,-0.07,2.26,-2.2,-2.5,220,281,404,454,355
817,0.15,-0.99,-0.06,0.49,-3.3,-3.48,219,272,411,462,363
818,0.15,-0.99,-0.06,1.16,-5.37,-2.2,219,273,402,460,359
819,0.12,-0.98,-0.05,0.18,-2.5,-3.05,220,276,406,459,354
820,0.1,-0.99,-0.05,-0.24,-2.56,-2.62,218,277,401,452,357
821,0.12,-0.99,-0.05,0.43,-2.87,-2.08,219,275,400,460,353
822,0.12,-0.97,-0.05,-0.85,-2.93,-2.44,219,280,399,460,357
823,0.09,-0.97,-0.07,3.3,-1.89,-1.16,219,278,399,462,358
824,0.11,-0.99,-0.05,0.31,-2.69,-2.56,222,274,401,453,357
825,0.1,-0.99,-0.05,-0.24,-2.62,-3.36,258,272,400,457,357
826,0.1,-0.98,-0.04,-0.31,-2.44,-2.44,219,274,402,461,355
827,0.09,-0.98,-0.05,0.67,-2.69,-3.36,221,285,399,458,360
828,0.07,-0.99,-0.05,0.24,-2.87,-2.26,218,282,403,461,356
829,0.11,-0.99,-0.05,-0.18,-2.99,-2.56,221,276,403,463,358
830,0.12,-0.99,-0.06,-0.67,-4.03,-4.09,231,276,400,459,357
831,0.18,-1.0,-0.08,5.49,-3.23,-2.5,220,279,399,459,358
832,0.15,-0.99,-0.04,1.77,-2.75,-2.2,223,274,400,459,357
833,0.13,-0.99,-0.06,0.61,-2.87,-3.23,216,274,398,454,353
834,0.12,-0.98,-0.05,-0.37,-2.93,-2.44,220,275,392,459,356
835,0.11,-0.99,-0.05,0.49,-3.17,-2.26,224,278,401,461,357
836,0.12,-0.99,-0.05,1.59,-2.14,-1.95,219,278,399,458,357
837,0.1,-0.99,-0.04,1.59,-2.32,-1.53,220,278,401,462,358
838,0.12,-0.98,-0.05,-0.55,-3.3,-2.26,221,276,402,475,360
839,0.12,-0.99,-0.09,-0.18,-2.75,-1.22,224,275,400,458,359
840,0.12,-0.98,-0.05,2.56,-3.85,-3.48,218,272,403,457,352
841,0.1,-0.98,-0.05,-1.34,-3.6,0.73,220,276,399,457,358
842,0.11,-0.97,-0.07,8.97,-1.95,-7.39,219,271,398,461,358
843,0.09,-1.01,-0.06,1.1,-3.3,-3.48,257,280,405,462,355
844,0.1,-1.0,-0.05,-2.38,-4.33,-4.88,226,274,403,455,357
845,0.11,-1.0,-0.09,-0.73,-7.93,-2.99,230,278,403,459,353
846,0.16,-1.0,-0.12,-5.07,-9.09,-3.23,225,277,397,461,354
847,0.15,-0.96,-0.1,-5.37,-5.92,-7.93,220,277,404,461,359
848,0.16,-0.99,-0.16,-1.04,-6.65,-5.49,221,276,404,459,357
849,0.12,-0.98,-0.16,-2.01,-0.31,2.93,221,276,399,452,353
850,0.12,-1.0,-0.14,-0.31,-2.08,-2.01,224,277,405,459,357
851,0.06,-0.99,-0.12,-0.31,-5.8,-0.49,222,281,400,459,357
852,0.1,-0.99,-0.15,4.64,-7.39,-2.93,218,275,399,460,357
853,0.07,-0.98,-0.12,-1.46,-4.15,-8.85,222,270,394,461,358
854,0.1,-0.99,-0.12,-0.98,-3.78,-5.98,224,278,400,459,354
855,0.14,-0.99,-0.14,-2.32,-3.78,-2.14,223,268,400,455,358
856,0.07,-0.98,-0.07,2.08,-3.66,5.62,219,280,402,459,353
857,0.07,-1.01,-0.13,-1.83,-2.81,-3.78,223,278,402,459,357
858,0.1,-1.0,-0.11,1.34,-3.72,-3.48,220,275,399,458,357
859,0.09,-0.99,-0.07,-3.72,-2.62,-4.52,219,266,402,463,353
860,0.08,-0.98,-0.07,-1.46,-0.31,-4.03,225,276,399,462,358
861,0.06,-0.99,-0.08,1.34,-1.16,-0.98,220,275,399,462,354
862,0.09,-0.99,-0.09,-0.18,-2.69,-2.44,223,280,402,447,353
863,0.12,-0.99,-0.09,3.3,-1.34,-2.2,220,274,399,461,357
864,0.06,-1.0,-0.09,4.21,-2.08,-1.34,220,272,400,461,356
865,0.09,-0.99,-0.06,2.5,1.4,1.65,218,279,398,458,356
866,0.14,-0.98,-0.07,0.31,0.49,-0.92,219,274,401,458,356
867,0.1,-1.01,-0.14,10.93,-10.74,3.17,217,279,397,457,358
868,0.19,-1.0,-0.18,-1.89,10.44,-5.37,219,275,397,458,354
869,0.02,-0.98,-0.09,8.0,-5.13,0.61,223,275,398,459,357
870,0.04,-0.99,-0.11,2.56,0.49,4.27,218,275,399,459,355
871,0.05,-1.0,-0.1,1.04,-2.01,-2.99,220,276,402,457,354
872,0.06,-0.95,-0.03,-2.69,2.2,-10.07,221,276,402,460,355
873,0.07,-0.98,-0.06,2.08,-2.32,-4.09,232,276,398,456,347
874,0.07,-1.01,-0.08,0.73,-2.26,-2.75,223,273,401,462,354
875,0.06,-0.99,-0.08,2.01,-1.53,-3.78,221,277,401,458,350
876,0.07,-0.99,-0.09,-0.24,-1.22,-4.58,224,278,399,458,358
877,0.06,-0.99,-0.09,0.85,-2.69,-1.83,222,272,400,454,353
878,0.06,-0.99,-0.07,2.08,-2.32,-1.89,221,277,399,462,355
879,0.04,-1.0,-0.1,0.31,-0.85,-1.04,223,273,397,459,359
880,0.07,-0.99,-0.09,1.1,-3.23,-2.44,217,276,395,459,352
881,0.06,-0.99,-0.08,0.12,-2.2,-2.01,223,274,400,459,358
882,0.06,-0.99,-0.08,-1.1,-3.48,-1.95,224,274,398,454,354
883,0.04,-0.99,-0.11,-1.28,-6.35,-10.31,224,278,401,464,355
884,0.08,-0.98,-0.12,4.7,-1.53,-5.86,220,276,399,456,358
885,0.09,-0.98,-0.08,3.36,-1.22,-0.49,223,272,398,455,356
886,0.09,-0.98,-0.1,2.2,-4.76,-1.53,219,279,401,456,354
887,0.08,-0.99,-0.07,-1.16,-2.87,-3.72,219,268,401,463,358
888,0.07,-0.98,-0.09,-0.18,-3.91,-3.36,226,275,398,454,358
889,0.1,-0.99,-0.08,0.61,-2.81,-2.99,221,280,401,462,358
890,0.09,-0.99,-0.09,0.24,-2.75,-2.08,222,273,399,463,354
891,0.08,-0.99,-0.08,0.37,-3.3,-2.93,221,277,410,464,358
892,0.09,-0.99,-0.08,0.0,-3.23,-2.62,225,277,398,454,359
893,0.07,-0.98,-0.08,0.61,-2.2,-3.36,221,274,399,456,353
894,0.11,-0.99,-0.1,1.1,-2.87,-3.91,220,275,399,461,358
895,0.1,-0.99,-0.09,-0.06,-2.62,-1.28,221,274,398,457,358
896,0.07,-0.98,-0.07,0.92,-1.71,-1.95,220,275,398,459,353
897,0.09,-0.99,-0.08,2.44,-4.76,0.18,220,274,403,464,360
898,0.06,-0.99,-0.08,1.95,-2.26,-0.98,222,282,395,463,356
899,0.04,-0.97,-0.05,2.01,-4.46,-2.62,222,275,399,457,357
900,0.05,-0.98,-0.08,-0.55,-3.42,-3.66,221,274,402,458,354
901,0.07,-0.99,-0.1,1.46,-3.05,-2.44,220,277,402,460,356
902,0.05,-1.0,-0.01,2.44,-3.3,0.85,225,276,402,455,355
903,0.05,-0.98,-0.07,5.49,-5.37,-5.25,222,279,403,453,357
904,-0.0,-1.02,-0.06,2.32,-7.08,4.39,222,277,400,458,357
905,-0.06,-0.96,-0.02,-3.97,-8.73,-5.74,229,276,394,451,354
906,0.1,-0.99,-0.05,-5.37,0.55,-9.89,222,279,400,458,356
907,0.11,-0.98,-0.06,0.79,0.92,-4.39,220,271,399,461,356
908,0.14,-0.99,-0.09,3.05,-3.54,1.16,221,274,398,454,358
909,0.09,-0.98,-0.08,-1.04,-4.39,-0.85,224,275,401,462,356
910,0.07,-1.01,-0.08,-0.67,0.43,-5.8,223,277,399,456,357
911,0.1,-0.98,-0.05,0.73,-2.32,-1.71,221,274,400,459,358
912,0.1,-0.99,-0.05,-0.67,-2.87,-2.26,220,281,398,460,360
913,0.1,-0.99,-0.06,0.61,-2.14,-1.22,218,275,398,455,358
914,0.11,-0.98,-0.05,5.8,-2.87,-2.08,224,275,397,457,355
915,0.1,-0.99,-0.03,0.37,-3.6,-3.66,224,274,401,458,356
916,0.1,-1.0,-0.03,0.37,-3.78,-2.87,223,275,398,454,355
917,0.1,-0.99,-0.04,0.85,-3.3,-3.17,223,272,400,458,357
918,0.11,-0.99,-0.04,0.24,-2.32,-1.95,222,274,401,463,355
919,0.08,-0.99,-0.02,0.12,-3.11,-2.26,223,273,399,459,358
920,0.1,-0.99,-0.04,-0.61,-2.99,-2.26,221,274,400,460,356
921,0.09,-1.0,-0.03,3.36,-2.32,-2.26,219,276,402,460,356
922,0.1,-1.0,-0.03,1.16,-2.5,-2.62,218,274,396,457,356
923,0.1,-1.0,-0.03,0.0,-3.05,-2.69,218,276,399,453,357
924,0.1,-0.99,-0.02,-1.04,-4.27,-4.88,225,273,402,468,354
925,0.11,-0.99,-0.03,2.81,-0.85,-0.98,225,276,400,462,357
926,0.11,-0.98,0.01,2.93,-1.77,-2.26,223,277,399,462,358
927,0.1,-0.99,-0.02,2.81,-2.26,-1.77,222,274,399,459,359
928,0.1,-1.0,-0.04,-2.08,-3.3,-5.31,222,277,400,459,357
929,0.11,-0.99,-0.01,1.53,-2.01,-4.39,228,278,399,453,356
930,0.08,-1.0,-0.03,-0.06,-2.93,-2.08,222,275,399,460,363
931,0.09,-0.99,-0.08,2.38,-5.37,-4.39,222,273,398,454,358
932,0.08,-0.99,-0.07,-4.88,1.59,-2.75,223,274,395,458,356
933,0.07,-0.99,-0.1,-3.54,-2.56,-0.67,221,275,399,459,356
934,0.1,-0.98,-0.05,1.04,-3.91,-2.38,221,271,402,468,360
935,0.1,-1.0,-0.08,1.46,-3.11,1.71,225,274,400,462,353
936,0.11,-1.0,-0.09,0.73,-4.82,-2.44,223,278,401,455,360
937,0.09,-0.98,-0.04,1.83,-3.91,-4.52,215,273,399,455,357
938,0.11,-0.99,-0.06,-0.85,-3.42,-2.62,223,275,397,454,356
939,0.12,-0.99,-0.05,-0.49,-3.23,-3.48,217,277,398,461,356
940,0.11,-0.99,-0.04,3.78,-3.3,-2.62,220,277,401,459,356
941,0.08,-0.99,-0.04,0.31,-0.98,0.18,222,277,401,456,355
942,0.11,-1.0,-0.07,-3.3,-2.26,-2.32,220,277,397,455,358
943,0.1,-0.99,-0.06,2.32,-2.99,-0.85,221,277,396,457,353
944,0.09,-0.99,-0.06,-1.04,-2.62,-2.75,228,275,399,457,353
945,0.12,-0.99,-0.05,0.24,-1.04,-2.93,222,274,395,456,355
946,0.11,-0.99,-0.06,2.87,-3.11,-0.73,219,272,397,460,357
947,0.1,-0.99,-0.03,1.59,0.55,0.73,223,270,392,451,355
948,0.09,-1.02,-0.09,-5.62,-4.09,-6.1,220,274,397,455,346
949,0.08,-0.99,-0.03,10.01,-4.64,-0.37,225,274,399,459,354
950,0.09,-0.99,-0.02,3.36,-3.48,-4.76,217,279,394,460,359
951,0.11,-0.99,-0.05,0.0,-3.48,-4.03,224,271,397,457,357
952,0.1,-0.99,-0.02,0.85,-2.14,-3.42,219,276,391,451,352
953,0.07,-0.97,0.03,11.23,-9.58,-0.12,221,275,397,460,360
954,0.12,-1.01,-0.06,-5.86,0.31,-0.55,223,273,395,458,358
955,0.11,-1.0,-0.04,2.99,-7.93,-6.1,224,275,400,458,356
956,0.13,-0.99,-0.01,2.93,-2.56,-2.56,222,277,396,460,357
957,0.11,-0.99,-0.04,-0.37,-3.66,-5.37,217,275,392,458,356
958,0.11,-0.98,-0.02,-2.08,-3.42,-3.78,220,274,399,457,356
959,0.13,-0.99,-0.06,0.61,-5.0,-6.35,221,274,392,459,355
960,0.12,-0.99,-0.06,2.2,-4.52,-3.48,222,274,397,455,354
961,0.11,-0.98,-0.04,0.49,-2.26,-2.38,221,276,393,462,357
962,0.06,-0.82,-0.18,2.81,-2.08,-1.71,220,277,399,458,357
963,0.14,-1.02,-0.03,1.53,-2.62,-1.89,220,282,397,452,357
964,0.13,-1.0,-0.01,0.73,-2.08,0.55,225,276,397,459,353
965,0.11,-0.99,-0.03,0.31,-1.83,-1.28,222,275,392,454,356
966,0.14,-0.99,-0.03,-0.18,-2.87,-4.46,221,278,395,459,358
967,0.12,-1.0,-0.03,1.22,-3.66,-0.12,221,280,397,456,354
968,0.06,-0.99,0.01,2.56,-2.38,-0.98,221,277,397,452,357
969,0.06,-0.99,0.01,-0.12,-2.87,-3.48,217,279,397,458,354
970,0.09,-0.99,-0.01,-0.43,-1.77,-3.78,224,275,396,462,358
971,0.11,-1.0,-0.01,0.85,-2.62,-1.04,221,277,398,456,357
972,0.09,-1.0,-0.01,0.73,-1.77,-1.53,221,278,396,458,359
973,0.07,-1.0,-0.01,0.12,-2.26,-2.87,224,275,397,461,359
974,0.09,-0.99,-0.01,0.0,-2.99,-3.3,221,276,398,454,356
975,0.1,-1.0,-0.0,0.43,-2.44,-2.14,222,275,396,457,356
976,0.12,-1.0,0.0,5.55,-1.53,-0.79,222,273,397,458,356
977,0.1,-1.0,-0.01,-2.56,-4.7,-4.03,221,276,398,458,351
978,0.14,-0.96,0.04,-2.69,-0.61,-6.1,222,274,394,454,358
979,0.11,-0.98,-0.01,-0.85,-3.91,-12.51,224,280,397,458,358
980,0.19,-0.99,-0.09,1.83,-5.31,-2.32,224,275,393,458,358
981,0.08,-0.98,-0.03,3.05,-1.53,-0.85,222,277,398,458,360
982,0.14,-0.98,-0.03,1.71,-6.04,-7.63,231,275,396,452,358
983,0.13,-0.98,-0.03,-0.37,-2.08,-5.13,227,280,398,458,356
984,0.21,-0.97,-0.08,-6.71,-5.13,-10.8,224,274,398,449,356
985,0.12,-0.97,-0.09,-0.49,-9.22,-5.8,221,276,396,454,356
986,0.19,-0.98,-0.09,-1.95,-4.15,-1.83,222,273,396,458,357
987,0.15,-0.98,-0.07,-2.81,-3.23,-6.1,224,277,396,457,360
988,0.14,-0.97,-0.07,4.21,-0.43,-2.81,221,277,393,462,353
989,0.17,-0.97,-0.07,0.0,-3.42,-0.24,224,275,400,456,357
990,0.17,-0.96,-0.07,-0.49,-2.87,-2.99,221,276,398,461,358
991,0.19,-0.98,-0.11,-1.04,-2.81,-2.87,220,277,395,457,355
992,0.2,-0.98,-0.09,0.92,-2.26,-2.44,220,275,399,457,359
993,0.19,-0.98,-0.09,0.98,-2.99,-2.93,221,277,398,458,358
994,0.22,-0.97,-0.06,-7.26,-9.09,-7.51,223,271,396,458,357
995,0.13,-0.93,-0.08,3.3,-1.22,-3.6,222,281,398,464,357
996,0.35,-1.07,-0.21,-2.62,-24.72,-5.8,222,276,394,453,357
997,0.19,-0.98,-0.08,1.83,-3.17,-5.68,222,278,397,458,357
998,0.18,-0.99,-0.09,0.67,0.18,-2.32,221,273,394,448,357
999,0.16,-0.98,-0.1,-0.43,-4.27,-1.1,219,273,398,457,355
1000,0.17,-1.0,-0.12,0.31,-2.62,-3.17,223,274,394,458,357
1001,0.17,-0.98,-0.1,2.62,-3.17,-2.44,224,276,397,457,356
1002,0.15,-0.97,-0.07,1.71,-3.54,-1.53,221,277,397,459,356
1003,0.14,-0.99,-0.09,-0.49,-1.89,-2.62,219,274,394,457,360
1004,0.15,-0.97,-0.09,0.79,-1.83,-2.08,223,277,396,461,360
1005,0.15,-0.99,-0.08,2.14,-2.81,-1.65,221,278,397,462,356
1006,0.14,-0.98,-0.06,-0.92,-1.53,0.43,225,276,395,457,358
1007,0.14,-0.99,-0.08,-0.55,-2.08,-3.05,220,278,396,459,357
1008,0.12,-0.98,-0.06,0.12,-1.46,-1.77,223,277,401,457,358
1009,0.13,-0.99,-0.08,1.65,-2.5,-2.99,221,276,395,459,355
1010,0.11,-0.97,-0.03,2.08,3.05,-0.79,223,279,397,462,354
1011,0.13,-0.99,-0.07,0.37,-3.48,-0.85,223,276,397,451,358
1012,0.13,-1.0,-0.05,1.34,-3.11,-2.69,225,284,401,461,358
1013,0.12,-0.99,-0.05,-0.06,-2.32,0.92,224,273,397,457,358
1014,0.07,-0.99,-0.04,2.44,-2.32,0.67,224,267,390,458,361
1015,0.06,-0.99,-0.04,-0.79,-2.69,-4.15,225,275,394,461,358
1016,0.12,-0.99,-0.04,1.65,-2.81,-2.01,211,262,446,456,353
1017,0.12,-0.99,-0.03,1.4,-2.81,-2.69,206,265,446,452,353
1018,0.13,-0.99,-0.03,0.85,-3.3,-3.54,205,267,444,457,348
1019,0.12,-0.99,-0.03,0.73,-2.93,-2.93,205,267,444,456,348
1020,0.11,-0.99,-0.04,0.24,-2.87,-2.26,213,269,442,456,352
1021,0.12,-0.99,-0.05,-1.22,-2.01,-3.11,208,264,444,455,353
1022,0.12,-0.99,-0.05,1.59,-3.05,-2.56,208,275,440,458,351
1023,0.12,-0.99,-0.04,0.37,-1.71,-1.77,209,267,444,455,350
1024,0.12,-0.99,-0.04,1.04,-2.81,-1.83,211,266,442,452,350
1025,0.13,-0.99,-0.04,0.49,-2.69,-2.75,211,268,442,460,350
1026,0.12,-0.98,-0.02,-0.31,-1.28,-0.18,208,263,442,460,348
1027,0.11,-1.0,-0.07,-1.65,1.46,1.28,212,271,441,451,351
1028,0.1,-0.99,-0.05,1.71,-4.94,-4.76,211,268,443,462,349
1029,0.11,-0.99,-0.04,-0.61,-3.48,-4.09,209,269,442,452,353
1030,0.11,-0.99,-0.04,1.4,-2.56,-3.11,208,263,438,461,352
1031,0.11,-0.99,-0.04,0.18,-3.48,-2.08,207,271,439,456,353
1032,0.1,-0.99,-0.04,1.22,-2.93,-2.01,208,272,436,457,353
1033,0.1,-0.99,-0.05,0.18,-2.5,-3.05,211,271,433,457,351
1034,0.11,-0.99,-0.05,-0.37,-1.77,-4.27,207,272,439,456,353
1035,0.12,-0.99,-0.05,1.16,-2.32,-2.08,208,269,439,451,353
1036,0.12,-0.99,-0.03,-0.06,-2.14,-0.55,210,268,427,449,348
1037,0.1,-0.99,-0.05,0.12,-3.17,-0.92,208,265,433,462,350
1038,0.08,-1.0,-0.07,-3.78,-0.79,-0.92,210,271,430,460,351
1039,0.08,-1.0,-0.07,-0.55,-3.17,-2.62,206,270,431,462,350
1040,0.06,-0.99,-0.04,-0.18,-3.85,-2.62,208,272,434,461,350
1041,0.06,-0.99,-0.02,-3.66,-3.85,0.12,209,269,436,457,355
1042,0.12,-0.97,0.0,5.07,-9.34,-1.1,207,266,433,461,355
1043,0.04,-0.99,-0.04,-0.98,-1.71,-1.59,218,268,435,458,356
1044,0.02,-0.98,-0.0,-2.38,-6.29,-3.17,213,270,435,456,358
1045,0.05,-0.98,-0.01,2.99,-2.5,-0.85,204,273,436,460,356
1046,0.03,-1.01,-0.04,-1.16,1.89,-2.44,209,268,435,458,351
1047,0.04,-1.01,-0.06,-0.49,-4.27,-4.33,211,261,428,455,359
1048,0.05,-1.0,-0.01,5.0,-6.9,-3.66,210,265,429,462,355
1049,0.05,-0.98,-0.0,-3.91,-9.64,-7.57,209,264,425,457,358
1050,0.05,-0.98,0.01,1.71,0.98,3.17,210,276,431,456,353
1051,0.01,-0.99,-0.0,-6.9,-4.27,-0.31,213,276,437,457,354
1052,0.07,-0.98,0.02,-0.43,-1.95,-3.42,204,267,430,458,356
1053,0.08,-1.0,-0.04,0.67,-2.62,-5.19,211,269,430,460,353
1054,0.06,-1.01,-0.04,-0.61,1.95,1.04,210,265,428,458,356
1055,0.05,-0.99,0.01,-0.18,-4.39,-5.55,211,270,427,455,357
1056,0.07,-1.0,-0.01,0.43,-2.99,-3.17,208,274,432,462,353
1057,0.06,-1.0,-0.03,0.67,-2.99,-4.03,211,270,430,458,356
1058,0.06,-1.0,-0.01,1.89,-2.93,-0.06,212,270,430,462,356
1059,0.05,-1.0,0.0,2.87,-2.26,-1.4,209,270,429,456,357
1060,0.12,-1.02,-0.08,-1.83,-12.21,-1.16,210,272,426,461,356
1061,0.05,-0.99,-0.01,2.08,-3.48,-1.71,207,267,427,453,356
1062,0.05,-0.99,0.02,-1.28,-2.93,-1.89,210,267,430,458,355
1063,0.07,-1.01,-0.02,3.48,-2.62,-0.31,209,269,425,453,353
1064,0.06,-1.0,0.0,-1.77,-4.88,-6.96,218,273,427,464,356
1065,0.07,-0.99,-0.03,-1.28,-4.09,-6.1,209,269,429,458,351
1066,0.06,-1.0,-0.02,1.28,-2.38,-2.2,214,263,430,457,356
1067,0.09,-1.0,-0.03,4.52,2.81,3.36,205,271,426,460,353
1068,0.07,-0.98,0.02,-1.1,-5.31,-1.77,211,262,428,463,358
1069,0.08,-0.99,-0.01,-1.22,-0.12,-0.49,208,271,426,462,353
1070,0.06,-0.99,-0.04,-1.04,-5.13,0.06,213,269,426,461,356
1071,0.03,-0.99,-0.02,1.34,-3.17,-2.93,212,269,426,453,350
1072,0.01,-0.99,-0.0,-0.49,-0.43,-2.44,211,267,424,458,356
1073,0.04,-1.0,-0.02,-0.31,-3.11,-5.31,213,268,424,458,354
1074,0.06,-1.0,-0.02,0.06,-4.82,-3.23,214,270,423,462,354
1075,0.06,-0.83,-0.06,-0.18,1.53,-2.75,213,260,425,454,358
1076,0.14,-0.98,-0.02,-1.77,-1.83,-7.81,211,270,425,456,358
1077,0.12,-0.99,-0.06,0.24,-2.14,-2.2,212,268,425,459,354
1078,0.13,-0.98,-0.07,-3.48,-0.73,-1.83,212,269,425,461,355
1079,0.08,-0.97,-0.06,2.32,1.1,0.31,210,270,427,460,350
1080,0.06,-1.0,0.02,7.02,-8.42,-2.56,206,269,427,463,351
1081,0.08,-0.96,-0.01,0.61,4.88,-3.54,212,284,422,456,355
1082,0.08,-0.98,-0.08,1.16,-6.41,-4.46,208,271,425,456,354
1083,0.13,-0.99,-0.03,-0.18,-3.91,-7.87,212,267,418,460,354
1084,0.08,-1.0,-0.02,-0.18,-2.93,-2.75,212,273,426,458,355
1085,0.1,-1.0,-0.0,1.16,-2.08,0.61,214,265,424,461,356
1086,0.07,-0.98,-0.02,1.28,-2.99,-0.43,215,268,423,459,352
1087,0.09,-0.99,0.01,-0.37,-5.86,-6.04,216,271,423,457,353
1088,0.07,-0.99,0.01,-0.73,-0.61,-2.69,216,275,421,459,354
1089,0.14,-1.0,-0.03,0.24,-4.94,-2.44,217,268,420,459,356
1090,0.1,-0.99,-0.01,0.18,-0.49,2.38,214,270,430,463,353
1091,0.12,-0.98,0.01,1.89,-0.79,-1.46,208,264,422,465,357
1092,0.06,-0.98,-0.03,-1.83,-2.26,-2.08,206,267,422,459,357
1093,0.09,-0.99,-0.01,-0.24,-4.33,-3.23,215,273,424,455,356
1094,0.04,-0.97,-0.0,4.88,-3.66,2.5,207,273,424,456,357
1095,0.13,-1.04,-0.13,-10.56,-3.3,-9.58,215,265,423,464,354
1096,0.16,-0.98,0.02,-1.34,-6.41,-2.26,213,269,423,458,356
1097,0.15,-0.99,-0.01,-1.1,-4.46,6.41,213,272,423,463,357
1098,0.06,-1.0,-0.01,0.92,-7.51,8.54,215,271,421,459,355
1099,-0.02,-1.0,0.01,5.86,-4.33,-0.49,213,275,424,456,364
1100,0.04,-1.0,0.03,-5.8,-4.7,-7.14,213,269,424,455,351
1101,0.06,-1.0,-0.01,-7.87,4.94,-17.15,209,272,422,458,355
1102,0.13,-0.96,-0.07,-12.51,-1.1,-18.19,214,273,420,449,357
1103,0.08,-0.99,-0.02,-2.44,-1.4,-5.86,211,270,420,458,353
1104,0.17,-0.99,-0.06,-0.18,-4.58,-3.48,213,272,425,458,358
1105,0.12,-0.98,-0.03,-2.14,-6.9,-5.62,212,270,423,462,357
1106,0.16,-1.0,-0.08,1.71,-0.12,-1.28,212,273,422,454,356
1107,0.13,-1.02,-0.05,1.65,-1.83,-3.17,214,272,419,457,353
1108,0.07,-1.0,-0.01,3.72,-4.7,-3.3,214,267,422,460,354
1109,0.13,-1.0,-0.04,2.01,0.06,-0.85,214,270,418,454,351
1110,0.11,-1.0,-0.01,0.24,-3.11,-1.71,217,272,422,458,357
1111,0.13,-0.99,-0.04,-2.32,-1.83,-4.39,214,272,420,459,357
1112,0.11,-0.98,-0.03,-5.86,-10.68,-4.52,217,269,422,455,356
1113,0.1,-0.95,-0.01,6.16,-0.12,-3.23,222,270,417,463,357
1114,0.12,-0.98,-0.07,5.98,-0.55,-0.06,216,273,418,456,356
1115,0.14,-0.97,-0.05,2.44,-0.43,-2.14,213,272,420,463,359
1116,0.16,-0.98,-0.07,1.83,-2.56,-1.77,246,272,422,460,356
1117,0.13,-0.99,-0.07,0.43,-3.3,-3.11,211,270,417,457,356
1118,0.14,-0.98,-0.06,0.12,-3.05,-2.32,213,271,420,462,358
1119,0.14,-0.99,-0.07,-0.37,-2.75,-2.26,214,268,417,464,359
1120,0.12,-0.99,-0.06,-2.93,0.31,-5.07,215,269,419,458,356
1121,0.12,-0.98,-0.01,-2.2,0.43,-1.16,215,270,423,467,356
1122,0.1,-0.98,-0.03,-0.61,-1.34,-0.67,216,271,417,457,355
1123,0.16,-0.99,-0.04,-0.85,-3.3,-4.27,215,276,416,460,353
1124,0.15,-0.97,-0.07,-0.85,-2.5,-2.69,208,268,417,460,351
1125,0.17,-0.98,-0.07,2.5,-3.6,-3.72,214,274,417,461,355
1126,0.15,-0.98,-0.05,2.5,-5.0,-1.04,217,280,419,462,355
1127,0.15,-0.98,-0.06,1.59,-2.99,-1.04,217,271,413,463,352
1128,0.15,-0.98,-0.04,1.77,-3.11,-2.08,214,267,419,460,351
1129,0.14,-0.98,-0.05,0.67,-2.99,-2.87,215,270,417,454,353
1130,0.14,-0.98,-0.05,0.73,-2.56,-2.62,212,273,417,455,352
1131,0.14,-0.99,-0.06,-0.18,-2.5,-2.81,210,274,415,456,355
1132,0.14,-0.99,-0.06,-3.17,-4.64,-6.84,214,268,418,463,355
1133,0.12,-1.0,-0.04,2.01,-3.78,-6.1,214,276,420,475,353
1134,0.14,-0.98,-0.02,-0.31,-3.66,-2.26,217,272,417,461,358
1135,0.15,-0.99,-0.05,1.1,-3.42,-0.61,220,274,417,465,350
1136,0.11,-0.99,-0.0,4.82,-2.81,-2.75,212,275,418,460,358
1137,0.14,-0.99,-0.03,1.34,-2.08,-3.05,210,272,413,463,357
1138,0.16,-0.98,-0.04,2.87,-3.3,-1.46,215,277,416,465,358
1139,0.13,-0.99,-0.04,-0.79,-1.89,-1.89,219,271,412,458,351
1140,0.1,-0.99,0.0,3.66,-4.82,-0.49,216,274,415,463,356
1141,0.28,-0.97,-0.04,-3.97,7.45,-4.03,217,272,417,458,355
1142,0.17,-0.97,-0.04,-12.27,-9.22,-6.65,215,270,414,462,352
1143,0.2,-1.03,-0.11,-4.88,-3.72,-5.07,214,271,416,461,353
1144,0.14,-0.99,-0.03,-7.26,4.21,-5.98,215,270,417,464,354
1145,0.17,-1.01,-0.07,-6.29,-4.58,-5.74,216,273,417,463,356
1146,0.17,-0.98,-0.04,2.01,-2.75,-3.48,215,275,410,461,356
1147,0.17,-0.99,-0.03,1.83,-2.56,-4.15,214,272,411,463,352
1148,0.15,-0.99,-0.03,-0.43,-3.17,-1.77,216,273,416,457,355
1149,0.15,-0.98,-0.04,-3.78,1.53,-0.85,215,280,427,465,353
1150,0.16,-0.98,-0.03,-0.55,-1.46,-5.19,217,275,412,459,354
1151,0.07,-0.99,0.0,-8.0,-0.24,-5.92,218,276,413,461,351
1152,0.15,-0.98,-0.03,-6.23,-9.22,-4.46,221,270,414,460,354
1153,0.16,-1.0,-0.05,0.79,-3.05,-2.38,210,271,412,463,354
1154,0.18,-0.97,-0.02,1.4,-4.52,-2.56,223,272,410,461,351
1155,0.14,-0.99,-0.02,2.38,-3.6,-2.87,215,277,410,462,357
1156,0.15,-1.01,-0.05,-3.3,-11.78,-2.08,216,272,412,456,351
1157,0.14,-1.03,-0.07,4.52,-14.47,2.32,221,273,412,471,356
1158,0.3,-1.0,-0.08,-4.7,5.62,-15.32,215,271,416,465,355
1159,0.13,-0.95,-0.04,-3.66,-8.42,-8.42,215,273,411,461,357
1160,0.14,-0.99,-0.06,6.04,2.32,2.75,212,273,413,460,355
1161,0.14,-0.98,-0.04,-2.38,-1.46,-3.11,217,274,415,460,352
1162,0.23,-1.04,-0.1,-3.36,-3.23,-8.36,217,274,414,465,357
1163,0.1,-0.97,-0.05,3.42,-2.75,4.33,221,272,415,459,357
1164,0.13,-0.99,-0.11,-3.78,-3.3,-3.85,220,274,410,464,355
1165,0.12,-0.97,-0.05,-9.03,-5.19,0.85,212,272,418,462,353
1166,0.14,-0.98,-0.06,0.92,-3.36,-3.91,217,274,409,462,354
1167,0.12,-0.99,-0.09,4.15,-1.46,-1.4,216,278,413,461,357
1168,0.12,-1.0,-0.07,0.98,-4.27,-1.1,219,273,415,457,354
1169,0.15,-0.98,-0.04,9.28,-4.09,-4.64,217,274,413,457,354
1170,0.14,-0.97,-0.02,-2.01,-4.94,-3.85,217,273,414,459,355
1171,0.11,-0.99,-0.07,-3.78,0.06,-3.11,216,273,414,456,354
1172,0.14,-0.98,-0.04,0.49,-0.49,-3.05,216,274,408,454,353
1173,0.15,-0.97,-0.01,0.85,-0.18,-1.71,215,276,413,462,356
1174,0.15,-0.98,-0.02,-0.18,-1.1,-3.17,216,271,413,459,355
1175,0.17,-0.97,-0.03,1.22,-2.44,-2.38,219,274,421,456,353
1176,0.16,-0.98,-0.06,5.62,-1.59,-0.18,212,272,410,461,355
1177,0.07,-1.0,-0.05,-0.92,-2.08,5.92,216,273,414,455,351
1178,0.14,-1.01,-0.08,0.92,-2.69,-8.42,218,274,411,462,357
1179,0.1,-0.95,0.01,-3.72,-2.56,-3.3,214,274,417,459,353
1180,0.08,-0.98,-0.0,1.65,-1.89,-1.89,221,270,413,457,356
1181,0.14,-0.98,-0.03,4.7,-2.32,-2.5,219,272,415,460,355
1182,0.11,-0.97,-0.06,10.93,2.2,3.6,213,274,415,459,354
1183,0.2,-0.99,-0.05,-5.13,-4.15,-5.43,216,274,413,455,354
1184,0.14,-0.98,-0.06,2.26,-1.83,-2.26,217,276,413,456,354
1185,0.14,-0.97,-0.03,4.76,-3.72,-1.53,220,270,412,458,355
1186,0.2,-0.98,-0.07,1.1,-1.1,-1.28,218,277,412,457,353
1187,0.16,-0.99,-0.07,-1.16,-1.1,-0.67,218,272,410,461,350
1188,0.15,-0.99,-0.06,0.73,-2.81,-1.46,217,266,411,455,352
1189,0.16,-1.0,-0.06,0.67,-2.87,-0.98,223,269,412,465,352
1190,0.13,-0.99,-0.06,-0.92,-3.48,-0.55,217,275,410,460,354
1191,0.09,-0.99,-0.05,0.79,-3.05,-2.99,221,268,407,459,354
1192,0.12,-0.99,-0.04,-3.11,-1.71,-6.47,214,277,411,462,348
1193,0.15,-1.0,-0.08,-0.49,-0.12,-4.46,216,271,411,463,354
1194,0.15,-0.99,-0.08,2.93,-5.31,0.98,216,273,418,460,350
1195,0.14,-0.98,-0.07,3.23,-4.88,-0.79,217,279,412,459,352
1196,0.11,-0.98,-0.05,4.27,-4.27,-2.99,221,273,408,459,351
1197,0.11,-0.98,-0.04,-0.37,-4.52,-3.42,220,270,411,458,346
1198,0.15,-0.99,-0.05,-1.95,-3.72,-7.2,221,273,409,461,353
1199,0.18,-0.98,-0.08,0.06,-2.32,-4.64,218,271,408,457,352
1200,0.17,-0.98,-0.06,4.15,-4.33,3.23,219,273,410,457,355
1201,0.11,-0.99,-0.04,2.26,-5.86,-0.43,217,266,409,459,355
1202,0.11,-0.98,-0.03,-0.85,-2.5,-3.17,218,273,412,464,355
1203,0.18,-0.98,-0.05,-1.65,0.49,-5.62,223,272,411,459,353
1204,0.18,-0.98,-0.06,0.12,-2.62,-3.05,210,278,406,454,353
1205,0.15,-0.98,-0.04,1.89,-1.34,2.38,214,274,408,459,350
1206,0.13,-0.99,-0.05,2.26,-2.75,1.95,221,270,411,461,351
1207,0.1,-0.98,-0.02,0.06,-2.93,-1.59,218,274,411,461,356
1208,0.11,-0.99,-0.03,-2.75,-2.01,-7.2,219,264,412,459,354
1209,0.16,-0.97,-0.03,-8.91,-1.34,-2.69,217,270,411,459,354
1210,0.2,-1.05,-0.1,-15.14,0.18,6.23,220,274,409,457,353
1211,-0.03,-0.98,-0.28,-27.22,-62.87,6.16,218,276,408,460,354
1212,0.08,-1.0,-0.1,-2.14,-5.74,-5.13,221,276,412,455,357
1213,0.16,-1.0,-0.17,-1.71,0.49,-3.17,213,273,408,466,355
1214,0.16,-1.06,-0.24,0.18,-5.62,-12.02,220,278,411,462,357
1215,0.12,-0.97,-0.11,1.83,0.37,-2.44,217,274,409,461,349
1216,0.16,-0.97,0.04,4.52,3.11,13.92,220,276,409,460,356
1217,0.12,-1.0,-0.11,-0.55,13.49,6.53,215,275,407,457,357
1218,0.21,-0.98,-0.1,1.1,-4.58,-0.79,216,277,408,458,355
1219,0.27,-0.95,-0.17,-18.25,-27.16,3.48,218,276,409,459,353
1220,0.08,-0.96,-0.27,-6.1,-13.67,0.31,217,269,408,460,353
1221,0.11,-0.95,-0.32,-2.38,0.92,-6.77,226,273,409,463,356
1222,0.09,-0.98,-0.25,1.83,-2.87,-2.99,221,277,409,461,358
1223,0.1,-0.97,-0.13,0.61,-10.01,-10.68,220,273,408,460,357
1224,0.16,-0.96,-0.2,2.44,-7.45,-2.56,220,275,408,463,352
1225,0.12,-0.97,-0.19,-1.65,-2.32,-2.08,219,274,413,464,356
1226,0.15,-0.99,-0.2,-3.36,-4.39,-2.69,218,278,412,460,355
1227,0.16,-0.97,-0.19,3.78,-3.48,-3.11,240,279,403,468,353
1228,0.16,-0.97,-0.14,0.85,-3.42,-4.94,217,276,408,463,348
1229,0.16,-0.97,-0.16,2.93,-2.62,-3.85,222,280,411,460,359
1230,0.16,-0.96,-0.15,3.97,-3.23,0.37,215,274,410,465,358
1231,0.11,-0.98,-0.17,1.16,-8.18,-0.18,219,276,409,463,356
1232,0.11,-0.97,-0.12,-2.32,-1.95,-1.46,219,273,407,461,357
1233,0.09,-0.98,-0.1,-0.73,-1.65,-0.18,216,273,408,462,355
1234,0.09,-0.97,-0.14,7.45,-2.44,-3.66,221,275,407,455,355
1235,0.09,-0.95,-0.16,4.46,3.66,-0.18,223,275,407,464,354
1236,0.2,-0.95,-0.12,2.44,-7.63,-9.03,222,281,403,454,353
1237,0.15,-0.95,-0.14,1.59,-2.32,0.92,225,276,407,460,356
1238,0.17,-0.95,-0.14,2.62,-3.17,1.16,221,275,408,459,355
1239,0.19,-0.97,-0.17,-0.67,-3.66,0.98,221,275,409,464,358
1240,0.17,-0.98,-0.17,0.06,-2.81,-4.52,219,276,403,460,359
1241,0.13,-0.97,-0.13,-0.31,-5.68,-4.09,220,273,405,459,354
1242,0.15,-0.98,-0.16,3.36,-2.14,-3.72,219,275,403,457,356
1243,0.17,-0.97,-0.13,3.72,-1.77,-2.87,219,276,405,460,354
1244,0.15,-0.96,-0.13,-3.42,-2.01,-3.85,221,276,420,460,358
1245,0.15,-0.97,-0.16,-0.67,-1.95,-3.17,218,272,408,461,355
1246,0.16,-0.95,-0.15,5.55,-8.18,6.47,220,273,407,464,353
1247,0.16,-0.95,-0.09,5.55,1.59,-3.78,216,275,407,461,355
1248,0.23,-0.96,-0.16,5.31,-3.54,-9.22,221,273,408,463,358
1249,0.19,-0.97,-0.18,1.95,0.0,-4.64,220,274,405,473,357
1250,0.19,-1.0,-0.18,3.3,-1.59,11.84,219,279,406,458,358
1251,0.03,-0.93,-0.1,8.85,0.06,1.34,220,272,403,460,358
1252,0.23,-0.96,-0.15,-4.21,-2.81,-5.86,221,273,409,466,353
1253,0.19,-0.96,-0.17,1.89,-3.48,-4.03,217,279,405,461,358
1254,0.19,-0.96,-0.16,-1.59,-6.59,-5.0,221,272,406,463,355
1255,0.19,-0.97,-0.15,2.62,-1.89,-2.62,220,273,406,466,355
1256,0.25,-0.95,-0.15,0.85,-6.59,-6.23,219,278,406,470,350
1257,0.23,-0.95,-0.14,1.22,-2.99,-0.18,215,277,408,463,360
1258,0.22,-0.96,-0.14,0.31,-3.23,-1.46,221,270,406,460,356
1259,0.22,-0.97,-0.14,1.16,-1.95,-0.79,217,269,405,460,356
1260,0.22,-0.96,-0.13,0.79,-2.01,-1.4,221,276,409,455,356
1261,0.22,-0.97,-0.13,3.97,-3.11,-2.14,230,272,405,464,355
1262,0.21,-0.95,-0.12,-1.34,-2.69,-1.46,221,278,405,464,357
1263,0.21,-0.96,-0.17,2.62,-2.32,-2.81,223,276,418,462,357
1264,0.22,-0.97,-0.15,0.43,-3.42,-1.83,218,274,405,460,358
1265,0.19,-0.95,-0.12,-0.31,-2.26,-1.16,215,277,406,457,355
1266,0.23,-0.97,-0.14,2.2,-2.38,-0.49,221,269,406,456,358
1267,0.2,-0.97,-0.16,-0.06,-1.65,-2.69,220,276,405,459,354
1268,0.18,-0.96,-0.14,4.64,-2.32,-0.12,221,278,408,459,357
1269,0.21,-0.98,-0.16,1.34,-4.88,-2.81,216,276,408,458,354
1270,0.25,-0.97,-0.17,-0.49,-9.34,-2.32,221,276,404,462,357
1271,0.17,-0.96,-0.12,6.16,-1.16,-1.95,222,276,405,462,357
1272,0.2,-0.99,-0.17,-2.26,-0.85,-3.54,221,274,407,464,357
1273,0.13,-0.98,-0.16,2.69,-1.28,-1.89,220,274,404,459,355
1274,0.23,-1.0,-0.15,-9.7,-5.98,-8.48,223,275,408,460,357
1275,0.16,-0.98,-0.14,-5.25,-3.48,-7.2,219,275,401,462,354
1276,0.12,-0.97,-0.1,1.46,-0.73,-0.85,223,276,404,455,359
1277,0.17,-0.98,-0.14,3.54,-0.55,-2.5,222,276,403,461,367
1278,0.16,-0.98,-0.15,-1.89,-4.39,-4.94,221,275,405,459,357
1279,0.13,-0.98,-0.12,2.26,-2.01,-3.78,218,277,403,461,355
1280,0.12,-0.97,-0.11,-2.08,-0.49,-2.5,223,275,406,463,354
1281,0.15,-0.99,-0.13,-0.12,-1.89,-3.36,221,272,405,463,356
1282,0.15,-0.99,-0.14,0.85,-4.27,-2.38,219,273,415,461,355
1283,0.13,-0.97,-0.12,-1.22,-5.37,-5.13,219,277,401,464,359
1284,0.11,-0.97,-0.1,-0.31,-2.99,-3.42,222,268,405,460,356
1285,0.13,-0.98,-0.13,-1.83,-2.93,-3.11,222,279,405,462,359
1286,0.16,-0.98,-0.12,-0.73,-3.36,-3.85,221,275,405,457,358
1287,0.15,-0.98,-0.11,2.5,-3.05,-2.87,220,276,405,456,352
1288,0.17,-0.97,-0.11,5.07,-3.78,-2.14,220,279,405,458,355
1289,0.16,-0.97,-0.08,4.33,-1.04,-0.73,220,274,405,464,358
1290,0.15,-0.98,-0.1,-0.61,-2.81,-2.2,218,272,402,464,356
1291,0.14,-0.97,-0.09,1.4,-1.46,-2.26,220,275,402,464,354
1292,0.14,-0.98,-0.1,-1.34,-2.93,-2.14,221,272,400,459,357
1293,0.15,-0.98,-0.09,1.59,-2.87,-1.34,217,273,403,457,356
1294,0.13,-0.99,-0.1,2.44,-3.91,-1.34,228,272,401,461,359
1295,0.16,-0.98,-0.08,-1.71,-6.65,-3.78,222,273,406,453,359
1296,0.14,-0.98,-0.09,6.29,2.99,2.69,222,275,404,454,356
1297,0.15,-1.0,-0.09,0.73,-1.59,-0.31,217,275,401,459,357
1298,0.11,-0.97,-0.06,3.72,-3.85,-2.2,221,270,399,460,357
1299,0.12,-0.99,-0.1,0.24,-2.5,-3.66,220,278,402,462,355
1300,0.13,-1.0,-0.09,2.32,-2.99,-3.6,219,266,402,456,357
1301,0.15,-1.01,-0.09,1.04,-2.5,-3.66,221,273,404,458,354
1302,0.15,-1.0,-0.1,1.83,-3.48,-3.3,223,274,404,457,357
1303,0.14,-0.98,-0.1,0.24,-2.69,-3.23,219,278,402,456,352
1304,0.15,-0.98,-0.09,0.0,-2.99,-2.75,219,274,402,458,357
1305,0.13,-0.98,-0.09,0.06,-2.87,-2.75,219,275,396,454,358
1306,0.13,-0.98,-0.09,0.98,-3.3,-2.93,223,276,402,458,360
1307,0.13,-0.98,-0.08,-0.06,-2.69,-3.85,233,278,401,453,354
1308,0.13,-0.99,-0.08,0.37,-2.87,-4.46,228,277,398,456,353
1309,0.14,-0.98,-0.08,1.16,-4.09,-3.66,218,276,404,460,358
1310,0.16,-0.98,-0.1,0.43,-2.99,-3.05,219,274,404,456,359
1311,0.16,-0.98,-0.09,-0.31,-2.75,-2.01,221,275,402,461,355
1312,0.13,-0.99,-0.1,2.14,-1.28,-3.23,219,278,404,458,356
1313,0.15,-0.99,-0.08,2.32,-3.17,-0.18,219,274,403,462,357
1314,0.11,-0.97,-0.08,-0.24,-3.17,-1.4,222,277,407,454,358
1315,0.12,-0.98,-0.07,1.16,-3.3,-0.79,218,278,398,456,354
1316,0.12,-0.98,-0.07,0.92,-3.17,-2.2,224,274,398,457,359
1317,0.13,-0.99,-0.07,0.24,-3.17,-3.85,212,274,404,457,360
1318,0.12,-1.0,-0.06,0.92,-3.36,-2.62,231,271,400,456,357
1319,0.12,-0.98,-0.06,0.73,-3.05,-3.36,221,275,402,459,357
1320,0.13,-0.99,-0.07,-0.37,-2.62,-2.56,222,276,399,457,359
1321,0.12,-0.98,-0.07,0.73,-2.99,-2.2,225,272,401,454,356
1322,0.12,-0.99,-0.07,-0.73,-3.72,-2.69,216,276,398,453,357
1323,0.11,-0.99,-0.07,-0.61,-3.3,-2.75,220,277,403,457,357
1324,0.11,-0.99,-0.07,2.26,-2.2,-2.5,220,281,404,454,355
1325,0.15,-0.99,-0.06,0.49,-3.3,-3.48,219,272,411,462,363
1326,0.15,-0.99,-0.06,1.16,-5.37,-2.2,219,273,402,460,359
1327,0.12,-0.98,-0.05,0.18,-2.5,-3.05,220,276,406,459,354
1328,0.1,-0.99,-0.05,-0.24,-2.56,-2.62,218,277,401,452,357
1329,0.12,-0.99,-0.05,0.43,-2.87,-2.08,219,275,400,460,353
1330,0.12,-0.97,-0.05,-0.85,-2.93,-2.44,219,280,399,460,357
1331,0.09,-0.97,-0.07,3.3,-1.89,-1.16,219,278,399,462,358
1332,0.11,-0.99,-0.05,0.31,-2.69,-2.56,222,274,401,453,357
1333,0.1,-0.99,-0.05,-0.24,-2.62,-3.36,258,272,400,457,357
1334,0.1,-0.98,-0.04,-0.31,-2.44,-2.44,219,274,402,461,355
1335,0.09,-0.98,-0.05,0.67,-2.69,-3.36,221,285,399,458,360
1336,0.07,-0.99,-0.05,0.24,-2.87,-2.26,218,282,403,461,356
1337,0.11,-0.99,-0.05,-0.18,-2.99,-2.56,221,276,403,463,358
1338,0.12,-0.99,-0.06,-0.67,-4.03,-4.09,231,276,400,459,357
1339,0.18,-1.0,-0.08,5.49,-3.23,-2.5,220,279,399,459,358
1340,0.15,-0.99,-0.04,1.77,-2.75,-2.2,223,274,400,459,357
1341,0.13,-0.99,-0.06,0.61,-2.87,-3.23,216,274,398,454,353
1342,0.12,-0.98,-0.05,-0.37,-2.93,-2.44,220,275,392,459,356
1343,0.11,-0.99,-0.05,0.49,-3.17,-2.26,224,278,401,461,357
1344,0.12,-0.99,-0.05,1.59,-2.14,-1.95,219,278,399,458,357
1345,0.1,-0.99,-0.04,1.59,-2.32,-1.53,220,278,401,462,358
1346,0.12,-0.98,-0.05,-0.55,-3.3,-2.26,221,276,402,475,360
1347,0.12,-0.99,-0.09,-0.18,-2.75,-1.22,224,275,400,458,359
1348,0.12,-0.98,-0.05,2.56,-3.85,-3.48,218,272,403,457,352
1349,0.1,-0.98,-0.05,-1.34,-3.6,0.73,220,276,399,457,358
1350,0.11,-0.97,-0.07,8.97,-1.95,-7.39,219,271,398,461,358
1351,0.09,-1.01,-0.06,1.1,-3.3,-3.48,257,280,405,462,355
1352,0.1,-1.0,-0.05,-2.38,-4.33,-4.88,226,274,403,455,357
1353,0.11,-1.0,-0.09,-0.73,-7.93,-2.99,230,278,403,459,353
1354,0.16,-1.0,-0.12,-5.07,-9.09,-3.23,225,277,397,461,354
1355,0.15,-0.96,-0.1,-5.37,-5.92,-7.93,220,277,404,461,359
1356,0.16,-0.99,-0.16,-1.04,-6.65,-5.49,221,276,404,459,357
1357,0.12,-0.98,-0.16,-2.01,-0.31,2.93,221,276,399,452,353
1358,0.12,-1.0,-0.14,-0.31,-2.08,-2.01,224,277,405,459,357
1359,0.06,-0.99,-0.12,-0.31,-5.8,-0.49,222,281,400,459,357
1360,0.1,-0.99,-0.15,4.64,-7.39,-2.93,218,275,399,460,357
1361,0.07,-0.98,-0.12,-1.46,-4.15,-8.85,222,270,394,461,358
1362,0.1,-0.99,-0.12,-0.98,-3.78,-5.98,224,278,400,459,354
1363,0.14,-0.99,-0.14,-2.32,-3.78,-2.14,223,268,400,455,358
1364,0.07,-0.98,-0.07,2.08,-3.66,5.62,219,280,402,459,353
1365,0.07,-1.01,-0.13,-1.83,-2.81,-3.78,223,278,402,459,357
1366,0.1,-1.0,-0.11,1.34,-3.72,-3.48,220,275,399,458,357
1367,0.09,-0.99,-0.07,-3.72,-2.62,-4.52,219,266,402,463,353
1368,0.08,-0.98,-0.07,-1.46,-0.31,-4.03,225,276,399,462,358
1369,0.06,-0.99,-0.08,1.34,-1.16,-0.98,220,275,399,462,354
1370,0.09,-0.99,-0.09,-0.18,-2.69,-2.44,223,280,402,447,353
1371,0.12,-0.99,-0.09,3.3,-1.34,-2.2,220,274,399,461,357
1372,0.06,-1.0,-0.09,4.21,-2.08,-1.34,220,272,400,461,356
1373,0.09,-0.99,-0.06,2.5,1.4,1.65,218,279,398,458,356
1374,0.14,-0.98,-0.07,0.31,0.49,-0.92,219,274,401,458,356
1375,0.1,-1.01,-0.14,10.93,-10.74,3.17,217,279,397,457,358
1376,0.19,-1.0,-0.18,-1.89,10.44,-5.37,219,275,397,458,354
1377,0.02,-0.98,-0.09,8.0,-5.13,0.61,223,275,398,459,357
1378,0.04,-0.99,-0.11,2.56,0.49,4.27,218,275,399,459,355
1379,0.05,-1.0,-0.1,1.04,-2.01,-2.99,220,276,402,457,354
1380,0.06,-0.95,-0.03,-2.69,2.2,-10.07,221,276,402,460,355
1381,0.07,-0.98,-0.06,2.08,-2.32,-4.09,232,276,398,456,347
1382,0.07,-1.01,-0.08,0.73,-2.26,-2.75,223,273,401,462,354
1383,0.06,-0.99,-0.08,2.01,-1.53,-3.78,221,277,401,458,350
1384,0.07,-0.99,-0.09,-0.24,-1.22,-4.58,224,278,399,458,358
1385,0.06,-0.99,-0.09,0.85,-2.69,-1.83,222,272,400,454,353
1386,0.06,-0.99,-0.07,2.08,-2.32,-1.89,221,277,399,462,355
1387,0.04,-1.0,-0.1,0.31,-0.85,-1.04,223,273,397,459,359
1388,0.07,-0.99,-0.09,1.1,-3.23,-2.44,217,276,395,459,352
1389,0.06,-0.99,-0.08,0.12,-2.2,-2.01,223,274,400,459,358
1390,0.06,-0.99,-0.08,-1.1,-3.48,-1.95,224,274,398,454,354
1391,0.04,-0.99,-0.11,-1.28,-6.35,-10.31,224,278,401,464,355
1392,0.08,-0.98,-0.12,4.7,-1.53,-5.86,220,276,399,456,358
1393,0.09,-0.98,-0.08,3.36,-1.22,-0.49,223,272,398,455,356
1394,0.09,-0.98,-0.1,2.2,-4.76,-1.53,219,279,401,456,354
1395,0.08,-0.99,-0.07,-1.16,-2.87,-3.72,219,268,401,463,358
1396,0.07,-0.98,-0.09,-0.18,-3.91,-3.36,226,275,398,454,358
1397,0.1,-0.99,-0.08,0.61,-2.81,-2.99,221,280,401,462,358
1398,0.09,-0.99,-0.09,0.24,-2.75,-2.08,222,273,399,463,354
1399,0.08,-0.99,-0.08,0.37,-3.3,-2.93,221,277,410,464,358
1400,0.09,-0.99,-0.08,0.0,-3.23,-2.62,225,277,398,454,359
1401,0.07,-0.98,-0.08,0.61,-2.2,-3.36,221,274,399,456,353
1402,0.11,-0.99,-0.1,1.1,-2.87,-3.91,220,275,399,461,358
1403,0.1,-0.99,-0.09,-0.06,-2.62,-1.28,221,274,398,457,358
1404,0.07,-0.98,-0.07,0.92,-1.71,-1.95,220,275,398,459,353
1405,0.09,-0.99,-0.08,2.44,-4.76,0.18,220,274,403,464,360
1406,0.06,-0.99,-0.08,1.95,-2.26,-0.98,222,282,395,463,356
1407,0.04,-0.97,-0.05,2.01,-4.46,-2.62,222,275,399,457,357
1408,0.05,-0.98,-0.08,-0.55,-3.42,-3.66,221,274,402,458,354
1409,0.07,-0.99,-0.1,1.46,-3.05,-2.44,220,277,402,460,356
1410,0.05,-1.0,-0.01,2.44,-3.3,0.85,225,276,402,455,355
1411,0.05,-0.98,-0.07,5.49,-5.37,-5.25,222,279,403,453,357
1412,-0.0,-1.02,-0.06,2.32,-7.08,4.39,222,277,400,458,357
1413,-0.06,-0.96,-0.02,-3.97,-8.73,-5.74,229,276,394,451,354
1414,0.1,-0.99,-0.05,-5.37,0.55,-9.89,222,279,400,458,356
1415,0.11,-0.98,-0.06,0.79,0.92,-4.39,220,271,399,461,356
1416,0.14,-0.99,-0.09,3.05,-3.54,1.16,221,274,398,454,358
1417,0.09,-0.98,-0.08,-1.04,-4.39,-0.85,224,275,401,462,356
1418,0.07,-1.01,-0.08,-0.67,0.43,-5.8,223,277,399,456,357
1419,0.1,-0.98,-0.05,0.73,-2.32,-1.71,221,274,400,459,358
1420,0.1,-0.99,-0.05,-0.67,-2.87,-2.26,220,281,398,460,360
1421,0.1,-0.99,-0.06,0.61,-2.14,-1.22,218,275,398,455,358
1422,0.11,-0.98,-0.05,5.8,-2.87,-2.08,224,275,397,457,355
1423,0.1,-0.99,-0.03,0.37,-3.6,-3.66,224,274,401,458,356
1424,0.1,-1.0,-0.03,0.37,-3.78,-2.87,223,275,398,454,355
1425,0.1,-0.99,-0.04,0.85,-3.3,-3.17,223,272,400,458,357
1426,0.11,-0.99,-0.04,0.24,-2.32,-1.95,222,274,401,463,355
1427,0.08,-0.99,-0.02,0.12,-3.11,-2.26,223,273,399,459,358
1428,0.1,-0.99,-0.04,-0.61,-2.99,-2.26,221,274,400,460,356
1429,0.09,-1.0,-0.03,3.36,-2.32,-2.26,219,276,402,460,356
1430,0.1,-1.0,-0.03,1.16,-2.5,-2.62,218,274,396,457,356
1431,0.1,-1.0,-0.03,0.0,-3.05,-2.69,218,276,399,453,357
1432,0.1,-0.99,-0.02,-1.04,-4.27,-4.88,225,273,402,468,354
1433,0.11,-0.99,-0.03,2.81,-0.85,-0.98,225,276,400,462,357
1434,0.11,-0.98,0.01,2.93,-1.77,-2.26,223,277,399,462,358
1435,0.1,-0.99,-0.02,2.81,-2.26,-1.77,222,274,399,459,359
1436,0.1,-1.0,-0.04,-2.08,-3.3,-5.31,222,277,400,459,357
1437,0.11,-0.99,-0.01,1.53,-2.01,-4.39,228,278,399,453,356
1438,0.08,-1.0,-0.03,-0.06,-2.93,-2.08,222,275,399,460,363
1439,0.09,-0.99,-0.08,2.38,-5.37,-4.39,222,273,398,454,358
1440,0.08,-0.99,-0.07,-4.88,1.59,-2.75,223,274,395,458,356
1441,0.07,-0.99,-0.1,-3.54,-2.56,-0.67,221,275,399,459,356
1442,0.1,-0.98,-0.05,1.04,-3.91,-2.38,221,271,402,468,360
1443,0.1,-1.0,-0.08,1.46,-3.11,1.71,225,274,400,462,353
1444,0.11,-1.0,-0.09,0.73,-4.82,-2.44,223,278,401,455,360
1445,0.09,-0.98,-0.04,1.83,-3.91,-4.52,215,273,399,455,357
1446,0.11,-0.99,-0.06,-0.85,-3.42,-2.62,223,275,397,454,356
1447,0.12,-0.99,-0.05,-0.49,-3.23,-3.48,217,277,398,461,356
1448,0.11,-0.99,-0.04,3.78,-3.3,-2.62,220,277,401,459,356
1449,0.08,-0.99,-0.04,0.31,-0.98,0.18,222,277,401,456,355
1450,0.11,-1.0,-0.07,-3.3,-2.26,-2.32,220,277,397,455,358
1451,0.1,-0.99,-0.06,2.32,-2.99,-0.85,221,277,396,457,353
1452,0.09,-0.99,-0.06,-1.04,-2.62,-2.75,228,275,399,457,353
1453,0.12,-0.99,-0.05,0.24,-1.04,-2.93,222,274,395,456,355
1454,0.11,-0.99,-0.06,2.87,-3.11,-0.73,219,272,397,460,357
1455,0.1,-0.99,-0.03,1.59,0.55,0.73,223,270,392,451,355
1456,0.09,-1.02,-0.09,-5.62,-4.09,-6.1,220,274,397,455,346
1457,0.08,-0.99,-0.03,10.01,-4.64,-0.37,225,274,399,459,354
1458,0.09,-0.99,-0.02,3.36,-3.48,-4.76,217,279,394,460,359
1459,0.11,-0.99,-0.05,0.0,-3.48,-4.03,224,271,397,457,357
1460,0.1,-0.99,-0.02,0.85,-2.14,-3.42,219,276,391,451,352
1461,0.07,-0.97,0.03,11.23,-9.58,-0.12,221,275,397,460,360
1462,0.12,-1.01,-0.06,-5.86,0.31,-0.55,223,273,395,458,358
1463,0.11,-1.0,-0.04,2.99,-7.93,-6.1,224,275,400,458,356
1464,0.13,-0.99,-0.01,2.93,-2.56,-2.56,222,277,396,460,357
1465,0.11,-0.99,-0.04,-0.37,-3.66,-5.37,217,275,392,458,356
1466,0.11,-0.98,-0.02,-2.08,-3.42,-3.78,220,274,399,457,356
1467,0.13,-0.99,-0.06,0.61,-5.0,-6.35,221,274,392,459,355
1468,0.12,-0.99,-0.06,2.2,-4.52,-3.48,222,274,397,455,354
1469,0.11,-0.98,-0.04,0.49,-2.26,-2.38,221,276,393,462,357
1470,0.06,-0.82,-0.18,2.81,-2.08,-1.71,220,277,399,458,357
1471,0.14,-1.02,-0.03,1.53,-2.62,-1.89,220,282,397,452,357
1472,0.13,-1.0,-0.01,0.73,-2.08,0.55,225,276,397,459,353
1473,0.11,-0.99,-0.03,0.31,-1.83,-1.28,222,275,392,454,356
1474,0.14,-0.99,-0.03,-0.18,-2.87,-4.46,221,278,395,459,358
1475,0.12,-1.0,-0.03,1.22,-3.66,-0.12,221,280,397,456,354
1476,0.06,-0.99,0.01,2.56,-2.38,-0.98,221,277,397,452,357
1477,0.06,-0.99,0.01,-0.12,-2.87,-3.48,217,279,397,458,354
1478,0.09,-0.99,-0.01,-0.43,-1.77,-3.78,224,275,396,462,358
1479,0.11,-1.0,-0.01,0.85,-2.62,-1.04,221,277,398,456,357
1480,0.09,-1.0,-0.01,0.73,-1.77,-1.53,221,278,396,458,359
1481,0.07,-1.0,-0.01,0.12,-2.26,-2.87,224,275,397,461,359
1482,0.09,-0.99,-0.01,0.0,-2.99,-3.3,221,276,398,454,356
1483,0.1,-1.0,-0.0,0.43,-2.44,-2.14,222,275,396,457,356
1484,0.12,-1.0,0.0,5.55,-1.53,-0.79,222,273,397,458,356
1485,0.1,-1.0,-0.01,-2.56,-4.7,-4.03,221,276,398,458,351
1486,0.14,-0.96,0.04,-2.69,-0.61,-6.1,222,274,394,454,358
1487,0.11,-0.98,-0.01,-0.85,-3.91,-12.51,224,280,397,458,358
1488,0.19,-0.99,-0.09,1.83,-5.31,-2.32,224,275,393,458,358
1489,0.08,-0.98,-0.03,3.05,-1.53,-0.85,222,277,398,458,360
1490,0.14,-0.98,-0.03,1.71,-6.04,-7.63,231,275,396,452,358
1491,0.13,-0.98,-0.03,-0.37,-2.08,-5.13,227,280,398,458,356
1492,0.21,-0.97,-0.08,-6.71,-5.13,-10.8,224,274,398,449,356
1493,0.12,-0.97,-0.09,-0.49,-9.22,-5.8,221,276,396,454,356
1494,0.19,-0.98,-0.09,-1.95,-4.15,-1.83,222,273,396,458,357
1495,0.15,-0.98,-0.07,-2.81,-3.23,-6.1,224,277,396,457,360
1496,0.14,-0.97,-0.07,4.21,-0.43,-2.81,221,277,393,462,353
1497,0.17,-0.97,-0.07,0.0,-3.42,-0.24,224,275,400,456,357
1498,0.17,-0.96,-0.07,-0.49,-2.87,-2.99,221,276,398,461,358
1499,0.19,-0.98,-0.11,-1.04,-2.81,-2.87,220,277,395,457,355
1500,0.2,-0.98,-0.09,0.92,-2.26,-2.44,220,275,399,457,359
1501,0.19,-0.98,-0.09,0.98,-2.99,-2.93,221,277,398,458,358
1502,0.22,-0.97,-0.06,-7.26,-9.09,-7.51,223,271,396,458,357
1503,0.13,-0.93,-0.08,3.3,-1.22,-3.6,222,281,398,464,357
1504,0.35,-1.07,-0.21,-2.62,-24.72,-5.8,222,276,394,453,357
1505,0.19,-0.98,-0.08,1.83,-3.17,-5.68,222,278,397,458,357
1506,0.18,-0.99,-0.09,0.67,0.18,-2.32,221,273,394,448,357
1507,0.16,-0.98,-0.1,-0.43,-4.27,-1.1,219,273,398,457,355
1508,0.17,-1.0,-0.12,0.31,-2.62,-3.17,223,274,394,458,357
1509,0.17,-0.98,-0.1,2.62,-3.17,-2.44,224,276,397,457,356
1510,0.15,-0.97,-0.07,1.71,-3.54,-1.53,221,277,397,459,356
1511,0.14,-0.99,-0.09,-0.49,-1.89,-2.62,219,274,394,457,360
1512,0.15,-0.97,-0.09,0.79,-1.83,-2.08,223,277,396,461,360
1513,0.15,-0.99,-0.08,2.14,-2.81,-1.65,221,278,397,462,356
1514,0.14,-0.98,-0.06,-0.92,-1.53,0.43,225,276,395,457,358
1515,0.14,-0.99,-0.08,-0.55,-2.08,-3.05,220,278,396,459,357
1516,0.12,-0.98,-0.06,0.12,-1.46,-1.77,223,277,401,457,358
1517,0.13,-0.99,-0.08,1.65,-2.5,-2.99,221,276,395,459,355
1518,0.11,-0.97,-0.03,2.08,3.05,-0.79,223,279,397,462,354
1519,0.13,-0.99,-0.07,0.37,-3.48,-0.85,223,276,397,451,358
1520,0.13,-1.0,-0.05,1.34,-3.11,-2.69,225,284,401,461,358
1521,0.12,-0.99,-0.05,-0.06,-2.32,0.92,224,273,397,457,358
1522,0.07,-0.99,-0.04,2.44,-2.32,0.67,224,267,390,458,361
1523,0.06,-0.99,-0.04,-0.79,-2.69,-4.15,225,275,394,461,358
1524,0.12,-0.99,-0.04,1.65,-2.81,-2.01,211,262,446,456,353
1525,0.12,-0.99,-0.03,1.4,-2.81,-2.69,206,265,446,452,353
1526,0.13,-0.99,-0.03,0.85,-3.3,-3.54,205,267,444,457,348
1527,0.12,-0.99,-0.03,0.73,-2.93,-2.93,205,267,444,456,348
1528,0.11,-0.99,-0.04,0.24,-2.87,-2.26,213,269,442,456,352
1529,0.12,-0.99,-0.05,-1.22,-2.01,-3.11,208,264,444,455,353
1530,0.12,-0.99,-0.05,1.59,-3.05,-2.56,208,275,440,458,351
1531,0.12,-0.99,-0.04,0.37,-1.71,-1.77,209,267,444,455,350
1532,0.12,-0.99,-0.04,1.04,-2.81,-1.83,211,266,442,452,350
1533,0.13,-0.99,-0.04,0.49,-2.69,-2.75,211,268,442,460,350
1534,0.12,-0.98,-0.02,-0.31,-1.28,-0.18,208,263,442,460,348
1535,0.11,-1.0,-0.07,-1.65,1.46,1.28,212,271,441,451,351
1536,0.1,-0.99,-0.05,1.71,-4.94,-4.76,211,268,443,462,349
1537,0.11,-0.99,-0.04,-0.61,-3.48,-4.09,209,269,442,452,353
1538,0.11,-0.99,-0.04,1.4,-2.56,-3.11,208,263,438,461,352
1539,0.11,-0.99,-0.04,0.18,-3.48,-2.08,207,271,439,456,353
1540,0.1,-0.99,-0.04,1.22,-2.93,-2.01,208,272,436,457,353
1541,0.1,-0.99,-0.05,0.18,-2.5,-3.05,211,271,433,457,351
1542,0.11,-0.99,-0.05,-0.37,-1.77,-4.27,207,272,439,456,353
1543,0.12,-0.99,-0.05,1.16,-2.32,-2.08,208,269,439,451,353
1544,0.12,-0.99,-0.03,-0.06,-2.14,-0.55,210,268,427,449,348
1545,0.1,-0.99,-0.05,0.12,-3.17,-0.92,208,265,433,462,350
1546,0.08,-1.0,-0.07,-3.78,-0.79,-0.92,210,271,430,460,351
1547,0.08,-1.0,-0.07,-0.55,-3.17,-2.62,206,270,431,462,350
1548,0.06,-0.99,-0.04,-0.18,-3.85,-2.62,208,272,434,461,350
1549,0.06,-0.99,-0.02,-3.66,-3.85,0.12,209,269,436,457,355
1550,0.12,-0.97,0.0,5.07,-9.34,-1.1,207,266,433,461,355
1551,0.04,-0.99,-0.04,-0.98,-1.71,-1.59,218,268,435,458,356
1552,0.02,-0.98,-0.0,-2.38,-6.29,-3.17,213,270,435,456,358
1553,0.05,-0.98,-0.01,2.99,-2.5,-0.85,204,273,436,460,356
1554,0.03,-1.01,-0.04,-1.16,1.89,-2.44,209,268,435,458,351
1555,0.04,-1.01,-0.06,-0.49,-4.27,-4.33,211,261,428,455,359
1556,0.05,-1.0,-0.01,5.0,-6.9,-3.66,210,265,429,462,355
1557,0.05,-0.98,-0.0,-3.91,-9.64,-7.57,209,264,425,457,358
1558,0.05,-0.98,0.01,1.71,0.98,3.17,210,276,431,456,353
1559,0.01,-0.99,-0.0,-6.9,-4.27,-0.31,213,276,437,457,354
1560,0.07,-0.98,0.02,-0.43,-1.95,-3.42,204,267,430,458,356
1561,0.08,-1.0,-0.04,0.67,-2.62,-5.19,211,269,430,460,353
1562,0.06,-1.01,-0.04,-0.61,1.95,1.04,210,265,428,458,356
1563,0.05,-0.99,0.01,-0.18,-4.39,-5.55,211,270,427,455,357
1564,0.07,-1.0,-0.01,0.43,-2.99,-3.17,208,274,432,462,353
1565,0.06,-1.0,-0.03,0.67,-2.99,-4.03,211,270,430,458,356
1566,0.06,-1.0,-0.01,1.89,-2.93,-0.06,212,270,430,462,356
1567,0.05,-1.0,0.0,2.87,-2.26,-1.4,209,270,429,456,357
1568,0.12,-1.02,-0.08,-1.83,-12.21,-1.16,210,272,426,461,356
1569,0.05,-0.99,-0.01,2.08,-3.48,-1.71,207,267,427,453,356
1570,0.05,-0.99,0.02,-1.28,-2.93,-1.89,210,267,430,458,355
1571,0.07,-1.01,-0.02,3.48,-2.62,-0.31,209,269,425,453,353
1572,0.06,-1.0,0.0,-1.77,-4.88,-6.96,218,273,427,464,356
1573,0.07,-0.99,-0.03,-1.28,-4.09,-6.1,209,269,429,458,351
1574,0.06,-1.0,-0.02,1.28,-2.38,-2.2,214,263,430,457,356
1575,0.09,-1.0,-0.03,4.52,2.81,3.36,205,271,426,460,353
1576,0.07,-0.98,0.02,-1.1,-5.31,-1.77,211,262,428,463,358
1577,0.08,-0.99,-0.01,-1.22,-0.12,-0.49,208,271,426,462,353
1578,0.06,-0.99,-0.04,-1.04,-5.13,0.06,213,269,426,461,356
1579,0.03,-0.99,-0.02,1.34,-3.17,-2.93,212,269,426,453,350
1580,0.01,-0.99,-0.0,-0.49,-0.43,-2.44,211,267,424,458,356
1581,0.04,-1.0,-0.02,-0.31,-3.11,-5.31,213,268,424,458,354
1582,0.06,-1.0,-0.02,0.06,-4.82,-3.23,214,270,423,462,354
1583,0.06,-0.83,-0.06,-0.18,1.53,-2.75,213,260,425,454,358
1584,0.14,-0.98,-0.02,-1.77,-1.83,-7.81,211,270,425,456,358
1585,0.12,-0.99,-0.06,0.24,-2.14,-2.2,212,268,425,459,354
1586,0.13,-0.98,-0.07,-3.48,-0.73,-1.83,212,269,425,461,355
1587,0.08,-0.97,-0.06,2.32,1.1,0.31,210,270,427,460,350
1588,0.06,-1.0,0.02,7.02,-8.42,-2.56,206,269,427,463,351
1589,0.08,-0.96,-0.01,0.61,4.88,-3.54,212,284,422,456,355
1590,0.08,-0.98,-0.08,1.16,-6.41,-4.46,208,271,425,456,354
1591,0.13,-0.99,-0.03,-0.18,-3.91,-7.87,212,267,418,460,354
1592,0.08,-1.0,-0.02,-0.18,-2.93,-2.75,212,273,426,458,355
1593,0.1,-1.0,-0.0,1.16,-2.08,0.61,214,265,424,461,356
1594,0.07,-0.98,-0.02,1.28,-2.99,-0.43,215,268,423,459,352
1595,0.09,-0.99,0.01,-0.37,-5.86,-6.04,216,271,423,457,353
1596,0.07,-0.99,0.01,-0.73,-0.61,-2.69,216,275,421,459,354
1597,0.14,-1.0,-0.03,0.24,-4.94,-2.44,217,268,420,459,356
1598,0.1,-0.99,-0.01,0.18,-0.49,2.38,214,270,430,463,353
1599,0.12,-0.98,0.01,1.89,-0.79,-1.46,208,264,422,465,357
1600,0.06,-0.98,-0.03,-1.83,-2.26,-2.08,206,267,422,459,357
1601,0.09,-0.99,-0.01,-0.24,-4.33,-3.23,215,273,424,455,356
1602,0.04,-0.97,-0.0,4.88,-3.66,2.5,207,273,424,456,357
1603,0.13,-1.04,-0.13,-10.56,-3.3,-9.58,215,265,423,464,354
1604,0.16,-0.98,0.02,-1.34,-6.41,-2.26,213,269,423,458,356
1605,0.15,-0.99,-0.01,-1.1,-4.46,6.41,213,272,423,463,357
1606,0.06,-1.0,-0.01,0.92,-7.51,8.54,215,271,421,459,355
1607,-0.02,-1.0,0.01,5.86,-4.33,-0.49,213,275,424,456,364
1608,0.04,-1.0,0.03,-5.8,-4.7,-7.14,213,269,424,455,351
1609,0.06,-1.0,-0.01,-7.87,4.94,-17.15,209,272,422,458,355
1610,0.13,-0.96,-0.07,-12.51,-1.1,-18.19,214,273,420,449,357
1611,0.08,-0.99,-0.02,-2.44,-1.4,-5.86,211,270,420,458,353
1612,0.17,-0.99,-0.06,-0.18,-4.58,-3.48,213,272,425,458,358
1613,0.12,-0.98,-0.03,-2.14,-6.9,-5.62,212,270,423,462,357
1614,0.16,-1.0,-0.08,1.71,-0.12,-1.28,212,273,422,454,356
1615,0.13,-1.02,-0.05,1.65,-1.83,-3.17,214,272,419,457,353
1616,0.07,-1.0,-0.01,3.72,-4.7,-3.3,214,267,422,460,354
1617,0.13,-1.0,-0.04,2.01,0.06,-0.85,214,270,418,454,351
1618,0.11,-1.0,-0.01,0.24,-3.11,-1.71,217,272,422,458,357
1619,0.13,-0.99,-0.04,-2.32,-1.83,-4.39,214,272,420,459,357
1620,0.11,-0.98,-0.03,-5.86,-10.68,-4.52,217,269,422,455,356
1621,0.1,-0.95,-0.01,6.16,-0.12,-3.23,222,270,417,463,357
1622,0.12,-0.98,-0.07,5.98,-0.55,-0.06,216,273,418,456,356
1623,0.14,-0.97,-0.05,2.44,-0.43,-2.14,213,272,420,463,359
1624,0.16,-0.98,-0.07,1.83,-2.56,-1.77,246,272,422,460,356
1625,0.13,-0.99,-0.07,0.43,-3.3,-3.11,211,270,417,457,356
1626,0.14,-0.98,-0.06,0.12,-3.05,-2.32,213,271,420,462,358
1627,0.14,-0.99,-0.07,-0.37,-2.75,-2.26,214,268,417,464,359
1628,0.12,-0.99,-0.06,-2.93,0.31,-5.07,215,269,419,458,356
1629,0.12,-0.98,-0.01,-2.2,0.43,-1.16,215,270,423,467,356
1630,0.1,-0.98,-0.03,-0.61,-1.34,-0.67,216,271,417,457,355
1631,0.16,-0.99,-0.04,-0.85,-3.3,-4.27,215,276,416,460,353
1632,0.15,-0.97,-0.07,-0.85,-2.5,-2.69,208,268,417,460,351
1633,0.17,-0.98,-0.07,2.5,-3.6,-3.72,214,274,417,461,355
1634,0.15,-0.98,-0.05,2.5,-5.0,-1.04,217,280,419,462,355
1635,0.15,-0.98,-0.06,1.59,-2.99,-1.04,217,271,413,463,352
1636,0.15,-0.98,-0.04,1.77,-3.11,-2.08,214,267,419,460,351
1637,0.14,-0.98,-0.05,0.67,-2.99,-2.87,215,270,417,454,353
1638,0.14,-0.98,-0.05,0.73,-2.56,-2.62,212,273,417,455,352
1639,0.14,-0.99,-0.06,-0.18,-2.5,-2.81,210,274,415,456,355
1640,0.14,-0.99,-0.06,-3.17,-4.64,-6.84,214,268,418,463,355
1641,0.12,-1.0,-0.04,2.01,-3.78,-6.1,214,276,420,475,353
1642,0.14,-0.98,-0.02,-0.31,-3.66,-2.26,217,272,417,461,358
1643,0.15,-0.99,-0.05,1.1,-3.42,-0.61,220,274,417,465,350
1644,0.11,-0.99,-0.0,4.82,-2.81,-2.75,212,275,418,460,358
1645,0.14,-0.99,-0.03,1.34,-2.08,-3.05,210,272,413,463,357
1646,0.16,-0.98,-0.04,2.87,-3.3,-1.46,215,277,416,465,358
1647,0.13,-0.99,-0.04,-0.79,-1.89,-1.89,219,271,412,458,351
1648,0.1,-0.99,0.0,3.66,-4.82,-0.49,216,274,415,463,356
1649,0.28,-0.97,-0.04,-3.97,7.45,-4.03,217,272,417,458,355
1650,0.17,-0.97,-0.04,-12.27,-9.22,-6.65,215,270,414,462,352
1651,0.2,-1.03,-0.11,-4.88,-3.72,-5.07,214,271,416,461,353
1652,0.14,-0.99,-0.03,-7.26,4.21,-5.98,215,270,417,464,354
1653,0.17,-1.01,-0.07,-6.29,-4.58,-5.74,216,273,417,463,356
1654,0.17,-0.98,-0.04,2.01,-2.75,-3.48,215,275,410,461,356
1655,0.17,-0.99,-0.03,1.83,-2.56,-4.15,214,272,411,463,352
1656,0.15,-0.99,-0.03,-0.43,-3.17,-1.77,216,273,416,457,355
1657,0.15,-0.98,-0.04,-3.78,1.53,-0.85,215,280,427,465,353
1658,0.16,-0.98,-0.03,-0.55,-1.46,-5.19,217,275,412,459,354
1659,0.07,-0.99,0.0,-8.0,-0.24,-5.92,218,276,413,461,351
1660,0.15,-0.98,-0.03,-6.23,-9.22,-4.46,221,270,414,460,354
1661,0.16,-1.0,-0.05,0.79,-3.05,-2.38,210,271,412,463,354
1662,0.18,-0.97,-0.02,1.4,-4.52,-2.56,223,272,410,461,351
1663,0.14,-0.99,-0.02,2.38,-3.6,-2.87,215,277,410,462,357
1664,0.15,-1.01,-0.05,-3.3,-11.78,-2.08,216,272,412,456,351
1665,0.14,-1.03,-0.07,4.52,-14.47,2.32,221,273,412,471,356
1666,0.3,-1.0,-0.08,-4.7,5.62,-15.32,215,271,416,465,355
1667,0.13,-0.95,-0.04,-3.66,-8.42,-8.42,215,273,411,461,357
1668,0.14,-0.99,-0.06,6.04,2.32,2.75,212,273,413,460,355
1669,0.14,-0.98,-0.04,-2.38,-1.46,-3.11,217,274,415,460,352
1670,0.23,-1.04,-0.1,-3.36,-3.23,-8.36,217,274,414,465,357
1671,0.1,-0.97,-0.05,3.42,-2.75,4.33,221,272,415,459,357
1672,0.13,-0.99,-0.11,-3.78,-3.3,-3.85,220,274,410,464,355
1673,0.12,-0.97,-0.05,-9.03,-5.19,0.85,212,272,418,462,353
1674,0.14,-0.98,-0.06,0.92,-3.36,-3.91,217,274,409,462,354
1675,0.12,-0.99,-0.09,4.15,-1.46,-1.4,216,278,413,461,357
1676,0.12,-1.0,-0.07,0.98,-4.27,-1.1,219,273,415,457,354
1677,0.15,-0.98,-0.04,9.28,-4.09,-4.64,217,274,413,457,354
1678,0.14,-0.97,-0.02,-2.01,-4.94,-3.85,217,273,414,459,355
1679,0.11,-0.99,-0.07,-3.78,0.06,-3.11,216,273,414,456,354
1680,0.14,-0.98,-0.04,0.49,-0.49,-3.05,216,274,408,454,353
1681,0.15,-0.97,-0.01,0.85,-0.18,-1.71,215,276,413,462,356
1682,0.15,-0.98,-0.02,-0.18,-1.1,-3.17,216,271,413,459,355
1683,0.17,-0.97,-0.03,1.22,-2.44,-2.38,219,274,421,456,353
1684,0.16,-0.98,-0.06,5.62,-1.59,-0.18,212,272,410,461,355
1685,0.07,-1.0,-0.05,-0.92,-2.08,5.92,216,273,414,455,351
1686,0.14,-1.01,-0.08,0.92,-2.69,-8.42,218,274,411,462,357
1687,0.1,-0.95,0.01,-3.72,-2.56,-3.3,214,274,417,459,353
1688,0.08,-0.98,-0.0,1.65,-1.89,-1.89,221,270,413,457,356
1689,0.14,-0.98,-0.03,4.7,-2.32,-2.5,219,272,415,460,355
1690,0.11,-0.97,-0.06,10.93,2.2,3.6,213,274,415,459,354
1691,0.2,-0.99,-0.05,-5.13,-4.15,-5.43,216,274,413,455,354
1692,0.14,-0.98,-0.06,2.26,-1.83,-2.26,217,276,413,456,354
1693,0.14,-0.97,-0.03,4.76,-3.72,-1.53,220,270,412,458,355
1694,0.2,-0.98,-0.07,1.1,-1.1,-1.28,218,277,412,457,353
1695,0.16,-0.99,-0.07,-1.16,-1.1,-0.67,218,272,410,461,350
1696,0.15,-0.99,-0.06,0.73,-2.81,-1.46,217,266,411,455,352
1697,0.16,-1.0,-0.06,0.67,-2.87,-0.98,223,269,412,465,352
1698,0.13,-0.99,-0.06,-0.92,-3.48,-0.55,217,275,410,460,354
1699,0.09,-0.99,-0.05,0.79,-3.05,-2.99,221,268,407,459,354
1700,0.12,-0.99,-0.04,-3.11,-1.71,-6.47,214,277,411,462,348
1701,0.15,-1.0,-0.08,-0.49,-0.12,-4.46,216,271,411,463,354
1702,0.15,-0.99,-0.08,2.93,-5.31,0.98,216,273,418,460,350
1703,0.14,-0.98,-0.07,3.23,-4.88,-0.79,217,279,412,459,352
1704,0.11,-0.98,-0.05,4.27,-4.27,-2.99,221,273,408,459,351
1705,0.11,-0.98,-0.04,-0.37,-4.52,-3.42,220,270,411,458,346
1706,0.15,-0.99,-0.05,-1.95,-3.72,-7.2,221,273,409,461,353
1707,0.18,-0.98,-0.08,0.06,-2.32,-4.64,218,271,408,457,352
1708,0.17,-0.98,-0.06,4.15,-4.33,3.23,219,273,410,457,355
1709,0.11,-0.99,-0.04,2.26,-5.86,-0.43,217,266,409,459,355
1710,0.11,-0.98,-0.03,-0.85,-2.5,-3.17,218,273,412,464,355
1711,0.18,-0.98,-0.05,-1.65,0.49,-5.62,223,272,411,459,353
1712,0.18,-0.98,-0.06,0.12,-2.62,-3.05,210,278,406,454,353
1713,0.15,-0.98,-0.04,1.89,-1.34,2.38,214,274,408,459,350
1714,0.13,-0.99,-0.05,2.26,-2.75,1.95,221,270,411,461,351
1715,0.1,-0.98,-0.02,0.06,-2.93,-1.59,218,274,411,461,356
1716,0.11,-0.99,-0.03,-2.75,-2.01,-7.2,219,264,412,459,354
1717,0.16,-0.97,-0.03,-8.91,-1.34,-2.69,217,270,411,459,354
1718,0.2,-1.05,-0.1,-15.14,0.18,6.23,220,274,409,457,353
1719,-0.03,-0.98,-0.28,-27.22,-62.87,6.16,218,276,408,460,354
1720,0.08,-1.0,-0.1,-2.14,-5.74,-5.13,221,276,412,455,357
1721,0.16,-1.0,-0.17,-1.71,0.49,-3.17,213,273,408,466,355
1722,0.16,-1.06,-0.24,0.18,-5.62,-12.02,220,278,411,462,357
1723,0.12,-0.97,-0.11,1.83,0.37,-2.44,217,274,409,461,349
1724,0.16,-0.97,0.04,4.52,3.11,13.92,220,276,409,460,356
1725,0.12,-1.0,-0.11,-0.55,13.49,6.53,215,275,407,457,357
1726,0.21,-0.98,-0.1,1.1,-4.58,-0.79,216,277,408,458,355
1727,0.27,-0.95,-0.17,-18.25,-27.16,3.48,218,276,409,459,353
1728,0.08,-0.96,-0.27,-6.1,-13.67,0.31,217,269,408,460,353
1729,0.11,-0.95,-0.32,-2.38,0.92,-6.77,226,273,409,463,356
1730,0.09,-0.98,-0.25,1.83,-2.87,-2.99,221,277,409,461,358
1731,0.1,-0.97,-0.13,0.61,-10.01,-10.68,220,273,408,460,357
1732,0.16,-0.96,-0.2,2.44,-7.45,-2.56,220,275,408,463,352
1733,0.12,-0.97,-0.19,-1.65,-2.32,-2.08,219,274,413,464,356
1734,0.15,-0.99,-0.2,-3.36,-4.39,-2.69,218,278,412,460,355
1735,0.16,-0.97,-0.19,3.78,-3.48,-3.11,240,279,403,468,353
1736,0.16,-0.97,-0.14,0.85,-3.42,-4.94,217,276,408,463,348
1737,0.16,-0.97,-0.16,2.93,-2.62,-3.85,222,280,411,460,359
1738,0.16,-0.96,-0.15,3.97,-3.23,0.37,215,274,410,465,358
1739,0.11,-0.98,-0.17,1.16,-8.18,-0.18,219,276,409,463,356
1740,0.11,-0.97,-0.12,-2.32,-1.95,-1.46,219,273,407,461,357
1741,0.09,-0.98,-0.1,-0.73,-1.65,-0.18,216,273,408,462,355
1742,0.09,-0.97,-0.14,7.45,-2.44,-3.66,221,275,407,455,355
1743,0.09,-0.95,-0.16,4.46,3.66,-0.18,223,275,407,464,354
1744,0.2,-0.95,-0.12,2.44,-7.63,-9.03,222,281,403,454,353
1745,0.15,-0.95,-0.14,1.59,-2.32,0.92,225,276,407,460,356
1746,0.17,-0.95,-0.14,2.62,-3.17,1.16,221,275,408,459,355
1747,0.19,-0.97,-0.17,-0.67,-3.66,0.98,221,275,409,464,358
1748,0.17,-0.98,-0.17,0.06,-2.81,-4.52,219,276,403,460,359
1749,0.13,-0.97,-0.13,-0.31,-5.68,-4.09,220,273,405,459,354
1750,0.15,-0.98,-0.16,3.36,-2.14,-3.72,219,275,403,457,356
1751,0.17,-0.97,-0.13,3.72,-1.77,-2.87,219,276,405,460,354
1752,0.15,-0.96,-0.13,-3.42,-2.01,-3.85,221,276,420,460,358
1753,0.15,-0.97,-0.16,-0.67,-1.95,-3.17,218,272,408,461,355
1754,0.16,-0.95,-0.15,5.55,-8.18,6.47,220,273,407,464,353
1755,0.16,-0.95,-0.09,5.55,1.59,-3.78,216,275,407,461,355
1756,0.23,-0.96,-0.16,5.31,-3.54,-9.22,221,273,408,463,358
1757,0.19,-0.97,-0.18,1.95,0.0,-4.64,220,274,405,473,357
1758,0.19,-1.0,-0.18,3.3,-1.59,11.84,219,279,406,458,358
1759,0.03,-0.93,-0.1,8.85,0.06,1.34,220,272,403,460,358
1760,0.23,-0.96,-0.15,-4.21,-2.81,-5.86,221,273,409,466,353
1761,0.19,-0.96,-0.17,1.89,-3.48,-4.03,217,279,405,461,358
1762,0.19,-0.96,-0.16,-1.59,-6.59,-5.0,221,272,406,463,355
1763,0.19,-0.97,-0.15,2.62,-1.89,-2.62,220,273,406,466,355
1764,0.25,-0.95,-0.15,0.85,-6.59,-6.23,219,278,406,470,350
1765,0.23,-0.95,-0.14,1.22,-2.99,-0.18,215,277,408,463,360
1766,0.22,-0.96,-0.14,0.31,-3.23,-1.46,221,270,406,460,356
1767,0.22,-0.97,-0.14,1.16,-1.95,-0.79,217,269,405,460,356
1768,0.22,-0.96,-0.13,0.79,-2.01,-1.4,221,276,409,455,356
1769,0.22,-0.97,-0.13,3.97,-3.11,-2.14,230,272,405,464,355
1770,0.21,-0.95,-0.12,-1.34,-2.69,-1.46,221,278,405,464,357
1771,0.21,-0.96,-0.17,2.62,-2.32,-2.81,223,276,418,462,357
1772,0.22,-0.97,-0.15,0.43,-3.42,-1.83,218,274,405,460,358
1773,0.19,-0.95,-0.12,-0.31,-2.26,-1.16,215,277,406,457,355
1774,0.23,-0.97,-0.14,2.2,-2.38,-0.49,221,269,406,456,358
1775,0.2,-0.97,-0.16,-0.06,-1.65,-2.69,220,276,405,459,354
1776,0.18,-0.96,-0.14,4.64,-2.32,-0.12,221,278,408,459,357
1777,0.21,-0.98,-0.16,1.34,-4.88,-2.81,216,276,408,458,354
1778,0.25,-0.97,-0.17,-0.49,-9.34,-2.32,221,276,404,462,357
1779,0.17,-0.96,-0.12,6.16,-1.16,-1.95,222,276,405,462,357
1780,0.2,-0.99,-0.17,-2.26,-0.85,-3.54,221,274,407,464,357
1781,0.13,-0.98,-0.16,2.69,-1.28,-1.89,220,274,404,459,355
1782,0.23,-1.0,-0.15,-9.7,-5.98,-8.48,223,275,408,460,357
1783,0.16,-0.98,-0.14,-5.25,-3.48,-7.2,219,275,401,462,354
1784,0.12,-0.97,-0.1,1.46,-0.73,-0.85,223,276,404,455,359
1785,0.17,-0.98,-0.14,3.54,-0.55,-2.5,222,276,403,461,367
1786,0.16,-0.98,-0.15,-1.89,-4.39,-4.94,221,275,405,459,357
1787,0.13,-0.98,-0.12,2.26,-2.01,-3.78,218,277,403,461,355
1788,0.12,-0.97,-0.11,-2.08,-0.49,-2.5,223,275,406,463,354
1789,0.15,-0.99,-0.13,-0.12,-1.89,-3.36,221,272,405,463,356
1790,0.15,-0.99,-0.14,0.85,-4.27,-2.38,219,273,415,461,355
1791,0.13,-0.97,-0.12,-1.22,-5.37,-5.13,219,277,401,464,359
1792,0.11,-0.97,-0.1,-0.31,-2.99,-3.42,222,268,405,460,356
1793,0.13,-0.98,-0.13,-1.83,-2.93,-3.11,222,279,405,462,359
1794,0.16,-0.98,-0.12,-0.73,-3.36,-3.85,221,275,405,457,358
1795,0.15,-0.98,-0.11,2.5,-3.05,-2.87,220,276,405,456,352
1796,0.17,-0.97,-0.11,5.07,-3.78,-2.14,220,279,405,458,355
1797,0.16,-0.97,-0.08,4.33,-1.04,-0.73,220,274,405,464,358
1798,0.15,-0.98,-0.1,-0.61,-2.81,-2.2,218,272,402,464,356
1799,0.14,-0.97,-0.09,1.4,-1.46,-2.26,220,275,402,464,354
1800,0.14,-0.98,-0.1,-1.34,-2.93,-2.14,221,272,400,459,357
1801,0.15,-0.98,-0.09,1.59,-2.87,-1.34,217,273,403,457,356
1802,0.13,-0.99,-0.1,2.44,-3.91,-1.34,228,272,401,461,359
1803,0.16,-0.98,-0.08,-1.71,-6.65,-3.78,222,273,406,453,359
1804,0.14,-0.98,-0.09,6.29,2.99,2.69,222,275,404,454,356
1805,0.15,-1.0,-0.09,0.73,-1.59,-0.31,217,275,401,459,357
1806,0.11,-0.97,-0.06,3.72,-3.85,-2.2,221,270,399,460,357
1807,0.12,-0.99,-0.1,0.24,-2.5,-3.66,220,278,402,462,355
1808,0.13,-1.0,-0.09,2.32,-2.99,-3.6,219,266,402,456,357
1809,0.15,-1.01,-0.09,1.04,-2.5,-3.66,221,273,404,458,354
1810,0.15,-1.0,-0.1,1.83,-3.48,-3.3,223,274,404,457,357
1811,0.14,-0.98,-0.1,0.24,-2.69,-3.23,219,278,402,456,352
1812,0.15,-0.98,-0.09,0.0,-2.99,-2.75,219,274,402,458,357
1813,0.13,-0.98,-0.09,0.06,-2.87,-2.75,219,275,396,454,358
1814,0.13,-0.98,-0.09,0.98,-3.3,-2.93,223,276,402,458,360
1815,0.13,-0.98,-0.08,-0.06,-2.69,-3.85,233,278,401,453,354
1816,0.13,-0.99,-0.08,0.37,-2.87,-4.46,228,277,398,456,353
1817,0.14,-0.98,-0.08,1.16,-4.09,-3.66,218,276,404,460,358
1818,0.16,-0.98,-0.1,0.43,-2.99,-3.05,219,274,404,456,359
1819,0.16,-0.98,-0.09,-0.31,-2.75,-2.01,221,275,402,461,355
1820,0.13,-0.99,-0.1,2.14,-1.28,-3.23,219,278,404,458,356
1821,0.15,-0.99,-0.08,2.32,-3.17,-0.18,219,274,403,462,357
1822,0.11,-0.97,-0.08,-0.24,-3.17,-1.4,222,277,407,454,358
1823,0.12,-0.98,-0.07,1.16,-3.3,-0.79,218,278,398,456,354
1824,0.12,-0.98,-0.07,0.92,-3.17,-2.2,224,274,398,457,359
1825,0.13,-0.99,-0.07,0.24,-3.17,-3.85,212,274,404,457,360
1826,0.12,-1.0,-0.06,0.92,-3.36,-2.62,231,271,400,456,357
1827,0.12,-0.98,-0.06,0.73,-3.05,-3.36,221,275,402,459,357
1828,0.13,-0.99,-0.07,-0.37,-2.62,-2.56,222,276,399,457,359
1829,0.12,-0.98,-0.07,0.73,-2.99,-2.2,225,272,401,454,356
1830,0.12,-0.99,-0.07,-0.73,-3.72,-2.69,216,276,398,453,357
1831,0.11,-0.99,-0.07,-0.61,-3.3,-2.75,220,277,403,457,357
1832,0.11,-0.99,-0.07,2.26,-2.2,-2.5,220,281,404,454,355
1833,0.15,-0.99,-0.06,0.49,-3.3,-3.48,219,272,411,462,363
1834,0.15,-0.99,-0.06,1.16,-5.37,-2.2,219,273,402,460,359
1835,0.12,-0.98,-0.05,0.18,-2.5,-3.05,220,276,406,459,354
1836,0.1,-0.99,-0.05,-0.24,-2.56,-2.62,218,277,401,452,357
1837,0.12,-0.99,-0.05,0.43,-2.87,-2.08,219,275,400,460,353
1838,0.12,-0.97,-0.05,-0.85,-2.93,-2.44,219,280,399,460,357
1839,0.09,-0.97,-0.07,3.3,-1.89,-1.16,219,278,399,462,358
1840,0.11,-0.99,-0.05,0.31,-2.69,-2.56,222,274,401,453,357
1841,0.1,-0.99,-0.05,-0.24,-2.62,-3.36,258,272,400,457,357
1842,0.1,-0.98,-0.04,-0.31,-2.44,-2.44,219,274,402,461,355
1843,0.09,-0.98,-0.05,0.67,-2.69,-3.36,221,285,399,458,360
1844,0.07,-0.99,-0.05,0.24,-2.87,-2.26,218,282,403,461,356
1845,0.11,-0.99,-0.05,-0.18,-2.99,-2.56,221,276,403,463,358
1846,0.12,-0.99,-0.06,-0.67,-4.03,-4.09,231,276,400,459,357
1847,0.18,-1.0,-0.08,5.49,-3.23,-2.5,220,279,399,459,358
1848,0.15,-0.99,-0.04,1.77,-2.75,-2.2,223,274,400,459,357
1849,0.13,-0.99,-0.06,0.61,-2.87,-3.23,216,274,398,454,353
1850,0.12,-0.98,-0.05,-0.37,-2.93,-2.44,220,275,392,459,356
1851,0.11,-0.99,-0.05,0.49,-3.17,-2.26,224,278,401,461,357
1852,0.12,-0.99,-0.05,1.59,-2.14,-1.95,219,278,399,458,357
1853,0.1,-0.99,-0.04,1.59,-2.32,-1.53,220,278,401,462,358
1854,0.12,-0.98,-0.05,-0.55,-3.3,-2.26,221,276,402,475,360
1855,0.12,-0.99,-0.09,-0.18,-2.75,-1.22,224,275,400,458,359
1856,0.12,-0.98,-0.05,2.56,-3.85,-3.48,218,272,403,457,352
1857,0.1,-0.98,-0.05,-1.34,-3.6,0.73,220,276,399,457,358
1858,0.11,-0.97,-0.07,8.97,-1.95,-7.39,219,271,398,461,358
1859,0.09,-1.01,-0.06,1.1,-3.3,-3.48,257,280,405,462,355
1860,0.1,-1.0,-0.05,-2.38,-4.33,-4.88,226,274,403,455,357
1861,0.11,-1.0,-0.09,-0.73,-7.93,-2.99,230,278,403,459,353
1862,0.16,-1.0,-0.12,-5.07,-9.09,-3.23,225,277,397,461,354
1863,0.15,-0.96,-0.1,-5.37,-5.92,-7.93,220,277,404,461,359
1864,0.16,-0.99,-0.16,-1.04,-6.65,-5.49,221,276,404,459,357
1865,0.12,-0.98,-0.16,-2.01,-0.31,2.93,221,276,399,452,353
1866,0.12,-1.0,-0.14,-0.31,-2.08,-2.01,224,277,405,459,357
1867,0.06,-0.99,-0.12,-0.31,-5.8,-0.49,222,281,400,459,357
1868,0.1,-0.99,-0.15,4.64,-7.39,-2.93,218,275,399,460,357
1869,0.07,-0.98,-0.12,-1.46,-4.15,-8.85,222,270,394,461,358
1870,0.1,-0.99,-0.12,-0.98,-3.78,-5.98,224,278,400,459,354
1871,0.14,-0.99,-0.14,-2.32,-3.78,-2.14,223,268,400,455,358
1872,0.07,-0.98,-0.07,2.08,-3.66,5.62,219,280,402,459,353
1873,0.07,-1.01,-0.13,-1.83,-2.81,-3.78,223,278,402,459,357
1874,0.1,-1.0,-0.11,1.34,-3.72,-3.48,220,275,399,458,357
1875,0.09,-0.99,-0.07,-3.72,-2.62,-4.52,219,266,402,463,353
1876,0.08,-0.98,-0.07,-1.46,-0.31,-4.03,225,276,399,462,358
1877,0.06,-0.99,-0.08,1.34,-1.16,-0.98,220,275,399,462,354
1878,0.09,-0.99,-0.09,-0.18,-2.69,-2.44,223,280,402,447,353
1879,0.12,-0.99,-0.09,3.3,-1.34,-2.2,220,274,399,461,357
1880,0.06,-1.0,-0.09,4.21,-2.08,-1.34,220,272,400,461,356
1881,0.09,-0.99,-0.06,2.5,1.4,1.65,218,279,398,458,356
1882,0.14,-0.98,-0.07,0.31,0.49,-0.92,219,274,401,458,356
1883,0.1,-1.01,-0.14,10.93,-10.74,3.17,217,279,397,457,358
1884,0.19,-1.0,-0.18,-1.89,10.44,-5.37,219,275,397,458,354
1885,0.02,-0.98,-0.09,8.0,-5.13,0.61,223,275,398,459,357
1886,0.04,-0.99,-0.11,2.56,0.49,4.27,218,275,399,459,355
1887,0.05,-1.0,-0.1,1.04,-2.01,-2.99,220,276,402,457,354
1888,0.06,-0.95,-0.03,-2.69,2.2,-10.07,221,276,402,460,355
1889,0.07,-0.98,-0.06,2.08,-2.32,-4.09,232,276,398,456,347
1890,0.07,-1.01,-0.08,0.73,-2.26,-2.75,223,273,401,462,354
1891,0.06,-0.99,-0.08,2.01,-1.53,-3.78,221,277,401,458,350
1892,0.07,-0.99,-0.09,-0.24,-1.22,-4.58,224,278,399,458,358
1893,0.06,-0.99,-0.09,0.85,-2.69,-1.83,222,272,400,454,353
1894,0.06,-0.99,-0.07,2.08,-2.32,-1.89,221,277,399,462,355
1895,0.04,-1.0,-0.1,0.31,-0.85,-1.04,223,273,397,459,359
1896,0.07,-0.99,-0.09,1.1,-3.23,-2.44,217,276,395,459,352
1897,0.06,-0.99,-0.08,0.12,-2.2,-2.01,223,274,400,459,358
1898,0.06,-0.99,-0.08,-1.1,-3.48,-1.95,224,274,398,454,354
1899,0.04,-0.99,-0.11,-1.28,-6.35,-10.31,224,278,401,464,355
1900,0.08,-0.98,-0.12,4.7,-1.53,-5.86,220,276,399,456,358
1901,0.09,-0.98,-0.08,3.36,-1.22,-0.49,223,272,398,455,356
1902,0.09,-0.98,-0.1,2.2,-4.76,-1.53,219,279,401,456,354
1903,0.08,-0.99,-0.07,-1.16,-2.87,-3.72,219,268,401,463,358
1904,0.07,-0.98,-0.09,-0.18,-3.91,-3.36,226,275,398,454,358
1905,0.1,-0.99,-0.08,0.61,-2.81,-2.99,221,280,401,462,358
1906,0.09,-0.99,-0.09,0.24,-2.75,-2.08,222,273,399,463,354
1907,0.08,-0.99,-0.08,0.37,-3.3,-2.93,221,277,410,464,358
1908,0.09,-0.99,-0.08,0.0,-3.23,-2.62,225,277,398,454,359
1909,0.07,-0.98,-0.08,0.61,-2.2,-3.36,221,274,399,456,353
1910,0.11,-0.99,-0.1,1.1,-2.87,-3.91,220,275,399,461,358
1911,0.1,-0.99,-0.09,-0.06,-2.62,-1.28,221,274,398,457,358
1912,0.07,-0.98,-0.07,0.92,-1.71,-1.95,220,275,398,459,353
1913,0.09,-0.99,-0.08,2.44,-4.76,0.18,220,274,403,464,360
1914,0.06,-0.99,-0.08,1.95,-2.26,-0.98,222,282,395,463,356
1915,0.04,-0.97,-0.05,2.01,-4.46,-2.62,222,275,399,457,357
1916,0.05,-0.98,-0.08,-0.55,-3.42,-3.66,221,274,402,458,354
1917,0.07,-0.99,-0.1,1.46,-3.05,-2.44,220,277,402,460,356
1918,0.05,-1.0,-0.01,2.44,-3.3,0.85,225,276,402,455,355
1919,0.05,-0.98,-0.07,5.49,-5.37,-5.25,222,279,403,453,357
1920,-0.0,-1.02,-0.06,2.32,-7.08,4.39,222,277,400,458,357
1921,-0.06,-0.96,-0.02,-3.97,-8.73,-5.74,229,276,394,451,354
1922,0.1,-0.99,-0.05,-5.37,0.55,-9.89,222,279,400,458,356
1923,0.11,-0.98,-0.06,0.79,0.92,-4.39,220,271,399,461,356
1924,0.14,-0.99,-0.09,3.05,-3.54,1.16,221,274,398,454,358
1925,0.09,-0.98,-0.08,-1.04,-4.39,-0.85,224,275,401,462,356
1926,0.07,-1.01,-0.08,-0.67,0.43,-5.8,223,277,399,456,357
1927,0.1,-0.98,-0.05,0.73,-2.32,-1.71,221,274,400,459,358
1928,0.1,-0.99,-0.05,-0.67,-2.87,-2.26,220,281,398,460,360
1929,0.1,-0.99,-0.06,0.61,-2.14,-1.22,218,275,398,455,358
1930,0.11,-0.98,-0.05,5.8,-2.87,-2.08,224,275,397,457,355
1931,0.1,-0.99,-0.03,0.37,-3.6,-3.66,224,274,401,458,356
1932,0.1,-1.0,-0.03,0.37,-3.78,-2.87,223,275,398,454,355
1933,0.1,-0.99,-0.04,0.85,-3.3,-3.17,223,272,400,458,357
1934,0.11,-0.99,-0.04,0.24,-2.32,-1.95,222,274,401,463,355
1935,0.08,-0.99,-0.02,0.12,-3.11,-2.26,223,273,399,459,358
1936,0.1,-0.99,-0.04,-0.61,-2.99,-2.26,221,274,400,460,356
1937,0.09,-1.0,-0.03,3.36,-2.32,-2.26,219,276,402,460,356
1938,0.1,-1.0,-0.03,1.16,-2.5,-2.62,218,274,396,457,356
1939,0.1,-1.0,-0.03,0.0,-3.05,-2.69,218,276,399,453,357
1940,0.1,-0.99,-0.02,-1.04,-4.27,-4.88,225,273,402,468,354
1941,0.11,-0.99,-0.03,2.81,-0.85,-0.98,225,276,400,462,357
1942,0.11,-0.98,0.01,2.93,-1.77,-2.26,223,277,399,462,358
1943,0.1,-0.99,-0.02,2.81,-2.26,-1.77,222,274,399,459,359
1944,0.1,-1.0,-0.04,-2.08,-3.3,-5.31,222,277,400,459,357
1945,0.11,-0.99,-0.01,1.53,-2.01,-4.39,228,278,399,453,356
1946,0.08,-1.0,-0.03,-0.06,-2.93,-2.08,222,275,399,460,363
1947,0.09,-0.99,-0.08,2.38,-5.37,-4.39,222,273,398,454,358
1948,0.08,-0.99,-0.07,-4.88,1.59,-2.75,223,274,395,458,356
1949,0.07,-0.99,-0.1,-3.54,-2.56,-0.67,221,275,399,459,356
1950,0.1,-0.98,-0.05,1.04,-3.91,-2.38,221,271,402,468,360
1951,0.1,-1.0,-0.08,1.46,-3.11,1.71,225,274,400,462,353
1952,0.11,-1.0,-0.09,0.73,-4.82,-2.44,223,278,401,455,360
1953,0.09,-0.98,-0.04,1.83,-3.91,-4.52,215,273,399,455,357
1954,0.11,-0.99,-0.06,-0.85,-3.42,-2.62,223,275,397,454,356
1955,0.12,-0.99,-0.05,-0.49,-3.23,-3.48,217,277,398,461,356
1956,0.11,-0.99,-0.04,3.78,-3.3,-2.62,220,277,401,459,356
1957,0.08,-0.99,-0.04,0.31,-0.98,0.18,222,277,401,456,355
1958,0.11,-1.0,-0.07,-3.3,-2.26,-2.32,220,277,397,455,358
1959,0.1,-0.99,-0.06,2.32,-2.99,-0.85,221,277,396,457,353
1960,0.09,-0.99,-0.06,-1.04,-2.62,-2.75,228,275,399,457,353
1961,0.12,-0.99,-0.05,0.24,-1.04,-2.93,222,274,395,456,355
1962,0.11,-0.99,-0.06,2.87,-3.11,-0.73,219,272,397,460,357
1963,0.1,-0.99,-0.03,1.59,0.55,0.73,223,270,392,451,355
1964,0.09,-1.02,-0.09,-5.62,-4.09,-6.1,220,274,397,455,346
1965,0.08,-0.99,-0.03,10.01,-4.64,-0.37,225,274,399,459,354
1966,0.09,-0.99,-0.02,3.36,-3.48,-4.76,217,279,394,460,359
1967,0.11,-0.99,-0.05,0.0,-3.48,-4.03,224,271,397,457,357
1968,0.1,-0.99,-0.02,0.85,-2.14,-3.42,219,276,391,451,352
1969,0.07,-0.97,0.03,11.23,-9.58,-0.12,221,275,397,460,360
1970,0.12,-1.01,-0.06,-5.86,0.31,-0.55,223,273,395,458,358
1971,0.11,-1.0,-0.04,2.99,-7.93,-6.1,224,275,400,458,356
1972,0.13,-0.99,-0.01,2.93,-2.56,-2.56,222,277,396,460,357
1973,0.11,-0.99,-0.04,-0.37,-3.66,-5.37,217,275,392,458,356
1974,0.11,-0.98,-0.02,-2.08,-3.42,-3.78,220,274,399,457,356
1975,0.13,-0.99,-0.06,0.61,-5.0,-6.35,221,274,392,459,355
1976,0.12,-0.99,-0.06,2.2,-4.52,-3.48,222,274,397,455,354
1977,0.11,-0.98,-0.04,0.49,-2.26,-2.38,221,276,393,462,357
1978,0.06,-0.82,-0.18,2.81,-2.08,-1.71,220,277,399,458,357
1979,0.14,-1.02,-0.03,1.53,-2.62,-1.89,220,282,397,452,357
1980,0.13,-1.0,-0.01,0.73,-2.08,0.55,225,276,397,459,353
1981,0.11,-0.99,-0.03,0.31,-1.83,-1.28,222,275,392,454,356
1982,0.14,-0.99,-0.03,-0.18,-2.87,-4.46,221,278,395,459,358
1983,0.12,-1.0,-0.03,1.22,-3.66,-0.12,221,280,397,456,354
1984,0.06,-0.99,0.01,2.56,-2.38,-0.98,221,277,397,452,357
1985,0.06,-0.99,0.01,-0.12,-2.87,-3.48,217,279,397,458,354
1986,0.09,-0.99,-0.01,-0.43,-1.77,-3.78,224,275,396,462,358
1987,0.11,-1.0,-0.01,0.85,-2.62,-1.04,221,277,398,456,357
1988,0.09,-1.0,-0.01,0.73,-1.77,-1.53,221,278,396,458,359
1989,0.07,-1.0,-0.01,0.12,-2.26,-2.87,224,275,397,461,359
1990,0.09,-0.99,-0.01,0.0,-2.99,-3.3,221,276,398,454,356
1991,0.1,-1.0,-0.0,0.43,-2.44,-2.14,222,275,396,457,356
1992,0.12,-1.0,0.0,5.55,-1.53,-0.79,222,273,397,458,356
1993,0.1,-1.0,-0.01,-2.56,-4.7,-4.03,221,276,398,458,351
1994,0.14,-0.96,0.04,-2.69,-0.61,-6.1,222,274,394,454,358
1995,0.11,-0.98,-0.01,-0.85,-3.91,-12.51,224,280,397,458,358
1996,0.19,-0.99,-0.09,1.83,-5.31,-2.32,224,275,393,458,358
1997,0.08,-0.98,-0.03,3.05,-1.53,-0.85,222,277,398,458,360
1998,0.14,-0.98,-0.03,1.71,-6.04,-7.63,231,275,396,452,358
1999,0.13,-0.98,-0.03,-0.37,-2.08,-5.13,227,280,398,458,356
2000,0.21,-0.97,-0.08,-6.71,-5.13,-10.8,224,274,398,449,356
2001,0.12,-0.97,-0.09,-0.49,-9.22,-5.8,221,276,396,454,356
2002,0.19,-0.98,-0.09,-1.95,-4.15,-1.83,222,273,396,458,357
2003,0.15,-0.98,-0.07,-2.81,-3.23,-6.1,224,277,396,457,360
2004,0.14,-0.97,-0.07,4.21,-0.43,-2.81,221,277,393,462,353
2005,0.17,-0.97,-0.07,0.0,-3.42,-0.24,224,275,400,456,357
2006,0.17,-0.96,-0.07,-0.49,-2.87,-2.99,221,276,398,461,358
2007,0.19,-0.98,-0.11,-1.04,-2.81,-2.87,220,277,395,457,355
2008,0.2,-0.98,-0.09,0.92,-2.26,-2.44,220,275,399,457,359
2009,0.19,-0.98,-0.09,0.98,-2.99,-2.93,221,277,398,458,358
2010,0.22,-0.97,-0.06,-7.26,-9.09,-7.51,223,271,396,458,357
2011,0.13,-0.93,-0.08,3.3,-1.22,-3.6,222,281,398,464,357
2012,0.35,-1.07,-0.21,-2.62,-24.72,-5.8,222,276,394,453,357
2013,0.19,-0.98,-0.08,1.83,-3.17,-5.68,222,278,397,458,357
2014,0.18,-0.99,-0.09,0.67,0.18,-2.32,221,273,394,448,357
2015,0.16,-0.98,-0.1,-0.43,-4.27,-1.1,219,273,398,457,355
2016,0.17,-1.0,-0.12,0.31,-2.62,-3.17,223,274,394,458,357
2017,0.17,-0.98,-0.1,2.62,-3.17,-2.44,224,276,397,457,356
2018,0.15,-0.97,-0.07,1.71,-3.54,-1.53,221,277,397,459,356
2019,0.14,-0.99,-0.09,-0.49,-1.89,-2.62,219,274,394,457,360
2020,0.15,-0.97,-0.09,0.79,-1.83,-2.08,223,277,396,461,360
2021,0.15,-0.99,-0.08,2.14,-2.81,-1.65,221,278,397,462,356
2022,0.14,-0.98,-0.06,-0.92,-1.53,0.43,225,276,395,457,358
2023,0.14,-0.99,-0.08,-0.55,-2.08,-3.05,220,278,396,459,357
2024,0.12,-0.98,-0.06,0.12,-1.46,-1.77,223,277,401,457,358
2025,0.13,-0.99,-0.08,1.65,-2.5,-2.99,221,276,395,459,355
2026,0.11,-0.97,-0.03,2.08,3.05,-0.79,223,279,397,462,354
2027,0.13,-0.99,-0.07,0.37,-3.48,-0.85,223,276,397,451,358
2028,0.13,-1.0,-0.05,1.34,-3.11,-2.69,225,284,401,461,358
2029,0.12,-0.99,-0.05,-0.06,-2.32,0.92,224,273,397,457,358
2030,0.07,-0.99,-0.04,2.44,-2.32,0.67,224,267,390,458,361
2031,0.06,-0.99,-0.04,-0.79,-2.69,-4.15,225,275,394,461,358
