,aX,aY,aZ,gX,gY,gZ,little,ring,middle,index,thumb
0,-0.35,-0.94,0.12,12.57,-5.13,-11.66,458,384,224,278,283
1,-0.26,-0.97,0.08,0.18,-14.77,1.34,457,381,223,285,289
2,-0.26,-0.95,0.03,7.81,-1.34,1.83,459,380,224,284,293
3,-0.32,-0.93,0.17,1.53,14.04,-12.27,456,378,223,286,294
4,-0.26,-0.94,0.18,-7.14,4.21,-13.18,457,380,226,284,292
5,-0.23,-0.95,0.07,-7.2,-5.74,-4.58,462,380,225,285,295
6,-0.21,-0.96,0.01,1.4,-1.65,-2.08,456,383,221,289,292
7,-0.24,-0.96,0.07,4.03,-6.77,-2.2,458,381,220,298,296
8,-0.22,-0.95,0.12,5.19,-1.59,-3.11,457,376,225,282,294
9,-0.22,-0.95,0.11,2.08,2.62,-3.6,458,374,221,288,296
10,-0.24,-0.96,0.13,0.24,-4.7,-2.08,456,371,223,285,297
11,-0.25,-0.96,0.16,-1.95,-4.7,-1.4,455,371,222,287,292
12,-0.24,-0.96,0.08,-2.44,-2.32,-2.14,452,371,218,287,299
13,-0.23,-0.97,0.1,-0.92,-3.72,-4.27,453,374,227,291,302
14,-0.25,-0.97,0.08,-0.67,-2.38,-3.17,463,377,220,292,299
15,-0.24,-0.96,0.09,2.32,-4.82,-1.1,454,373,226,277,293
16,-0.23,-0.98,0.09,-1.1,-4.82,-3.05,452,377,221,289,300
17,-0.23,-0.98,0.09,0.18,-5.74,2.01,455,376,225,286,297
18,-0.24,-0.94,0.09,9.83,-5.25,-6.1,453,370,226,287,300
19,-0.24,-0.97,0.12,-0.55,-3.3,-0.24,455,376,222,289,297
20,-0.23,-0.96,0.11,0.12,-3.54,-2.26,448,377,226,290,295
21,-0.24,-0.96,0.13,0.12,-2.32,-2.62,449,371,225,285,297
22,-0.25,-0.96,0.13,3.11,-4.7,-2.99,452,375,223,295,307
23,-0.22,-0.96,0.11,1.16,-3.36,-2.01,453,373,225,288,298
24,-0.24,-0.97,0.12,1.89,-2.14,-2.44,448,374,226,291,296
25,-0.23,-0.95,0.12,3.23,-6.41,-1.04,447,373,231,292,298
26,-0.26,-0.96,0.17,0.79,-6.35,0.61,446,376,224,290,300
27,-0.24,-0.95,0.16,2.69,-6.9,-0.73,451,377,224,288,300
28,-0.23,-0.95,0.15,1.28,-6.35,0.31,450,374,221,291,300
29,-0.25,-0.95,0.18,2.32,-4.03,-2.14,451,371,226,293,299
30,-0.25,-0.94,0.18,-1.83,-5.37,-2.38,448,374,226,294,298
31,-0.25,-0.94,0.15,-0.85,-6.04,-1.53,448,373,225,295,297
32,-0.24,-0.96,0.16,0.43,-3.05,-1.83,450,369,224,289,304
33,-0.24,-0.96,0.17,-0.18,-2.87,-2.69,453,373,216,298,301
34,-0.24,-0.95,0.15,2.44,-3.6,-2.56,448,373,217,300,302
35,-0.26,-0.96,0.18,-0.55,-0.85,-2.2,445,372,225,297,297
36,-0.25,-0.95,0.18,0.79,-4.88,-2.69,446,368,226,296,303
37,-0.25,-0.95,0.17,0.12,-3.66,-2.44,443,372,226,285,303
38,-0.25,-0.95,0.16,-0.49,-2.75,-2.56,446,373,224,298,304
39,-0.25,-0.95,0.17,0.67,-2.81,-2.56,446,367,220,298,307
40,-0.24,-0.96,0.17,0.49,-3.85,-2.08,442,373,227,292,300
41,-0.25,-0.95,0.17,0.31,-4.82,-2.56,451,371,222,293,308
42,-0.25,-0.95,0.17,-0.98,-1.53,-2.44,444,369,220,296,307
43,-0.25,-0.95,0.17,-0.12,-3.11,-2.56,444,371,218,294,300
44,-0.25,-0.94,0.17,0.0,-3.85,-2.62,454,370,225,290,309
45,-0.24,-0.95,0.17,1.4,-2.75,-2.56,448,370,226,306,310
46,-0.24,-0.96,0.16,-0.85,-3.78,-2.75,448,364,222,292,305
47,-0.25,-0.96,0.16,0.31,-2.93,-2.14,442,371,222,297,309
48,-0.23,-0.95,0.16,2.56,-2.81,-2.87,441,368,224,290,307
49,-0.24,-0.96,0.2,-1.77,-1.4,-2.38,443,373,223,297,305
50,-0.26,-0.93,0.21,9.09,0.18,-3.11,444,370,219,296,305
51,-0.25,-0.95,0.2,-2.62,-1.53,-2.75,445,368,220,291,309
52,-0.23,-0.95,0.16,-1.34,0.18,-4.46,442,366,224,298,305
53,-0.22,-0.95,0.18,-0.12,-4.27,-3.05,446,370,222,299,309
54,-0.23,-0.95,0.18,1.65,-3.6,-2.87,443,369,222,294,310
55,-0.23,-0.95,0.19,0.98,-2.01,-2.75,446,372,223,293,307
56,-0.23,-0.95,0.18,-0.55,-3.3,-1.95,442,371,222,299,310
57,-0.23,-0.96,0.2,-8.73,-2.14,-2.69,441,372,214,293,310
58,-0.22,-0.95,0.16,-0.79,-2.56,-2.62,441,363,227,301,303
59,-0.23,-0.96,0.2,-0.92,-1.22,-1.95,443,367,227,302,304
60,-0.23,-0.95,0.16,-6.04,-2.99,-3.48,444,370,222,299,307
61,-0.22,-0.96,0.14,-1.77,-2.08,-3.72,442,366,218,298,309
62,-0.25,-0.95,0.17,1.04,-0.18,-2.01,451,370,227,302,308
63,-0.22,-0.96,0.15,-0.12,-2.38,-2.44,440,368,223,298,310
64,-0.23,-0.95,0.16,2.75,-3.3,-1.95,442,368,223,302,307
65,-0.24,-0.96,0.18,0.67,-1.4,-2.44,444,368,235,295,307
66,-0.24,-0.95,0.18,-1.95,-3.48,-1.89,441,373,215,296,305
67,-0.23,-0.96,0.18,-1.95,-2.81,-2.32,436,367,221,299,309
68,-0.23,-0.95,0.16,1.22,-2.99,-2.99,440,370,226,300,311
69,-0.23,-0.96,0.17,0.43,-2.5,-2.93,445,369,224,298,306
70,-0.23,-0.95,0.16,-0.73,-2.75,-2.75,442,367,225,300,310
71,-0.23,-0.94,0.16,0.92,-3.3,-2.87,442,369,222,298,310
72,-0.24,-0.97,0.18,2.2,-3.17,-2.81,442,366,220,304,310
73,-0.23,-0.95,0.17,-1.22,-2.56,-2.87,440,369,224,304,306
74,-0.24,-0.95,0.17,-0.49,-3.11,-2.81,443,365,222,303,308
75,-0.23,-0.96,0.17,0.55,-3.42,-1.1,442,366,222,300,309
76,-0.24,-0.95,0.17,-1.04,-3.3,-1.95,441,367,232,304,310
77,-0.23,-0.95,0.17,0.06,-2.75,-2.38,441,361,225,305,311
78,-0.24,-0.97,0.19,0.92,-2.56,-2.2,437,366,224,297,307
79,-0.23,-0.96,0.16,1.46,-2.99,-2.87,440,367,218,306,312
80,-0.23,-0.97,0.21,2.87,-1.77,-4.09,443,368,217,306,309
81,-0.24,-0.96,0.18,-1.89,-3.11,-2.56,459,369,221,305,311
82,-0.24,-0.96,0.2,-0.49,-2.75,-2.2,441,364,222,309,309
83,-0.23,-0.96,0.16,0.92,-3.6,-1.89,437,371,223,305,306
84,-0.24,-0.96,0.18,2.38,-3.6,-2.5,439,370,226,309,308
85,-0.23,-0.95,0.17,1.89,-4.39,-2.5,442,374,225,303,312
86,-0.25,-0.93,0.18,-0.06,-3.3,-3.3,440,364,214,299,308
87,-0.25,-0.94,0.2,1.46,-3.23,-2.44,440,371,220,304,310
88,-0.23,-0.98,0.17,1.77,-1.34,-2.14,442,369,219,309,307
89,-0.24,-0.96,0.18,0.55,-2.75,-3.17,440,368,225,307,304
90,-0.25,-0.95,0.2,-0.24,-3.17,-3.05,439,364,220,303,310
91,-0.26,-0.94,0.21,1.16,-1.46,-2.26,439,369,221,306,305
92,-0.24,-0.95,0.18,1.46,-2.99,-3.11,443,363,225,308,315
93,-0.22,-0.97,0.16,-4.09,-1.16,-5.19,442,370,228,299,310
94,-0.23,-0.95,0.17,3.42,-3.78,-5.07,446,371,221,306,312
95,-0.23,-0.96,0.19,-1.16,-3.3,-2.5,448,368,226,302,311
96,-0.24,-0.93,0.17,1.16,-3.48,-3.48,482,367,219,305,312
97,-0.24,-0.96,0.17,0.0,-2.93,-1.22,450,374,225,308,313
98,-0.23,-0.95,0.18,-4.21,-0.85,-5.62,451,372,228,311,315
99,-0.23,-0.97,0.12,-0.73,-3.05,-4.09,448,374,224,309,313
100,-0.23,-0.97,0.13,1.59,-2.44,-1.46,448,378,225,308,310
101,-0.24,-0.97,0.15,5.98,-15.63,-0.18,446,371,225,308,313
102,-0.28,-0.96,0.21,8.61,-7.45,2.75,445,376,226,308,314
103,-0.23,-0.96,0.18,-0.61,-5.0,-2.26,446,374,229,306,311
104,-0.24,-0.96,0.16,0.31,-4.15,-2.01,444,372,225,309,313
105,-0.24,-0.95,0.17,1.46,-3.91,-2.44,449,373,227,309,314
106,-0.22,-0.97,0.17,2.44,-4.33,-1.89,448,373,226,308,317
107,-0.24,-0.95,0.18,-1.83,-1.95,-2.93,485,374,228,310,307
108,-0.25,-0.95,0.15,0.61,-0.43,-5.13,447,378,232,305,309
109,-0.22,-0.95,0.16,0.31,0.67,-4.33,449,367,229,307,312
110,-0.24,-0.95,0.16,0.85,-3.36,-2.2,448,376,237,306,314
111,-0.24,-0.96,0.16,0.92,-3.42,-2.5,445,382,222,310,313
112,-0.25,-0.96,0.19,0.31,-3.97,-2.32,445,377,227,307,309
113,-0.24,-0.95,0.17,0.61,-2.44,-2.75,445,374,215,312,313
114,-0.24,-0.95,0.18,1.04,-3.91,-2.99,445,373,223,298,313
115,-0.24,-0.96,0.19,-0.31,-2.38,-2.81,448,373,228,308,315
116,-0.23,-0.94,0.18,0.98,-4.39,-1.77,447,370,227,312,316
117,-0.23,-0.96,0.19,1.89,-3.42,-2.56,443,373,228,309,315
118,-0.24,-0.95,0.18,-0.31,-2.08,-2.38,445,371,229,304,313
119,-0.24,-0.96,0.18,-0.24,-2.62,-2.75,443,375,228,313,309
120,-0.24,-0.96,0.18,2.01,-2.75,-2.5,440,381,234,312,315
121,-0.24,-0.96,0.18,1.46,-3.91,-2.44,452,374,227,305,314
122,-0.25,-0.95,0.18,4.09,-1.71,-4.52,443,376,226,305,316
123,-0.23,-0.97,0.19,0.12,-4.82,-2.5,443,376,225,315,315
124,-0.23,-0.95,0.2,-0.06,-2.08,-3.23,443,374,236,307,313
125,-0.23,-0.96,0.2,0.0,-3.54,-1.1,442,374,228,312,315
126,-0.22,-0.96,0.19,-2.62,-4.64,-1.53,445,374,230,312,315
127,-0.23,-0.95,0.12,2.2,-5.25,-2.69,445,372,225,311,313
128,-0.26,-0.96,0.14,-2.2,-6.29,-1.53,443,372,216,300,316
129,-0.22,-0.94,0.17,0.18,-0.85,-2.38,444,373,238,311,316
130,-0.24,-0.95,0.19,-0.92,-2.75,-1.1,444,369,218,311,317
131,-0.24,-0.96,0.18,0.67,-3.05,-3.42,445,371,229,309,315
132,-0.24,-0.97,0.19,1.77,-5.0,-4.46,442,378,226,308,314
133,-0.22,-0.98,0.21,-5.0,-8.91,-9.95,437,372,225,312,315
134,-0.2,-0.98,0.14,-3.97,-4.46,-12.76,441,372,231,306,316
135,-0.22,-0.96,0.19,-0.18,-2.38,-2.87,444,372,227,310,315
136,-0.2,-0.96,0.17,-2.01,-1.04,-1.53,442,372,229,311,317
137,-0.19,-0.96,0.16,0.37,-3.78,-2.69,445,374,227,314,314
138,-0.19,-0.97,0.15,-1.95,-4.58,-0.79,437,370,227,313,315
139,-0.19,-0.97,0.12,0.49,-3.78,-2.38,440,375,230,309,315
140,-0.2,-0.97,0.13,2.26,-2.56,-2.44,441,371,232,310,324
141,-0.2,-0.96,0.13,-1.95,-1.83,-2.93,434,373,237,312,312
142,-0.21,-0.97,0.13,-0.73,-2.08,-2.81,438,374,239,315,314
143,-0.21,-0.97,0.13,0.12,-2.38,-1.65,438,372,232,307,315
144,-0.2,-0.97,0.13,1.77,-5.31,-2.5,437,390,224,313,315
145,-0.21,-0.97,0.13,0.0,-3.66,-2.01,439,375,225,315,314
146,-0.22,-0.96,0.18,-0.12,-5.19,-1.95,437,377,225,314,314
147,-0.22,-0.96,0.12,7.2,-9.4,5.31,435,369,226,311,313
148,-0.23,-0.95,0.18,3.97,-4.33,-2.08,439,372,224,312,311
149,-0.24,-0.95,0.18,0.37,-4.39,-1.53,438,375,225,316,314
150,-0.24,-0.96,0.16,-0.12,-2.14,-2.14,439,372,226,309,315
151,-0.23,-0.95,0.16,-0.12,-2.62,-1.53,438,374,227,309,315
152,-0.24,-0.95,0.17,-0.43,-1.46,-3.3,440,375,225,313,316
153,-0.22,-0.95,0.16,2.62,-4.52,-3.91,436,373,232,311,317
154,-0.22,-0.96,0.24,-0.37,-8.42,-4.94,437,371,227,312,314
155,-0.2,-0.95,0.17,0.67,-8.54,-1.83,438,376,231,310,313
156,-0.23,-0.94,0.23,4.7,-10.31,-1.16,439,375,223,318,316
157,-0.2,-0.95,0.26,-5.92,-7.02,-3.54,438,372,229,312,316
158,-0.24,-0.94,0.28,-2.99,-6.41,0.49,434,374,225,308,313
159,-0.19,-0.95,0.24,-8.3,0.85,-1.46,439,374,231,312,318
160,-0.21,-0.96,0.19,-0.85,-1.34,-5.8,437,371,223,314,314
161,-0.21,-0.96,0.14,-5.13,-0.06,-4.27,438,374,228,316,318
162,-0.21,-0.96,0.13,-4.09,-5.0,1.04,438,374,224,310,311
163,-0.22,-0.96,0.12,2.14,-3.23,-2.69,438,380,226,315,315
164,-0.23,-0.96,0.14,-0.37,-2.81,-3.42,436,374,227,314,316
165,-0.2,-0.96,0.17,-5.0,-0.61,0.67,437,372,226,313,318
166,-0.23,-0.96,0.13,-0.43,-2.5,-1.34,437,373,226,315,317
167,-0.21,-0.97,0.11,3.66,2.14,-2.5,434,373,226,317,317
168,-0.21,-0.97,0.14,0.61,-1.65,-0.49,439,374,226,312,314
169,-0.21,-0.96,0.15,2.93,-4.88,-2.38,462,374,228,315,320
170,-0.23,-0.96,0.2,2.44,-4.46,-1.46,435,372,226,317,317
171,-0.22,-0.96,0.16,-0.43,-1.1,-2.99,438,373,224,313,312
172,-0.22,-0.96,0.17,-0.79,-1.89,-2.87,434,372,229,319,317
173,-0.22,-0.95,0.18,-0.18,-2.81,-2.2,438,371,221,313,317
174,-0.25,-0.95,0.18,-5.0,-6.35,-0.31,433,374,226,318,313
175,-0.21,-0.92,0.12,3.36,-6.53,-1.16,435,373,230,317,313
176,-0.24,-0.96,0.09,0.24,-10.62,-4.52,436,372,228,314,315
177,-0.26,-0.96,0.13,1.4,-1.77,-3.54,435,370,224,320,319
178,-0.3,-0.95,0.11,0.06,4.94,-0.31,434,366,226,321,316
179,-0.27,-0.95,0.07,0.73,-1.22,-2.08,435,369,230,317,313
180,-0.13,-0.95,0.11,12.45,45.35,-14.28,434,371,228,309,312
181,-0.2,-0.98,0.13,10.07,8.54,0.12,440,379,224,315,310
182,-0.19,-0.96,0.17,0.43,-2.26,-3.3,439,371,222,313,314
183,-0.2,-0.96,0.16,-0.85,-0.67,-3.66,444,376,228,318,316
184,-0.18,-0.97,0.14,-0.06,-5.25,-3.78,443,374,213,316,311
185,-0.19,-0.97,0.16,0.0,-3.3,-2.32,449,366,226,314,316
186,-0.2,-0.96,0.16,0.06,-4.03,-2.08,445,371,222,320,316
187,-0.19,-0.97,0.16,0.24,-4.7,-2.69,439,374,228,315,314
188,-0.16,-0.97,0.13,0.31,-2.38,-1.65,443,377,225,314,312
189,-0.18,-0.97,0.13,0.79,-2.87,-2.08,439,376,228,316,317
190,-0.19,-0.96,0.15,-0.79,-1.28,-3.3,444,373,228,309,314
191,-0.18,-0.97,0.14,0.31,-5.37,-2.62,442,374,227,315,314
192,-0.16,-0.96,0.14,-0.73,-5.0,-3.36,442,375,225,318,311
193,-0.16,-0.97,0.12,-0.37,-6.16,-3.54,441,375,228,315,316
194,-0.15,-0.97,0.19,3.78,-3.05,-2.14,443,375,225,310,313
195,-0.16,-0.97,0.15,0.92,-4.82,-0.18,441,379,228,322,317
196,-0.16,-0.98,0.14,0.55,-2.38,-3.42,441,375,231,321,315
197,-0.17,-0.98,0.15,-0.98,-4.09,-1.89,436,375,227,315,316
198,-0.16,-0.98,0.12,-0.31,-2.99,-1.95,438,373,228,309,317
199,-0.16,-0.98,0.1,-1.34,-3.78,-3.54,439,373,227,310,315
200,-0.15,-0.98,0.09,0.24,-3.17,-2.81,436,374,226,314,316
201,-0.17,-0.98,0.09,8.24,-6.1,-1.95,440,373,231,314,314
202,-0.15,-0.98,0.13,0.92,-4.03,-1.65,438,370,232,316,320
203,-0.16,-0.98,0.12,0.37,-3.36,-2.08,457,373,227,319,315
204,-0.17,-0.98,0.12,0.49,-2.14,-2.01,439,373,228,314,314
205,-0.17,-0.97,0.14,1.1,-3.11,-1.71,437,366,228,321,315
206,-0.16,-0.97,0.13,1.83,-2.14,-3.05,440,376,229,316,317
207,-0.17,-0.97,0.12,-1.22,-2.44,-2.87,436,376,227,311,316
208,-0.2,-0.98,0.17,-0.98,-1.71,-0.92,440,377,219,315,314
209,-0.19,-0.97,0.16,0.73,-2.56,-2.26,438,375,226,328,319
210,-0.17,-0.97,0.18,-0.37,-2.38,-1.95,437,372,226,312,312
211,-0.17,-0.97,0.15,0.31,-2.38,-2.5,442,376,223,313,318
212,-0.18,-0.96,0.16,1.28,-3.36,-1.77,439,373,225,314,313
213,-0.18,-0.97,0.15,0.0,-2.38,-3.05,442,376,227,318,315
214,-0.19,-0.97,0.16,0.18,-0.43,-2.08,440,371,230,315,312
215,-0.17,-0.97,0.16,0.24,-3.36,-2.14,440,375,230,314,312
216,-0.17,-0.97,0.15,0.12,-2.01,-2.2,439,374,226,322,313
217,-0.18,-0.97,0.14,0.61,-4.46,-2.26,439,373,226,320,314
218,-0.18,-0.97,0.14,1.22,-3.78,-1.77,438,375,225,317,316
219,-0.19,-0.96,0.15,-1.46,-2.2,-3.17,443,373,226,317,309
220,-0.18,-0.97,0.15,-0.55,-1.59,-2.99,438,373,227,312,317
221,-0.18,-0.97,0.14,0.18,-4.33,-2.81,439,370,228,320,314
222,-0.17,-0.96,0.16,0.06,-1.04,-3.23,448,372,228,321,311
223,-0.17,-0.97,0.15,-0.24,-4.46,-0.55,442,372,230,322,313
224,-0.19,-0.97,0.17,0.67,-3.17,-2.08,438,377,214,319,315
225,-0.17,-0.97,0.14,-0.92,-3.72,-2.26,442,373,226,323,316
226,-0.17,-0.97,0.15,0.0,-3.11,-2.44,436,372,229,317,314
227,-0.18,-0.97,0.15,-0.06,-4.46,-3.05,437,374,223,321,314
228,-0.18,-0.98,0.14,-1.28,-2.14,-3.85,441,370,228,315,315
229,-0.2,-0.97,0.14,-1.4,-3.36,-2.62,428,375,231,327,315
230,-0.17,-0.97,0.15,-0.67,-1.65,-4.09,439,374,225,314,313
231,-0.17,-0.97,0.15,1.22,-3.3,-2.26,458,375,226,318,315
232,-0.18,-0.97,0.15,1.04,-1.95,-3.72,438,374,227,317,316
233,-0.18,-0.97,0.13,0.49,-2.32,-2.69,439,373,222,316,318
234,-0.18,-0.97,0.15,1.28,-3.36,-2.32,437,374,222,317,309
235,-0.18,-0.97,0.15,-0.43,-3.05,-2.44,437,374,230,322,316
236,-0.18,-0.97,0.14,1.04,-1.83,-2.56,438,373,230,322,316
237,-0.18,-0.96,0.17,0.55,-1.71,-4.21,440,370,232,319,323
238,-0.16,-0.97,0.14,-0.06,-4.21,-3.17,449,374,232,321,315
239,-0.17,-0.97,0.16,1.4,-3.05,-2.01,435,376,230,315,315
240,-0.18,-0.97,0.19,-0.31,-2.01,-3.17,439,374,226,318,311
241,-0.18,-0.96,0.14,-1.4,-5.0,-3.3,441,375,226,314,314
242,-0.17,-0.97,0.13,-1.04,-5.55,-1.22,435,372,227,317,314
243,-0.18,-0.97,0.15,0.98,-2.87,-2.56,435,375,229,314,318
244,-0.16,-0.97,0.13,-0.37,-4.52,-1.95,438,373,226,322,314
245,-0.16,-0.97,0.13,1.4,2.56,-2.14,438,374,225,316,313
246,-0.21,-0.97,0.15,2.81,1.28,-1.22,439,375,228,321,311
247,-0.2,-0.96,0.18,5.0,-1.53,-3.97,439,374,214,324,317
248,-0.24,-0.95,0.23,2.87,-5.13,-4.03,434,376,224,315,318
249,-0.2,-0.95,0.21,-4.64,-1.4,-5.68,434,373,230,314,310
250,-0.24,-0.96,0.21,-0.43,-10.25,-3.05,438,373,229,323,316
251,-0.2,-0.96,0.15,-8.97,1.16,-4.82,439,377,228,316,312
252,-0.17,-0.96,0.15,-2.2,-5.49,-1.1,437,373,226,324,317
253,-0.18,-0.97,0.18,0.85,-4.64,-3.97,440,378,230,320,314
254,-0.2,-0.97,0.25,-3.6,-4.09,-8.85,436,372,214,318,313
255,-0.12,-0.96,-0.0,-4.7,-10.86,-13.79,437,365,229,319,315
256,-0.08,-0.99,0.06,1.04,6.9,5.68,437,377,228,314,315
257,-0.07,-0.99,0.09,-4.09,5.37,3.85,435,372,221,315,315
258,-0.16,-0.98,0.09,9.7,1.77,7.51,437,374,225,321,314
259,-0.19,-0.98,0.2,16.91,18.43,-0.79,439,373,232,321,323
260,-0.23,-0.93,0.29,4.94,25.94,1.83,432,371,227,321,317
261,-0.29,-0.89,0.19,6.65,5.13,29.54,437,374,228,321,314
262,-0.36,-0.92,0.16,-6.65,-12.51,-10.74,439,374,227,323,318
263,-0.27,-0.93,0.12,-9.4,-14.1,-5.74,437,375,228,315,317
264,-0.24,-0.95,0.1,-3.72,5.86,-3.54,431,372,227,318,317
265,-0.3,-0.95,0.15,-2.14,-9.22,0.06,438,372,229,321,317
266,-0.31,-0.96,0.18,-9.83,-14.71,2.44,440,376,229,318,311
267,-0.31,-0.95,0.09,2.44,9.4,-1.65,439,371,233,319,317
268,-0.31,-0.95,0.16,0.67,7.02,-11.35,437,372,225,320,321
269,-0.17,-0.94,0.09,18.25,7.93,-13.12,439,375,226,314,313
270,-0.23,-0.96,0.13,7.87,12.27,2.38,438,374,228,319,317
271,-0.37,-0.96,0.2,-2.44,-0.24,-4.58,438,376,230,319,320
272,-0.27,-0.98,0.1,8.42,14.16,14.16,436,371,232,325,319
273,-0.26,-0.97,0.12,-1.65,7.39,-20.87,439,376,229,322,317
274,-0.24,-0.97,0.12,-1.46,2.87,-0.49,439,372,225,320,313
275,-0.24,-0.95,0.15,-3.85,-17.4,0.43,439,373,228,320,317
276,-0.14,-0.95,0.05,0.73,-6.04,1.83,437,386,229,325,318
277,-0.26,-0.96,0.13,-7.63,4.94,-8.73,435,372,243,319,316
278,-0.23,-0.96,-0.03,-1.71,-0.92,-0.55,440,369,219,323,320
279,-0.28,-0.95,0.07,0.92,-6.1,-0.18,441,373,234,333,319
280,-0.17,-0.94,0.06,0.67,-0.79,6.04,440,376,229,316,320
281,-0.27,-0.94,0.09,2.08,-2.44,0.98,435,372,230,316,318
282,-0.28,-0.96,0.02,-1.59,-4.88,-0.43,433,373,229,321,318
283,-0.29,-0.95,0.03,1.04,-1.83,-3.3,437,374,226,322,320
284,-0.29,-0.95,0.03,1.1,-6.1,-1.46,438,378,232,317,318
285,-0.27,-0.96,0.03,-0.92,-3.11,-2.26,437,377,229,316,321
286,-0.29,-0.95,0.01,2.87,-0.92,-1.71,439,369,226,322,318
287,-0.3,-0.96,0.05,-2.32,-4.7,-1.53,438,376,227,316,321
288,-0.27,-0.97,0.01,2.44,-6.47,-2.62,434,374,230,321,319
289,-0.28,-0.95,0.0,-1.04,-1.59,-2.26,435,372,231,321,318
290,-0.28,-0.97,0.02,-1.22,-0.98,-2.69,436,373,229,318,320
291,-0.26,-0.95,0.02,0.18,-1.59,-4.03,436,374,228,321,327
292,-0.29,-0.94,0.01,2.5,-2.62,-2.87,442,371,223,326,321
293,-0.28,-0.95,-0.02,1.53,-6.41,-4.09,434,374,227,327,315
294,-0.29,-0.96,0.01,0.98,0.12,-2.44,434,375,226,321,320
295,-0.27,-0.95,0.05,0.12,-3.05,-1.34,435,374,227,322,322
296,-0.28,-0.94,-0.06,-2.26,-4.03,-2.62,436,373,227,321,314
297,-0.34,-0.94,-0.07,-0.67,-0.31,-0.55,435,375,226,321,319
298,-0.3,-0.93,0.06,6.96,2.69,0.55,433,375,227,326,316
299,-0.23,-0.95,0.04,1.22,1.83,1.1,435,375,224,319,315
300,-0.27,-0.95,0.03,-0.49,-3.6,-3.85,435,373,228,320,319
301,-0.27,-0.96,0.03,-1.22,-2.99,-3.72,438,373,226,325,317
302,-0.25,-0.95,-0.02,-0.18,2.01,-1.83,442,372,227,328,317
303,-0.28,-0.98,-0.03,-1.89,-5.74,1.83,434,372,229,326,319
304,-0.25,-0.96,0.07,5.49,6.04,-2.56,428,370,226,317,312
305,-0.34,-0.94,0.01,-1.22,-3.05,-3.23,465,372,228,326,316
306,-0.27,-0.94,-0.03,-2.01,-9.95,-4.88,439,367,228,325,315
307,-0.31,-0.96,0.06,1.83,-3.66,-1.46,438,371,230,320,312
308,-0.32,-0.93,0.01,-2.69,2.62,-5.37,436,372,229,318,315
309,-0.3,-0.95,0.04,0.12,-3.17,-2.99,434,374,234,323,313
310,-0.3,-0.95,0.01,0.61,-4.46,-2.44,438,369,229,323,317
311,-0.31,-0.94,0.01,-0.49,-2.26,-2.99,437,373,228,325,313
312,-0.31,-0.94,0.01,-1.16,-2.2,-1.95,434,362,221,324,315
313,-0.31,-0.94,0.04,-1.1,-1.16,-4.94,437,371,228,323,310
314,-0.31,-0.95,0.04,0.98,-3.72,-2.38,437,366,227,327,316
315,-0.32,-0.95,0.04,0.18,-3.42,-2.14,442,371,232,329,310
316,-0.31,-0.94,0.03,-0.49,-2.14,-2.26,432,371,228,324,314
317,-0.28,-0.95,-0.02,0.79,-2.5,-3.42,434,367,216,320,314
318,-0.3,-0.95,0.03,1.1,-3.54,-1.71,428,368,229,318,316
319,-0.31,-0.94,0.02,0.85,-2.38,-2.62,432,371,230,326,317
320,-0.3,-0.95,0.02,0.98,-4.76,-2.69,433,376,227,325,316
321,-0.31,-0.95,0.03,1.1,-3.66,-2.56,430,371,231,325,316
322,-0.3,-0.95,0.02,0.98,-2.75,-1.95,432,366,221,323,318
323,-0.31,-0.95,0.04,-0.73,-1.95,-2.14,430,366,225,323,326
324,-0.31,-0.93,0.01,1.59,-3.72,-2.62,433,373,230,324,315
325,-0.3,-0.94,0.02,-0.43,-1.89,-3.54,432,370,229,323,316
326,-0.29,-0.95,0.03,4.15,-6.84,-1.04,432,372,228,328,316
327,-0.3,-0.94,-0.03,1.34,-4.21,-2.01,432,370,222,326,319
328,-0.3,-0.95,0.03,-1.77,-1.95,-2.99,430,372,224,327,316
329,-0.29,-0.95,0.03,0.31,-1.34,-2.38,431,370,227,327,313
330,-0.33,-0.96,0.04,3.36,-3.72,2.93,433,367,229,329,317
331,-0.36,-0.91,0.02,-1.53,-4.64,-3.3,427,372,227,329,316
332,-0.34,-0.92,0.04,0.79,-7.57,-1.89,434,368,227,325,316
333,-0.34,-0.93,0.03,-0.61,-3.78,-2.56,433,366,229,325,316
334,-0.32,-0.92,0.03,-1.83,-2.93,-3.6,431,367,230,330,317
335,-0.3,-0.94,0.02,-1.22,-0.12,-4.52,430,366,218,328,317
336,-0.32,-0.94,0.03,-1.46,-3.17,-2.38,433,370,229,326,316
337,-0.34,-0.94,0.04,-0.31,-3.97,-3.17,432,371,225,321,319
338,-0.33,-0.94,0.03,1.28,-5.37,-1.59,431,371,232,323,311
339,-0.33,-0.94,0.01,-0.67,-2.2,-1.04,443,372,227,330,315
340,-0.32,-0.94,0.0,3.11,-2.08,-2.56,429,368,214,317,315
341,-0.32,-0.94,0.0,0.18,-2.44,-3.17,431,366,229,330,319
342,-0.32,-0.94,0.03,-1.34,-3.6,-2.75,430,372,231,331,317
343,-0.32,-0.93,0.02,-2.2,-1.77,-3.48,429,370,228,319,314
344,-0.3,-0.94,0.03,1.28,-2.75,-2.75,429,371,227,326,316
345,-0.32,-0.96,0.01,-1.83,-2.5,-4.46,430,366,227,329,315
346,-0.32,-0.95,0.02,0.0,-2.62,-2.5,426,366,230,329,317
347,-0.31,-0.94,0.01,1.71,-4.39,-1.16,429,367,223,333,318
348,-0.32,-0.93,0.02,-0.12,-2.99,-2.5,427,365,223,327,317
349,-0.32,-0.93,0.01,2.2,-2.14,-2.08,429,366,219,332,318
350,-0.32,-0.94,0.02,1.77,-4.09,-1.89,427,368,226,329,316
351,-0.31,-0.94,0.04,1.71,-4.33,-2.44,425,370,227,325,319
352,-0.32,-0.91,0.02,-2.26,-1.83,-4.39,428,365,225,321,321
353,-0.3,-0.95,0.01,-12.7,-0.79,3.3,429,366,221,323,317
354,-0.33,-0.94,-0.01,-0.18,-10.62,9.34,428,368,223,326,313
355,-0.34,-0.93,-0.0,1.53,-4.15,-4.27,426,365,228,321,304
356,-0.35,-0.92,-0.02,0.37,-4.64,-2.99,428,359,230,339,315
357,-0.35,-0.93,0.02,-0.18,-4.64,-1.77,426,353,225,322,317
358,-0.38,-0.94,-0.03,-5.92,-1.4,-2.87,429,354,224,324,317
359,-0.32,-0.92,-0.07,3.78,0.31,-4.09,433,355,217,318,317
360,-0.33,-0.94,0.01,-2.01,-4.76,0.31,432,357,229,324,314
361,-0.36,-0.93,0.03,-2.32,-2.81,-5.55,431,355,229,327,318
362,-0.34,-0.92,0.02,5.55,-6.29,-5.19,432,360,219,321,316
363,-0.34,-0.94,0.06,2.62,-8.24,-3.6,434,358,228,321,318
364,-0.35,-0.93,0.04,1.16,-5.92,-1.59,427,354,224,323,317
365,-0.34,-0.93,0.03,0.98,-4.21,-2.5,429,362,229,323,316
366,-0.33,-0.94,0.02,0.79,-3.05,-2.14,431,358,230,325,319
367,-0.34,-0.92,0.0,-1.59,-0.06,-2.99,425,358,227,320,320
368,-0.34,-0.93,0.02,-2.44,-3.23,-2.26,427,357,227,324,320
369,-0.34,-0.93,-0.0,-1.89,-1.16,-2.38,428,358,222,324,318
370,-0.34,-0.93,-0.02,1.1,-3.05,-2.56,429,362,225,322,317
371,-0.34,-0.93,-0.01,0.85,-2.81,-2.69,433,357,219,324,317
372,-0.34,-0.93,-0.0,-0.12,-4.03,-2.81,429,362,228,319,319
373,-0.34,-0.94,-0.0,-1.16,-1.53,-2.99,427,359,224,325,322
374,-0.34,-0.94,-0.0,0.73,-3.3,-2.81,433,361,230,327,315
375,-0.33,-0.95,-0.01,15.38,-2.81,-2.2,430,361,223,326,320
376,-0.34,-0.93,-0.01,-0.37,-2.62,-2.62,423,356,227,329,320
377,-0.34,-0.92,-0.02,0.24,-0.98,-2.62,427,362,229,322,319
378,-0.34,-0.93,-0.01,-0.67,-3.6,-1.65,426,357,226,320,319
379,-0.34,-0.94,-0.0,-1.1,-2.32,-2.75,429,360,228,324,314
380,-0.35,-0.93,-0.01,0.49,-2.14,-2.69,426,356,232,326,317
381,-0.34,-0.93,-0.02,0.98,-3.11,-2.5,428,360,222,326,320
382,-0.36,-0.93,0.01,0.67,1.65,-4.03,427,359,230,328,317
383,-0.34,-0.93,-0.01,0.85,-3.17,-2.99,427,358,227,329,320
384,-0.34,-0.93,-0.01,-0.24,-2.32,-2.44,429,363,228,331,316
385,-0.35,-0.93,-0.01,-0.73,-2.32,-2.38,420,360,230,328,320
386,-0.34,-0.93,-0.01,0.79,-3.11,-2.38,423,357,219,327,314
387,-0.34,-0.93,-0.0,0.79,-2.08,-2.69,428,360,224,324,320
388,-0.35,-0.93,0.01,0.06,-1.16,-2.62,422,378,223,325,322
389,-0.35,-0.92,0.03,1.04,-3.3,-2.38,429,363,230,325,320
390,-0.36,-0.92,0.02,2.5,-0.49,-0.24,426,356,219,325,317
391,-0.36,-0.93,0.03,3.23,-3.78,-2.62,429,357,229,329,320
392,-0.34,-0.94,0.03,1.4,-0.49,-2.99,428,358,230,321,321
393,-0.34,-0.92,0.01,1.22,-4.33,-2.87,434,356,225,326,320
394,-0.3,-0.93,-0.0,1.04,-3.3,-3.48,426,359,226,322,318
395,-0.34,-0.93,0.02,-1.53,-2.08,-3.36,427,359,229,327,318
396,-0.34,-0.93,0.02,-0.67,-2.08,-1.89,429,361,228,323,320
397,-0.34,-0.93,0.02,-1.4,-2.38,-3.23,425,359,229,325,325
398,-0.35,-0.93,0.02,-1.4,-3.3,-3.23,428,358,228,324,321
399,-0.36,-0.92,0.02,-2.75,-2.93,-1.34,425,358,224,322,321
400,-0.34,-0.94,0.03,0.0,-3.36,-1.95,427,359,228,322,322
401,-0.35,-0.93,0.01,-1.46,-2.56,-3.17,428,355,227,328,322
402,-0.35,-0.93,0.03,2.44,-2.5,-1.89,425,361,228,328,322
403,-0.36,-0.93,-0.0,-0.43,-3.48,-2.81,426,360,223,323,330
404,-0.35,-0.93,0.01,0.98,-2.93,-2.01,426,359,218,328,319
405,-0.36,-0.93,0.01,0.55,-2.62,-2.5,427,359,228,327,322
406,-0.36,-0.93,0.02,-0.73,-2.5,-2.01,427,359,226,327,320
407,-0.36,-0.93,0.01,-0.18,-3.72,-2.08,426,356,224,324,321
408,-0.35,-0.93,0.01,1.71,-3.36,-1.71,426,362,228,330,322
409,-0.33,-0.93,-0.02,1.16,-4.09,-1.34,425,363,224,325,321
410,-0.34,-0.93,0.0,-0.49,-2.01,-2.56,429,361,229,325,319
411,-0.36,-0.93,0.01,0.24,-2.44,-2.32,425,361,226,327,320
412,-0.35,-0.93,0.01,1.04,-4.09,-2.38,427,364,227,329,320
413,-0.36,-0.93,0.02,0.06,-3.11,-2.26,426,364,232,330,323
414,-0.35,-0.93,0.01,1.1,-1.95,-3.05,427,357,227,325,321
415,-0.36,-0.92,0.02,-0.24,-3.72,-2.38,425,362,226,327,321
416,-0.36,-0.91,0.02,-1.65,-2.08,-2.69,425,359,224,324,320
417,-0.35,-0.92,0.0,0.92,-3.23,-2.81,426,357,227,329,324
418,-0.35,-0.92,0.0,2.26,-4.46,-3.85,427,358,226,324,323
419,-0.34,-0.94,0.03,1.04,-2.99,-2.69,426,358,226,329,320
420,-0.35,-0.93,0.0,0.79,-3.17,-3.6,427,359,228,329,319
421,-0.34,-0.93,0.03,0.55,-1.89,-1.46,423,356,224,328,321
422,-0.36,-0.92,0.05,-0.06,-2.56,-2.08,424,361,226,330,322
423,-0.35,-0.92,0.04,-0.61,-0.79,-2.08,425,360,235,326,317
424,-0.36,-0.93,0.03,0.43,-1.34,-1.83,425,361,225,324,322
425,-0.35,-0.92,0.03,1.04,-3.54,-2.87,422,358,227,326,321
426,-0.35,-0.93,0.01,2.26,-2.69,-3.23,420,357,228,328,321
427,-0.35,-0.93,0.03,-0.79,-2.62,-2.44,424,362,227,326,321
428,-0.35,-0.93,0.02,-0.61,-2.75,-2.01,425,360,216,324,322
429,-0.37,-0.92,0.01,1.46,-3.36,-2.75,427,359,231,326,324
430,-0.35,-0.93,0.01,0.12,-2.32,-2.56,425,362,228,329,322
431,-0.35,-0.92,0.01,1.34,-1.59,-4.15,431,363,227,327,319
432,-0.36,-0.93,0.04,-0.18,-0.61,-2.44,428,363,223,322,323
433,-0.34,-0.92,0.03,3.91,-0.12,-4.64,426,361,227,319,323
434,-0.36,-0.93,0.0,0.24,-5.13,-0.98,422,361,226,331,323
435,-0.34,-0.92,-0.01,2.38,-1.95,-3.23,424,362,226,333,323
436,-0.36,-0.93,0.02,-2.14,-0.37,-4.03,424,359,228,324,321
437,-0.35,-0.92,0.0,2.26,-4.76,-1.46,424,357,225,325,329
438,-0.36,-0.93,0.01,-1.95,-1.71,-3.72,422,361,225,329,318
439,-0.36,-0.92,-0.01,-1.71,-4.7,-1.53,423,360,226,331,323
440,-0.36,-0.93,0.02,1.65,-5.98,-0.73,427,360,227,324,317
441,-0.36,-0.92,0.04,-0.61,-2.32,-2.69,423,358,229,330,322
442,-0.37,-0.93,0.01,2.01,-4.21,-1.04,426,362,229,327,321
443,-0.36,-0.93,-0.01,0.0,-3.91,-1.77,422,362,230,325,318
444,-0.36,-0.92,-0.03,0.43,-3.36,-3.36,426,364,220,324,321
445,-0.35,-0.94,0.03,0.61,-2.38,-3.36,426,360,228,330,321
446,-0.36,-0.92,-0.0,0.06,-2.69,-2.81,426,361,224,325,322
447,-0.36,-0.92,-0.0,0.06,-2.87,-2.56,426,360,224,326,322
448,-0.35,-0.92,-0.01,-0.92,-2.99,-2.08,426,364,222,328,322
449,-0.36,-0.93,0.0,0.61,-3.6,-2.93,424,363,232,320,322
450,-0.36,-0.93,-0.02,-0.61,-2.81,-2.56,427,358,226,322,322
451,-0.35,-0.93,-0.02,-0.06,-3.17,-2.75,424,362,224,321,323
452,-0.36,-0.93,-0.02,0.06,-1.89,-2.81,428,361,227,322,322
453,-0.35,-0.93,-0.02,0.79,-2.2,-3.23,425,361,232,325,322
454,-0.37,-0.93,-0.03,0.43,-3.11,-2.14,427,361,231,328,322
455,-0.36,-0.93,-0.04,1.71,-3.78,-1.59,428,361,228,325,322
456,-0.34,-0.93,-0.02,-0.85,-2.32,-3.6,425,359,228,321,324
457,-0.34,-0.94,-0.01,1.16,-2.08,-3.91,424,363,228,324,318
458,-0.34,-0.92,-0.02,0.18,-3.11,-2.93,421,362,229,326,322
459,-0.34,-0.93,-0.03,0.73,-1.16,-3.48,422,363,226,321,320
460,-0.34,-0.93,-0.04,1.4,-4.09,-2.56,425,360,227,340,323
461,-0.36,-0.92,-0.03,-0.85,-2.14,-3.48,424,357,229,325,316
462,-0.33,-0.94,-0.03,2.08,-5.62,-0.31,426,360,229,326,321
463,-0.35,-0.92,-0.0,-0.31,-4.03,-3.54,427,363,233,322,323
464,-0.36,-0.92,-0.0,-1.65,-2.99,-2.01,424,363,224,324,323
465,-0.35,-0.92,-0.0,2.01,-2.14,-2.14,424,361,230,323,319
466,-0.36,-0.93,-0.01,0.49,-3.42,-2.81,425,361,235,324,325
467,-0.36,-0.93,-0.02,1.16,-4.39,-2.44,424,358,227,328,327
468,-0.34,-0.92,-0.03,2.08,-3.54,-3.36,426,361,229,324,324
469,-0.35,-0.92,-0.01,-0.98,-2.44,-2.75,425,361,222,323,326
470,-0.35,-0.93,-0.03,-0.55,-2.32,-2.99,423,361,223,325,325
471,-0.36,-0.92,-0.01,-2.2,-1.95,-2.5,426,359,225,328,323
472,-0.33,-0.92,0.02,2.2,-5.0,-2.56,424,361,225,330,325
473,-0.36,-0.93,-0.0,0.12,-3.48,-2.01,425,360,224,330,326
474,-0.36,-0.93,-0.01,1.4,-1.77,-2.32,422,363,228,325,337
475,-0.35,-0.92,-0.01,0.37,-1.16,-3.05,452,362,222,325,325
476,-0.36,-0.92,-0.01,0.06,-0.85,-2.81,425,363,225,328,324
477,-0.36,-0.92,-0.01,0.0,-2.2,-2.56,423,360,225,324,324
478,-0.35,-0.93,-0.01,0.06,-3.11,-2.2,422,361,225,316,323
479,-0.36,-0.93,-0.0,-1.16,-1.65,-2.93,421,362,223,322,324
480,-0.35,-0.93,-0.01,-1.71,-0.55,-2.93,421,360,222,329,321
481,-0.34,-0.92,-0.03,0.24,-2.99,-2.56,428,366,225,317,317
482,-0.34,-0.93,-0.0,1.59,-2.44,-2.56,429,362,228,325,325
483,-0.35,-0.92,-0.04,-0.12,-6.16,-1.22,433,360,225,325,323
484,-0.35,-0.93,-0.02,0.0,-2.56,-2.81,432,368,223,328,322
485,-0.35,-0.92,-0.02,0.06,-3.3,-3.17,430,362,220,324,321
486,-0.35,-0.93,-0.02,1.04,-2.99,-2.5,427,366,227,320,322
487,-0.35,-0.93,-0.01,0.31,-2.69,-1.71,429,364,228,327,328
488,-0.35,-0.93,-0.02,-0.55,-3.17,-2.62,430,368,228,330,322
489,-0.35,-0.93,-0.01,1.1,-3.05,-3.3,428,369,225,325,321
490,-0.34,-0.93,-0.03,-0.12,-1.71,-2.62,424,367,224,328,314
491,-0.35,-0.93,-0.01,0.79,-2.5,-2.5,427,365,226,327,319
492,-0.34,-0.93,-0.02,-0.18,-3.11,-2.62,428,361,230,324,324
493,-0.35,-0.93,-0.01,0.67,-3.05,-2.44,430,367,223,322,321
494,-0.35,-0.93,-0.01,0.67,-3.97,-1.59,430,365,224,329,322
495,-0.35,-0.93,-0.02,2.2,-4.21,-2.01,431,368,228,327,323
496,-0.35,-0.93,-0.03,0.55,-3.36,-1.22,428,365,229,323,322
497,-0.35,-0.93,-0.02,0.67,-2.87,-2.32,428,364,226,328,323
498,-0.35,-0.93,-0.01,1.22,-2.99,-2.5,432,368,224,329,320
499,-0.35,-0.92,-0.01,0.43,-2.87,-2.81,429,366,226,325,322
500,-0.35,-0.93,-0.01,0.92,-2.99,-2.32,430,365,229,328,321
501,-0.35,-0.93,-0.0,-1.59,-2.56,-3.42,428,367,224,326,319
502,-0.35,-0.94,0.12,12.57,-5.13,-11.66,458,384,224,278,283
503,-0.26,-0.97,0.08,0.18,-14.77,1.34,457,381,223,285,289
504,-0.26,-0.95,0.03,7.81,-1.34,1.83,459,380,224,284,293
505,-0.32,-0.93,0.17,1.53,14.04,-12.27,456,378,223,286,294
506,-0.26,-0.94,0.18,-7.14,4.21,-13.18,457,380,226,284,292
507,-0.23,-0.95,0.07,-7.2,-5.74,-4.58,462,380,225,285,295
508,-0.21,-0.96,0.01,1.4,-1.65,-2.08,456,383,221,289,292
509,-0.24,-0.96,0.07,4.03,-6.77,-2.2,458,381,220,298,296
510,-0.22,-0.95,0.12,5.19,-1.59,-3.11,457,376,225,282,294
511,-0.22,-0.95,0.11,2.08,2.62,-3.6,458,374,221,288,296
512,-0.24,-0.96,0.13,0.24,-4.7,-2.08,456,371,223,285,297
513,-0.25,-0.96,0.16,-1.95,-4.7,-1.4,455,371,222,287,292
514,-0.24,-0.96,0.08,-2.44,-2.32,-2.14,452,371,218,287,299
515,-0.23,-0.97,0.1,-0.92,-3.72,-4.27,453,374,227,291,302
516,-0.25,-0.97,0.08,-0.67,-2.38,-3.17,463,377,220,292,299
517,-0.24,-0.96,0.09,2.32,-4.82,-1.1,454,373,226,277,293
518,-0.23,-0.98,0.09,-1.1,-4.82,-3.05,452,377,221,289,300
519,-0.23,-0.98,0.09,0.18,-5.74,2.01,455,376,225,286,297
520,-0.24,-0.94,0.09,9.83,-5.25,-6.1,453,370,226,287,300
521,-0.24,-0.97,0.12,-0.55,-3.3,-0.24,455,376,222,289,297
522,-0.23,-0.96,0.11,0.12,-3.54,-2.26,448,377,226,290,295
523,-0.24,-0.96,0.13,0.12,-2.32,-2.62,449,371,225,285,297
524,-0.25,-0.96,0.13,3.11,-4.7,-2.99,452,375,223,295,307
525,-0.22,-0.96,0.11,1.16,-3.36,-2.01,453,373,225,288,298
526,-0.24,-0.97,0.12,1.89,-2.14,-2.44,448,374,226,291,296
527,-0.23,-0.95,0.12,3.23,-6.41,-1.04,447,373,231,292,298
528,-0.26,-0.96,0.17,0.79,-6.35,0.61,446,376,224,290,300
529,-0.24,-0.95,0.16,2.69,-6.9,-0.73,451,377,224,288,300
530,-0.23,-0.95,0.15,1.28,-6.35,0.31,450,374,221,291,300
531,-0.25,-0.95,0.18,2.32,-4.03,-2.14,451,371,226,293,299
532,-0.25,-0.94,0.18,-1.83,-5.37,-2.38,448,374,226,294,298
533,-0.25,-0.94,0.15,-0.85,-6.04,-1.53,448,373,225,295,297
534,-0.24,-0.96,0.16,0.43,-3.05,-1.83,450,369,224,289,304
535,-0.24,-0.96,0.17,-0.18,-2.87,-2.69,453,373,216,298,301
536,-0.24,-0.95,0.15,2.44,-3.6,-2.56,448,373,217,300,302
537,-0.26,-0.96,0.18,-0.55,-0.85,-2.2,445,372,225,297,297
538,-0.25,-0.95,0.18,0.79,-4.88,-2.69,446,368,226,296,303
539,-0.25,-0.95,0.17,0.12,-3.66,-2.44,443,372,226,285,303
540,-0.25,-0.95,0.16,-0.49,-2.75,-2.56,446,373,224,298,304
541,-0.25,-0.95,0.17,0.67,-2.81,-2.56,446,367,220,298,307
542,-0.24,-0.96,0.17,0.49,-3.85,-2.08,442,373,227,292,300
543,-0.25,-0.95,0.17,0.31,-4.82,-2.56,451,371,222,293,308
544,-0.25,-0.95,0.17,-0.98,-1.53,-2.44,444,369,220,296,307
545,-0.25,-0.95,0.17,-0.12,-3.11,-2.56,444,371,218,294,300
546,-0.25,-0.94,0.17,0.0,-3.85,-2.62,454,370,225,290,309
547,-0.24,-0.95,0.17,1.4,-2.75,-2.56,448,370,226,306,310
548,-0.24,-0.96,0.16,-0.85,-3.78,-2.75,448,364,222,292,305
549,-0.25,-0.96,0.16,0.31,-2.93,-2.14,442,371,222,297,309
550,-0.23,-0.95,0.16,2.56,-2.81,-2.87,441,368,224,290,307
551,-0.24,-0.96,0.2,-1.77,-1.4,-2.38,443,373,223,297,305
552,-0.26,-0.93,0.21,9.09,0.18,-3.11,444,370,219,296,305
553,-0.25,-0.95,0.2,-2.62,-1.53,-2.75,445,368,220,291,309
554,-0.23,-0.95,0.16,-1.34,0.18,-4.46,442,366,224,298,305
555,-0.22,-0.95,0.18,-0.12,-4.27,-3.05,446,370,222,299,309
556,-0.23,-0.95,0.18,1.65,-3.6,-2.87,443,369,222,294,310
557,-0.23,-0.95,0.19,0.98,-2.01,-2.75,446,372,223,293,307
558,-0.23,-0.95,0.18,-0.55,-3.3,-1.95,442,371,222,299,310
559,-0.23,-0.96,0.2,-8.73,-2.14,-2.69,441,372,214,293,310
560,-0.22,-0.95,0.16,-0.79,-2.56,-2.62,441,363,227,301,303
561,-0.23,-0.96,0.2,-0.92,-1.22,-1.95,443,367,227,302,304
562,-0.23,-0.95,0.16,-6.04,-2.99,-3.48,444,370,222,299,307
563,-0.22,-0.96,0.14,-1.77,-2.08,-3.72,442,366,218,298,309
564,-0.25,-0.95,0.17,1.04,-0.18,-2.01,451,370,227,302,308
565,-0.22,-0.96,0.15,-0.12,-2.38,-2.44,440,368,223,298,310
566,-0.23,-0.95,0.16,2.75,-3.3,-1.95,442,368,223,302,307
567,-0.24,-0.96,0.18,0.67,-1.4,-2.44,444,368,235,295,307
568,-0.24,-0.95,0.18,-1.95,-3.48,-1.89,441,373,215,296,305
569,-0.23,-0.96,0.18,-1.95,-2.81,-2.32,436,367,221,299,309
570,-0.23,-0.95,0.16,1.22,-2.99,-2.99,440,370,226,300,311
571,-0.23,-0.96,0.17,0.43,-2.5,-2.93,445,369,224,298,306
572,-0.23,-0.95,0.16,-0.73,-2.75,-2.75,442,367,225,300,310
573,-0.23,-0.94,0.16,0.92,-3.3,-2.87,442,369,222,298,310
574,-0.24,-0.97,0.18,2.2,-3.17,-2.81,442,366,220,304,310
575,-0.23,-0.95,0.17,-1.22,-2.56,-2.87,440,369,224,304,306
576,-0.24,-0.95,0.17,-0.49,-3.11,-2.81,443,365,222,303,308
577,-0.23,-0.96,0.17,0.55,-3.42,-1.1,442,366,222,300,309
578,-0.24,-0.95,0.17,-1.04,-3.3,-1.95,441,367,232,304,310
579,-0.23,-0.95,0.17,0.06,-2.75,-2.38,441,361,225,305,311
580,-0.24,-0.97,0.19,0.92,-2.56,-2.2,437,366,224,297,307
581,-0.23,-0.96,0.16,1.46,-2.99,-2.87,440,367,218,306,312
582,-0.23,-0.97,0.21,2.87,-1.77,-4.09,443,368,217,306,309
583,-0.24,-0.96,0.18,-1.89,-3.11,-2.56,459,369,221,305,311
584,-0.24,-0.96,0.2,-0.49,-2.75,-2.2,441,364,222,309,309
585,-0.23,-0.96,0.16,0.92,-3.6,-1.89,437,371,223,305,306
586,-0.24,-0.96,0.18,2.38,-3.6,-2.5,439,370,226,309,308
587,-0.23,-0.95,0.17,1.89,-4.39,-2.5,442,374,225,303,312
588,-0.25,-0.93,0.18,-0.06,-3.3,-3.3,440,364,214,299,308
589,-0.25,-0.94,0.2,1.46,-3.23,-2.44,440,371,220,304,310
590,-0.23,-0.98,0.17,1.77,-1.34,-2.14,442,369,219,309,307
591,-0.24,-0.96,0.18,0.55,-2.75,-3.17,440,368,225,307,304
592,-0.25,-0.95,0.2,-0.24,-3.17,-3.05,439,364,220,303,310
593,-0.26,-0.94,0.21,1.16,-1.46,-2.26,439,369,221,306,305
594,-0.24,-0.95,0.18,1.46,-2.99,-3.11,443,363,225,308,315
595,-0.22,-0.97,0.16,-4.09,-1.16,-5.19,442,370,228,299,310
596,-0.23,-0.95,0.17,3.42,-3.78,-5.07,446,371,221,306,312
597,-0.23,-0.96,0.19,-1.16,-3.3,-2.5,448,368,226,302,311
598,-0.24,-0.93,0.17,1.16,-3.48,-3.48,482,367,219,305,312
599,-0.24,-0.96,0.17,0.0,-2.93,-1.22,450,374,225,308,313
600,-0.23,-0.95,0.18,-4.21,-0.85,-5.62,451,372,228,311,315
601,-0.23,-0.97,0.12,-0.73,-3.05,-4.09,448,374,224,309,313
602,-0.23,-0.97,0.13,1.59,-2.44,-1.46,448,378,225,308,310
603,-0.24,-0.97,0.15,5.98,-15.63,-0.18,446,371,225,308,313
604,-0.28,-0.96,0.21,8.61,-7.45,2.75,445,376,226,308,314
605,-0.23,-0.96,0.18,-0.61,-5.0,-2.26,446,374,229,306,311
606,-0.24,-0.96,0.16,0.31,-4.15,-2.01,444,372,225,309,313
607,-0.24,-0.95,0.17,1.46,-3.91,-2.44,449,373,227,309,314
608,-0.22,-0.97,0.17,2.44,-4.33,-1.89,448,373,226,308,317
609,-0.24,-0.95,0.18,-1.83,-1.95,-2.93,485,374,228,310,307
610,-0.25,-0.95,0.15,0.61,-0.43,-5.13,447,378,232,305,309
611,-0.22,-0.95,0.16,0.31,0.67,-4.33,449,367,229,307,312
612,-0.24,-0.95,0.16,0.85,-3.36,-2.2,448,376,237,306,314
613,-0.24,-0.96,0.16,0.92,-3.42,-2.5,445,382,222,310,313
614,-0.25,-0.96,0.19,0.31,-3.97,-2.32,445,377,227,307,309
615,-0.24,-0.95,0.17,0.61,-2.44,-2.75,445,374,215,312,313
616,-0.24,-0.95,0.18,1.04,-3.91,-2.99,445,373,223,298,313
617,-0.24,-0.96,0.19,-0.31,-2.38,-2.81,448,373,228,308,315
618,-0.23,-0.94,0.18,0.98,-4.39,-1.77,447,370,227,312,316
619,-0.23,-0.96,0.19,1.89,-3.42,-2.56,443,373,228,309,315
620,-0.24,-0.95,0.18,-0.31,-2.08,-2.38,445,371,229,304,313
621,-0.24,-0.96,0.18,-0.24,-2.62,-2.75,443,375,228,313,309
622,-0.24,-0.96,0.18,2.01,-2.75,-2.5,440,381,234,312,315
623,-0.24,-0.96,0.18,1.46,-3.91,-2.44,452,374,227,305,314
624,-0.25,-0.95,0.18,4.09,-1.71,-4.52,443,376,226,305,316
625,-0.23,-0.97,0.19,0.12,-4.82,-2.5,443,376,225,315,315
626,-0.23,-0.95,0.2,-0.06,-2.08,-3.23,443,374,236,307,313
627,-0.23,-0.96,0.2,0.0,-3.54,-1.1,442,374,228,312,315
628,-0.22,-0.96,0.19,-2.62,-4.64,-1.53,445,374,230,312,315
629,-0.23,-0.95,0.12,2.2,-5.25,-2.69,445,372,225,311,313
630,-0.26,-0.96,0.14,-2.2,-6.29,-1.53,443,372,216,300,316
631,-0.22,-0.94,0.17,0.18,-0.85,-2.38,444,373,238,311,316
632,-0.24,-0.95,0.19,-0.92,-2.75,-1.1,444,369,218,311,317
633,-0.24,-0.96,0.18,0.67,-3.05,-3.42,445,371,229,309,315
634,-0.24,-0.97,0.19,1.77,-5.0,-4.46,442,378,226,308,314
635,-0.22,-0.98,0.21,-5.0,-8.91,-9.95,437,372,225,312,315
636,-0.2,-0.98,0.14,-3.97,-4.46,-12.76,441,372,231,306,316
637,-0.22,-0.96,0.19,-0.18,-2.38,-2.87,444,372,227,310,315
638,-0.2,-0.96,0.17,-2.01,-1.04,-1.53,442,372,229,311,317
639,-0.19,-0.96,0.16,0.37,-3.78,-2.69,445,374,227,314,314
640,-0.19,-0.97,0.15,-1.95,-4.58,-0.79,437,370,227,313,315
641,-0.19,-0.97,0.12,0.49,-3.78,-2.38,440,375,230,309,315
642,-0.2,-0.97,0.13,2.26,-2.56,-2.44,441,371,232,310,324
643,-0.2,-0.96,0.13,-1.95,-1.83,-2.93,434,373,237,312,312
644,-0.21,-0.97,0.13,-0.73,-2.08,-2.81,438,374,239,315,314
645,-0.21,-0.97,0.13,0.12,-2.38,-1.65,438,372,232,307,315
646,-0.2,-0.97,0.13,1.77,-5.31,-2.5,437,390,224,313,315
647,-0.21,-0.97,0.13,0.0,-3.66,-2.01,439,375,225,315,314
648,-0.22,-0.96,0.18,-0.12,-5.19,-1.95,437,377,225,314,314
649,-0.22,-0.96,0.12,7.2,-9.4,5.31,435,369,226,311,313
650,-0.23,-0.95,0.18,3.97,-4.33,-2.08,439,372,224,312,311
651,-0.24,-0.95,0.18,0.37,-4.39,-1.53,438,375,225,316,314
652,-0.24,-0.96,0.16,-0.12,-2.14,-2.14,439,372,226,309,315
653,-0.23,-0.95,0.16,-0.12,-2.62,-1.53,438,374,227,309,315
654,-0.24,-0.95,0.17,-0.43,-1.46,-3.3,440,375,225,313,316
655,-0.22,-0.95,0.16,2.62,-4.52,-3.91,436,373,232,311,317
656,-0.22,-0.96,0.24,-0.37,-8.42,-4.94,437,371,227,312,314
657,-0.2,-0.95,0.17,0.67,-8.54,-1.83,438,376,231,310,313
658,-0.23,-0.94,0.23,4.7,-10.31,-1.16,439,375,223,318,316
659,-0.2,-0.95,0.26,-5.92,-7.02,-3.54,438,372,229,312,316
660,-0.24,-0.94,0.28,-2.99,-6.41,0.49,434,374,225,308,313
661,-0.19,-0.95,0.24,-8.3,0.85,-1.46,439,374,231,312,318
662,-0.21,-0.96,0.19,-0.85,-1.34,-5.8,437,371,223,314,314
663,-0.21,-0.96,0.14,-5.13,-0.06,-4.27,438,374,228,316,318
664,-0.21,-0.96,0.13,-4.09,-5.0,1.04,438,374,224,310,311
665,-0.22,-0.96,0.12,2.14,-3.23,-2.69,438,380,226,315,315
666,-0.23,-0.96,0.14,-0.37,-2.81,-3.42,436,374,227,314,316
667,-0.2,-0.96,0.17,-5.0,-0.61,0.67,437,372,226,313,318
668,-0.23,-0.96,0.13,-0.43,-2.5,-1.34,437,373,226,315,317
669,-0.21,-0.97,0.11,3.66,2.14,-2.5,434,373,226,317,317
670,-0.21,-0.97,0.14,0.61,-1.65,-0.49,439,374,226,312,314
671,-0.21,-0.96,0.15,2.93,-4.88,-2.38,462,374,228,315,320
672,-0.23,-0.96,0.2,2.44,-4.46,-1.46,435,372,226,317,317
673,-0.22,-0.96,0.16,-0.43,-1.1,-2.99,438,373,224,313,312
674,-0.22,-0.96,0.17,-0.79,-1.89,-2.87,434,372,229,319,317
675,-0.22,-0.95,0.18,-0.18,-2.81,-2.2,438,371,221,313,317
676,-0.25,-0.95,0.18,-5.0,-6.35,-0.31,433,374,226,318,313
677,-0.21,-0.92,0.12,3.36,-6.53,-1.16,435,373,230,317,313
678,-0.24,-0.96,0.09,0.24,-10.62,-4.52,436,372,228,314,315
679,-0.26,-0.96,0.13,1.4,-1.77,-3.54,435,370,224,320,319
680,-0.3,-0.95,0.11,0.06,4.94,-0.31,434,366,226,321,316
681,-0.27,-0.95,0.07,0.73,-1.22,-2.08,435,369,230,317,313
682,-0.13,-0.95,0.11,12.45,45.35,-14.28,434,371,228,309,312
683,-0.2,-0.98,0.13,10.07,8.54,0.12,440,379,224,315,310
684,-0.19,-0.96,0.17,0.43,-2.26,-3.3,439,371,222,313,314
685,-0.2,-0.96,0.16,-0.85,-0.67,-3.66,444,376,228,318,316
686,-0.18,-0.97,0.14,-0.06,-5.25,-3.78,443,374,213,316,311
687,-0.19,-0.97,0.16,0.0,-3.3,-2.32,449,366,226,314,316
688,-0.2,-0.96,0.16,0.06,-4.03,-2.08,445,371,222,320,316
689,-0.19,-0.97,0.16,0.24,-4.7,-2.69,439,374,228,315,314
690,-0.16,-0.97,0.13,0.31,-2.38,-1.65,443,377,225,314,312
691,-0.18,-0.97,0.13,0.79,-2.87,-2.08,439,376,228,316,317
692,-0.19,-0.96,0.15,-0.79,-1.28,-3.3,444,373,228,309,314
693,-0.18,-0.97,0.14,0.31,-5.37,-2.62,442,374,227,315,314
694,-0.16,-0.96,0.14,-0.73,-5.0,-3.36,442,375,225,318,311
695,-0.16,-0.97,0.12,-0.37,-6.16,-3.54,441,375,228,315,316
696,-0.15,-0.97,0.19,3.78,-3.05,-2.14,443,375,225,310,313
697,-0.16,-0.97,0.15,0.92,-4.82,-0.18,441,379,228,322,317
698,-0.16,-0.98,0.14,0.55,-2.38,-3.42,441,375,231,321,315
699,-0.17,-0.98,0.15,-0.98,-4.09,-1.89,436,375,227,315,316
700,-0.16,-0.98,0.12,-0.31,-2.99,-1.95,438,373,228,309,317
701,-0.16,-0.98,0.1,-1.34,-3.78,-3.54,439,373,227,310,315
702,-0.15,-0.98,0.09,0.24,-3.17,-2.81,436,374,226,314,316
703,-0.17,-0.98,0.09,8.24,-6.1,-1.95,440,373,231,314,314
704,-0.15,-0.98,0.13,0.92,-4.03,-1.65,438,370,232,316,320
705,-0.16,-0.98,0.12,0.37,-3.36,-2.08,457,373,227,319,315
706,-0.17,-0.98,0.12,0.49,-2.14,-2.01,439,373,228,314,314
707,-0.17,-0.97,0.14,1.1,-3.11,-1.71,437,366,228,321,315
708,-0.16,-0.97,0.13,1.83,-2.14,-3.05,440,376,229,316,317
709,-0.17,-0.97,0.12,-1.22,-2.44,-2.87,436,376,227,311,316
710,-0.2,-0.98,0.17,-0.98,-1.71,-0.92,440,377,219,315,314
711,-0.19,-0.97,0.16,0.73,-2.56,-2.26,438,375,226,328,319
712,-0.17,-0.97,0.18,-0.37,-2.38,-1.95,437,372,226,312,312
713,-0.17,-0.97,0.15,0.31,-2.38,-2.5,442,376,223,313,318
714,-0.18,-0.96,0.16,1.28,-3.36,-1.77,439,373,225,314,313
715,-0.18,-0.97,0.15,0.0,-2.38,-3.05,442,376,227,318,315
716,-0.19,-0.97,0.16,0.18,-0.43,-2.08,440,371,230,315,312
717,-0.17,-0.97,0.16,0.24,-3.36,-2.14,440,375,230,314,312
718,-0.17,-0.97,0.15,0.12,-2.01,-2.2,439,374,226,322,313
719,-0.18,-0.97,0.14,0.61,-4.46,-2.26,439,373,226,320,314
720,-0.18,-0.97,0.14,1.22,-3.78,-1.77,438,375,225,317,316
721,-0.19,-0.96,0.15,-1.46,-2.2,-3.17,443,373,226,317,309
722,-0.18,-0.97,0.15,-0.55,-1.59,-2.99,438,373,227,312,317
723,-0.18,-0.97,0.14,0.18,-4.33,-2.81,439,370,228,320,314
724,-0.17,-0.96,0.16,0.06,-1.04,-3.23,448,372,228,321,311
725,-0.17,-0.97,0.15,-0.24,-4.46,-0.55,442,372,230,322,313
726,-0.19,-0.97,0.17,0.67,-3.17,-2.08,438,377,214,319,315
727,-0.17,-0.97,0.14,-0.92,-3.72,-2.26,442,373,226,323,316
728,-0.17,-0.97,0.15,0.0,-3.11,-2.44,436,372,229,317,314
729,-0.18,-0.97,0.15,-0.06,-4.46,-3.05,437,374,223,321,314
730,-0.18,-0.98,0.14,-1.28,-2.14,-3.85,441,370,228,315,315
731,-0.2,-0.97,0.14,-1.4,-3.36,-2.62,428,375,231,327,315
732,-0.17,-0.97,0.15,-0.67,-1.65,-4.09,439,374,225,314,313
733,-0.17,-0.97,0.15,1.22,-3.3,-2.26,458,375,226,318,315
734,-0.18,-0.97,0.15,1.04,-1.95,-3.72,438,374,227,317,316
735,-0.18,-0.97,0.13,0.49,-2.32,-2.69,439,373,222,316,318
736,-0.18,-0.97,0.15,1.28,-3.36,-2.32,437,374,222,317,309
737,-0.18,-0.97,0.15,-0.43,-3.05,-2.44,437,374,230,322,316
738,-0.18,-0.97,0.14,1.04,-1.83,-2.56,438,373,230,322,316
739,-0.18,-0.96,0.17,0.55,-1.71,-4.21,440,370,232,319,323
740,-0.16,-0.97,0.14,-0.06,-4.21,-3.17,449,374,232,321,315
741,-0.17,-0.97,0.16,1.4,-3.05,-2.01,435,376,230,315,315
742,-0.18,-0.97,0.19,-0.31,-2.01,-3.17,439,374,226,318,311
743,-0.18,-0.96,0.14,-1.4,-5.0,-3.3,441,375,226,314,314
744,-0.17,-0.97,0.13,-1.04,-5.55,-1.22,435,372,227,317,314
745,-0.18,-0.97,0.15,0.98,-2.87,-2.56,435,375,229,314,318
746,-0.16,-0.97,0.13,-0.37,-4.52,-1.95,438,373,226,322,314
747,-0.16,-0.97,0.13,1.4,2.56,-2.14,438,374,225,316,313
748,-0.21,-0.97,0.15,2.81,1.28,-1.22,439,375,228,321,311
749,-0.2,-0.96,0.18,5.0,-1.53,-3.97,439,374,214,324,317
750,-0.24,-0.95,0.23,2.87,-5.13,-4.03,434,376,224,315,318
751,-0.2,-0.95,0.21,-4.64,-1.4,-5.68,434,373,230,314,310
752,-0.24,-0.96,0.21,-0.43,-10.25,-3.05,438,373,229,323,316
753,-0.2,-0.96,0.15,-8.97,1.16,-4.82,439,377,228,316,312
754,-0.17,-0.96,0.15,-2.2,-5.49,-1.1,437,373,226,324,317
755,-0.18,-0.97,0.18,0.85,-4.64,-3.97,440,378,230,320,314
756,-0.2,-0.97,0.25,-3.6,-4.09,-8.85,436,372,214,318,313
757,-0.12,-0.96,-0.0,-4.7,-10.86,-13.79,437,365,229,319,315
758,-0.08,-0.99,0.06,1.04,6.9,5.68,437,377,228,314,315
759,-0.07,-0.99,0.09,-4.09,5.37,3.85,435,372,221,315,315
760,-0.16,-0.98,0.09,9.7,1.77,7.51,437,374,225,321,314
761,-0.19,-0.98,0.2,16.91,18.43,-0.79,439,373,232,321,323
762,-0.23,-0.93,0.29,4.94,25.94,1.83,432,371,227,321,317
763,-0.29,-0.89,0.19,6.65,5.13,29.54,437,374,228,321,314
764,-0.36,-0.92,0.16,-6.65,-12.51,-10.74,439,374,227,323,318
765,-0.27,-0.93,0.12,-9.4,-14.1,-5.74,437,375,228,315,317
766,-0.24,-0.95,0.1,-3.72,5.86,-3.54,431,372,227,318,317
767,-0.3,-0.95,0.15,-2.14,-9.22,0.06,438,372,229,321,317
768,-0.31,-0.96,0.18,-9.83,-14.71,2.44,440,376,229,318,311
769,-0.31,-0.95,0.09,2.44,9.4,-1.65,439,371,233,319,317
770,-0.31,-0.95,0.16,0.67,7.02,-11.35,437,372,225,320,321
771,-0.17,-0.94,0.09,18.25,7.93,-13.12,439,375,226,314,313
772,-0.23,-0.96,0.13,7.87,12.27,2.38,438,374,228,319,317
773,-0.37,-0.96,0.2,-2.44,-0.24,-4.58,438,376,230,319,320
774,-0.27,-0.98,0.1,8.42,14.16,14.16,436,371,232,325,319
775,-0.26,-0.97,0.12,-1.65,7.39,-20.87,439,376,229,322,317
776,-0.24,-0.97,0.12,-1.46,2.87,-0.49,439,372,225,320,313
777,-0.24,-0.95,0.15,-3.85,-17.4,0.43,439,373,228,320,317
778,-0.14,-0.95,0.05,0.73,-6.04,1.83,437,386,229,325,318
779,-0.26,-0.96,0.13,-7.63,4.94,-8.73,435,372,243,319,316
780,-0.23,-0.96,-0.03,-1.71,-0.92,-0.55,440,369,219,323,320
781,-0.28,-0.95,0.07,0.92,-6.1,-0.18,441,373,234,333,319
782,-0.17,-0.94,0.06,0.67,-0.79,6.04,440,376,229,316,320
783,-0.27,-0.94,0.09,2.08,-2.44,0.98,435,372,230,316,318
784,-0.28,-0.96,0.02,-1.59,-4.88,-0.43,433,373,229,321,318
785,-0.29,-0.95,0.03,1.04,-1.83,-3.3,437,374,226,322,320
786,-0.29,-0.95,0.03,1.1,-6.1,-1.46,438,378,232,317,318
787,-0.27,-0.96,0.03,-0.92,-3.11,-2.26,437,377,229,316,321
788,-0.29,-0.95,0.01,2.87,-0.92,-1.71,439,369,226,322,318
789,-0.3,-0.96,0.05,-2.32,-4.7,-1.53,438,376,227,316,321
790,-0.27,-0.97,0.01,2.44,-6.47,-2.62,434,374,230,321,319
791,-0.28,-0.95,0.0,-1.04,-1.59,-2.26,435,372,231,321,318
792,-0.28,-0.97,0.02,-1.22,-0.98,-2.69,436,373,229,318,320
793,-0.26,-0.95,0.02,0.18,-1.59,-4.03,436,374,228,321,327
794,-0.29,-0.94,0.01,2.5,-2.62,-2.87,442,371,223,326,321
795,-0.28,-0.95,-0.02,1.53,-6.41,-4.09,434,374,227,327,315
796,-0.29,-0.96,0.01,0.98,0.12,-2.44,434,375,226,321,320
797,-0.27,-0.95,0.05,0.12,-3.05,-1.34,435,374,227,322,322
798,-0.28,-0.94,-0.06,-2.26,-4.03,-2.62,436,373,227,321,314
799,-0.34,-0.94,-0.07,-0.67,-0.31,-0.55,435,375,226,321,319
800,-0.3,-0.93,0.06,6.96,2.69,0.55,433,375,227,326,316
801,-0.23,-0.95,0.04,1.22,1.83,1.1,435,375,224,319,315
802,-0.27,-0.95,0.03,-0.49,-3.6,-3.85,435,373,228,320,319
803,-0.27,-0.96,0.03,-1.22,-2.99,-3.72,438,373,226,325,317
804,-0.25,-0.95,-0.02,-0.18,2.01,-1.83,442,372,227,328,317
805,-0.28,-0.98,-0.03,-1.89,-5.74,1.83,434,372,229,326,319
806,-0.25,-0.96,0.07,5.49,6.04,-2.56,428,370,226,317,312
807,-0.34,-0.94,0.01,-1.22,-3.05,-3.23,465,372,228,326,316
808,-0.27,-0.94,-0.03,-2.01,-9.95,-4.88,439,367,228,325,315
809,-0.31,-0.96,0.06,1.83,-3.66,-1.46,438,371,230,320,312
810,-0.32,-0.93,0.01,-2.69,2.62,-5.37,436,372,229,318,315
811,-0.3,-0.95,0.04,0.12,-3.17,-2.99,434,374,234,323,313
812,-0.3,-0.95,0.01,0.61,-4.46,-2.44,438,369,229,323,317
813,-0.31,-0.94,0.01,-0.49,-2.26,-2.99,437,373,228,325,313
814,-0.31,-0.94,0.01,-1.16,-2.2,-1.95,434,362,221,324,315
815,-0.31,-0.94,0.04,-1.1,-1.16,-4.94,437,371,228,323,310
816,-0.31,-0.95,0.04,0.98,-3.72,-2.38,437,366,227,327,316
817,-0.32,-0.95,0.04,0.18,-3.42,-2.14,442,371,232,329,310
818,-0.31,-0.94,0.03,-0.49,-2.14,-2.26,432,371,228,324,314
819,-0.28,-0.95,-0.02,0.79,-2.5,-3.42,434,367,216,320,314
820,-0.3,-0.95,0.03,1.1,-3.54,-1.71,428,368,229,318,316
821,-0.31,-0.94,0.02,0.85,-2.38,-2.62,432,371,230,326,317
822,-0.3,-0.95,0.02,0.98,-4.76,-2.69,433,376,227,325,316
823,-0.31,-0.95,0.03,1.1,-3.66,-2.56,430,371,231,325,316
824,-0.3,-0.95,0.02,0.98,-2.75,-1.95,432,366,221,323,318
825,-0.31,-0.95,0.04,-0.73,-1.95,-2.14,430,366,225,323,326
826,-0.31,-0.93,0.01,1.59,-3.72,-2.62,433,373,230,324,315
827,-0.3,-0.94,0.02,-0.43,-1.89,-3.54,432,370,229,323,316
828,-0.29,-0.95,0.03,4.15,-6.84,-1.04,432,372,228,328,316
829,-0.3,-0.94,-0.03,1.34,-4.21,-2.01,432,370,222,326,319
830,-0.3,-0.95,0.03,-1.77,-1.95,-2.99,430,372,224,327,316
831,-0.29,-0.95,0.03,0.31,-1.34,-2.38,431,370,227,327,313
832,-0.33,-0.96,0.04,3.36,-3.72,2.93,433,367,229,329,317
833,-0.36,-0.91,0.02,-1.53,-4.64,-3.3,427,372,227,329,316
834,-0.34,-0.92,0.04,0.79,-7.57,-1.89,434,368,227,325,316
835,-0.34,-0.93,0.03,-0.61,-3.78,-2.56,433,366,229,325,316
836,-0.32,-0.92,0.03,-1.83,-2.93,-3.6,431,367,230,330,317
837,-0.3,-0.94,0.02,-1.22,-0.12,-4.52,430,366,218,328,317
838,-0.32,-0.94,0.03,-1.46,-3.17,-2.38,433,370,229,326,316
839,-0.34,-0.94,0.04,-0.31,-3.97,-3.17,432,371,225,321,319
840,-0.33,-0.94,0.03,1.28,-5.37,-1.59,431,371,232,323,311
841,-0.33,-0.94,0.01,-0.67,-2.2,-1.04,443,372,227,330,315
842,-0.32,-0.94,0.0,3.11,-2.08,-2.56,429,368,214,317,315
843,-0.32,-0.94,0.0,0.18,-2.44,-3.17,431,366,229,330,319
844,-0.32,-0.94,0.03,-1.34,-3.6,-2.75,430,372,231,331,317
845,-0.32,-0.93,0.02,-2.2,-1.77,-3.48,429,370,228,319,314
846,-0.3,-0.94,0.03,1.28,-2.75,-2.75,429,371,227,326,316
847,-0.32,-0.96,0.01,-1.83,-2.5,-4.46,430,366,227,329,315
848,-0.32,-0.95,0.02,0.0,-2.62,-2.5,426,366,230,329,317
849,-0.31,-0.94,0.01,1.71,-4.39,-1.16,429,367,223,333,318
850,-0.32,-0.93,0.02,-0.12,-2.99,-2.5,427,365,223,327,317
851,-0.32,-0.93,0.01,2.2,-2.14,-2.08,429,366,219,332,318
852,-0.32,-0.94,0.02,1.77,-4.09,-1.89,427,368,226,329,316
853,-0.31,-0.94,0.04,1.71,-4.33,-2.44,425,370,227,325,319
854,-0.32,-0.91,0.02,-2.26,-1.83,-4.39,428,365,225,321,321
855,-0.3,-0.95,0.01,-12.7,-0.79,3.3,429,366,221,323,317
856,-0.33,-0.94,-0.01,-0.18,-10.62,9.34,428,368,223,326,313
857,-0.34,-0.93,-0.0,1.53,-4.15,-4.27,426,365,228,321,304
858,-0.35,-0.92,-0.02,0.37,-4.64,-2.99,428,359,230,339,315
859,-0.35,-0.93,0.02,-0.18,-4.64,-1.77,426,353,225,322,317
860,-0.38,-0.94,-0.03,-5.92,-1.4,-2.87,429,354,224,324,317
861,-0.32,-0.92,-0.07,3.78,0.31,-4.09,433,355,217,318,317
862,-0.33,-0.94,0.01,-2.01,-4.76,0.31,432,357,229,324,314
863,-0.36,-0.93,0.03,-2.32,-2.81,-5.55,431,355,229,327,318
864,-0.34,-0.92,0.02,5.55,-6.29,-5.19,432,360,219,321,316
865,-0.34,-0.94,0.06,2.62,-8.24,-3.6,434,358,228,321,318
866,-0.35,-0.93,0.04,1.16,-5.92,-1.59,427,354,224,323,317
867,-0.34,-0.93,0.03,0.98,-4.21,-2.5,429,362,229,323,316
868,-0.33,-0.94,0.02,0.79,-3.05,-2.14,431,358,230,325,319
869,-0.34,-0.92,0.0,-1.59,-0.06,-2.99,425,358,227,320,320
870,-0.34,-0.93,0.02,-2.44,-3.23,-2.26,427,357,227,324,320
871,-0.34,-0.93,-0.0,-1.89,-1.16,-2.38,428,358,222,324,318
872,-0.34,-0.93,-0.02,1.1,-3.05,-2.56,429,362,225,322,317
873,-0.34,-0.93,-0.01,0.85,-2.81,-2.69,433,357,219,324,317
874,-0.34,-0.93,-0.0,-0.12,-4.03,-2.81,429,362,228,319,319
875,-0.34,-0.94,-0.0,-1.16,-1.53,-2.99,427,359,224,325,322
876,-0.34,-0.94,-0.0,0.73,-3.3,-2.81,433,361,230,327,315
877,-0.33,-0.95,-0.01,15.38,-2.81,-2.2,430,361,223,326,320
878,-0.34,-0.93,-0.01,-0.37,-2.62,-2.62,423,356,227,329,320
879,-0.34,-0.92,-0.02,0.24,-0.98,-2.62,427,362,229,322,319
880,-0.34,-0.93,-0.01,-0.67,-3.6,-1.65,426,357,226,320,319
881,-0.34,-0.94,-0.0,-1.1,-2.32,-2.75,429,360,228,324,314
882,-0.35,-0.93,-0.01,0.49,-2.14,-2.69,426,356,232,326,317
883,-0.34,-0.93,-0.02,0.98,-3.11,-2.5,428,360,222,326,320
884,-0.36,-0.93,0.01,0.67,1.65,-4.03,427,359,230,328,317
885,-0.34,-0.93,-0.01,0.85,-3.17,-2.99,427,358,227,329,320
886,-0.34,-0.93,-0.01,-0.24,-2.32,-2.44,429,363,228,331,316
887,-0.35,-0.93,-0.01,-0.73,-2.32,-2.38,420,360,230,328,320
888,-0.34,-0.93,-0.01,0.79,-3.11,-2.38,423,357,219,327,314
889,-0.34,-0.93,-0.0,0.79,-2.08,-2.69,428,360,224,324,320
890,-0.35,-0.93,0.01,0.06,-1.16,-2.62,422,378,223,325,322
891,-0.35,-0.92,0.03,1.04,-3.3,-2.38,429,363,230,325,320
892,-0.36,-0.92,0.02,2.5,-0.49,-0.24,426,356,219,325,317
893,-0.36,-0.93,0.03,3.23,-3.78,-2.62,429,357,229,329,320
894,-0.34,-0.94,0.03,1.4,-0.49,-2.99,428,358,230,321,321
895,-0.34,-0.92,0.01,1.22,-4.33,-2.87,434,356,225,326,320
896,-0.3,-0.93,-0.0,1.04,-3.3,-3.48,426,359,226,322,318
897,-0.34,-0.93,0.02,-1.53,-2.08,-3.36,427,359,229,327,318
898,-0.34,-0.93,0.02,-0.67,-2.08,-1.89,429,361,228,323,320
899,-0.34,-0.93,0.02,-1.4,-2.38,-3.23,425,359,229,325,325
900,-0.35,-0.93,0.02,-1.4,-3.3,-3.23,428,358,228,324,321
901,-0.36,-0.92,0.02,-2.75,-2.93,-1.34,425,358,224,322,321
902,-0.34,-0.94,0.03,0.0,-3.36,-1.95,427,359,228,322,322
903,-0.35,-0.93,0.01,-1.46,-2.56,-3.17,428,355,227,328,322
904,-0.35,-0.93,0.03,2.44,-2.5,-1.89,425,361,228,328,322
905,-0.36,-0.93,-0.0,-0.43,-3.48,-2.81,426,360,223,323,330
906,-0.35,-0.93,0.01,0.98,-2.93,-2.01,426,359,218,328,319
907,-0.36,-0.93,0.01,0.55,-2.62,-2.5,427,359,228,327,322
908,-0.36,-0.93,0.02,-0.73,-2.5,-2.01,427,359,226,327,320
909,-0.36,-0.93,0.01,-0.18,-3.72,-2.08,426,356,224,324,321
910,-0.35,-0.93,0.01,1.71,-3.36,-1.71,426,362,228,330,322
911,-0.33,-0.93,-0.02,1.16,-4.09,-1.34,425,363,224,325,321
912,-0.34,-0.93,0.0,-0.49,-2.01,-2.56,429,361,229,325,319
913,-0.36,-0.93,0.01,0.24,-2.44,-2.32,425,361,226,327,320
914,-0.35,-0.93,0.01,1.04,-4.09,-2.38,427,364,227,329,320
915,-0.36,-0.93,0.02,0.06,-3.11,-2.26,426,364,232,330,323
916,-0.35,-0.93,0.01,1.1,-1.95,-3.05,427,357,227,325,321
917,-0.36,-0.92,0.02,-0.24,-3.72,-2.38,425,362,226,327,321
918,-0.36,-0.91,0.02,-1.65,-2.08,-2.69,425,359,224,324,320
919,-0.35,-0.92,0.0,0.92,-3.23,-2.81,426,357,227,329,324
920,-0.35,-0.92,0.0,2.26,-4.46,-3.85,427,358,226,324,323
921,-0.34,-0.94,0.03,1.04,-2.99,-2.69,426,358,226,329,320
922,-0.35,-0.93,0.0,0.79,-3.17,-3.6,427,359,228,329,319
923,-0.34,-0.93,0.03,0.55,-1.89,-1.46,423,356,224,328,321
924,-0.36,-0.92,0.05,-0.06,-2.56,-2.08,424,361,226,330,322
925,-0.35,-0.92,0.04,-0.61,-0.79,-2.08,425,360,235,326,317
926,-0.36,-0.93,0.03,0.43,-1.34,-1.83,425,361,225,324,322
927,-0.35,-0.92,0.03,1.04,-3.54,-2.87,422,358,227,326,321
928,-0.35,-0.93,0.01,2.26,-2.69,-3.23,420,357,228,328,321
929,-0.35,-0.93,0.03,-0.79,-2.62,-2.44,424,362,227,326,321
930,-0.35,-0.93,0.02,-0.61,-2.75,-2.01,425,360,216,324,322
931,-0.37,-0.92,0.01,1.46,-3.36,-2.75,427,359,231,326,324
932,-0.35,-0.93,0.01,0.12,-2.32,-2.56,425,362,228,329,322
933,-0.35,-0.92,0.01,1.34,-1.59,-4.15,431,363,227,327,319
934,-0.36,-0.93,0.04,-0.18,-0.61,-2.44,428,363,223,322,323
935,-0.34,-0.92,0.03,3.91,-0.12,-4.64,426,361,227,319,323
936,-0.36,-0.93,0.0,0.24,-5.13,-0.98,422,361,226,331,323
937,-0.34,-0.92,-0.01,2.38,-1.95,-3.23,424,362,226,333,323
938,-0.36,-0.93,0.02,-2.14,-0.37,-4.03,424,359,228,324,321
939,-0.35,-0.92,0.0,2.26,-4.76,-1.46,424,357,225,325,329
940,-0.36,-0.93,0.01,-1.95,-1.71,-3.72,422,361,225,329,318
941,-0.36,-0.92,-0.01,-1.71,-4.7,-1.53,423,360,226,331,323
942,-0.36,-0.93,0.02,1.65,-5.98,-0.73,427,360,227,324,317
943,-0.36,-0.92,0.04,-0.61,-2.32,-2.69,423,358,229,330,322
944,-0.37,-0.93,0.01,2.01,-4.21,-1.04,426,362,229,327,321
945,-0.36,-0.93,-0.01,0.0,-3.91,-1.77,422,362,230,325,318
946,-0.36,-0.92,-0.03,0.43,-3.36,-3.36,426,364,220,324,321
947,-0.35,-0.94,0.03,0.61,-2.38,-3.36,426,360,228,330,321
948,-0.36,-0.92,-0.0,0.06,-2.69,-2.81,426,361,224,325,322
949,-0.36,-0.92,-0.0,0.06,-2.87,-2.56,426,360,224,326,322
950,-0.35,-0.92,-0.01,-0.92,-2.99,-2.08,426,364,222,328,322
951,-0.36,-0.93,0.0,0.61,-3.6,-2.93,424,363,232,320,322
952,-0.36,-0.93,-0.02,-0.61,-2.81,-2.56,427,358,226,322,322
953,-0.35,-0.93,-0.02,-0.06,-3.17,-2.75,424,362,224,321,323
954,-0.36,-0.93,-0.02,0.06,-1.89,-2.81,428,361,227,322,322
955,-0.35,-0.93,-0.02,0.79,-2.2,-3.23,425,361,232,325,322
956,-0.37,-0.93,-0.03,0.43,-3.11,-2.14,427,361,231,328,322
957,-0.36,-0.93,-0.04,1.71,-3.78,-1.59,428,361,228,325,322
958,-0.34,-0.93,-0.02,-0.85,-2.32,-3.6,425,359,228,321,324
959,-0.34,-0.94,-0.01,1.16,-2.08,-3.91,424,363,228,324,318
960,-0.34,-0.92,-0.02,0.18,-3.11,-2.93,421,362,229,326,322
961,-0.34,-0.93,-0.03,0.73,-1.16,-3.48,422,363,226,321,320
962,-0.34,-0.93,-0.04,1.4,-4.09,-2.56,425,360,227,340,323
963,-0.36,-0.92,-0.03,-0.85,-2.14,-3.48,424,357,229,325,316
964,-0.33,-0.94,-0.03,2.08,-5.62,-0.31,426,360,229,326,321
965,-0.35,-0.92,-0.0,-0.31,-4.03,-3.54,427,363,233,322,323
966,-0.36,-0.92,-0.0,-1.65,-2.99,-2.01,424,363,224,324,323
967,-0.35,-0.92,-0.0,2.01,-2.14,-2.14,424,361,230,323,319
968,-0.36,-0.93,-0.01,0.49,-3.42,-2.81,425,361,235,324,325
969,-0.36,-0.93,-0.02,1.16,-4.39,-2.44,424,358,227,328,327
970,-0.34,-0.92,-0.03,2.08,-3.54,-3.36,426,361,229,324,324
971,-0.35,-0.92,-0.01,-0.98,-2.44,-2.75,425,361,222,323,326
972,-0.35,-0.93,-0.03,-0.55,-2.32,-2.99,423,361,223,325,325
973,-0.36,-0.92,-0.01,-2.2,-1.95,-2.5,426,359,225,328,323
974,-0.33,-0.92,0.02,2.2,-5.0,-2.56,424,361,225,330,325
975,-0.36,-0.93,-0.0,0.12,-3.48,-2.01,425,360,224,330,326
976,-0.36,-0.93,-0.01,1.4,-1.77,-2.32,422,363,228,325,337
977,-0.35,-0.92,-0.01,0.37,-1.16,-3.05,452,362,222,325,325
978,-0.36,-0.92,-0.01,0.06,-0.85,-2.81,425,363,225,328,324
979,-0.36,-0.92,-0.01,0.0,-2.2,-2.56,423,360,225,324,324
980,-0.35,-0.93,-0.01,0.06,-3.11,-2.2,422,361,225,316,323
981,-0.36,-0.93,-0.0,-1.16,-1.65,-2.93,421,362,223,322,324
982,-0.35,-0.93,-0.01,-1.71,-0.55,-2.93,421,360,222,329,321
983,-0.34,-0.92,-0.03,0.24,-2.99,-2.56,428,366,225,317,317
984,-0.34,-0.93,-0.0,1.59,-2.44,-2.56,429,362,228,325,325
985,-0.35,-0.92,-0.04,-0.12,-6.16,-1.22,433,360,225,325,323
986,-0.35,-0.93,-0.02,0.0,-2.56,-2.81,432,368,223,328,322
987,-0.35,-0.92,-0.02,0.06,-3.3,-3.17,430,362,220,324,321
988,-0.35,-0.93,-0.02,1.04,-2.99,-2.5,427,366,227,320,322
989,-0.35,-0.93,-0.01,0.31,-2.69,-1.71,429,364,228,327,328
990,-0.35,-0.93,-0.02,-0.55,-3.17,-2.62,430,368,228,330,322
991,-0.35,-0.93,-0.01,1.1,-3.05,-3.3,428,369,225,325,321
992,-0.34,-0.93,-0.03,-0.12,-1.71,-2.62,424,367,224,328,314
993,-0.35,-0.93,-0.01,0.79,-2.5,-2.5,427,365,226,327,319
994,-0.34,-0.93,-0.02,-0.18,-3.11,-2.62,428,361,230,324,324
995,-0.35,-0.93,-0.01,0.67,-3.05,-2.44,430,367,223,322,321
996,-0.35,-0.93,-0.01,0.67,-3.97,-1.59,430,365,224,329,322
997,-0.35,-0.93,-0.02,2.2,-4.21,-2.01,431,368,228,327,323
998,-0.35,-0.93,-0.03,0.55,-3.36,-1.22,428,365,229,323,322
999,-0.35,-0.93,-0.02,0.67,-2.87,-2.32,428,364,226,328,323
1000,-0.35,-0.93,-0.01,1.22,-2.99,-2.5,432,368,224,329,320
1001,-0.35,-0.92,-0.01,0.43,-2.87,-2.81,429,366,226,325,322
1002,-0.35,-0.93,-0.01,0.92,-2.99,-2.32,430,365,229,328,321
1003,-0.35,-0.93,-0.0,-1.59,-2.56,-3.42,428,367,224,326,319
1004,-0.35,-0.94,0.12,12.57,-5.13,-11.66,458,384,224,278,283
1005,-0.26,-0.97,0.08,0.18,-14.77,1.34,457,381,223,285,289
1006,-0.26,-0.95,0.03,7.81,-1.34,1.83,459,380,224,284,293
1007,-0.32,-0.93,0.17,1.53,14.04,-12.27,456,378,223,286,294
1008,-0.26,-0.94,0.18,-7.14,4.21,-13.18,457,380,226,284,292
1009,-0.23,-0.95,0.07,-7.2,-5.74,-4.58,462,380,225,285,295
1010,-0.21,-0.96,0.01,1.4,-1.65,-2.08,456,383,221,289,292
1011,-0.24,-0.96,0.07,4.03,-6.77,-2.2,458,381,220,298,296
1012,-0.22,-0.95,0.12,5.19,-1.59,-3.11,457,376,225,282,294
1013,-0.22,-0.95,0.11,2.08,2.62,-3.6,458,374,221,288,296
1014,-0.24,-0.96,0.13,0.24,-4.7,-2.08,456,371,223,285,297
1015,-0.25,-0.96,0.16,-1.95,-4.7,-1.4,455,371,222,287,292
1016,-0.24,-0.96,0.08,-2.44,-2.32,-2.14,452,371,218,287,299
1017,-0.23,-0.97,0.1,-0.92,-3.72,-4.27,453,374,227,291,302
1018,-0.25,-0.97,0.08,-0.67,-2.38,-3.17,463,377,220,292,299
1019,-0.24,-0.96,0.09,2.32,-4.82,-1.1,454,373,226,277,293
1020,-0.23,-0.98,0.09,-1.1,-4.82,-3.05,452,377,221,289,300
1021,-0.23,-0.98,0.09,0.18,-5.74,2.01,455,376,225,286,297
1022,-0.24,-0.94,0.09,9.83,-5.25,-6.1,453,370,226,287,300
1023,-0.24,-0.97,0.12,-0.55,-3.3,-0.24,455,376,222,289,297
1024,-0.23,-0.96,0.11,0.12,-3.54,-2.26,448,377,226,290,295
1025,-0.24,-0.96,0.13,0.12,-2.32,-2.62,449,371,225,285,297
1026,-0.25,-0.96,0.13,3.11,-4.7,-2.99,452,375,223,295,307
1027,-0.22,-0.96,0.11,1.16,-3.36,-2.01,453,373,225,288,298
1028,-0.24,-0.97,0.12,1.89,-2.14,-2.44,448,374,226,291,296
1029,-0.23,-0.95,0.12,3.23,-6.41,-1.04,447,373,231,292,298
1030,-0.26,-0.96,0.17,0.79,-6.35,0.61,446,376,224,290,300
1031,-0.24,-0.95,0.16,2.69,-6.9,-0.73,451,377,224,288,300
1032,-0.23,-0.95,0.15,1.28,-6.35,0.31,450,374,221,291,300
1033,-0.25,-0.95,0.18,2.32,-4.03,-2.14,451,371,226,293,299
1034,-0.25,-0.94,0.18,-1.83,-5.37,-2.38,448,374,226,294,298
1035,-0.25,-0.94,0.15,-0.85,-6.04,-1.53,448,373,225,295,297
1036,-0.24,-0.96,0.16,0.43,-3.05,-1.83,450,369,224,289,304
1037,-0.24,-0.96,0.17,-0.18,-2.87,-2.69,453,373,216,298,301
1038,-0.24,-0.95,0.15,2.44,-3.6,-2.56,448,373,217,300,302
1039,-0.26,-0.96,0.18,-0.55,-0.85,-2.2,445,372,225,297,297
1040,-0.25,-0.95,0.18,0.79,-4.88,-2.69,446,368,226,296,303
1041,-0.25,-0.95,0.17,0.12,-3.66,-2.44,443,372,226,285,303
1042,-0.25,-0.95,0.16,-0.49,-2.75,-2.56,446,373,224,298,304
1043,-0.25,-0.95,0.17,0.67,-2.81,-2.56,446,367,220,298,307
1044,-0.24,-0.96,0.17,0.49,-3.85,-2.08,442,373,227,292,300
1045,-0.25,-0.95,0.17,0.31,-4.82,-2.56,451,371,222,293,308
1046,-0.25,-0.95,0.17,-0.98,-1.53,-2.44,444,369,220,296,307
1047,-0.25,-0.95,0.17,-0.12,-3.11,-2.56,444,371,218,294,300
1048,-0.25,-0.94,0.17,0.0,-3.85,-2.62,454,370,225,290,309
1049,-0.24,-0.95,0.17,1.4,-2.75,-2.56,448,370,226,306,310
1050,-0.24,-0.96,0.16,-0.85,-3.78,-2.75,448,364,222,292,305
1051,-0.25,-0.96,0.16,0.31,-2.93,-2.14,442,371,222,297,309
1052,-0.23,-0.95,0.16,2.56,-2.81,-2.87,441,368,224,290,307
1053,-0.24,-0.96,0.2,-1.77,-1.4,-2.38,443,373,223,297,305
1054,-0.26,-0.93,0.21,9.09,0.18,-3.11,444,370,219,296,305
1055,-0.25,-0.95,0.2,-2.62,-1.53,-2.75,445,368,220,291,309
1056,-0.23,-0.95,0.16,-1.34,0.18,-4.46,442,366,224,298,305
1057,-0.22,-0.95,0.18,-0.12,-4.27,-3.05,446,370,222,299,309
1058,-0.23,-0.95,0.18,1.65,-3.6,-2.87,443,369,222,294,310
1059,-0.23,-0.95,0.19,0.98,-2.01,-2.75,446,372,223,293,307
1060,-0.23,-0.95,0.18,-0.55,-3.3,-1.95,442,371,222,299,310
1061,-0.23,-0.96,0.2,-8.73,-2.14,-2.69,441,372,214,293,310
1062,-0.22,-0.95,0.16,-0.79,-2.56,-2.62,441,363,227,301,303
1063,-0.23,-0.96,0.2,-0.92,-1.22,-1.95,443,367,227,302,304
1064,-0.23,-0.95,0.16,-6.04,-2.99,-3.48,444,370,222,299,307
1065,-0.22,-0.96,0.14,-1.77,-2.08,-3.72,442,366,218,298,309
1066,-0.25,-0.95,0.17,1.04,-0.18,-2.01,451,370,227,302,308
1067,-0.22,-0.96,0.15,-0.12,-2.38,-2.44,440,368,223,298,310
1068,-0.23,-0.95,0.16,2.75,-3.3,-1.95,442,368,223,302,307
1069,-0.24,-0.96,0.18,0.67,-1.4,-2.44,444,368,235,295,307
1070,-0.24,-0.95,0.18,-1.95,-3.48,-1.89,441,373,215,296,305
1071,-0.23,-0.96,0.18,-1.95,-2.81,-2.32,436,367,221,299,309
1072,-0.23,-0.95,0.16,1.22,-2.99,-2.99,440,370,226,300,311
1073,-0.23,-0.96,0.17,0.43,-2.5,-2.93,445,369,224,298,306
1074,-0.23,-0.95,0.16,-0.73,-2.75,-2.75,442,367,225,300,310
1075,-0.23,-0.94,0.16,0.92,-3.3,-2.87,442,369,222,298,310
1076,-0.24,-0.97,0.18,2.2,-3.17,-2.81,442,366,220,304,310
1077,-0.23,-0.95,0.17,-1.22,-2.56,-2.87,440,369,224,304,306
1078,-0.24,-0.95,0.17,-0.49,-3.11,-2.81,443,365,222,303,308
1079,-0.23,-0.96,0.17,0.55,-3.42,-1.1,442,366,222,300,309
1080,-0.24,-0.95,0.17,-1.04,-3.3,-1.95,441,367,232,304,310
1081,-0.23,-0.95,0.17,0.06,-2.75,-2.38,441,361,225,305,311
1082,-0.24,-0.97,0.19,0.92,-2.56,-2.2,437,366,224,297,307
1083,-0.23,-0.96,0.16,1.46,-2.99,-2.87,440,367,218,306,312
1084,-0.23,-0.97,0.21,2.87,-1.77,-4.09,443,368,217,306,309
1085,-0.24,-0.96,0.18,-1.89,-3.11,-2.56,459,369,221,305,311
1086,-0.24,-0.96,0.2,-0.49,-2.75,-2.2,441,364,222,309,309
1087,-0.23,-0.96,0.16,0.92,-3.6,-1.89,437,371,223,305,306
1088,-0.24,-0.96,0.18,2.38,-3.6,-2.5,439,370,226,309,308
1089,-0.23,-0.95,0.17,1.89,-4.39,-2.5,442,374,225,303,312
1090,-0.25,-0.93,0.18,-0.06,-3.3,-3.3,440,364,214,299,308
1091,-0.25,-0.94,0.2,1.46,-3.23,-2.44,440,371,220,304,310
1092,-0.23,-0.98,0.17,1.77,-1.34,-2.14,442,369,219,309,307
1093,-0.24,-0.96,0.18,0.55,-2.75,-3.17,440,368,225,307,304
1094,-0.25,-0.95,0.2,-0.24,-3.17,-3.05,439,364,220,303,310
1095,-0.26,-0.94,0.21,1.16,-1.46,-2.26,439,369,221,306,305
1096,-0.24,-0.95,0.18,1.46,-2.99,-3.11,443,363,225,308,315
1097,-0.22,-0.97,0.16,-4.09,-1.16,-5.19,442,370,228,299,310
1098,-0.23,-0.95,0.17,3.42,-3.78,-5.07,446,371,221,306,312
1099,-0.23,-0.96,0.19,-1.16,-3.3,-2.5,448,368,226,302,311
1100,-0.24,-0.93,0.17,1.16,-3.48,-3.48,482,367,219,305,312
1101,-0.24,-0.96,0.17,0.0,-2.93,-1.22,450,374,225,308,313
1102,-0.23,-0.95,0.18,-4.21,-0.85,-5.62,451,372,228,311,315
1103,-0.23,-0.97,0.12,-0.73,-3.05,-4.09,448,374,224,309,313
1104,-0.23,-0.97,0.13,1.59,-2.44,-1.46,448,378,225,308,310
1105,-0.24,-0.97,0.15,5.98,-15.63,-0.18,446,371,225,308,313
1106,-0.28,-0.96,0.21,8.61,-7.45,2.75,445,376,226,308,314
1107,-0.23,-0.96,0.18,-0.61,-5.0,-2.26,446,374,229,306,311
1108,-0.24,-0.96,0.16,0.31,-4.15,-2.01,444,372,225,309,313
1109,-0.24,-0.95,0.17,1.46,-3.91,-2.44,449,373,227,309,314
1110,-0.22,-0.97,0.17,2.44,-4.33,-1.89,448,373,226,308,317
1111,-0.24,-0.95,0.18,-1.83,-1.95,-2.93,485,374,228,310,307
1112,-0.25,-0.95,0.15,0.61,-0.43,-5.13,447,378,232,305,309
1113,-0.22,-0.95,0.16,0.31,0.67,-4.33,449,367,229,307,312
1114,-0.24,-0.95,0.16,0.85,-3.36,-2.2,448,376,237,306,314
1115,-0.24,-0.96,0.16,0.92,-3.42,-2.5,445,382,222,310,313
1116,-0.25,-0.96,0.19,0.31,-3.97,-2.32,445,377,227,307,309
1117,-0.24,-0.95,0.17,0.61,-2.44,-2.75,445,374,215,312,313
1118,-0.24,-0.95,0.18,1.04,-3.91,-2.99,445,373,223,298,313
1119,-0.24,-0.96,0.19,-0.31,-2.38,-2.81,448,373,228,308,315
1120,-0.23,-0.94,0.18,0.98,-4.39,-1.77,447,370,227,312,316
1121,-0.23,-0.96,0.19,1.89,-3.42,-2.56,443,373,228,309,315
1122,-0.24,-0.95,0.18,-0.31,-2.08,-2.38,445,371,229,304,313
1123,-0.24,-0.96,0.18,-0.24,-2.62,-2.75,443,375,228,313,309
1124,-0.24,-0.96,0.18,2.01,-2.75,-2.5,440,381,234,312,315
1125,-0.24,-0.96,0.18,1.46,-3.91,-2.44,452,374,227,305,314
1126,-0.25,-0.95,0.18,4.09,-1.71,-4.52,443,376,226,305,316
1127,-0.23,-0.97,0.19,0.12,-4.82,-2.5,443,376,225,315,315
1128,-0.23,-0.95,0.2,-0.06,-2.08,-3.23,443,374,236,307,313
1129,-0.23,-0.96,0.2,0.0,-3.54,-1.1,442,374,228,312,315
1130,-0.22,-0.96,0.19,-2.62,-4.64,-1.53,445,374,230,312,315
1131,-0.23,-0.95,0.12,2.2,-5.25,-2.69,445,372,225,311,313
1132,-0.26,-0.96,0.14,-2.2,-6.29,-1.53,443,372,216,300,316
1133,-0.22,-0.94,0.17,0.18,-0.85,-2.38,444,373,238,311,316
1134,-0.24,-0.95,0.19,-0.92,-2.75,-1.1,444,369,218,311,317
1135,-0.24,-0.96,0.18,0.67,-3.05,-3.42,445,371,229,309,315
1136,-0.24,-0.97,0.19,1.77,-5.0,-4.46,442,378,226,308,314
1137,-0.22,-0.98,0.21,-5.0,-8.91,-9.95,437,372,225,312,315
1138,-0.2,-0.98,0.14,-3.97,-4.46,-12.76,441,372,231,306,316
1139,-0.22,-0.96,0.19,-0.18,-2.38,-2.87,444,372,227,310,315
1140,-0.2,-0.96,0.17,-2.01,-1.04,-1.53,442,372,229,311,317
1141,-0.19,-0.96,0.16,0.37,-3.78,-2.69,445,374,227,314,314
1142,-0.19,-0.97,0.15,-1.95,-4.58,-0.79,437,370,227,313,315
1143,-0.19,-0.97,0.12,0.49,-3.78,-2.38,440,375,230,309,315
1144,-0.2,-0.97,0.13,2.26,-2.56,-2.44,441,371,232,310,324
1145,-0.2,-0.96,0.13,-1.95,-1.83,-2.93,434,373,237,312,312
1146,-0.21,-0.97,0.13,-0.73,-2.08,-2.81,438,374,239,315,314
1147,-0.21,-0.97,0.13,0.12,-2.38,-1.65,438,372,232,307,315
1148,-0.2,-0.97,0.13,1.77,-5.31,-2.5,437,390,224,313,315
1149,-0.21,-0.97,0.13,0.0,-3.66,-2.01,439,375,225,315,314
1150,-0.22,-0.96,0.18,-0.12,-5.19,-1.95,437,377,225,314,314
1151,-0.22,-0.96,0.12,7.2,-9.4,5.31,435,369,226,311,313
1152,-0.23,-0.95,0.18,3.97,-4.33,-2.08,439,372,224,312,311
1153,-0.24,-0.95,0.18,0.37,-4.39,-1.53,438,375,225,316,314
1154,-0.24,-0.96,0.16,-0.12,-2.14,-2.14,439,372,226,309,315
1155,-0.23,-0.95,0.16,-0.12,-2.62,-1.53,438,374,227,309,315
1156,-0.24,-0.95,0.17,-0.43,-1.46,-3.3,440,375,225,313,316
1157,-0.22,-0.95,0.16,2.62,-4.52,-3.91,436,373,232,311,317
1158,-0.22,-0.96,0.24,-0.37,-8.42,-4.94,437,371,227,312,314
1159,-0.2,-0.95,0.17,0.67,-8.54,-1.83,438,376,231,310,313
1160,-0.23,-0.94,0.23,4.7,-10.31,-1.16,439,375,223,318,316
1161,-0.2,-0.95,0.26,-5.92,-7.02,-3.54,438,372,229,312,316
1162,-0.24,-0.94,0.28,-2.99,-6.41,0.49,434,374,225,308,313
1163,-0.19,-0.95,0.24,-8.3,0.85,-1.46,439,374,231,312,318
1164,-0.21,-0.96,0.19,-0.85,-1.34,-5.8,437,371,223,314,314
1165,-0.21,-0.96,0.14,-5.13,-0.06,-4.27,438,374,228,316,318
1166,-0.21,-0.96,0.13,-4.09,-5.0,1.04,438,374,224,310,311
1167,-0.22,-0.96,0.12,2.14,-3.23,-2.69,438,380,226,315,315
1168,-0.23,-0.96,0.14,-0.37,-2.81,-3.42,436,374,227,314,316
1169,-0.2,-0.96,0.17,-5.0,-0.61,0.67,437,372,226,313,318
1170,-0.23,-0.96,0.13,-0.43,-2.5,-1.34,437,373,226,315,317
1171,-0.21,-0.97,0.11,3.66,2.14,-2.5,434,373,226,317,317
1172,-0.21,-0.97,0.14,0.61,-1.65,-0.49,439,374,226,312,314
1173,-0.21,-0.96,0.15,2.93,-4.88,-2.38,462,374,228,315,320
1174,-0.23,-0.96,0.2,2.44,-4.46,-1.46,435,372,226,317,317
1175,-0.22,-0.96,0.16,-0.43,-1.1,-2.99,438,373,224,313,312
1176,-0.22,-0.96,0.17,-0.79,-1.89,-2.87,434,372,229,319,317
1177,-0.22,-0.95,0.18,-0.18,-2.81,-2.2,438,371,221,313,317
1178,-0.25,-0.95,0.18,-5.0,-6.35,-0.31,433,374,226,318,313
1179,-0.21,-0.92,0.12,3.36,-6.53,-1.16,435,373,230,317,313
1180,-0.24,-0.96,0.09,0.24,-10.62,-4.52,436,372,228,314,315
1181,-0.26,-0.96,0.13,1.4,-1.77,-3.54,435,370,224,320,319
1182,-0.3,-0.95,0.11,0.06,4.94,-0.31,434,366,226,321,316
1183,-0.27,-0.95,0.07,0.73,-1.22,-2.08,435,369,230,317,313
1184,-0.13,-0.95,0.11,12.45,45.35,-14.28,434,371,228,309,312
1185,-0.2,-0.98,0.13,10.07,8.54,0.12,440,379,224,315,310
1186,-0.19,-0.96,0.17,0.43,-2.26,-3.3,439,371,222,313,314
1187,-0.2,-0.96,0.16,-0.85,-0.67,-3.66,444,376,228,318,316
1188,-0.18,-0.97,0.14,-0.06,-5.25,-3.78,443,374,213,316,311
1189,-0.19,-0.97,0.16,0.0,-3.3,-2.32,449,366,226,314,316
1190,-0.2,-0.96,0.16,0.06,-4.03,-2.08,445,371,222,320,316
1191,-0.19,-0.97,0.16,0.24,-4.7,-2.69,439,374,228,315,314
1192,-0.16,-0.97,0.13,0.31,-2.38,-1.65,443,377,225,314,312
1193,-0.18,-0.97,0.13,0.79,-2.87,-2.08,439,376,228,316,317
1194,-0.19,-0.96,0.15,-0.79,-1.28,-3.3,444,373,228,309,314
1195,-0.18,-0.97,0.14,0.31,-5.37,-2.62,442,374,227,315,314
1196,-0.16,-0.96,0.14,-0.73,-5.0,-3.36,442,375,225,318,311
1197,-0.16,-0.97,0.12,-0.37,-6.16,-3.54,441,375,228,315,316
1198,-0.15,-0.97,0.19,3.78,-3.05,-2.14,443,375,225,310,313
1199,-0.16,-0.97,0.15,0.92,-4.82,-0.18,441,379,228,322,317
1200,-0.16,-0.98,0.14,0.55,-2.38,-3.42,441,375,231,321,315
1201,-0.17,-0.98,0.15,-0.98,-4.09,-1.89,436,375,227,315,316
1202,-0.16,-0.98,0.12,-0.31,-2.99,-1.95,438,373,228,309,317
1203,-0.16,-0.98,0.1,-1.34,-3.78,-3.54,439,373,227,310,315
1204,-0.15,-0.98,0.09,0.24,-3.17,-2.81,436,374,226,314,316
1205,-0.17,-0.98,0.09,8.24,-6.1,-1.95,440,373,231,314,314
1206,-0.15,-0.98,0.13,0.92,-4.03,-1.65,438,370,232,316,320
1207,-0.16,-0.98,0.12,0.37,-3.36,-2.08,457,373,227,319,315
1208,-0.17,-0.98,0.12,0.49,-2.14,-2.01,439,373,228,314,314
1209,-0.17,-0.97,0.14,1.1,-3.11,-1.71,437,366,228,321,315
1210,-0.16,-0.97,0.13,1.83,-2.14,-3.05,440,376,229,316,317
1211,-0.17,-0.97,0.12,-1.22,-2.44,-2.87,436,376,227,311,316
1212,-0.2,-0.98,0.17,-0.98,-1.71,-0.92,440,377,219,315,314
1213,-0.19,-0.97,0.16,0.73,-2.56,-2.26,438,375,226,328,319
1214,-0.17,-0.97,0.18,-0.37,-2.38,-1.95,437,372,226,312,312
1215,-0.17,-0.97,0.15,0.31,-2.38,-2.5,442,376,223,313,318
1216,-0.18,-0.96,0.16,1.28,-3.36,-1.77,439,373,225,314,313
1217,-0.18,-0.97,0.15,0.0,-2.38,-3.05,442,376,227,318,315
1218,-0.19,-0.97,0.16,0.18,-0.43,-2.08,440,371,230,315,312
1219,-0.17,-0.97,0.16,0.24,-3.36,-2.14,440,375,230,314,312
1220,-0.17,-0.97,0.15,0.12,-2.01,-2.2,439,374,226,322,313
1221,-0.18,-0.97,0.14,0.61,-4.46,-2.26,439,373,226,320,314
1222,-0.18,-0.97,0.14,1.22,-3.78,-1.77,438,375,225,317,316
1223,-0.19,-0.96,0.15,-1.46,-2.2,-3.17,443,373,226,317,309
1224,-0.18,-0.97,0.15,-0.55,-1.59,-2.99,438,373,227,312,317
1225,-0.18,-0.97,0.14,0.18,-4.33,-2.81,439,370,228,320,314
1226,-0.17,-0.96,0.16,0.06,-1.04,-3.23,448,372,228,321,311
1227,-0.17,-0.97,0.15,-0.24,-4.46,-0.55,442,372,230,322,313
1228,-0.19,-0.97,0.17,0.67,-3.17,-2.08,438,377,214,319,315
1229,-0.17,-0.97,0.14,-0.92,-3.72,-2.26,442,373,226,323,316
1230,-0.17,-0.97,0.15,0.0,-3.11,-2.44,436,372,229,317,314
1231,-0.18,-0.97,0.15,-0.06,-4.46,-3.05,437,374,223,321,314
1232,-0.18,-0.98,0.14,-1.28,-2.14,-3.85,441,370,228,315,315
1233,-0.2,-0.97,0.14,-1.4,-3.36,-2.62,428,375,231,327,315
1234,-0.17,-0.97,0.15,-0.67,-1.65,-4.09,439,374,225,314,313
1235,-0.17,-0.97,0.15,1.22,-3.3,-2.26,458,375,226,318,315
1236,-0.18,-0.97,0.15,1.04,-1.95,-3.72,438,374,227,317,316
1237,-0.18,-0.97,0.13,0.49,-2.32,-2.69,439,373,222,316,318
1238,-0.18,-0.97,0.15,1.28,-3.36,-2.32,437,374,222,317,309
1239,-0.18,-0.97,0.15,-0.43,-3.05,-2.44,437,374,230,322,316
1240,-0.18,-0.97,0.14,1.04,-1.83,-2.56,438,373,230,322,316
1241,-0.18,-0.96,0.17,0.55,-1.71,-4.21,440,370,232,319,323
1242,-0.16,-0.97,0.14,-0.06,-4.21,-3.17,449,374,232,321,315
1243,-0.17,-0.97,0.16,1.4,-3.05,-2.01,435,376,230,315,315
1244,-0.18,-0.97,0.19,-0.31,-2.01,-3.17,439,374,226,318,311
1245,-0.18,-0.96,0.14,-1.4,-5.0,-3.3,441,375,226,314,314
1246,-0.17,-0.97,0.13,-1.04,-5.55,-1.22,435,372,227,317,314
1247,-0.18,-0.97,0.15,0.98,-2.87,-2.56,435,375,229,314,318
1248,-0.16,-0.97,0.13,-0.37,-4.52,-1.95,438,373,226,322,314
1249,-0.16,-0.97,0.13,1.4,2.56,-2.14,438,374,225,316,313
1250,-0.21,-0.97,0.15,2.81,1.28,-1.22,439,375,228,321,311
1251,-0.2,-0.96,0.18,5.0,-1.53,-3.97,439,374,214,324,317
1252,-0.24,-0.95,0.23,2.87,-5.13,-4.03,434,376,224,315,318
1253,-0.2,-0.95,0.21,-4.64,-1.4,-5.68,434,373,230,314,310
1254,-0.24,-0.96,0.21,-0.43,-10.25,-3.05,438,373,229,323,316
1255,-0.2,-0.96,0.15,-8.97,1.16,-4.82,439,377,228,316,312
1256,-0.17,-0.96,0.15,-2.2,-5.49,-1.1,437,373,226,324,317
1257,-0.18,-0.97,0.18,0.85,-4.64,-3.97,440,378,230,320,314
1258,-0.2,-0.97,0.25,-3.6,-4.09,-8.85,436,372,214,318,313
1259,-0.12,-0.96,-0.0,-4.7,-10.86,-13.79,437,365,229,319,315
1260,-0.08,-0.99,0.06,1.04,6.9,5.68,437,377,228,314,315
1261,-0.07,-0.99,0.09,-4.09,5.37,3.85,435,372,221,315,315
1262,-0.16,-0.98,0.09,9.7,1.77,7.51,437,374,225,321,314
1263,-0.19,-0.98,0.2,16.91,18.43,-0.79,439,373,232,321,323
1264,-0.23,-0.93,0.29,4.94,25.94,1.83,432,371,227,321,317
1265,-0.29,-0.89,0.19,6.65,5.13,29.54,437,374,228,321,314
1266,-0.36,-0.92,0.16,-6.65,-12.51,-10.74,439,374,227,323,318
1267,-0.27,-0.93,0.12,-9.4,-14.1,-5.74,437,375,228,315,317
1268,-0.24,-0.95,0.1,-3.72,5.86,-3.54,431,372,227,318,317
1269,-0.3,-0.95,0.15,-2.14,-9.22,0.06,438,372,229,321,317
1270,-0.31,-0.96,0.18,-9.83,-14.71,2.44,440,376,229,318,311
1271,-0.31,-0.95,0.09,2.44,9.4,-1.65,439,371,233,319,317
1272,-0.31,-0.95,0.16,0.67,7.02,-11.35,437,372,225,320,321
1273,-0.17,-0.94,0.09,18.25,7.93,-13.12,439,375,226,314,313
1274,-0.23,-0.96,0.13,7.87,12.27,2.38,438,374,228,319,317
1275,-0.37,-0.96,0.2,-2.44,-0.24,-4.58,438,376,230,319,320
1276,-0.27,-0.98,0.1,8.42,14.16,14.16,436,371,232,325,319
1277,-0.26,-0.97,0.12,-1.65,7.39,-20.87,439,376,229,322,317
1278,-0.24,-0.97,0.12,-1.46,2.87,-0.49,439,372,225,320,313
1279,-0.24,-0.95,0.15,-3.85,-17.4,0.43,439,373,228,320,317
1280,-0.14,-0.95,0.05,0.73,-6.04,1.83,437,386,229,325,318
1281,-0.26,-0.96,0.13,-7.63,4.94,-8.73,435,372,243,319,316
1282,-0.23,-0.96,-0.03,-1.71,-0.92,-0.55,440,369,219,323,320
1283,-0.28,-0.95,0.07,0.92,-6.1,-0.18,441,373,234,333,319
1284,-0.17,-0.94,0.06,0.67,-0.79,6.04,440,376,229,316,320
1285,-0.27,-0.94,0.09,2.08,-2.44,0.98,435,372,230,316,318
1286,-0.28,-0.96,0.02,-1.59,-4.88,-0.43,433,373,229,321,318
1287,-0.29,-0.95,0.03,1.04,-1.83,-3.3,437,374,226,322,320
1288,-0.29,-0.95,0.03,1.1,-6.1,-1.46,438,378,232,317,318
1289,-0.27,-0.96,0.03,-0.92,-3.11,-2.26,437,377,229,316,321
1290,-0.29,-0.95,0.01,2.87,-0.92,-1.71,439,369,226,322,318
1291,-0.3,-0.96,0.05,-2.32,-4.7,-1.53,438,376,227,316,321
1292,-0.27,-0.97,0.01,2.44,-6.47,-2.62,434,374,230,321,319
1293,-0.28,-0.95,0.0,-1.04,-1.59,-2.26,435,372,231,321,318
1294,-0.28,-0.97,0.02,-1.22,-0.98,-2.69,436,373,229,318,320
1295,-0.26,-0.95,0.02,0.18,-1.59,-4.03,436,374,228,321,327
1296,-0.29,-0.94,0.01,2.5,-2.62,-2.87,442,371,223,326,321
1297,-0.28,-0.95,-0.02,1.53,-6.41,-4.09,434,374,227,327,315
1298,-0.29,-0.96,0.01,0.98,0.12,-2.44,434,375,226,321,320
1299,-0.27,-0.95,0.05,0.12,-3.05,-1.34,435,374,227,322,322
1300,-0.28,-0.94,-0.06,-2.26,-4.03,-2.62,436,373,227,321,314
1301,-0.34,-0.94,-0.07,-0.67,-0.31,-0.55,435,375,226,321,319
1302,-0.3,-0.93,0.06,6.96,2.69,0.55,433,375,227,326,316
1303,-0.23,-0.95,0.04,1.22,1.83,1.1,435,375,224,319,315
1304,-0.27,-0.95,0.03,-0.49,-3.6,-3.85,435,373,228,320,319
1305,-0.27,-0.96,0.03,-1.22,-2.99,-3.72,438,373,226,325,317
1306,-0.25,-0.95,-0.02,-0.18,2.01,-1.83,442,372,227,328,317
1307,-0.28,-0.98,-0.03,-1.89,-5.74,1.83,434,372,229,326,319
1308,-0.25,-0.96,0.07,5.49,6.04,-2.56,428,370,226,317,312
1309,-0.34,-0.94,0.01,-1.22,-3.05,-3.23,465,372,228,326,316
1310,-0.27,-0.94,-0.03,-2.01,-9.95,-4.88,439,367,228,325,315
1311,-0.31,-0.96,0.06,1.83,-3.66,-1.46,438,371,230,320,312
1312,-0.32,-0.93,0.01,-2.69,2.62,-5.37,436,372,229,318,315
1313,-0.3,-0.95,0.04,0.12,-3.17,-2.99,434,374,234,323,313
1314,-0.3,-0.95,0.01,0.61,-4.46,-2.44,438,369,229,323,317
1315,-0.31,-0.94,0.01,-0.49,-2.26,-2.99,437,373,228,325,313
1316,-0.31,-0.94,0.01,-1.16,-2.2,-1.95,434,362,221,324,315
1317,-0.31,-0.94,0.04,-1.1,-1.16,-4.94,437,371,228,323,310
1318,-0.31,-0.95,0.04,0.98,-3.72,-2.38,437,366,227,327,316
1319,-0.32,-0.95,0.04,0.18,-3.42,-2.14,442,371,232,329,310
1320,-0.31,-0.94,0.03,-0.49,-2.14,-2.26,432,371,228,324,314
1321,-0.28,-0.95,-0.02,0.79,-2.5,-3.42,434,367,216,320,314
1322,-0.3,-0.95,0.03,1.1,-3.54,-1.71,428,368,229,318,316
1323,-0.31,-0.94,0.02,0.85,-2.38,-2.62,432,371,230,326,317
1324,-0.3,-0.95,0.02,0.98,-4.76,-2.69,433,376,227,325,316
1325,-0.31,-0.95,0.03,1.1,-3.66,-2.56,430,371,231,325,316
1326,-0.3,-0.95,0.02,0.98,-2.75,-1.95,432,366,221,323,318
1327,-0.31,-0.95,0.04,-0.73,-1.95,-2.14,430,366,225,323,326
1328,-0.31,-0.93,0.01,1.59,-3.72,-2.62,433,373,230,324,315
1329,-0.3,-0.94,0.02,-0.43,-1.89,-3.54,432,370,229,323,316
1330,-0.29,-0.95,0.03,4.15,-6.84,-1.04,432,372,228,328,316
1331,-0.3,-0.94,-0.03,1.34,-4.21,-2.01,432,370,222,326,319
1332,-0.3,-0.95,0.03,-1.77,-1.95,-2.99,430,372,224,327,316
1333,-0.29,-0.95,0.03,0.31,-1.34,-2.38,431,370,227,327,313
1334,-0.33,-0.96,0.04,3.36,-3.72,2.93,433,367,229,329,317
1335,-0.36,-0.91,0.02,-1.53,-4.64,-3.3,427,372,227,329,316
1336,-0.34,-0.92,0.04,0.79,-7.57,-1.89,434,368,227,325,316
1337,-0.34,-0.93,0.03,-0.61,-3.78,-2.56,433,366,229,325,316
1338,-0.32,-0.92,0.03,-1.83,-2.93,-3.6,431,367,230,330,317
1339,-0.3,-0.94,0.02,-1.22,-0.12,-4.52,430,366,218,328,317
1340,-0.32,-0.94,0.03,-1.46,-3.17,-2.38,433,370,229,326,316
1341,-0.34,-0.94,0.04,-0.31,-3.97,-3.17,432,371,225,321,319
1342,-0.33,-0.94,0.03,1.28,-5.37,-1.59,431,371,232,323,311
1343,-0.33,-0.94,0.01,-0.67,-2.2,-1.04,443,372,227,330,315
1344,-0.32,-0.94,0.0,3.11,-2.08,-2.56,429,368,214,317,315
1345,-0.32,-0.94,0.0,0.18,-2.44,-3.17,431,366,229,330,319
1346,-0.32,-0.94,0.03,-1.34,-3.6,-2.75,430,372,231,331,317
1347,-0.32,-0.93,0.02,-2.2,-1.77,-3.48,429,370,228,319,314
1348,-0.3,-0.94,0.03,1.28,-2.75,-2.75,429,371,227,326,316
1349,-0.32,-0.96,0.01,-1.83,-2.5,-4.46,430,366,227,329,315
1350,-0.32,-0.95,0.02,0.0,-2.62,-2.5,426,366,230,329,317
1351,-0.31,-0.94,0.01,1.71,-4.39,-1.16,429,367,223,333,318
1352,-0.32,-0.93,0.02,-0.12,-2.99,-2.5,427,365,223,327,317
1353,-0.32,-0.93,0.01,2.2,-2.14,-2.08,429,366,219,332,318
1354,-0.32,-0.94,0.02,1.77,-4.09,-1.89,427,368,226,329,316
1355,-0.31,-0.94,0.04,1.71,-4.33,-2.44,425,370,227,325,319
1356,-0.32,-0.91,0.02,-2.26,-1.83,-4.39,428,365,225,321,321
1357,-0.3,-0.95,0.01,-12.7,-0.79,3.3,429,366,221,323,317
1358,-0.33,-0.94,-0.01,-0.18,-10.62,9.34,428,368,223,326,313
1359,-0.34,-0.93,-0.0,1.53,-4.15,-4.27,426,365,228,321,304
1360,-0.35,-0.92,-0.02,0.37,-4.64,-2.99,428,359,230,339,315
1361,-0.35,-0.93,0.02,-0.18,-4.64,-1.77,426,353,225,322,317
1362,-0.38,-0.94,-0.03,-5.92,-1.4,-2.87,429,354,224,324,317
1363,-0.32,-0.92,-0.07,3.78,0.31,-4.09,433,355,217,318,317
1364,-0.33,-0.94,0.01,-2.01,-4.76,0.31,432,357,229,324,314
1365,-0.36,-0.93,0.03,-2.32,-2.81,-5.55,431,355,229,327,318
1366,-0.34,-0.92,0.02,5.55,-6.29,-5.19,432,360,219,321,316
1367,-0.34,-0.94,0.06,2.62,-8.24,-3.6,434,358,228,321,318
1368,-0.35,-0.93,0.04,1.16,-5.92,-1.59,427,354,224,323,317
1369,-0.34,-0.93,0.03,0.98,-4.21,-2.5,429,362,229,323,316
1370,-0.33,-0.94,0.02,0.79,-3.05,-2.14,431,358,230,325,319
1371,-0.34,-0.92,0.0,-1.59,-0.06,-2.99,425,358,227,320,320
1372,-0.34,-0.93,0.02,-2.44,-3.23,-2.26,427,357,227,324,320
1373,-0.34,-0.93,-0.0,-1.89,-1.16,-2.38,428,358,222,324,318
1374,-0.34,-0.93,-0.02,1.1,-3.05,-2.56,429,362,225,322,317
1375,-0.34,-0.93,-0.01,0.85,-2.81,-2.69,433,357,219,324,317
1376,-0.34,-0.93,-0.0,-0.12,-4.03,-2.81,429,362,228,319,319
1377,-0.34,-0.94,-0.0,-1.16,-1.53,-2.99,427,359,224,325,322
1378,-0.34,-0.94,-0.0,0.73,-3.3,-2.81,433,361,230,327,315
1379,-0.33,-0.95,-0.01,15.38,-2.81,-2.2,430,361,223,326,320
1380,-0.34,-0.93,-0.01,-0.37,-2.62,-2.62,423,356,227,329,320
1381,-0.34,-0.92,-0.02,0.24,-0.98,-2.62,427,362,229,322,319
1382,-0.34,-0.93,-0.01,-0.67,-3.6,-1.65,426,357,226,320,319
1383,-0.34,-0.94,-0.0,-1.1,-2.32,-2.75,429,360,228,324,314
1384,-0.35,-0.93,-0.01,0.49,-2.14,-2.69,426,356,232,326,317
1385,-0.34,-0.93,-0.02,0.98,-3.11,-2.5,428,360,222,326,320
1386,-0.36,-0.93,0.01,0.67,1.65,-4.03,427,359,230,328,317
1387,-0.34,-0.93,-0.01,0.85,-3.17,-2.99,427,358,227,329,320
1388,-0.34,-0.93,-0.01,-0.24,-2.32,-2.44,429,363,228,331,316
1389,-0.35,-0.93,-0.01,-0.73,-2.32,-2.38,420,360,230,328,320
1390,-0.34,-0.93,-0.01,0.79,-3.11,-2.38,423,357,219,327,314
1391,-0.34,-0.93,-0.0,0.79,-2.08,-2.69,428,360,224,324,320
1392,-0.35,-0.93,0.01,0.06,-1.16,-2.62,422,378,223,325,322
1393,-0.35,-0.92,0.03,1.04,-3.3,-2.38,429,363,230,325,320
1394,-0.36,-0.92,0.02,2.5,-0.49,-0.24,426,356,219,325,317
1395,-0.36,-0.93,0.03,3.23,-3.78,-2.62,429,357,229,329,320
1396,-0.34,-0.94,0.03,1.4,-0.49,-2.99,428,358,230,321,321
1397,-0.34,-0.92,0.01,1.22,-4.33,-2.87,434,356,225,326,320
1398,-0.3,-0.93,-0.0,1.04,-3.3,-3.48,426,359,226,322,318
1399,-0.34,-0.93,0.02,-1.53,-2.08,-3.36,427,359,229,327,318
1400,-0.34,-0.93,0.02,-0.67,-2.08,-1.89,429,361,228,323,320
1401,-0.34,-0.93,0.02,-1.4,-2.38,-3.23,425,359,229,325,325
1402,-0.35,-0.93,0.02,-1.4,-3.3,-3.23,428,358,228,324,321
1403,-0.36,-0.92,0.02,-2.75,-2.93,-1.34,425,358,224,322,321
1404,-0.34,-0.94,0.03,0.0,-3.36,-1.95,427,359,228,322,322
1405,-0.35,-0.93,0.01,-1.46,-2.56,-3.17,428,355,227,328,322
1406,-0.35,-0.93,0.03,2.44,-2.5,-1.89,425,361,228,328,322
1407,-0.36,-0.93,-0.0,-0.43,-3.48,-2.81,426,360,223,323,330
1408,-0.35,-0.93,0.01,0.98,-2.93,-2.01,426,359,218,328,319
1409,-0.36,-0.93,0.01,0.55,-2.62,-2.5,427,359,228,327,322
1410,-0.36,-0.93,0.02,-0.73,-2.5,-2.01,427,359,226,327,320
1411,-0.36,-0.93,0.01,-0.18,-3.72,-2.08,426,356,224,324,321
1412,-0.35,-0.93,0.01,1.71,-3.36,-1.71,426,362,228,330,322
1413,-0.33,-0.93,-0.02,1.16,-4.09,-1.34,425,363,224,325,321
1414,-0.34,-0.93,0.0,-0.49,-2.01,-2.56,429,361,229,325,319
1415,-0.36,-0.93,0.01,0.24,-2.44,-2.32,425,361,226,327,320
1416,-0.35,-0.93,0.01,1.04,-4.09,-2.38,427,364,227,329,320
1417,-0.36,-0.93,0.02,0.06,-3.11,-2.26,426,364,232,330,323
1418,-0.35,-0.93,0.01,1.1,-1.95,-3.05,427,357,227,325,321
1419,-0.36,-0.92,0.02,-0.24,-3.72,-2.38,425,362,226,327,321
1420,-0.36,-0.91,0.02,-1.65,-2.08,-2.69,425,359,224,324,320
1421,-0.35,-0.92,0.0,0.92,-3.23,-2.81,426,357,227,329,324
1422,-0.35,-0.92,0.0,2.26,-4.46,-3.85,427,358,226,324,323
1423,-0.34,-0.94,0.03,1.04,-2.99,-2.69,426,358,226,329,320
1424,-0.35,-0.93,0.0,0.79,-3.17,-3.6,427,359,228,329,319
1425,-0.34,-0.93,0.03,0.55,-1.89,-1.46,423,356,224,328,321
1426,-0.36,-0.92,0.05,-0.06,-2.56,-2.08,424,361,226,330,322
1427,-0.35,-0.92,0.04,-0.61,-0.79,-2.08,425,360,235,326,317
1428,-0.36,-0.93,0.03,0.43,-1.34,-1.83,425,361,225,324,322
1429,-0.35,-0.92,0.03,1.04,-3.54,-2.87,422,358,227,326,321
1430,-0.35,-0.93,0.01,2.26,-2.69,-3.23,420,357,228,328,321
1431,-0.35,-0.93,0.03,-0.79,-2.62,-2.44,424,362,227,326,321
1432,-0.35,-0.93,0.02,-0.61,-2.75,-2.01,425,360,216,324,322
1433,-0.37,-0.92,0.01,1.46,-3.36,-2.75,427,359,231,326,324
1434,-0.35,-0.93,0.01,0.12,-2.32,-2.56,425,362,228,329,322
1435,-0.35,-0.92,0.01,1.34,-1.59,-4.15,431,363,227,327,319
1436,-0.36,-0.93,0.04,-0.18,-0.61,-2.44,428,363,223,322,323
1437,-0.34,-0.92,0.03,3.91,-0.12,-4.64,426,361,227,319,323
1438,-0.36,-0.93,0.0,0.24,-5.13,-0.98,422,361,226,331,323
1439,-0.34,-0.92,-0.01,2.38,-1.95,-3.23,424,362,226,333,323
1440,-0.36,-0.93,0.02,-2.14,-0.37,-4.03,424,359,228,324,321
1441,-0.35,-0.92,0.0,2.26,-4.76,-1.46,424,357,225,325,329
1442,-0.36,-0.93,0.01,-1.95,-1.71,-3.72,422,361,225,329,318
1443,-0.36,-0.92,-0.01,-1.71,-4.7,-1.53,423,360,226,331,323
1444,-0.36,-0.93,0.02,1.65,-5.98,-0.73,427,360,227,324,317
1445,-0.36,-0.92,0.04,-0.61,-2.32,-2.69,423,358,229,330,322
1446,-0.37,-0.93,0.01,2.01,-4.21,-1.04,426,362,229,327,321
1447,-0.36,-0.93,-0.01,0.0,-3.91,-1.77,422,362,230,325,318
1448,-0.36,-0.92,-0.03,0.43,-3.36,-3.36,426,364,220,324,321
1449,-0.35,-0.94,0.03,0.61,-2.38,-3.36,426,360,228,330,321
1450,-0.36,-0.92,-0.0,0.06,-2.69,-2.81,426,361,224,325,322
1451,-0.36,-0.92,-0.0,0.06,-2.87,-2.56,426,360,224,326,322
1452,-0.35,-0.92,-0.01,-0.92,-2.99,-2.08,426,364,222,328,322
1453,-0.36,-0.93,0.0,0.61,-3.6,-2.93,424,363,232,320,322
1454,-0.36,-0.93,-0.02,-0.61,-2.81,-2.56,427,358,226,322,322
1455,-0.35,-0.93,-0.02,-0.06,-3.17,-2.75,424,362,224,321,323
1456,-0.36,-0.93,-0.02,0.06,-1.89,-2.81,428,361,227,322,322
1457,-0.35,-0.93,-0.02,0.79,-2.2,-3.23,425,361,232,325,322
1458,-0.37,-0.93,-0.03,0.43,-3.11,-2.14,427,361,231,328,322
1459,-0.36,-0.93,-0.04,1.71,-3.78,-1.59,428,361,228,325,322
1460,-0.34,-0.93,-0.02,-0.85,-2.32,-3.6,425,359,228,321,324
1461,-0.34,-0.94,-0.01,1.16,-2.08,-3.91,424,363,228,324,318
1462,-0.34,-0.92,-0.02,0.18,-3.11,-2.93,421,362,229,326,322
1463,-0.34,-0.93,-0.03,0.73,-1.16,-3.48,422,363,226,321,320
1464,-0.34,-0.93,-0.04,1.4,-4.09,-2.56,425,360,227,340,323
1465,-0.36,-0.92,-0.03,-0.85,-2.14,-3.48,424,357,229,325,316
1466,-0.33,-0.94,-0.03,2.08,-5.62,-0.31,426,360,229,326,321
1467,-0.35,-0.92,-0.0,-0.31,-4.03,-3.54,427,363,233,322,323
1468,-0.36,-0.92,-0.0,-1.65,-2.99,-2.01,424,363,224,324,323
1469,-0.35,-0.92,-0.0,2.01,-2.14,-2.14,424,361,230,323,319
1470,-0.36,-0.93,-0.01,0.49,-3.42,-2.81,425,361,235,324,325
1471,-0.36,-0.93,-0.02,1.16,-4.39,-2.44,424,358,227,328,327
1472,-0.34,-0.92,-0.03,2.08,-3.54,-3.36,426,361,229,324,324
1473,-0.35,-0.92,-0.01,-0.98,-2.44,-2.75,425,361,222,323,326
1474,-0.35,-0.93,-0.03,-0.55,-2.32,-2.99,423,361,223,325,325
1475,-0.36,-0.92,-0.01,-2.2,-1.95,-2.5,426,359,225,328,323
1476,-0.33,-0.92,0.02,2.2,-5.0,-2.56,424,361,225,330,325
1477,-0.36,-0.93,-0.0,0.12,-3.48,-2.01,425,360,224,330,326
1478,-0.36,-0.93,-0.01,1.4,-1.77,-2.32,422,363,228,325,337
1479,-0.35,-0.92,-0.01,0.37,-1.16,-3.05,452,362,222,325,325
1480,-0.36,-0.92,-0.01,0.06,-0.85,-2.81,425,363,225,328,324
1481,-0.36,-0.92,-0.01,0.0,-2.2,-2.56,423,360,225,324,324
1482,-0.35,-0.93,-0.01,0.06,-3.11,-2.2,422,361,225,316,323
1483,-0.36,-0.93,-0.0,-1.16,-1.65,-2.93,421,362,223,322,324
1484,-0.35,-0.93,-0.01,-1.71,-0.55,-2.93,421,360,222,329,321
1485,-0.34,-0.92,-0.03,0.24,-2.99,-2.56,428,366,225,317,317
1486,-0.34,-0.93,-0.0,1.59,-2.44,-2.56,429,362,228,325,325
1487,-0.35,-0.92,-0.04,-0.12,-6.16,-1.22,433,360,225,325,323
1488,-0.35,-0.93,-0.02,0.0,-2.56,-2.81,432,368,223,328,322
1489,-0.35,-0.92,-0.02,0.06,-3.3,-3.17,430,362,220,324,321
1490,-0.35,-0.93,-0.02,1.04,-2.99,-2.5,427,366,227,320,322
1491,-0.35,-0.93,-0.01,0.31,-2.69,-1.71,429,364,228,327,328
1492,-0.35,-0.93,-0.02,-0.55,-3.17,-2.62,430,368,228,330,322
1493,-0.35,-0.93,-0.01,1.1,-3.05,-3.3,428,369,225,325,321
1494,-0.34,-0.93,-0.03,-0.12,-1.71,-2.62,424,367,224,328,314
1495,-0.35,-0.93,-0.01,0.79,-2.5,-2.5,427,365,226,327,319
1496,-0.34,-0.93,-0.02,-0.18,-3.11,-2.62,428,361,230,324,324
1497,-0.35,-0.93,-0.01,0.67,-3.05,-2.44,430,367,223,322,321
1498,-0.35,-0.93,-0.01,0.67,-3.97,-1.59,430,365,224,329,322
1499,-0.35,-0.93,-0.02,2.2,-4.21,-2.01,431,368,228,327,323
1500,-0.35,-0.93,-0.03,0.55,-3.36,-1.22,428,365,229,323,322
1501,-0.35,-0.93,-0.02,0.67,-2.87,-2.32,428,364,226,328,323
1502,-0.35,-0.93,-0.01,1.22,-2.99,-2.5,432,368,224,329,320
1503,-0.35,-0.92,-0.01,0.43,-2.87,-2.81,429,366,226,325,322
1504,-0.35,-0.93,-0.01,0.92,-2.99,-2.32,430,365,229,328,321
1505,-0.35,-0.93,-0.0,-1.59,-2.56,-3.42,428,367,224,326,319
1506,-0.35,-0.94,0.12,12.57,-5.13,-11.66,458,384,224,278,283
1507,-0.26,-0.97,0.08,0.18,-14.77,1.34,457,381,223,285,289
1508,-0.26,-0.95,0.03,7.81,-1.34,1.83,459,380,224,284,293
1509,-0.32,-0.93,0.17,1.53,14.04,-12.27,456,378,223,286,294
1510,-0.26,-0.94,0.18,-7.14,4.21,-13.18,457,380,226,284,292
1511,-0.23,-0.95,0.07,-7.2,-5.74,-4.58,462,380,225,285,295
1512,-0.21,-0.96,0.01,1.4,-1.65,-2.08,456,383,221,289,292
1513,-0.24,-0.96,0.07,4.03,-6.77,-2.2,458,381,220,298,296
1514,-0.22,-0.95,0.12,5.19,-1.59,-3.11,457,376,225,282,294
1515,-0.22,-0.95,0.11,2.08,2.62,-3.6,458,374,221,288,296
1516,-0.24,-0.96,0.13,0.24,-4.7,-2.08,456,371,223,285,297
1517,-0.25,-0.96,0.16,-1.95,-4.7,-1.4,455,371,222,287,292
1518,-0.24,-0.96,0.08,-2.44,-2.32,-2.14,452,371,218,287,299
1519,-0.23,-0.97,0.1,-0.92,-3.72,-4.27,453,374,227,291,302
1520,-0.25,-0.97,0.08,-0.67,-2.38,-3.17,463,377,220,292,299
1521,-0.24,-0.96,0.09,2.32,-4.82,-1.1,454,373,226,277,293
1522,-0.23,-0.98,0.09,-1.1,-4.82,-3.05,452,377,221,289,300
1523,-0.23,-0.98,0.09,0.18,-5.74,2.01,455,376,225,286,297
1524,-0.24,-0.94,0.09,9.83,-5.25,-6.1,453,370,226,287,300
1525,-0.24,-0.97,0.12,-0.55,-3.3,-0.24,455,376,222,289,297
1526,-0.23,-0.96,0.11,0.12,-3.54,-2.26,448,377,226,290,295
1527,-0.24,-0.96,0.13,0.12,-2.32,-2.62,449,371,225,285,297
1528,-0.25,-0.96,0.13,3.11,-4.7,-2.99,452,375,223,295,307
1529,-0.22,-0.96,0.11,1.16,-3.36,-2.01,453,373,225,288,298
1530,-0.24,-0.97,0.12,1.89,-2.14,-2.44,448,374,226,291,296
1531,-0.23,-0.95,0.12,3.23,-6.41,-1.04,447,373,231,292,298
1532,-0.26,-0.96,0.17,0.79,-6.35,0.61,446,376,224,290,300
1533,-0.24,-0.95,0.16,2.69,-6.9,-0.73,451,377,224,288,300
1534,-0.23,-0.95,0.15,1.28,-6.35,0.31,450,374,221,291,300
1535,-0.25,-0.95,0.18,2.32,-4.03,-2.14,451,371,226,293,299
1536,-0.25,-0.94,0.18,-1.83,-5.37,-2.38,448,374,226,294,298
1537,-0.25,-0.94,0.15,-0.85,-6.04,-1.53,448,373,225,295,297
1538,-0.24,-0.96,0.16,0.43,-3.05,-1.83,450,369,224,289,304
1539,-0.24,-0.96,0.17,-0.18,-2.87,-2.69,453,373,216,298,301
1540,-0.24,-0.95,0.15,2.44,-3.6,-2.56,448,373,217,300,302
1541,-0.26,-0.96,0.18,-0.55,-0.85,-2.2,445,372,225,297,297
1542,-0.25,-0.95,0.18,0.79,-4.88,-2.69,446,368,226,296,303
1543,-0.25,-0.95,0.17,0.12,-3.66,-2.44,443,372,226,285,303
1544,-0.25,-0.95,0.16,-0.49,-2.75,-2.56,446,373,224,298,304
1545,-0.25,-0.95,0.17,0.67,-2.81,-2.56,446,367,220,298,307
1546,-0.24,-0.96,0.17,0.49,-3.85,-2.08,442,373,227,292,300
1547,-0.25,-0.95,0.17,0.31,-4.82,-2.56,451,371,222,293,308
1548,-0.25,-0.95,0.17,-0.98,-1.53,-2.44,444,369,220,296,307
1549,-0.25,-0.95,0.17,-0.12,-3.11,-2.56,444,371,218,294,300
1550,-0.25,-0.94,0.17,0.0,-3.85,-2.62,454,370,225,290,309
1551,-0.24,-0.95,0.17,1.4,-2.75,-2.56,448,370,226,306,310
1552,-0.24,-0.96,0.16,-0.85,-3.78,-2.75,448,364,222,292,305
1553,-0.25,-0.96,0.16,0.31,-2.93,-2.14,442,371,222,297,309
1554,-0.23,-0.95,0.16,2.56,-2.81,-2.87,441,368,224,290,307
1555,-0.24,-0.96,0.2,-1.77,-1.4,-2.38,443,373,223,297,305
1556,-0.26,-0.93,0.21,9.09,0.18,-3.11,444,370,219,296,305
1557,-0.25,-0.95,0.2,-2.62,-1.53,-2.75,445,368,220,291,309
1558,-0.23,-0.95,0.16,-1.34,0.18,-4.46,442,366,224,298,305
1559,-0.22,-0.95,0.18,-0.12,-4.27,-3.05,446,370,222,299,309
1560,-0.23,-0.95,0.18,1.65,-3.6,-2.87,443,369,222,294,310
1561,-0.23,-0.95,0.19,0.98,-2.01,-2.75,446,372,223,293,307
1562,-0.23,-0.95,0.18,-0.55,-3.3,-1.95,442,371,222,299,310
1563,-0.23,-0.96,0.2,-8.73,-2.14,-2.69,441,372,214,293,310
1564,-0.22,-0.95,0.16,-0.79,-2.56,-2.62,441,363,227,301,303
1565,-0.23,-0.96,0.2,-0.92,-1.22,-1.95,443,367,227,302,304
1566,-0.23,-0.95,0.16,-6.04,-2.99,-3.48,444,370,222,299,307
1567,-0.22,-0.96,0.14,-1.77,-2.08,-3.72,442,366,218,298,309
1568,-0.25,-0.95,0.17,1.04,-0.18,-2.01,451,370,227,302,308
1569,-0.22,-0.96,0.15,-0.12,-2.38,-2.44,440,368,223,298,310
1570,-0.23,-0.95,0.16,2.75,-3.3,-1.95,442,368,223,302,307
1571,-0.24,-0.96,0.18,0.67,-1.4,-2.44,444,368,235,295,307
1572,-0.24,-0.95,0.18,-1.95,-3.48,-1.89,441,373,215,296,305
1573,-0.23,-0.96,0.18,-1.95,-2.81,-2.32,436,367,221,299,309
1574,-0.23,-0.95,0.16,1.22,-2.99,-2.99,440,370,226,300,311
1575,-0.23,-0.96,0.17,0.43,-2.5,-2.93,445,369,224,298,306
1576,-0.23,-0.95,0.16,-0.73,-2.75,-2.75,442,367,225,300,310
1577,-0.23,-0.94,0.16,0.92,-3.3,-2.87,442,369,222,298,310
1578,-0.24,-0.97,0.18,2.2,-3.17,-2.81,442,366,220,304,310
1579,-0.23,-0.95,0.17,-1.22,-2.56,-2.87,440,369,224,304,306
1580,-0.24,-0.95,0.17,-0.49,-3.11,-2.81,443,365,222,303,308
1581,-0.23,-0.96,0.17,0.55,-3.42,-1.1,442,366,222,300,309
1582,-0.24,-0.95,0.17,-1.04,-3.3,-1.95,441,367,232,304,310
1583,-0.23,-0.95,0.17,0.06,-2.75,-2.38,441,361,225,305,311
1584,-0.24,-0.97,0.19,0.92,-2.56,-2.2,437,366,224,297,307
1585,-0.23,-0.96,0.16,1.46,-2.99,-2.87,440,367,218,306,312
1586,-0.23,-0.97,0.21,2.87,-1.77,-4.09,443,368,217,306,309
1587,-0.24,-0.96,0.18,-1.89,-3.11,-2.56,459,369,221,305,311
1588,-0.24,-0.96,0.2,-0.49,-2.75,-2.2,441,364,222,309,309
1589,-0.23,-0.96,0.16,0.92,-3.6,-1.89,437,371,223,305,306
1590,-0.24,-0.96,0.18,2.38,-3.6,-2.5,439,370,226,309,308
1591,-0.23,-0.95,0.17,1.89,-4.39,-2.5,442,374,225,303,312
1592,-0.25,-0.93,0.18,-0.06,-3.3,-3.3,440,364,214,299,308
1593,-0.25,-0.94,0.2,1.46,-3.23,-2.44,440,371,220,304,310
1594,-0.23,-0.98,0.17,1.77,-1.34,-2.14,442,369,219,309,307
1595,-0.24,-0.96,0.18,0.55,-2.75,-3.17,440,368,225,307,304
1596,-0.25,-0.95,0.2,-0.24,-3.17,-3.05,439,364,220,303,310
1597,-0.26,-0.94,0.21,1.16,-1.46,-2.26,439,369,221,306,305
1598,-0.24,-0.95,0.18,1.46,-2.99,-3.11,443,363,225,308,315
1599,-0.22,-0.97,0.16,-4.09,-1.16,-5.19,442,370,228,299,310
1600,-0.23,-0.95,0.17,3.42,-3.78,-5.07,446,371,221,306,312
1601,-0.23,-0.96,0.19,-1.16,-3.3,-2.5,448,368,226,302,311
1602,-0.24,-0.93,0.17,1.16,-3.48,-3.48,482,367,219,305,312
1603,-0.24,-0.96,0.17,0.0,-2.93,-1.22,450,374,225,308,313
1604,-0.23,-0.95,0.18,-4.21,-0.85,-5.62,451,372,228,311,315
1605,-0.23,-0.97,0.12,-0.73,-3.05,-4.09,448,374,224,309,313
1606,-0.23,-0.97,0.13,1.59,-2.44,-1.46,448,378,225,308,310
1607,-0.24,-0.97,0.15,5.98,-15.63,-0.18,446,371,225,308,313
1608,-0.28,-0.96,0.21,8.61,-7.45,2.75,445,376,226,308,314
1609,-0.23,-0.96,0.18,-0.61,-5.0,-2.26,446,374,229,306,311
1610,-0.24,-0.96,0.16,0.31,-4.15,-2.01,444,372,225,309,313
1611,-0.24,-0.95,0.17,1.46,-3.91,-2.44,449,373,227,309,314
1612,-0.22,-0.97,0.17,2.44,-4.33,-1.89,448,373,226,308,317
1613,-0.24,-0.95,0.18,-1.83,-1.95,-2.93,485,374,228,310,307
1614,-0.25,-0.95,0.15,0.61,-0.43,-5.13,447,378,232,305,309
1615,-0.22,-0.95,0.16,0.31,0.67,-4.33,449,367,229,307,312
1616,-0.24,-0.95,0.16,0.85,-3.36,-2.2,448,376,237,306,314
1617,-0.24,-0.96,0.16,0.92,-3.42,-2.5,445,382,222,310,313
1618,-0.25,-0.96,0.19,0.31,-3.97,-2.32,445,377,227,307,309
1619,-0.24,-0.95,0.17,0.61,-2.44,-2.75,445,374,215,312,313
1620,-0.24,-0.95,0.18,1.04,-3.91,-2.99,445,373,223,298,313
1621,-0.24,-0.96,0.19,-0.31,-2.38,-2.81,448,373,228,308,315
1622,-0.23,-0.94,0.18,0.98,-4.39,-1.77,447,370,227,312,316
1623,-0.23,-0.96,0.19,1.89,-3.42,-2.56,443,373,228,309,315
1624,-0.24,-0.95,0.18,-0.31,-2.08,-2.38,445,371,229,304,313
1625,-0.24,-0.96,0.18,-0.24,-2.62,-2.75,443,375,228,313,309
1626,-0.24,-0.96,0.18,2.01,-2.75,-2.5,440,381,234,312,315
1627,-0.24,-0.96,0.18,1.46,-3.91,-2.44,452,374,227,305,314
1628,-0.25,-0.95,0.18,4.09,-1.71,-4.52,443,376,226,305,316
1629,-0.23,-0.97,0.19,0.12,-4.82,-2.5,443,376,225,315,315
1630,-0.23,-0.95,0.2,-0.06,-2.08,-3.23,443,374,236,307,313
1631,-0.23,-0.96,0.2,0.0,-3.54,-1.1,442,374,228,312,315
1632,-0.22,-0.96,0.19,-2.62,-4.64,-1.53,445,374,230,312,315
1633,-0.23,-0.95,0.12,2.2,-5.25,-2.69,445,372,225,311,313
1634,-0.26,-0.96,0.14,-2.2,-6.29,-1.53,443,372,216,300,316
1635,-0.22,-0.94,0.17,0.18,-0.85,-2.38,444,373,238,311,316
1636,-0.24,-0.95,0.19,-0.92,-2.75,-1.1,444,369,218,311,317
1637,-0.24,-0.96,0.18,0.67,-3.05,-3.42,445,371,229,309,315
1638,-0.24,-0.97,0.19,1.77,-5.0,-4.46,442,378,226,308,314
1639,-0.22,-0.98,0.21,-5.0,-8.91,-9.95,437,372,225,312,315
1640,-0.2,-0.98,0.14,-3.97,-4.46,-12.76,441,372,231,306,316
1641,-0.22,-0.96,0.19,-0.18,-2.38,-2.87,444,372,227,310,315
1642,-0.2,-0.96,0.17,-2.01,-1.04,-1.53,442,372,229,311,317
1643,-0.19,-0.96,0.16,0.37,-3.78,-2.69,445,374,227,314,314
1644,-0.19,-0.97,0.15,-1.95,-4.58,-0.79,437,370,227,313,315
1645,-0.19,-0.97,0.12,0.49,-3.78,-2.38,440,375,230,309,315
1646,-0.2,-0.97,0.13,2.26,-2.56,-2.44,441,371,232,310,324
1647,-0.2,-0.96,0.13,-1.95,-1.83,-2.93,434,373,237,312,312
1648,-0.21,-0.97,0.13,-0.73,-2.08,-2.81,438,374,239,315,314
1649,-0.21,-0.97,0.13,0.12,-2.38,-1.65,438,372,232,307,315
1650,-0.2,-0.97,0.13,1.77,-5.31,-2.5,437,390,224,313,315
1651,-0.21,-0.97,0.13,0.0,-3.66,-2.01,439,375,225,315,314
1652,-0.22,-0.96,0.18,-0.12,-5.19,-1.95,437,377,225,314,314
1653,-0.22,-0.96,0.12,7.2,-9.4,5.31,435,369,226,311,313
1654,-0.23,-0.95,0.18,3.97,-4.33,-2.08,439,372,224,312,311
1655,-0.24,-0.95,0.18,0.37,-4.39,-1.53,438,375,225,316,314
1656,-0.24,-0.96,0.16,-0.12,-2.14,-2.14,439,372,226,309,315
1657,-0.23,-0.95,0.16,-0.12,-2.62,-1.53,438,374,227,309,315
1658,-0.24,-0.95,0.17,-0.43,-1.46,-3.3,440,375,225,313,316
1659,-0.22,-0.95,0.16,2.62,-4.52,-3.91,436,373,232,311,317
1660,-0.22,-0.96,0.24,-0.37,-8.42,-4.94,437,371,227,312,314
1661,-0.2,-0.95,0.17,0.67,-8.54,-1.83,438,376,231,310,313
1662,-0.23,-0.94,0.23,4.7,-10.31,-1.16,439,375,223,318,316
1663,-0.2,-0.95,0.26,-5.92,-7.02,-3.54,438,372,229,312,316
1664,-0.24,-0.94,0.28,-2.99,-6.41,0.49,434,374,225,308,313
1665,-0.19,-0.95,0.24,-8.3,0.85,-1.46,439,374,231,312,318
1666,-0.21,-0.96,0.19,-0.85,-1.34,-5.8,437,371,223,314,314
1667,-0.21,-0.96,0.14,-5.13,-0.06,-4.27,438,374,228,316,318
1668,-0.21,-0.96,0.13,-4.09,-5.0,1.04,438,374,224,310,311
1669,-0.22,-0.96,0.12,2.14,-3.23,-2.69,438,380,226,315,315
1670,-0.23,-0.96,0.14,-0.37,-2.81,-3.42,436,374,227,314,316
1671,-0.2,-0.96,0.17,-5.0,-0.61,0.67,437,372,226,313,318
1672,-0.23,-0.96,0.13,-0.43,-2.5,-1.34,437,373,226,315,317
1673,-0.21,-0.97,0.11,3.66,2.14,-2.5,434,373,226,317,317
1674,-0.21,-0.97,0.14,0.61,-1.65,-0.49,439,374,226,312,314
1675,-0.21,-0.96,0.15,2.93,-4.88,-2.38,462,374,228,315,320
1676,-0.23,-0.96,0.2,2.44,-4.46,-1.46,435,372,226,317,317
1677,-0.22,-0.96,0.16,-0.43,-1.1,-2.99,438,373,224,313,312
1678,-0.22,-0.96,0.17,-0.79,-1.89,-2.87,434,372,229,319,317
1679,-0.22,-0.95,0.18,-0.18,-2.81,-2.2,438,371,221,313,317
1680,-0.25,-0.95,0.18,-5.0,-6.35,-0.31,433,374,226,318,313
1681,-0.21,-0.92,0.12,3.36,-6.53,-1.16,435,373,230,317,313
1682,-0.24,-0.96,0.09,0.24,-10.62,-4.52,436,372,228,314,315
1683,-0.26,-0.96,0.13,1.4,-1.77,-3.54,435,370,224,320,319
1684,-0.3,-0.95,0.11,0.06,4.94,-0.31,434,366,226,321,316
1685,-0.27,-0.95,0.07,0.73,-1.22,-2.08,435,369,230,317,313
1686,-0.13,-0.95,0.11,12.45,45.35,-14.28,434,371,228,309,312
1687,-0.2,-0.98,0.13,10.07,8.54,0.12,440,379,224,315,310
1688,-0.19,-0.96,0.17,0.43,-2.26,-3.3,439,371,222,313,314
1689,-0.2,-0.96,0.16,-0.85,-0.67,-3.66,444,376,228,318,316
1690,-0.18,-0.97,0.14,-0.06,-5.25,-3.78,443,374,213,316,311
1691,-0.19,-0.97,0.16,0.0,-3.3,-2.32,449,366,226,314,316
1692,-0.2,-0.96,0.16,0.06,-4.03,-2.08,445,371,222,320,316
1693,-0.19,-0.97,0.16,0.24,-4.7,-2.69,439,374,228,315,314
1694,-0.16,-0.97,0.13,0.31,-2.38,-1.65,443,377,225,314,312
1695,-0.18,-0.97,0.13,0.79,-2.87,-2.08,439,376,228,316,317
1696,-0.19,-0.96,0.15,-0.79,-1.28,-3.3,444,373,228,309,314
1697,-0.18,-0.97,0.14,0.31,-5.37,-2.62,442,374,227,315,314
1698,-0.16,-0.96,0.14,-0.73,-5.0,-3.36,442,375,225,318,311
1699,-0.16,-0.97,0.12,-0.37,-6.16,-3.54,441,375,228,315,316
1700,-0.15,-0.97,0.19,3.78,-3.05,-2.14,443,375,225,310,313
1701,-0.16,-0.97,0.15,0.92,-4.82,-0.18,441,379,228,322,317
1702,-0.16,-0.98,0.14,0.55,-2.38,-3.42,441,375,231,321,315
1703,-0.17,-0.98,0.15,-0.98,-4.09,-1.89,436,375,227,315,316
1704,-0.16,-0.98,0.12,-0.31,-2.99,-1.95,438,373,228,309,317
1705,-0.16,-0.98,0.1,-1.34,-3.78,-3.54,439,373,227,310,315
1706,-0.15,-0.98,0.09,0.24,-3.17,-2.81,436,374,226,314,316
1707,-0.17,-0.98,0.09,8.24,-6.1,-1.95,440,373,231,314,314
1708,-0.15,-0.98,0.13,0.92,-4.03,-1.65,438,370,232,316,320
1709,-0.16,-0.98,0.12,0.37,-3.36,-2.08,457,373,227,319,315
1710,-0.17,-0.98,0.12,0.49,-2.14,-2.01,439,373,228,314,314
1711,-0.17,-0.97,0.14,1.1,-3.11,-1.71,437,366,228,321,315
1712,-0.16,-0.97,0.13,1.83,-2.14,-3.05,440,376,229,316,317
1713,-0.17,-0.97,0.12,-1.22,-2.44,-2.87,436,376,227,311,316
1714,-0.2,-0.98,0.17,-0.98,-1.71,-0.92,440,377,219,315,314
1715,-0.19,-0.97,0.16,0.73,-2.56,-2.26,438,375,226,328,319
1716,-0.17,-0.97,0.18,-0.37,-2.38,-1.95,437,372,226,312,312
1717,-0.17,-0.97,0.15,0.31,-2.38,-2.5,442,376,223,313,318
1718,-0.18,-0.96,0.16,1.28,-3.36,-1.77,439,373,225,314,313
1719,-0.18,-0.97,0.15,0.0,-2.38,-3.05,442,376,227,318,315
1720,-0.19,-0.97,0.16,0.18,-0.43,-2.08,440,371,230,315,312
1721,-0.17,-0.97,0.16,0.24,-3.36,-2.14,440,375,230,314,312
1722,-0.17,-0.97,0.15,0.12,-2.01,-2.2,439,374,226,322,313
1723,-0.18,-0.97,0.14,0.61,-4.46,-2.26,439,373,226,320,314
1724,-0.18,-0.97,0.14,1.22,-3.78,-1.77,438,375,225,317,316
1725,-0.19,-0.96,0.15,-1.46,-2.2,-3.17,443,373,226,317,309
1726,-0.18,-0.97,0.15,-0.55,-1.59,-2.99,438,373,227,312,317
1727,-0.18,-0.97,0.14,0.18,-4.33,-2.81,439,370,228,320,314
1728,-0.17,-0.96,0.16,0.06,-1.04,-3.23,448,372,228,321,311
1729,-0.17,-0.97,0.15,-0.24,-4.46,-0.55,442,372,230,322,313
1730,-0.19,-0.97,0.17,0.67,-3.17,-2.08,438,377,214,319,315
1731,-0.17,-0.97,0.14,-0.92,-3.72,-2.26,442,373,226,323,316
1732,-0.17,-0.97,0.15,0.0,-3.11,-2.44,436,372,229,317,314
1733,-0.18,-0.97,0.15,-0.06,-4.46,-3.05,437,374,223,321,314
1734,-0.18,-0.98,0.14,-1.28,-2.14,-3.85,441,370,228,315,315
1735,-0.2,-0.97,0.14,-1.4,-3.36,-2.62,428,375,231,327,315
1736,-0.17,-0.97,0.15,-0.67,-1.65,-4.09,439,374,225,314,313
1737,-0.17,-0.97,0.15,1.22,-3.3,-2.26,458,375,226,318,315
1738,-0.18,-0.97,0.15,1.04,-1.95,-3.72,438,374,227,317,316
1739,-0.18,-0.97,0.13,0.49,-2.32,-2.69,439,373,222,316,318
1740,-0.18,-0.97,0.15,1.28,-3.36,-2.32,437,374,222,317,309
1741,-0.18,-0.97,0.15,-0.43,-3.05,-2.44,437,374,230,322,316
1742,-0.18,-0.97,0.14,1.04,-1.83,-2.56,438,373,230,322,316
1743,-0.18,-0.96,0.17,0.55,-1.71,-4.21,440,370,232,319,323
1744,-0.16,-0.97,0.14,-0.06,-4.21,-3.17,449,374,232,321,315
1745,-0.17,-0.97,0.16,1.4,-3.05,-2.01,435,376,230,315,315
1746,-0.18,-0.97,0.19,-0.31,-2.01,-3.17,439,374,226,318,311
1747,-0.18,-0.96,0.14,-1.4,-5.0,-3.3,441,375,226,314,314
1748,-0.17,-0.97,0.13,-1.04,-5.55,-1.22,435,372,227,317,314
1749,-0.18,-0.97,0.15,0.98,-2.87,-2.56,435,375,229,314,318
1750,-0.16,-0.97,0.13,-0.37,-4.52,-1.95,438,373,226,322,314
1751,-0.16,-0.97,0.13,1.4,2.56,-2.14,438,374,225,316,313
1752,-0.21,-0.97,0.15,2.81,1.28,-1.22,439,375,228,321,311
1753,-0.2,-0.96,0.18,5.0,-1.53,-3.97,439,374,214,324,317
1754,-0.24,-0.95,0.23,2.87,-5.13,-4.03,434,376,224,315,318
1755,-0.2,-0.95,0.21,-4.64,-1.4,-5.68,434,373,230,314,310
1756,-0.24,-0.96,0.21,-0.43,-10.25,-3.05,438,373,229,323,316
1757,-0.2,-0.96,0.15,-8.97,1.16,-4.82,439,377,228,316,312
1758,-0.17,-0.96,0.15,-2.2,-5.49,-1.1,437,373,226,324,317
1759,-0.18,-0.97,0.18,0.85,-4.64,-3.97,440,378,230,320,314
1760,-0.2,-0.97,0.25,-3.6,-4.09,-8.85,436,372,214,318,313
1761,-0.12,-0.96,-0.0,-4.7,-10.86,-13.79,437,365,229,319,315
1762,-0.08,-0.99,0.06,1.04,6.9,5.68,437,377,228,314,315
1763,-0.07,-0.99,0.09,-4.09,5.37,3.85,435,372,221,315,315
1764,-0.16,-0.98,0.09,9.7,1.77,7.51,437,374,225,321,314
1765,-0.19,-0.98,0.2,16.91,18.43,-0.79,439,373,232,321,323
1766,-0.23,-0.93,0.29,4.94,25.94,1.83,432,371,227,321,317
1767,-0.29,-0.89,0.19,6.65,5.13,29.54,437,374,228,321,314
1768,-0.36,-0.92,0.16,-6.65,-12.51,-10.74,439,374,227,323,318
1769,-0.27,-0.93,0.12,-9.4,-14.1,-5.74,437,375,228,315,317
1770,-0.24,-0.95,0.1,-3.72,5.86,-3.54,431,372,227,318,317
1771,-0.3,-0.95,0.15,-2.14,-9.22,0.06,438,372,229,321,317
1772,-0.31,-0.96,0.18,-9.83,-14.71,2.44,440,376,229,318,311
1773,-0.31,-0.95,0.09,2.44,9.4,-1.65,439,371,233,319,317
1774,-0.31,-0.95,0.16,0.67,7.02,-11.35,437,372,225,320,321
1775,-0.17,-0.94,0.09,18.25,7.93,-13.12,439,375,226,314,313
1776,-0.23,-0.96,0.13,7.87,12.27,2.38,438,374,228,319,317
1777,-0.37,-0.96,0.2,-2.44,-0.24,-4.58,438,376,230,319,320
1778,-0.27,-0.98,0.1,8.42,14.16,14.16,436,371,232,325,319
1779,-0.26,-0.97,0.12,-1.65,7.39,-20.87,439,376,229,322,317
1780,-0.24,-0.97,0.12,-1.46,2.87,-0.49,439,372,225,320,313
1781,-0.24,-0.95,0.15,-3.85,-17.4,0.43,439,373,228,320,317
1782,-0.14,-0.95,0.05,0.73,-6.04,1.83,437,386,229,325,318
1783,-0.26,-0.96,0.13,-7.63,4.94,-8.73,435,372,243,319,316
1784,-0.23,-0.96,-0.03,-1.71,-0.92,-0.55,440,369,219,323,320
1785,-0.28,-0.95,0.07,0.92,-6.1,-0.18,441,373,234,333,319
1786,-0.17,-0.94,0.06,0.67,-0.79,6.04,440,376,229,316,320
1787,-0.27,-0.94,0.09,2.08,-2.44,0.98,435,372,230,316,318
1788,-0.28,-0.96,0.02,-1.59,-4.88,-0.43,433,373,229,321,318
1789,-0.29,-0.95,0.03,1.04,-1.83,-3.3,437,374,226,322,320
1790,-0.29,-0.95,0.03,1.1,-6.1,-1.46,438,378,232,317,318
1791,-0.27,-0.96,0.03,-0.92,-3.11,-2.26,437,377,229,316,321
1792,-0.29,-0.95,0.01,2.87,-0.92,-1.71,439,369,226,322,318
1793,-0.3,-0.96,0.05,-2.32,-4.7,-1.53,438,376,227,316,321
1794,-0.27,-0.97,0.01,2.44,-6.47,-2.62,434,374,230,321,319
1795,-0.28,-0.95,0.0,-1.04,-1.59,-2.26,435,372,231,321,318
1796,-0.28,-0.97,0.02,-1.22,-0.98,-2.69,436,373,229,318,320
1797,-0.26,-0.95,0.02,0.18,-1.59,-4.03,436,374,228,321,327
1798,-0.29,-0.94,0.01,2.5,-2.62,-2.87,442,371,223,326,321
1799,-0.28,-0.95,-0.02,1.53,-6.41,-4.09,434,374,227,327,315
1800,-0.29,-0.96,0.01,0.98,0.12,-2.44,434,375,226,321,320
1801,-0.27,-0.95,0.05,0.12,-3.05,-1.34,435,374,227,322,322
1802,-0.28,-0.94,-0.06,-2.26,-4.03,-2.62,436,373,227,321,314
1803,-0.34,-0.94,-0.07,-0.67,-0.31,-0.55,435,375,226,321,319
1804,-0.3,-0.93,0.06,6.96,2.69,0.55,433,375,227,326,316
1805,-0.23,-0.95,0.04,1.22,1.83,1.1,435,375,224,319,315
1806,-0.27,-0.95,0.03,-0.49,-3.6,-3.85,435,373,228,320,319
1807,-0.27,-0.96,0.03,-1.22,-2.99,-3.72,438,373,226,325,317
1808,-0.25,-0.95,-0.02,-0.18,2.01,-1.83,442,372,227,328,317
1809,-0.28,-0.98,-0.03,-1.89,-5.74,1.83,434,372,229,326,319
1810,-0.25,-0.96,0.07,5.49,6.04,-2.56,428,370,226,317,312
1811,-0.34,-0.94,0.01,-1.22,-3.05,-3.23,465,372,228,326,316
1812,-0.27,-0.94,-0.03,-2.01,-9.95,-4.88,439,367,228,325,315
1813,-0.31,-0.96,0.06,1.83,-3.66,-1.46,438,371,230,320,312
1814,-0.32,-0.93,0.01,-2.69,2.62,-5.37,436,372,229,318,315
1815,-0.3,-0.95,0.04,0.12,-3.17,-2.99,434,374,234,323,313
1816,-0.3,-0.95,0.01,0.61,-4.46,-2.44,438,369,229,323,317
1817,-0.31,-0.94,0.01,-0.49,-2.26,-2.99,437,373,228,325,313
1818,-0.31,-0.94,0.01,-1.16,-2.2,-1.95,434,362,221,324,315
1819,-0.31,-0.94,0.04,-1.1,-1.16,-4.94,437,371,228,323,310
1820,-0.31,-0.95,0.04,0.98,-3.72,-2.38,437,366,227,327,316
1821,-0.32,-0.95,0.04,0.18,-3.42,-2.14,442,371,232,329,310
1822,-0.31,-0.94,0.03,-0.49,-2.14,-2.26,432,371,228,324,314
1823,-0.28,-0.95,-0.02,0.79,-2.5,-3.42,434,367,216,320,314
1824,-0.3,-0.95,0.03,1.1,-3.54,-1.71,428,368,229,318,316
1825,-0.31,-0.94,0.02,0.85,-2.38,-2.62,432,371,230,326,317
1826,-0.3,-0.95,0.02,0.98,-4.76,-2.69,433,376,227,325,316
1827,-0.31,-0.95,0.03,1.1,-3.66,-2.56,430,371,231,325,316
1828,-0.3,-0.95,0.02,0.98,-2.75,-1.95,432,366,221,323,318
1829,-0.31,-0.95,0.04,-0.73,-1.95,-2.14,430,366,225,323,326
1830,-0.31,-0.93,0.01,1.59,-3.72,-2.62,433,373,230,324,315
1831,-0.3,-0.94,0.02,-0.43,-1.89,-3.54,432,370,229,323,316
1832,-0.29,-0.95,0.03,4.15,-6.84,-1.04,432,372,228,328,316
1833,-0.3,-0.94,-0.03,1.34,-4.21,-2.01,432,370,222,326,319
1834,-0.3,-0.95,0.03,-1.77,-1.95,-2.99,430,372,224,327,316
1835,-0.29,-0.95,0.03,0.31,-1.34,-2.38,431,370,227,327,313
1836,-0.33,-0.96,0.04,3.36,-3.72,2.93,433,367,229,329,317
1837,-0.36,-0.91,0.02,-1.53,-4.64,-3.3,427,372,227,329,316
1838,-0.34,-0.92,0.04,0.79,-7.57,-1.89,434,368,227,325,316
1839,-0.34,-0.93,0.03,-0.61,-3.78,-2.56,433,366,229,325,316
1840,-0.32,-0.92,0.03,-1.83,-2.93,-3.6,431,367,230,330,317
1841,-0.3,-0.94,0.02,-1.22,-0.12,-4.52,430,366,218,328,317
1842,-0.32,-0.94,0.03,-1.46,-3.17,-2.38,433,370,229,326,316
1843,-0.34,-0.94,0.04,-0.31,-3.97,-3.17,432,371,225,321,319
1844,-0.33,-0.94,0.03,1.28,-5.37,-1.59,431,371,232,323,311
1845,-0.33,-0.94,0.01,-0.67,-2.2,-1.04,443,372,227,330,315
1846,-0.32,-0.94,0.0,3.11,-2.08,-2.56,429,368,214,317,315
1847,-0.32,-0.94,0.0,0.18,-2.44,-3.17,431,366,229,330,319
1848,-0.32,-0.94,0.03,-1.34,-3.6,-2.75,430,372,231,331,317
1849,-0.32,-0.93,0.02,-2.2,-1.77,-3.48,429,370,228,319,314
1850,-0.3,-0.94,0.03,1.28,-2.75,-2.75,429,371,227,326,316
1851,-0.32,-0.96,0.01,-1.83,-2.5,-4.46,430,366,227,329,315
1852,-0.32,-0.95,0.02,0.0,-2.62,-2.5,426,366,230,329,317
1853,-0.31,-0.94,0.01,1.71,-4.39,-1.16,429,367,223,333,318
1854,-0.32,-0.93,0.02,-0.12,-2.99,-2.5,427,365,223,327,317
1855,-0.32,-0.93,0.01,2.2,-2.14,-2.08,429,366,219,332,318
1856,-0.32,-0.94,0.02,1.77,-4.09,-1.89,427,368,226,329,316
1857,-0.31,-0.94,0.04,1.71,-4.33,-2.44,425,370,227,325,319
1858,-0.32,-0.91,0.02,-2.26,-1.83,-4.39,428,365,225,321,321
1859,-0.3,-0.95,0.01,-12.7,-0.79,3.3,429,366,221,323,317
1860,-0.33,-0.94,-0.01,-0.18,-10.62,9.34,428,368,223,326,313
1861,-0.34,-0.93,-0.0,1.53,-4.15,-4.27,426,365,228,321,304
1862,-0.35,-0.92,-0.02,0.37,-4.64,-2.99,428,359,230,339,315
1863,-0.35,-0.93,0.02,-0.18,-4.64,-1.77,426,353,225,322,317
1864,-0.38,-0.94,-0.03,-5.92,-1.4,-2.87,429,354,224,324,317
1865,-0.32,-0.92,-0.07,3.78,0.31,-4.09,433,355,217,318,317
1866,-0.33,-0.94,0.01,-2.01,-4.76,0.31,432,357,229,324,314
1867,-0.36,-0.93,0.03,-2.32,-2.81,-5.55,431,355,229,327,318
1868,-0.34,-0.92,0.02,5.55,-6.29,-5.19,432,360,219,321,316
1869,-0.34,-0.94,0.06,2.62,-8.24,-3.6,434,358,228,321,318
1870,-0.35,-0.93,0.04,1.16,-5.92,-1.59,427,354,224,323,317
1871,-0.34,-0.93,0.03,0.98,-4.21,-2.5,429,362,229,323,316
1872,-0.33,-0.94,0.02,0.79,-3.05,-2.14,431,358,230,325,319
1873,-0.34,-0.92,0.0,-1.59,-0.06,-2.99,425,358,227,320,320
1874,-0.34,-0.93,0.02,-2.44,-3.23,-2.26,427,357,227,324,320
1875,-0.34,-0.93,-0.0,-1.89,-1.16,-2.38,428,358,222,324,318
1876,-0.34,-0.93,-0.02,1.1,-3.05,-2.56,429,362,225,322,317
1877,-0.34,-0.93,-0.01,0.85,-2.81,-2.69,433,357,219,324,317
1878,-0.34,-0.93,-0.0,-0.12,-4.03,-2.81,429,362,228,319,319
1879,-0.34,-0.94,-0.0,-1.16,-1.53,-2.99,427,359,224,325,322
1880,-0.34,-0.94,-0.0,0.73,-3.3,-2.81,433,361,230,327,315
1881,-0.33,-0.95,-0.01,15.38,-2.81,-2.2,430,361,223,326,320
1882,-0.34,-0.93,-0.01,-0.37,-2.62,-2.62,423,356,227,329,320
1883,-0.34,-0.92,-0.02,0.24,-0.98,-2.62,427,362,229,322,319
1884,-0.34,-0.93,-0.01,-0.67,-3.6,-1.65,426,357,226,320,319
1885,-0.34,-0.94,-0.0,-1.1,-2.32,-2.75,429,360,228,324,314
1886,-0.35,-0.93,-0.01,0.49,-2.14,-2.69,426,356,232,326,317
1887,-0.34,-0.93,-0.02,0.98,-3.11,-2.5,428,360,222,326,320
1888,-0.36,-0.93,0.01,0.67,1.65,-4.03,427,359,230,328,317
1889,-0.34,-0.93,-0.01,0.85,-3.17,-2.99,427,358,227,329,320
1890,-0.34,-0.93,-0.01,-0.24,-2.32,-2.44,429,363,228,331,316
1891,-0.35,-0.93,-0.01,-0.73,-2.32,-2.38,420,360,230,328,320
1892,-0.34,-0.93,-0.01,0.79,-3.11,-2.38,423,357,219,327,314
1893,-0.34,-0.93,-0.0,0.79,-2.08,-2.69,428,360,224,324,320
1894,-0.35,-0.93,0.01,0.06,-1.16,-2.62,422,378,223,325,322
1895,-0.35,-0.92,0.03,1.04,-3.3,-2.38,429,363,230,325,320
1896,-0.36,-0.92,0.02,2.5,-0.49,-0.24,426,356,219,325,317
1897,-0.36,-0.93,0.03,3.23,-3.78,-2.62,429,357,229,329,320
1898,-0.34,-0.94,0.03,1.4,-0.49,-2.99,428,358,230,321,321
1899,-0.34,-0.92,0.01,1.22,-4.33,-2.87,434,356,225,326,320
1900,-0.3,-0.93,-0.0,1.04,-3.3,-3.48,426,359,226,322,318
1901,-0.34,-0.93,0.02,-1.53,-2.08,-3.36,427,359,229,327,318
1902,-0.34,-0.93,0.02,-0.67,-2.08,-1.89,429,361,228,323,320
1903,-0.34,-0.93,0.02,-1.4,-2.38,-3.23,425,359,229,325,325
1904,-0.35,-0.93,0.02,-1.4,-3.3,-3.23,428,358,228,324,321
1905,-0.36,-0.92,0.02,-2.75,-2.93,-1.34,425,358,224,322,321
1906,-0.34,-0.94,0.03,0.0,-3.36,-1.95,427,359,228,322,322
1907,-0.35,-0.93,0.01,-1.46,-2.56,-3.17,428,355,227,328,322
1908,-0.35,-0.93,0.03,2.44,-2.5,-1.89,425,361,228,328,322
1909,-0.36,-0.93,-0.0,-0.43,-3.48,-2.81,426,360,223,323,330
1910,-0.35,-0.93,0.01,0.98,-2.93,-2.01,426,359,218,328,319
1911,-0.36,-0.93,0.01,0.55,-2.62,-2.5,427,359,228,327,322
1912,-0.36,-0.93,0.02,-0.73,-2.5,-2.01,427,359,226,327,320
1913,-0.36,-0.93,0.01,-0.18,-3.72,-2.08,426,356,224,324,321
1914,-0.35,-0.93,0.01,1.71,-3.36,-1.71,426,362,228,330,322
1915,-0.33,-0.93,-0.02,1.16,-4.09,-1.34,425,363,224,325,321
1916,-0.34,-0.93,0.0,-0.49,-2.01,-2.56,429,361,229,325,319
1917,-0.36,-0.93,0.01,0.24,-2.44,-2.32,425,361,226,327,320
1918,-0.35,-0.93,0.01,1.04,-4.09,-2.38,427,364,227,329,320
1919,-0.36,-0.93,0.02,0.06,-3.11,-2.26,426,364,232,330,323
1920,-0.35,-0.93,0.01,1.1,-1.95,-3.05,427,357,227,325,321
1921,-0.36,-0.92,0.02,-0.24,-3.72,-2.38,425,362,226,327,321
1922,-0.36,-0.91,0.02,-1.65,-2.08,-2.69,425,359,224,324,320
1923,-0.35,-0.92,0.0,0.92,-3.23,-2.81,426,357,227,329,324
1924,-0.35,-0.92,0.0,2.26,-4.46,-3.85,427,358,226,324,323
1925,-0.34,-0.94,0.03,1.04,-2.99,-2.69,426,358,226,329,320
1926,-0.35,-0.93,0.0,0.79,-3.17,-3.6,427,359,228,329,319
1927,-0.34,-0.93,0.03,0.55,-1.89,-1.46,423,356,224,328,321
1928,-0.36,-0.92,0.05,-0.06,-2.56,-2.08,424,361,226,330,322
1929,-0.35,-0.92,0.04,-0.61,-0.79,-2.08,425,360,235,326,317
1930,-0.36,-0.93,0.03,0.43,-1.34,-1.83,425,361,225,324,322
1931,-0.35,-0.92,0.03,1.04,-3.54,-2.87,422,358,227,326,321
1932,-0.35,-0.93,0.01,2.26,-2.69,-3.23,420,357,228,328,321
1933,-0.35,-0.93,0.03,-0.79,-2.62,-2.44,424,362,227,326,321
1934,-0.35,-0.93,0.02,-0.61,-2.75,-2.01,425,360,216,324,322
1935,-0.37,-0.92,0.01,1.46,-3.36,-2.75,427,359,231,326,324
1936,-0.35,-0.93,0.01,0.12,-2.32,-2.56,425,362,228,329,322
1937,-0.35,-0.92,0.01,1.34,-1.59,-4.15,431,363,227,327,319
1938,-0.36,-0.93,0.04,-0.18,-0.61,-2.44,428,363,223,322,323
1939,-0.34,-0.92,0.03,3.91,-0.12,-4.64,426,361,227,319,323
1940,-0.36,-0.93,0.0,0.24,-5.13,-0.98,422,361,226,331,323
1941,-0.34,-0.92,-0.01,2.38,-1.95,-3.23,424,362,226,333,323
1942,-0.36,-0.93,0.02,-2.14,-0.37,-4.03,424,359,228,324,321
1943,-0.35,-0.92,0.0,2.26,-4.76,-1.46,424,357,225,325,329
1944,-0.36,-0.93,0.01,-1.95,-1.71,-3.72,422,361,225,329,318
1945,-0.36,-0.92,-0.01,-1.71,-4.7,-1.53,423,360,226,331,323
1946,-0.36,-0.93,0.02,1.65,-5.98,-0.73,427,360,227,324,317
1947,-0.36,-0.92,0.04,-0.61,-2.32,-2.69,423,358,229,330,322
1948,-0.37,-0.93,0.01,2.01,-4.21,-1.04,426,362,229,327,321
1949,-0.36,-0.93,-0.01,0.0,-3.91,-1.77,422,362,230,325,318
1950,-0.36,-0.92,-0.03,0.43,-3.36,-3.36,426,364,220,324,321
1951,-0.35,-0.94,0.03,0.61,-2.38,-3.36,426,360,228,330,321
1952,-0.36,-0.92,-0.0,0.06,-2.69,-2.81,426,361,224,325,322
1953,-0.36,-0.92,-0.0,0.06,-2.87,-2.56,426,360,224,326,322
1954,-0.35,-0.92,-0.01,-0.92,-2.99,-2.08,426,364,222,328,322
1955,-0.36,-0.93,0.0,0.61,-3.6,-2.93,424,363,232,320,322
1956,-0.36,-0.93,-0.02,-0.61,-2.81,-2.56,427,358,226,322,322
1957,-0.35,-0.93,-0.02,-0.06,-3.17,-2.75,424,362,224,321,323
1958,-0.36,-0.93,-0.02,0.06,-1.89,-2.81,428,361,227,322,322
1959,-0.35,-0.93,-0.02,0.79,-2.2,-3.23,425,361,232,325,322
1960,-0.37,-0.93,-0.03,0.43,-3.11,-2.14,427,361,231,328,322
1961,-0.36,-0.93,-0.04,1.71,-3.78,-1.59,428,361,228,325,322
1962,-0.34,-0.93,-0.02,-0.85,-2.32,-3.6,425,359,228,321,324
1963,-0.34,-0.94,-0.01,1.16,-2.08,-3.91,424,363,228,324,318
1964,-0.34,-0.92,-0.02,0.18,-3.11,-2.93,421,362,229,326,322
1965,-0.34,-0.93,-0.03,0.73,-1.16,-3.48,422,363,226,321,320
1966,-0.34,-0.93,-0.04,1.4,-4.09,-2.56,425,360,227,340,323
1967,-0.36,-0.92,-0.03,-0.85,-2.14,-3.48,424,357,229,325,316
1968,-0.33,-0.94,-0.03,2.08,-5.62,-0.31,426,360,229,326,321
1969,-0.35,-0.92,-0.0,-0.31,-4.03,-3.54,427,363,233,322,323
1970,-0.36,-0.92,-0.0,-1.65,-2.99,-2.01,424,363,224,324,323
1971,-0.35,-0.92,-0.0,2.01,-2.14,-2.14,424,361,230,323,319
1972,-0.36,-0.93,-0.01,0.49,-3.42,-2.81,425,361,235,324,325
1973,-0.36,-0.93,-0.02,1.16,-4.39,-2.44,424,358,227,328,327
1974,-0.34,-0.92,-0.03,2.08,-3.54,-3.36,426,361,229,324,324
1975,-0.35,-0.92,-0.01,-0.98,-2.44,-2.75,425,361,222,323,326
1976,-0.35,-0.93,-0.03,-0.55,-2.32,-2.99,423,361,223,325,325
1977,-0.36,-0.92,-0.01,-2.2,-1.95,-2.5,426,359,225,328,323
1978,-0.33,-0.92,0.02,2.2,-5.0,-2.56,424,361,225,330,325
1979,-0.36,-0.93,-0.0,0.12,-3.48,-2.01,425,360,224,330,326
1980,-0.36,-0.93,-0.01,1.4,-1.77,-2.32,422,363,228,325,337
1981,-0.35,-0.92,-0.01,0.37,-1.16,-3.05,452,362,222,325,325
1982,-0.36,-0.92,-0.01,0.06,-0.85,-2.81,425,363,225,328,324
1983,-0.36,-0.92,-0.01,0.0,-2.2,-2.56,423,360,225,324,324
1984,-0.35,-0.93,-0.01,0.06,-3.11,-2.2,422,361,225,316,323
1985,-0.36,-0.93,-0.0,-1.16,-1.65,-2.93,421,362,223,322,324
1986,-0.35,-0.93,-0.01,-1.71,-0.55,-2.93,421,360,222,329,321
1987,-0.34,-0.92,-0.03,0.24,-2.99,-2.56,428,366,225,317,317
1988,-0.34,-0.93,-0.0,1.59,-2.44,-2.56,429,362,228,325,325
1989,-0.35,-0.92,-0.04,-0.12,-6.16,-1.22,433,360,225,325,323
1990,-0.35,-0.93,-0.02,0.0,-2.56,-2.81,432,368,223,328,322
1991,-0.35,-0.92,-0.02,0.06,-3.3,-3.17,430,362,220,324,321
1992,-0.35,-0.93,-0.02,1.04,-2.99,-2.5,427,366,227,320,322
1993,-0.35,-0.93,-0.01,0.31,-2.69,-1.71,429,364,228,327,328
1994,-0.35,-0.93,-0.02,-0.55,-3.17,-2.62,430,368,228,330,322
1995,-0.35,-0.93,-0.01,1.1,-3.05,-3.3,428,369,225,325,321
1996,-0.34,-0.93,-0.03,-0.12,-1.71,-2.62,424,367,224,328,314
1997,-0.35,-0.93,-0.01,0.79,-2.5,-2.5,427,365,226,327,319
1998,-0.34,-0.93,-0.02,-0.18,-3.11,-2.62,428,361,230,324,324
1999,-0.35,-0.93,-0.01,0.67,-3.05,-2.44,430,367,223,322,321
2000,-0.35,-0.93,-0.01,0.67,-3.97,-1.59,430,365,224,329,322
2001,-0.35,-0.93,-0.02,2.2,-4.21,-2.01,431,368,228,327,323
2002,-0.35,-0.93,-0.03,0.55,-3.36,-1.22,428,365,229,323,322
2003,-0.35,-0.93,-0.02,0.67,-2.87,-2.32,428,364,226,328,323
2004,-0.35,-0.93,-0.01,1.22,-2.99,-2.5,432,368,224,329,320
2005,-0.35,-0.92,-0.01,0.43,-2.87,-2.81,429,366,226,325,322
2006,-0.35,-0.93,-0.01,0.92,-2.99,-2.32,430,365,229,328,321
2007,-0.35,-0.93,-0.0,-1.59,-2.56,-3.42,428,367,224,326,319
